gyro_time_list,gyro_x_list,gyro_y_list,gyro_z_list
0.0,0.1,0.2,0.1
0.007998033431661751,-0.1,0.08330055719436255,0.08330055719436255
0.015996066863323503,-0.1,0.1,0.09396890787644527
0.023994100294985256,-0.1,0.1,0.0870740514698403
0.031992133726647005,-0.1,0.1,0.08017919506323534
0.039990167158308755,-0.1,0.1,0.0732843386566304
0.04798820058997051,-0.1,0.1,0.06638948225002542
0.05598623402163226,-0.1,0.1,0.05949462584342047
0.06398426745329401,-0.1,0.1,0.05259976943681551
0.07198230088495576,-0.1,0.1,0.04570491303021055
0.07998033431661751,-0.1,0.1,0.03881005662360559
0.08797836774827926,-0.1,0.1,0.03191520021700063
0.09597640117994102,-0.1,0.1,0.025020343810395668
0.10397443461160277,-0.1,0.1,0.018125487403790705
0.11197246804326452,-0.1,0.1,0.011230630997185756
0.11997050147492627,-0.1,0.1,0.004335774590580793
0.12796853490658802,-0.1,0.0015732546705990447,0.0
0.13596656833824977,-0.09426291505937523,0.1,0.0
0.14396460176991152,-0.086572498298162,0.1,0.0
0.15196263520157327,-0.07888208153694878,0.1,0.0
0.15996066863323502,-0.07119166477573557,0.1,0.0
0.16795870206489677,-0.06350124801452235,0.1,0.0
0.17595673549655852,-0.05581083125330913,0.1,0.0
0.18395476892822027,-0.04812041449209591,0.1,0.0
0.19195280235988205,-0.04042999773088266,0.1,0.0
0.1999508357915438,-0.032739580969669446,0.1,0.0
0.20794886922320555,-0.025049164208456223,0.1,0.0
0.2159469026548673,-0.017358747447243,0.1,0.0
0.22394493608652905,-0.009668330686029777,0.1,0.0
0.2319429695181908,-0.0019779139248165684,0.1,0.0
0.23994100294985254,0.0,0.0,0.0
0.2479390363815143,0.0,0.0,0.0
0.25593706981317604,0.0,0.0,0.0
0.2639351032448378,0.0,0.0,0.0
0.27193313667649954,0.0,0.0,0.0
0.2799311701081613,0.0,0.0,0.0
0.28792920353982304,0.0,0.0,0.0
0.2959272369714848,0.0,0.0,0.0
0.30392527040314654,0.0,0.0,0.0
0.3119233038348083,0.0,0.0,0.0
0.31992133726647004,0.0,0.0,0.0
0.3279193706981318,0.0,0.0,0.0
0.33591740412979354,0.0,0.0,0.0
0.3439154375614553,0.0,0.09577187807276712,0.0
0.35191347099311704,0.0,0.01207254452092156,0.0
0.3599115044247788,0.0,0.0,0.0
0.36790953785644054,0.0,0.0,0.0
0.3759075712881023,0.0,0.0,0.0
0.3839056047197641,0.0,0.0,0.0
0.3919036381514258,0.0,0.0,0.0
0.3999016715830876,0.0,0.0,0.0
0.4078997050147493,0.0,0.0,0.0
0.4158977384464111,0.0,0.0,0.0
0.4238957718780728,0.0,0.0,0.0
0.4318938053097346,-0.1,0.0,0.0
0.4398918387413963,-0.08501774186652976,0.0,0.1
0.4478898721730581,-0.06763071266726503,0.0,0.1
0.4558879056047198,-0.05024368346800042,0.0,0.1
0.4638859390363816,-0.032856654268735686,0.0,0.1
0.4718839724680433,-0.015469625069471082,0.0,0.1
0.4798820058997051,0.0019174041297936456,0.0,0.1
0.4878800393313668,0.019304433329058263,0.0,0.1
0.4958780727630286,0.03669146252832298,0.0,0.1
0.5038761061946904,0.05407849172758772,0.0,0.1
0.5118741396263521,0.07146552092685232,0.0,0.1
0.5198721730580138,0.08885255012611692,0.0,0.1
0.5278702064896756,-0.09351032448378085,0.09351032448378085,0.1
0.5358682399213374,-0.10722972623298668,0.2072297262329867,0.1
0.5438662733529991,-0.1156487087926306,0.2156487087926306,0.1
0.5518643067846608,-0.12406769135227452,0.22406769135227453,0.1
0.5598623402163226,-0.13248667391191857,0.23248667391191857,0.1
0.5678603736479844,-0.14090565647156247,0.24090565647156248,0.1
0.5758584070796461,-0.1493246390312064,0.24932463903120639,0.1
0.5838564405113078,-0.1577436215908503,0.2577436215908503,0.1
0.5918544739429696,-0.16616260415049436,0.26616260415049436,0.1
0.5998525073746314,-0.1745815867101383,0.27458158671013827,0.1
0.6078505408062931,-0.1830005692697822,0.2830005692697822,0.1
0.6158485742379548,-0.1914195518294261,0.29141955182942614,0.1
0.6238466076696166,-0.19983853438907018,0.29983853438907015,0.1
0.6318446411012784,-0.3922320550639177,0.3,0.1
0.6398426745329401,-0.5243444772205836,0.41217223861029184,0.1
0.6478407079646019,-0.5576696165191746,0.4288348082595873,0.1
0.6558387413962636,-0.5909947558177652,0.44549737790888255,0.1
0.6638367748279254,-0.6243198951163557,0.46215994755817785,0.1
0.6718348082595871,-0.6576450344149462,0.4788225172074731,0.1
0.6798328416912489,-0.6909701737135372,0.49548508685676856,0.1
0.6878308751229106,-0.7242953130121277,0.5121476565060639,0.1
0.6958289085545724,-0.7576204523107182,0.5288102261553591,0.1
0.7038269419862341,-0.7909455916093087,0.5454727958046544,0.1
0.7118249754178959,-0.8242707309078997,0.5621353654539498,0.1
0.7198230088495576,-0.8575958702064902,0.5787979351032451,0.1
0.7278210422812194,-0.8909210095050808,0.5954605047525403,0.1
0.7358190757128811,-0.8236184857423782,0.5,0.1
0.7438171091445429,-0.6394296951819028,0.4798098983939676,0.1
0.7518151425762046,-0.39565257292690864,0.4,0.09891314323172716
0.7598131760078664,-0.3529963946247128,0.4,0.0882490986561782
0.7678112094395282,-0.3103402163225163,0.4,0.07758505408062907
0.7758092428711899,-0.2676840380203204,0.4,0.0669210095050801
0.7838072763028516,-0.22502785971812456,0.4,0.05625696492953114
0.7918053097345134,-0.1823716814159287,0.4,0.04559292035398217
0.7998033431661752,-0.1397155031137322,0.4,0.03492887577843305
0.8078013765978369,-0.09705932481153634,0.4,0.024264831202884085
0.8157994100294986,-0.05440314650934047,0.4,0.013600786627335118
0.8237974434611604,-0.011746968207144604,0.4,0.002936742051786151
0.8317954768928222,-1.5047728613569333,0.5992045231071778,0.1992045231071778
0.8397935103244839,-1.5527610619469037,0.591206489675516,0.19120648967551607
0.8477915437561456,-1.600749262536874,0.5832084562438543,0.18320845624385435
0.8557895771878073,-1.648737463126844,0.5752104228121926,0.17521042281219265
0.8637876106194692,-1.696725663716815,0.5672123893805308,0.16721238938053082
0.8717856440511309,-1.7447138643067854,0.559214355948869,0.1592143559488691
0.8797836774827926,-1.7927020648967558,0.5512163225172073,0.15121632251720737
0.8877817109144543,-1.840690265486726,0.5432182890855457,0.14321828908554568
0.8957797443461162,-1.888678466076697,0.5352202556538839,0.13522025565388385
0.9037777777777779,-1.9366666666666674,0.5272222222222221,0.12722222222222213
0.9117758112094396,-1.9846548672566375,0.5192241887905604,0.11922418879056042
0.9197738446411015,-2.0326430678466085,0.5112261553588986,0.11122615535889858
0.9277718780727632,-2.080631268436579,0.5032281219272369,0.10322812192723686
0.9357699115044249,-1.1150442477875768,0.22300884955751535,0.0
0.9437679449360866,-0.9509392951405058,0.1754696475702529,0.0
0.9517659783677485,-0.9004253997826416,0.15021269989132077,0.0
0.9597640117994102,-0.8499115044247779,0.12495575221238898,0.0
0.9677620452310719,-0.7993976090669144,0.09969880453345718,0.0
0.9757600786627336,-0.7488837137090508,0.0744418568545254,0.0
0.9837581120943955,-0.6983698183511865,0.04918490917559326,0.0
0.9917561455260572,-0.647855922993323,0.02392796149666146,0.0
0.9997541789577189,-0.5973420276354593,-0.001328986182270342,0.0
1.0077522123893807,-0.5468281322775951,-0.026585933861202476,0.0
1.0157502458210423,-0.4963142369197322,-0.051842881540133945,0.0
1.0237482792527042,-0.4458003415618679,-0.07709982921906605,0.0
1.031746312684366,-0.325368731563391,-0.1373156342183045,-0.03731563421830449
1.0397443461160276,-0.10363528749128892,-0.30363528749128893,-0.10363528749128892
1.0477423795476895,-0.11140036849290236,-0.31140036849290237,-0.11140036849290236
1.0557404129793513,-0.1191654494945158,-0.31916544949451575,-0.1191654494945158
1.063738446411013,-0.126930530496129,-0.32693053049612897,-0.126930530496129
1.0717364798426747,-0.13469561149774245,-0.3346956114977424,-0.13469561149774245
1.0797345132743363,-0.14246069249935567,-0.3424606924993556,-0.14246069249935567
1.0877325467059982,-0.15022577350096908,-0.35022577350096906,-0.15022577350096908
1.09573058013766,-0.15799085450258252,-0.3579908545025825,-0.15799085450258252
1.1037286135693216,-0.16575593550419573,-0.3657559355041957,-0.16575593550419573
1.1117266470009834,-0.17352101650580914,-0.37352101650580916,-0.17352101650580914
1.1197246804326453,-0.18128609750742258,-0.3812860975074226,-0.18128609750742258
1.127722713864307,-0.1890511785090358,-0.3890511785090358,-0.1890511785090358
1.1357207472959687,-0.19681625951064924,-0.39681625951064925,-0.19681625951064924
1.1437187807276303,-0.4371878072763043,-0.4,-0.23718780727630429
1.1517168141592922,-0.5991466498103665,-0.4,-0.2991466498103665
1.159714847590954,-0.5896251814393405,-0.4,-0.2896251814393405
1.1677128810226156,-0.5801037130683148,-0.4,-0.2801037130683148
1.1757109144542774,-0.5705822446972888,-0.4,-0.2705822446972888
1.1837089478859393,-0.5610607763262628,-0.4,-0.26106077632626284
1.1917069813176009,-0.5515393079552371,-0.4,-0.2515393079552371
1.1997050147492627,-0.5420178395842111,-0.4,-0.24201783958421114
1.2077030481809246,-0.5324963712131852,-0.4,-0.23249637121318514
1.2157010816125862,-0.5229749028421594,-0.4,-0.22297490284215943
1.223699115044248,-0.5134534344711335,-0.4,-0.21345343447113346
1.2316971484759096,-0.5039319661001077,-0.4,-0.20393196610010772
1.2396951819075714,-0.16609636184857174,-0.16609636184857174,-0.1
1.2476932153392333,-0.08869104737534175,-0.08869104737534175,-0.09434552368767088
1.2556912487708949,-0.0694186776604945,-0.0694186776604945,-0.08470933883024725
1.2636892822025567,-0.050146307945646694,-0.050146307945646694,-0.07507315397282335
1.2716873156342186,-0.030873938230798897,-0.030873938230798897,-0.06543696911539945
1.2796853490658802,-0.011601568515951635,-0.011601568515951635,-0.05580078425797582
1.287683382497542,0.007670801198896168,0.007670801198896168,-0.04616459940055192
1.2956814159292038,0.026943170913743958,0.026943170913743958,-0.036528414543128024
1.3036794493608654,0.046215540628591234,0.046215540628591234,-0.026892229685704386
1.3116774827925273,0.06548791034343904,0.06548791034343904,-0.017256044828280484
1.3196755162241889,0.08476028005828629,0.08476028005828629,-0.00761985997085686
1.3276735496558507,0.1,0.1,0.1
1.3356715830875125,0.1,0.1,0.01660521140609271
1.3436696165191742,0.09290466327747428,0.1,0.0
1.351667649950836,0.08439611707357872,0.1,0.0
1.3596656833824978,0.07588757086968316,0.1,0.0
1.3676637168141594,0.06737902466578782,0.1,0.0
1.3756617502458213,0.05887047846189227,0.1,0.0
1.3836597836774829,0.05036193225799695,0.1,0.0
1.3916578171091447,0.04185338605410139,0.1,0.0
1.3996558505408065,0.033344839850205824,0.1,0.0
1.4076538839724682,0.0248362936463105,0.1,0.0
1.41565191740413,0.01632774744241494,0.1,0.0
1.4236499508357918,0.007819201238519383,0.1,0.0
1.4316479842674534,0.0,0.1,0.0
1.4396460176991153,0.0,0.0,0.0
1.447644051130777,0.0,0.0,0.0
1.4556420845624387,0.0,0.0,0.0
1.4636401179941005,0.0,0.0,0.0
1.4716381514257622,0.0,0.0,0.0
1.479636184857424,0.0,0.0,0.0
1.4876342182890858,0.0,0.0,0.0
1.4956322517207474,0.0,0.0,0.0
1.5036302851524093,0.0,0.0,0.0
1.511628318584071,0.0,0.0,0.0
1.5196263520157327,0.0,0.0,0.0
1.5276243854473945,0.0,0.0,0.0
1.5356224188790564,0.0,0.0,0.0
1.543620452310718,0.0,0.0,0.0
1.5516184857423798,0.0,0.0,0.0
1.5596165191740414,0.0,0.0,0.0
1.5676145526057033,0.0,0.0,0.0
1.575612586037365,0.0,0.0,0.0
1.5836106194690267,0.0,0.0,0.0
1.5916086529006885,0.0,0.0,0.0
1.5996066863323504,0.0,0.0,0.0
1.607604719764012,0.0,0.0,0.0
1.6156027531956738,0.0,0.0,0.0
1.6236007866273354,0.0,0.0,0.0
1.6315988200589973,0.0,0.0,0.0
1.639596853490659,0.0,0.0,0.0
1.6475948869223207,0.0,0.0,0.0
1.6555929203539825,-0.001966568338250142,0.0,0.0
1.6635909537856444,-0.011840683685980779,0.0,0.0
1.671588987217306,-0.02171479903371114,0.0,0.0
1.6795870206489678,-0.03158891438144178,0.0,0.0
1.6875850540806296,-0.041463029729172415,0.0,0.0
1.6955830875122913,-0.051337145076902777,0.0,0.0
1.703581120943953,-0.06121126042463341,0.0,0.0
1.7115791543756147,-0.07108537577236378,0.0,0.0
1.7195771878072765,-0.0809594911200944,0.0,0.0
1.7275752212389384,-0.09083360646782504,0.0,0.0
1.7355732546706,-0.07133726647000621,0.0,0.0
1.7435712881022618,0.0,0.0,0.1
1.7515693215339236,0.0,0.0,0.1
1.7595673549655853,0.0,0.0,0.1
1.767565388397247,0.0,0.0,0.1
1.7755634218289087,0.0,0.0,0.1
1.7835614552605705,0.0,0.0,0.1
1.7915594886922324,0.0,0.0,0.1
1.799557522123894,0.0,0.0,0.1
1.8075555555555558,0.0,0.0,0.1
1.8155535889872176,0.0,0.0,0.1
1.8235516224188792,0.0,0.0,0.1
1.831549655850541,0.0,0.0,0.1
1.839547689282203,0.0038869139164127773,0.0038869139164127773,0.1
1.8475457227138645,0.010722839926379967,0.010722839926379967,0.1
1.8555437561455264,0.017558765936347347,0.017558765936347347,0.1
1.863541789577188,0.024394691946314537,0.024394691946314537,0.1
1.8715398230088498,0.031230617956281913,0.031230617956281913,0.1
1.8795378564405116,0.03806654396624929,0.03806654396624929,0.1
1.8875358898721732,0.04490246997621648,0.04490246997621648,0.1
1.895533923303835,0.05173839598618386,0.05173839598618386,0.1
1.903531956735497,0.05857432199615124,0.05857432199615124,0.1
1.9115299901671585,0.06541024800611843,0.06541024800611843,0.1
1.9195280235988204,0.07224617401608581,0.07224617401608581,0.1
1.9275260570304822,0.07908210002605319,0.07908210002605319,0.1
1.9355240904621438,0.08591802603602038,0.08591802603602038,0.1
1.9435221238938056,0.09275395204598776,0.09275395204598776,0.1
1.9515201573254672,0.09958987805595494,0.09958987805595494,0.1
1.959518190757129,0.0,0.1,0.1
1.967516224188791,0.0,0.1,0.1
1.9755142576204525,0.0,0.1,0.1
1.9835122910521144,0.0,0.1,0.1
1.9915103244837762,0.0,0.1,0.1
1.9995083579154378,0.0,0.1,0.1
2.0075063913470994,0.0,0.1,0.1
2.0155044247787615,0.0,0.1,0.1
2.023502458210423,0.0,0.1,0.1
2.0315004916420847,0.0,0.1,0.1
2.0394985250737467,0.0,0.1,0.10268658610080303
2.0474965585054083,0.0,0.1,0.11128662204882628
2.05549459193707,0.0,0.1,0.11988665799684951
2.063492625368732,0.0,0.1,0.12848669394487322
2.0714906588003936,0.0,0.1,0.13708672989289647
2.0794886922320552,0.0,0.1,0.14568676584091972
2.0874867256637173,0.0,0.1,0.15428680178894344
2.095484759095379,0.0,0.1,0.16288683773696666
2.1034827925270405,0.0,0.1,0.1714868736849899
2.1114808259587026,0.0,0.1,0.18008690963301363
2.119478859390364,0.0,0.1,0.18868694558103688
2.127476892822026,0.0,0.1,0.1972869815290601
2.1354749262536874,0.0,0.1,0.2
2.1434729596853495,0.00547295968534955,0.1,0.2
2.151470993117011,0.013470993117011155,0.1,0.2
2.1594690265486727,0.02146902654867276,0.1,0.2
2.1674670599803347,0.029467059980334807,0.1,0.2
2.1754650934119963,0.037465093411996414,0.1,0.2
2.183463126843658,0.04546312684365802,0.1,0.2
2.19146116027532,0.053461160275320066,0.1,0.2
2.1994591937069816,0.06145919370698167,0.1,0.2
2.2074572271386432,0.06945722713864327,0.1,0.2
2.2154552605703053,0.07745526057030533,0.1,0.2
2.223453294001967,0.08545329400196693,0.1,0.2
2.2314513274336285,0.09345132743362854,0.1,0.2
2.2394493608652906,0.1,0.1,0.2
2.247447394296952,0.027630285152399306,0.2,0.2
2.255445427728614,0.0,0.2,0.2
2.263443461160276,0.0,0.2,0.2
2.2714414945919374,0.0,0.2,0.2
2.279439528023599,0.0,0.2,0.2
2.2874375614552607,0.0,0.2,0.2
2.2954355948869227,0.0,0.2,0.2
2.3034336283185843,0.0,0.2,0.2
2.311431661750246,0.0,0.2,0.2
2.319429695181908,0.0,0.2,0.2
2.3274277286135696,0.0,0.2,0.2
2.3354257620452312,0.1,0.2,0.2004529383459907
2.3434237954768933,0.1,0.2,0.20896148454988653
2.351421828908555,0.1,0.2,0.21747003075378188
2.3594198623402165,0.1,0.2,0.2259785769576772
2.3674178957718786,0.1,0.2,0.23448712316157302
2.37541592920354,0.1,0.2,0.24299566936546835
2.3834139626352018,0.1,0.2,0.2515042155693637
2.391411996066864,0.1,0.2,0.2600127617732595
2.3994100294985254,0.1,0.2,0.26852130797715484
2.407408062930187,0.1,0.2,0.2770298541810502
2.415406096361849,0.1,0.2,0.28553840038494605
2.4234041297935107,0.1,0.2,0.29404694658884134
2.4314021632251723,0.1,0.2,0.3
2.4394001966568344,0.1,0.2,0.3
2.447398230088496,0.1,0.2,0.3
2.4553962635201576,0.1,0.2,0.3
2.463394296951819,0.1,0.2,0.3
2.4713923303834813,0.1,0.2,0.3
2.479390363815143,0.1,0.2,0.3
2.4873883972468045,0.1,0.2,0.3
2.4953864306784665,0.1,0.2,0.3
2.503384464110128,0.1,0.2,0.3
2.5113824975417898,0.1,0.2,0.3
2.519380530973452,0.1,0.2,0.3
2.5273785644051134,0.1,0.2,0.3
2.535376597836775,0.0,0.2,0.4
2.543374631268437,0.0,0.2,0.4
2.5513726647000987,0.0,0.2,0.4
2.5593706981317603,0.0,0.2,0.4
2.5673687315634224,0.0,0.2,0.4
2.575366764995084,0.0,0.2,0.4
2.5833647984267456,0.0,0.2,0.4
2.5913628318584077,0.0,0.2,0.4
2.5993608652900693,0.0,0.2,0.4
2.607358898721731,0.0,0.2,0.4
2.6153569321533925,0.0,0.2,0.4
2.6233549655850545,0.0,0.2,0.4
2.631352999016716,0.0,0.2,0.4
2.6393510324483778,0.0,0.2,0.4
2.64734906588004,0.0,0.2,0.4
2.6553470993117014,0.0,0.2,0.4
2.663345132743363,0.10203807991418654,0.3,0.4
2.671343166175025,0.11415631238640173,0.3,0.4
2.6793411996066867,0.12627454485861622,0.3,0.4
2.6873392330383483,0.13839277733083075,0.3,0.4
2.6953372664700104,0.15051100980304594,0.3,0.4
2.703335299901672,0.16262924227526043,0.3,0.4
2.7113333333333336,0.17474747474747493,0.3,0.4
2.7193313667649956,0.18686570721969015,0.3,0.4
2.7273294001966573,0.19898393969190464,0.3,0.4
2.735327433628319,0.3,0.4,0.4
2.743325467059981,0.3,0.4,0.4
2.7513235004916425,0.3,0.4,0.4
2.759321533923304,0.3,0.4,0.4
2.7673195673549658,0.3,0.4,0.4
2.775317600786628,0.3,0.4,0.4
2.7833156342182894,0.3,0.4,0.4
2.791313667649951,0.3,0.4,0.4
2.799311701081613,0.3,0.4,0.4
2.8073097345132747,0.3,0.4,0.4
2.8153077679449363,0.3,0.4,0.4
2.8233058013765984,0.3,0.4,0.4
2.83130383480826,0.4,0.4,0.4
2.8393018682399216,0.4,0.4,0.4
2.8472999016715836,0.4,0.4,0.4
2.8552979351032453,0.4,0.4,0.4
2.863295968534907,0.4,0.4,0.4
2.871294001966569,0.4,0.4,0.4
2.8792920353982305,0.4,0.4,0.4
2.887290068829892,0.4,0.4,0.4
2.895288102261554,0.4,0.4,0.4
2.903286135693216,0.4,0.4,0.4
2.9112841691248774,0.4,0.4,0.4
2.919282202556539,0.4,0.4,0.4
2.927280235988201,0.4,0.4,0.4
2.9352782694198627,0.3,0.3,0.2
2.9432763028515243,0.3,0.3,0.2
2.9512743362831864,0.3,0.3,0.2
2.959272369714848,0.3,0.3,0.2
2.9672704031465096,0.3,0.3,0.2
2.9752684365781716,0.3,0.3,0.2
2.9832664700098332,0.3,0.3,0.2
2.991264503441495,0.3,0.3,0.2
2.999262536873157,0.3,0.3,0.2
3.0072605703048185,0.3,0.3,0.2
3.01525860373648,0.3,0.3,0.2
3.023256637168142,0.3,0.3,0.2
3.031254670599804,0.3,0.3,0.2
3.0392527040314654,0.2249098656178198,0.2249098656178198,0.12490986561781982
3.0472507374631275,0.2,0.262507374631274,0.1
3.055248770894789,0.2058202341024506,0.3,0.1
3.0632468043264507,0.21677644428280896,0.3,0.1
3.0712448377581127,0.22773265446316796,0.3,0.1
3.0792428711897744,0.23868886464352634,0.3,0.1
3.087240904621436,0.2496450748238847,0.3,0.1
3.0952389380530976,0.26060128500424307,0.3,0.1
3.1032369714847596,0.27155749518460204,0.3,0.1
3.1112350049164212,0.28251370536496045,0.3,0.1
3.119233038348083,0.2934699155453188,0.3,0.1
3.127231071779745,0.3,0.24614880367091807,0.1
3.1352291052114065,0.3986783814931112,0.3,0.4
3.143227138643068,0.3900783455450879,0.3,0.4
3.15122517207473,0.3814783095970642,0.3,0.4
3.159223205506392,0.37287827364904097,0.3,0.4
3.1672212389380534,0.36427823770101775,0.3,0.4
3.1752192723697155,0.355678201752994,0.3,0.4
3.183217305801377,0.34707816580497075,0.3,0.4
3.1912153392330387,0.33847812985694753,0.3,0.4
3.1992133726647007,0.3298780939089238,0.3,0.4
3.2072114060963623,0.3212780579609006,0.3,0.4
3.215209439528024,0.3126780220128773,0.3,0.4
3.223207472959686,0.3040779860648536,0.3,0.4
3.2312055063913476,0.17944936086523147,0.2794493608652315,0.2
3.2392035398230092,0.11734513274336421,0.48843657817109054,0.09421828908554528
3.247201573254671,0.14400524418223629,0.4706631705451758,0.08533158527258791
3.255199606686333,0.17066535562110985,0.4528897629192601,0.07644488145963006
3.2631976401179945,0.19732546705998194,0.43511635529334536,0.0675581776466727
3.271195673549656,0.22398557849885403,0.4173429476674307,0.05867147383371534
3.279193706981318,0.2506456899377276,0.39956954004151496,0.049784770020757485
3.28719174041298,0.27730580137659966,0.38179613241560023,0.04089806620780013
3.2951897738446414,0.30396591281547175,0.36402272478968556,0.03201136239484277
3.3031878072763035,0.3306260242543453,0.34624931716376983,0.023124658581884908
3.311185840707965,0.35728613569321743,0.3284759095378551,0.014237954768927558
3.3191838741396267,0.38394624713208947,0.3107025019119404,0.005351250955970194
3.3271819075712887,0.7579646017699997,0.3,0.0
3.3351799410029503,2.2008735000143225,1.399650599994271,0.7001747000028644
3.343177974434612,2.2396989050223883,1.3841204379910446,0.7079397810044776
3.351176007866274,2.2785243100304564,1.3685902759878175,0.7157048620060913
3.3591740412979356,2.3173497150385227,1.353060113984591,0.7234699430077044
3.3671720747295972,2.3561751200465886,1.3375299519813646,0.7312350240093176
3.3751701081612593,2.3950005250546567,1.3219997899781373,0.7390001050109313
3.383168141592921,2.4338259300627225,1.3064696279749108,0.7467651860125445
3.3911661750245825,2.472651335070789,1.2909394659716846,0.7545302670141577
3.399164208456244,2.5114767400788547,1.2754093039684582,0.7622953480157709
3.407162241887906,2.5503021450869228,1.2598791419652309,0.7700604290173846
3.415160275319568,2.5891275500949886,1.2443489799620044,0.7778255100189977
3.4231583087512294,2.627952955103055,1.228818817958778,0.7855905910206109
3.4311563421828914,2.666778360111123,1.213288655955551,0.7933556720222246
3.439154375614553,2.6615208128482326,0.8921665027858611,0.49216650278586105
3.4471524090462147,2.3265595979460176,0.4683601005134956,0.0
3.4551504424778767,1.52858997050146,0.787398230088493,0.2168023598820094
3.4631484759095383,1.3473012127171307,0.7554060963618466,0.25945853818420456
3.4711465093412,1.1660124549328013,0.7234139626352003,0.3021147164863997
3.479144542772862,0.9847236971484618,0.6914218289085521,0.34477089478859724
3.4871425762045236,0.8034349393641324,0.6594296951819058,0.3874270730907924
3.4951406096361852,0.622146181579803,0.6274375614552594,0.43008325139298753
3.5031386430678473,0.44085742379546344,0.5954454277286112,0.47273942969518506
3.511136676499509,0.25956866601113404,0.5634532940019649,0.5153956079973803
3.5191347099311705,0.07827990822680464,0.5314611602753185,0.5580517862995754
3.5271327433628326,-0.3300884955762226,0.49115044247783757,0.6132743362832436
3.535130776794494,-5.172861356932136,-0.5033923303834831,0.3977384464110113
3.543128810226156,-4.980908554572257,-0.5273864306784679,0.3817423795476881
3.5511268436578174,-4.788955752212378,-0.5513805309734527,0.36574631268436486
3.5591248770894794,-4.59700294985249,-0.5753746312684389,0.3497502458210408
3.567122910521141,-4.405050147492611,-0.5993687315634236,0.3337541789577176
3.5751209439528027,-4.2130973451327325,-0.6233628318584085,0.31775811209439436
3.5831189773844647,-4.021144542772843,-0.6473569321533946,0.3017620452310703
3.5911170108161263,-3.8291917404129645,-0.6713510324483795,0.2857659783677471
3.599115044247788,-3.637238938053086,-0.6953451327433643,0.26976991150442386
3.60711307767945,-3.445286135693197,-0.7193392330383503,0.25377384464109976
3.6151111111111116,-3.2533333333333183,-0.7433333333333352,0.23777777777777656
3.623109144542773,-3.06138053097344,-0.76732743362832,0.22178171091445334
3.6311071779744353,-2.8694277286135508,-0.7913215339233062,0.20578564405112923
3.639105211406097,-6.773647984267803,-1.9315634218290583,-0.810521140609686
3.6471032448377585,-4.52170295979582,-2.413715156938783,-0.9862848430612169
3.6551012782694206,-4.288052544938276,-2.4316882657739787,-0.9683117342260212
3.663099311701082,-4.054402130080746,-2.4496613746091733,-0.9503386253908266
3.6710973451327438,-3.8207517152232158,-2.467634483444368,-0.932365516555632
3.679095378564406,-3.5871013003656724,-2.4856075922795635,-0.9143924077204364
3.6870934119960674,-3.353450885508142,-2.503580701114758,-0.8964192988852417
3.695091445427729,-3.119800470650612,-2.521553809949953,-0.8784461900500471
3.7030894788593907,-2.886150055793082,-2.5395269187851475,-0.8604730812148524
3.7110875122910527,-2.6524996409355386,-2.5575000276203435,-0.8424999723796569
3.7190855457227143,-2.418849226078008,-2.575473136455538,-0.8245268635444623
3.727083579154376,-2.1851988112204777,-2.5934462452907328,-0.8065537547092676
3.735081612586038,1.9224680432637988,-3.816322517207621,3.8020648967542723
3.7430796460176996,-0.039831858407088444,-4.2060796460177,1.439203539823005
3.751077679449361,-0.22378662733530533,-4.214077679449361,1.359223205506389
3.7590757128810233,-0.40774139626353245,-4.222075712881023,1.2792428711897685
3.767073746312685,-0.5916961651917494,-4.2300737463126845,1.1992625368731524
3.7750717797443465,-0.7756509341199663,-4.238071779744346,1.1192822025565365
3.7830698131760085,-0.9596057030481934,-4.246069813176009,1.039301868239916
3.79106784660767,-1.1435604719764103,-4.25406784660767,0.9593215339232999
3.7990658800393318,-1.3275152409046271,-4.262065880039332,0.8793411996066839
3.807063913470994,-1.5114700098328542,-4.2700639134709935,0.7993608652900634
3.8150619469026554,-1.6954247787610712,-4.278061946902655,0.7193805309734473
3.823059980334317,-1.879379547689288,-4.286059980334317,0.6394001966568313
3.831058013765979,-2.063334316617515,-4.294058013765979,0.5594198623402109
3.8390560471976407,-2.4570058997050648,-4.377101769911519,0.6799041297935453
3.8470540806293023,-3.4567600786627652,-4.6770280235988295,1.3797320550639356
3.8550521140609644,1.5407079646038742,2.4578171091446595,5.10521140609644
3.863050147492626,4.887957660940565,2.67257504771821,5.303678639597443
3.8710481809242876,5.78185551506745,2.754907744808844,5.421296778298349
3.879046214355949,6.675753369194335,2.8372404418994783,5.538914916999254
3.8870442477876113,7.569651223321269,2.919573138990117,5.656533055700168
3.895042281219273,8.463549077448155,3.001905836080751,5.774151194401073
3.9030403146509345,9.35744693157504,3.0842385331713853,5.891769333101979
3.9110383480825965,10.251344785701974,3.166571230262024,6.009387471802891
3.919036381514258,11.14524263982886,3.248903927352658,6.127005610503797
3.9270344149459198,16.98107177974416,3.0982792527040144,0.3961283185840322
3.935032448377582,12.538348082594645,2.680530973450941,-0.517846607669971
3.9430304818092434,8.61334222971389,1.4497459849229701,-1.6717914501100428
3.951028515240905,8.365784052067221,1.38309570632579,-1.7670061338203
3.959026548672567,8.118225874420538,1.3164454277286064,-1.8622208175305626
3.9670245821042287,7.87066769677387,1.2497951491314263,-1.9574355012408198
3.9750226155358903,7.623109519127201,1.1831448705342464,-2.052650184951077
3.9830206489675524,7.375551341480518,1.1164945919370626,-2.1478648686613395
3.991018682399214,7.12799316383385,1.0498443133398825,-2.2430795523715963
3.9990167158308756,6.880434986187181,0.9831940347427025,-2.338294236081854
4.007014749262537,6.632876808540512,0.9165437561455225,-2.4335089197921107
4.015012782694199,6.385318630893844,0.8498934775483424,-2.5287236035023684
4.023010816125861,3.6362094395269984,0.34756637168123494,-2.7508112094395885
4.031008849557523,-1.0270130552878507,-0.3158766319109813,-2.34046263033382
4.0390068829891845,-1.2804160947068324,-0.34755201183835405,-2.2216799556061724
4.047004916420846,-1.5338191341258143,-0.37922739176572673,-2.1028972808785245
4.055002949852508,-1.787222173544796,-0.41090277169309947,-1.9841146061508768
4.063000983284169,-2.0406252129637776,-0.4425781516204722,-1.865331931423229
4.070999016715832,-2.2940282523827875,-0.47425353154784844,-1.7465492566955683
4.0789970501474935,-2.5474312918017694,-0.5059289114752211,-1.6277665819679203
4.086995083579155,-2.8008343312207513,-0.5376042914025939,-1.5089839072402729
4.094993117010817,-3.0542373706397328,-0.5692796713299666,-1.390201232512625
4.102991150442478,-3.3076404100587147,-0.6009550512573394,-1.2714185577849773
4.11098918387414,-3.561043449477696,-0.632630431184712,-1.1526358830573296
4.1189872173058015,-3.814446488896678,-0.6643058111120848,-1.0338532083296819
4.126985250737464,-4.067849528315688,-0.695981191039461,-0.9150705336020211
4.134983284169126,-3.500945465547236,-1.0009454655472358,-0.9990545344527642
4.142981317600787,-3.508635882308449,-1.008635882308449,-0.9913641176915511
4.150979351032449,-3.516326299069662,-1.016326299069662,-0.983673700930338
4.1589773844641105,-3.524016715830875,-1.024016715830875,-0.9759832841691249
4.166975417895772,-3.5317071325920883,-1.0317071325920881,-0.9682928674079119
4.174973451327435,-3.539397549353302,-1.039397549353302,-0.9606024506466979
4.182971484759096,-3.5470879661145154,-1.0470879661145152,-0.9529120338854848
4.190969518190758,-3.5547783828757282,-1.0547783828757282,-0.9452216171242718
4.198967551622419,-3.5624687996369415,-1.0624687996369415,-0.9375312003630587
4.206965585054081,-3.5701592163981544,-1.0701592163981546,-0.9298407836018456
4.214963618485743,-3.5778496331593677,-1.0778496331593677,-0.9221503668406325
4.222961651917405,-3.5855400499205814,-1.0855400499205816,-0.9144599500794186
4.230959685349067,-3.5932304666817947,-1.0932304666817947,-0.9067695333182055
4.238957718780728,-3.4563421828907956,-1.1957718780728028,-0.9
4.24695575221239,-1.150040225261372,-1.6794046661303461,-0.3941271118262052
4.254953785644052,3.0132012543516993,-3.0947194982593205,0.9052805017406796
4.262951819075713,3.0672420207818454,-3.0731031916872618,0.9268968083127381
4.270949852507375,3.1212827872119915,-3.0514868851152035,0.9485131148847966
4.278947885939037,3.1753235536421434,-3.0298705785431426,0.9701294214568574
4.286945919370699,3.2293643200722895,-3.0082542719710843,0.9917457280289159
4.2949439528023605,3.2834050865024356,-2.9866379653990256,1.0133620346009744
4.302941986234022,3.337445852932582,-2.9650216588269673,1.034978341173033
4.310940019665684,3.391486619362728,-2.9434053522549086,1.0565946477450914
4.318938053097345,3.4455273857928743,-2.9217890456828504,1.0782109543171496
4.326936086529008,3.499568152223026,-2.9001727391107894,1.0998272608892106
4.3349341199606695,1.9873504588659294,1.1,-0.2980539167486045
4.342932153392331,1.8790437561455118,1.1,-0.2813913470993095
4.350930186823993,1.7707370534250941,1.1,-0.2647287774500145
4.358928220255654,1.6624303507046767,1.1,-0.24806620780071947
4.366926253687316,1.554123647984259,1.1,-0.23140363815142448
4.374924287118978,1.4458169452638296,1.1,-0.21474106850212762
4.38292232055064,1.337510242543412,1.1,-0.19807849885283263
4.390920353982302,1.2292035398229944,1.1,-0.1814159292035376
4.398918387413963,1.120896837102577,1.1,-0.1647533595542426
4.406916420845625,1.0125901343821593,1.1,-0.1480907899049476
4.4149144542772865,0.9042834316617419,1.1,-0.1314282202556526
4.422912487708948,0.7959767289413242,1.1,-0.1147656506063576
4.430910521140611,-0.3015732546716048,1.2365781710915824,-0.19105211406105496
4.438908554572272,0.027265065318170256,0.5916107491328707,0.10209731271678234
4.446906588003934,0.14152268577047986,0.5564545582244678,0.11088636044388307
4.454904621435595,0.25578030622278947,0.5212983673160647,0.11967540817098381
4.462902654867257,0.37003792667509905,0.48614217640766183,0.12846445589808456
4.470900688298919,0.48429554712740863,0.45098598549925883,0.1372535036251853
4.478898721730581,0.598553167579731,0.415829794590852,0.146042551352287
4.486896755162243,0.7128107880320406,0.38067360368244907,0.15483159907938776
4.494894788593904,0.8270684084843501,0.34551741277404613,0.16362064680648847
4.502892822025566,0.9413260289366597,0.31036122186564313,0.17240969453358923
4.510890855457228,1.0555836493889694,0.2752050309572402,0.18119874226068997
4.518888888888889,1.169841269841279,0.24004884004883725,0.1899877899877907
4.526886922320552,1.2840988902936012,0.20489264914043043,0.1987768377148924
4.534884955752213,-0.48584070796506906,-0.16814159292038994,0.1
4.542882989183875,-1.8155840080336427,-0.1948053306554525,0.09480533065545248
4.5508810226155365,-1.8411096466453287,-0.18629678445155712,0.0862967844515571
4.558879056047198,-1.866635285257015,-0.1777882382476617,0.0777882382476617
4.56687708947886,-1.8921609238687012,-0.16927969204376633,0.06927969204376633
4.574875122910521,-1.9176865624803872,-0.16077114583987095,0.06077114583987095
4.582873156342184,-1.9432122010920763,-0.15226259963597463,0.05226259963597462
4.5908711897738455,-1.9687378397037625,-0.14375405343207925,0.043754053432079235
4.598869223205507,-1.9942634783154485,-0.13524550722818385,0.035245507228183856
4.606867256637169,-2.019789116927135,-0.12673696102428847,0.026736961024288464
4.61486529006883,-2.0453147555388207,-0.11822841482039309,0.018228414820393085
4.622863323500492,-2.070840394150507,-0.1097198686164977,0.009719868616497693
4.630861356932154,-2.0963660327621962,-0.10121132241260138,0.0012113224126013705
4.638859390363816,-2.168593903638159,-0.03140609636184133,-0.13718780727631735
4.646857423795478,-0.9370698131758837,0.048574237954773704,-0.2
4.654855457227139,0.5749262536873023,0.0,-0.3949852507374605
4.662853490658801,0.46684472082701134,0.0,-0.3733689441654023
4.6708515240904624,0.35876318796672035,0.0,-0.3517526375933441
4.678849557522125,0.25068165510641743,0.0,-0.3301363310212835
4.686847590953787,0.14260012224612645,0.0,-0.3085200244492253
4.694845624385448,0.03451858938583552,0.0,-0.2869037178771671
4.70284365781711,-0.07356294347445547,0.0,-0.2652874113051089
4.710841691248771,-0.18164447633474645,0.0,-0.24367110473305073
4.718839724680433,-0.28972600919503744,0.0,-0.22205479816099255
4.726837758112095,-0.3978075420553283,0.0,-0.20043849158893434
4.734835791543757,0.8972631923959467,-0.010947230416213538,-0.10273680760405339
4.742833824975419,-0.9135670348265549,0.11356703482655489,-0.7135670348265548
4.75083185840708,-0.9321671125746052,0.1321671125746051,-0.7321671125746051
4.758829891838742,-0.9507671903226553,0.1507671903226553,-0.7507671903226553
4.7668279252704036,-0.9693672680707055,0.16936726807070546,-0.7693672680707054
4.774825958702065,-0.9879673458187557,0.18796734581875565,-0.7879673458187556
4.782823992133728,-1.006567423566808,0.2065674235668079,-0.8065674235668079
4.790822025565389,-1.0251675013148582,0.2251675013148581,-0.825167501314858
4.798820058997051,-1.0437675790629084,0.2437675790629083,-0.8437675790629083
4.8068180924287125,-1.0623676568109586,0.2623676568109585,-0.8623676568109585
4.814816125860374,-1.0809677345590087,0.2809677345590087,-0.8809677345590087
4.822814159292036,-1.099567812307059,0.29956781230705887,-0.899567812307059
4.830812192723698,0.7,0.5729269092100628,0.0
4.83881022615536,0.6832397322441548,0.5,0.011173511837230076
4.846808259587021,0.6601684819605156,0.5,0.02655434535965624
4.854806293018683,0.6370972316768764,0.5,0.041935178882082404
4.862804326450345,0.6140259813932372,0.5,0.057316012404508565
4.870802359882006,0.590954731109598,0.5,0.07269684592693472
4.878800393313669,0.5678834808259561,0.5,0.0880776794493626
4.88679842674533,0.5448122305423169,0.5,0.10345851297178876
4.894796460176992,0.5217409802586777,0.5,0.11883934649421492
4.902794493608654,0.4986697299750384,0.5,0.13422018001664107
4.910792527040315,0.4755984796913991,0.5,0.14960101353906724
4.918790560471977,0.4525272294077599,0.5,0.1649818470614934
4.926788593903638,0.4294559791241207,0.5,0.18036268058391958
4.934786627335301,0.4063847288404789,0.5,0.19574351410634744
4.9427846607669625,0.3,0.4,0.38923303834814527
4.950782694198624,0.2907348878587804,0.3907348878587804,0.40926511214121963
4.958780727630286,0.2812134194877547,0.3812134194877547,0.4187865805122453
4.966778761061947,0.271691951116729,0.37169195111672904,0.428308048883271
4.974776794493609,0.26217048274570337,0.36217048274570335,0.43782951725429664
4.9827748279252715,0.25264901437467663,0.35264901437467666,0.4473509856253234
4.990772861356933,0.24312754600365097,0.343127546003651,0.456872453996349
4.998770894788595,0.2336060776326253,0.3336060776326253,0.4663939223673747
5.006768928220256,0.22408460926159962,0.32408460926159965,0.4759153907384004
5.014766961651918,0.21456314089057396,0.31456314089057397,0.485436859109426
5.0227649950835795,0.2050416725195483,0.3050416725195483,0.4949583274804517
5.030763028515242,0.41753523434947065,0.14123238282526468,0.6
5.038761061946904,0.3,0.2,0.4939357242664176
5.046759095378565,0.3,0.2,0.4855167417067737
5.054757128810227,0.3,0.2,0.47709775914712993
5.0627551622418885,0.3,0.2,0.46867877658748613
5.07075319567355,0.3,0.2,0.4602597940278423
5.078751229105212,0.3,0.2,0.4518408114681985
5.086749262536874,0.3,0.2,0.4434218289085537
5.094747295968536,0.3,0.2,0.4350028463489099
5.102745329400197,0.3,0.2,0.42658386378926605
5.110743362831859,0.3,0.2,0.41816488122962225
5.118741396263521,0.3,0.2,0.4097458986699784
5.126739429695182,0.3,0.2,0.4013269161103346
5.134737463126845,0.0984474460487486,0.0992237230243743,0.1
5.142735496558506,0.08160948092946095,0.09080474046473047,0.1
5.150733529990168,0.0647715158101733,0.08238575790508665,0.1
5.15873156342183,0.04793355069088565,0.07396677534544283,0.1
5.166729596853491,0.031095585571598014,0.065547792785799,0.1
5.174727630285153,0.014257620452310354,0.05712881022615518,0.1
5.182725663716815,-0.0025803446669791508,0.04870982766651043,0.1
5.190723697148477,-0.019418309786266796,0.040290845106866605,0.1
5.1987217305801385,-0.03625627490555444,0.03187186254722278,0.1
5.2067197640118,-0.05309424002484209,0.02345287998757896,0.1
5.214717797443462,-0.06993220514412973,0.015033897427935136,0.1
5.222715830875123,-0.08677017026341738,0.006614914868291313,0.1
5.230713864306785,-0.2142576204523213,0.0,0.042871189773839344
5.2387118977384475,0.0007190886246939875,0.09928091137530602,0.0
5.246709931170109,0.008797910272837085,0.09120208972716293,0.0
5.254707964601771,0.016876731920980183,0.08312326807901982,0.0
5.262705998033432,0.024955553569123285,0.07504444643087672,0.0
5.270704031465094,0.03303437521726638,0.06696562478273363,0.0
5.2787020648967555,0.04111319686540948,0.05888680313459053,0.0
5.286700098328418,0.049192018513553475,0.05080798148644653,0.0
5.29469813176008,0.057270840161696576,0.04272915983830343,0.0
5.302696165191741,0.06534966180983967,0.034650338190160335,0.0
5.310694198623403,0.07342848345798277,0.02657151654201724,0.0
5.3186922320550645,0.08150730510612587,0.01849269489387413,0.0
5.326690265486726,0.08958612675426897,0.010413873245731037,0.0
5.334688298918389,0.09766494840241297,0.00233505159758704,0.0
5.34268633235005,-0.09509762607106755,0.0,0.1
5.350684365781712,-0.03796881584491414,0.0,0.1
5.358682399213373,0.0036745194703746964,0.0,0.1
5.366680432645035,0.014630729650733008,0.0,0.1
5.374678466076697,0.02558693983109132,0.0,0.1
5.382676499508358,0.03654315001144963,0.0,0.1
5.390674532940021,0.04749936019180916,0.0,0.1
5.398672566371682,0.058455570372167476,0.0,0.1
5.406670599803344,0.06941178055252578,0.0,0.1
5.414668633235006,0.0803679907328841,0.0,0.1
5.422666666666667,0.0913242009132424,0.0,0.1
5.430664700098329,0.18323500491643574,0.08323500491643572,0.1
5.438662733529991,0.0,0.0,0.0
5.446660766961653,0.0,0.0,0.0
5.4546588003933145,0.0,0.0,0.0
5.462656833824976,0.0,0.0,0.0
5.470654867256638,0.0,0.0,0.0
5.478652900688299,0.0,0.0,0.0
5.486650934119962,0.0,0.0,0.0
5.4946489675516235,0.0,0.0,0.0
5.502647000983285,0.0,0.0,0.0
5.510645034414947,0.0,0.0,0.0
5.518643067846608,0.0,0.0,0.0
5.52664110127827,0.0,0.0,0.0
5.5346391347099315,-0.1,-0.1,-0.012782694198634476
5.542637168141594,-0.09608906651441472,-0.1,-0.1
5.550635201573256,-0.08748903056639148,-0.1,-0.1
5.558633235004917,-0.07888899461836824,-0.1,-0.1
5.566631268436579,-0.070288958670345,-0.1,-0.1
5.5746293018682405,-0.06168892272232176,-0.1,-0.1
5.582627335299902,-0.053088886774298516,-0.1,-0.1
5.590625368731565,-0.04448885082627432,-0.1,-0.1
5.598623402163226,-0.035888814878251074,-0.1,-0.1
5.606621435594888,-0.02728877893022784,-0.1,-0.1
5.614619469026549,-0.018688742982204604,-0.1,-0.1
5.622617502458211,-0.010088707034181355,-0.1,-0.1
5.630615535889873,-0.0014886710861581193,-0.1,-0.1
5.638613569321535,0.1,0.1,0.0
5.646611602753197,0.1,0.1,0.0
5.654609636184858,0.1,0.1,0.0
5.66260766961652,0.1,0.1,0.0
5.670605703048182,0.1,0.1,0.0
5.678603736479843,0.1,0.1,0.0
5.686601769911505,0.1,0.1,0.0
5.694599803343167,0.1,0.1,0.0
5.702597836774829,0.1,0.1,0.0
5.7105958702064905,0.1,0.1,0.0
5.718593903638152,0.1,0.1,0.0
5.726591937069814,0.1,0.1,0.0
5.734589970501475,0.1,0.1,0.0
5.742588003933138,0.1,0.1,0.0
5.7505860373647995,0.1,0.1,0.0
5.758584070796461,0.1,0.1,0.0
5.766582104228123,0.1,0.1,0.0
5.774580137659784,0.1,0.1,0.0
5.782578171091446,0.1,0.1,0.0
5.790576204523108,0.1,0.1,0.0
5.79857423795477,0.1,0.1,0.0
5.806572271386432,0.1,0.1,0.0
5.814570304818093,0.1,0.1,0.0
5.822568338249755,0.1,0.1,0.0
5.8305663716814164,0.08259587020648164,0.0,0.0
5.838564405113078,-0.0006640060153858609,-0.0006640060153858609,0.0
5.846562438544741,-0.010073457111459393,-0.010073457111459393,0.0
5.854560471976402,-0.01948290820753188,-0.01948290820753188,0.0
5.862558505408064,-0.028892359303604367,-0.028892359303604367,0.0
5.870556538839725,-0.03830181039967685,-0.03830181039967685,0.0
5.878554572271387,-0.04771126149574934,-0.04771126149574934,0.0
5.886552605703049,-0.05712071259182183,-0.05712071259182183,0.0
5.894550639134711,-0.06653016368789536,-0.06653016368789536,0.0
5.902548672566373,-0.07593961478396785,-0.07593961478396785,0.0
5.910546705998034,-0.08534906588004033,-0.08534906588004033,0.0
5.918544739429696,-0.09475851697611282,-0.09475851697611282,0.0
5.9265427728613576,-0.1,-0.1,0.0
5.934540806293019,0.0,-0.1,0.0
5.942538839724682,0.0,-0.1,0.0
5.950536873156343,0.0,-0.1,0.0
5.958534906588005,0.0,-0.1,0.0
5.9665329400196665,0.0,-0.1,0.0
5.974530973451328,0.0,-0.1,0.0
5.98252900688299,0.0,-0.1,0.0
5.990527040314651,0.0,-0.1,0.0
5.998525073746314,0.0,-0.1,0.0
6.006523107177975,0.0,-0.1,0.0
6.014521140609637,0.0,-0.1,0.0
6.022519174041299,0.0,-0.1,0.0
6.03051720747296,0.0,0.0,0.0
6.038515240904622,0.0,0.0,0.0
6.046513274336284,0.0,0.0,0.0
6.054511307767946,0.0,0.0,0.0
6.062509341199608,0.0,0.0,0.0
6.070507374631269,0.0,0.0,0.0
6.078505408062931,0.0,0.0,0.0
6.086503441494592,0.0,0.0,0.0
6.094501474926255,0.0,0.0,0.0
6.1024995083579165,0.0,0.0,0.0
6.110497541789578,0.0,0.0,0.0
6.11849557522124,0.0,0.0,0.0
6.126493608652901,0.0,0.0,0.0
6.134491642084563,0.0,0.0,0.0
6.1424896755162255,0.0,0.0,0.0
6.150487708947887,0.0,0.0,0.0
6.158485742379549,0.0,0.0,0.0
6.16648377581121,0.0,0.0,0.0
6.174481809242872,0.0,0.0,0.0
6.1824798426745335,0.0,0.0,0.0
6.190477876106195,0.0,0.0,0.0
6.198475909537858,0.0,0.0,0.0
6.206473942969519,0.0,0.0,0.0
6.214471976401181,0.0,0.0,0.0
6.2224700098328425,0.0,0.0,0.0
6.230468043264504,0.0,0.0,0.0
6.238466076696166,0.0,0.0,0.0
6.246464110127828,0.0,0.0,0.0
6.25446214355949,0.0,-0.1,0.0
6.262460176991151,0.0,-0.0846607669616052,0.0
6.270458210422813,0.0,0.0,0.0
6.278456243854475,0.0,0.0,0.0
6.286454277286136,0.0,0.0,0.0
6.294452310717799,0.0,0.0,0.0
6.30245034414946,0.0,0.0,0.0
6.310448377581122,0.0,0.0,0.0
6.318446411012784,0.0,0.0,0.0
6.326444444444445,0.0,0.0,0.0
6.334442477876107,0.0,0.0,0.0
6.342440511307768,0.0,0.0,0.0
6.350438544739431,0.0,0.0,0.0
6.3584365781710925,0.0,0.0,0.0
6.366434611602754,0.0,0.0,0.0
6.374432645034416,0.0,0.0,0.0
6.382430678466077,0.0,0.0,0.0
6.390428711897739,0.0,0.0,0.0
6.3984267453294015,0.0,0.0,0.0
6.406424778761063,0.0,0.0,0.0
6.414422812192725,0.0,0.0,0.0
6.422420845624386,0.0,0.0,0.0
6.430418879056048,0.05235988200601974,0.0,0.0
6.4384169124877095,0.5262390840854022,-0.0043731806809003656,0.0043731806809003656
6.446414945919372,0.5737521539764665,-0.012292025662744425,0.012292025662744425
6.454412979351034,0.6212652238675256,-0.020210870644587608,0.020210870644587608
6.462411012782695,0.6687782937585848,-0.028129715626430785,0.028129715626430785
6.470409046214357,0.7162913636496439,-0.036048560608273966,0.036048560608273966
6.4784070796460185,0.7638044335407029,-0.04396740559011715,0.04396740559011715
6.48640511307768,0.811317503431762,-0.05188625057196033,0.05188625057196033
6.494403146509342,0.8588305733228211,-0.05980509555380351,0.05980509555380351
6.502401179941004,0.9063436432138854,-0.06772394053564756,0.06772394053564756
6.510399213372666,0.9538567131049445,-0.07564278551749075,0.07564278551749075
6.518397246804327,1.0013697829960035,-0.08356163049933393,0.08356163049933393
6.526395280235989,1.0488828528870626,-0.09148047548117712,0.09148047548117712
6.534393313667651,1.0963959227781217,-0.09939932046302029,0.09939932046302029
6.542391347099312,0.8782595870206321,-0.1,0.026086529006877357
6.550389380530975,0.4407079646016923,-0.1,0.0
6.558387413962636,-0.23874139626361818,-0.1,0.0
6.566385447394298,-0.3,-0.1,0.0
6.57438348082596,-0.3,-0.1,0.0
6.582381514257621,-0.3,-0.1,0.0
6.590379547689283,-0.3,-0.1,0.0
6.598377581120945,-0.3,-0.1,0.0
6.606375614552607,-0.3,-0.1,0.0
6.6143736479842685,-0.3,-0.1,0.0
6.62237168141593,-0.3,-0.1,0.0
6.630369714847592,0.0058285738195411945,0.0,0.0
6.638367748279253,0.03986275863512241,0.0,0.0
6.646365781710915,0.07389694345070362,0.0,0.0
6.6543638151425775,0.10793112826628862,0.0,0.0
6.662361848574239,0.14196531308186983,0.0,0.0
6.670359882005901,0.17599949789745106,0.0,0.0
6.678357915437562,0.21003368271303227,0.0,0.0
6.686355948869224,0.24406786752861348,0.0,0.0
6.6943539823008855,0.2781020523441947,0.0,0.0
6.702352015732548,0.3121362371597797,0.0,0.0
6.71035004916421,0.3461704219753609,0.0,0.0
6.718348082595871,0.38020460679094215,0.0,0.0
6.726346116027533,1.2066416376151194,-0.02132832752302388,0.07867167247697612
6.7343441494591945,1.5701886117815524,-0.09403772235631046,0.005962277643689548
6.742342182890856,0.8077725183508284,-0.20777251835082833,0.1
6.750340216322519,0.8263725960988806,-0.2263725960988806,0.1
6.75833824975418,0.8449726738469308,-0.2449726738469308,0.1
6.766336283185842,0.863572751594981,-0.263572751594981,0.1
6.774334316617503,0.8821728293430312,-0.2821728293430312,0.1
6.782332350049165,0.9007729070910814,-0.3007729070910814,0.1
6.790330383480827,0.9193729848391315,-0.31937298483913157,0.1
6.798328416912488,0.9379730625871817,-0.33797306258718174,0.1
6.806326450344151,0.956573140335234,-0.356573140335234,0.1
6.814324483775812,0.9751732180832842,-0.3751732180832842,0.1
6.822322517207474,0.9937732958313343,-0.3937732958313344,0.1
6.830320550639136,0.8893149786954838,-0.7106850213045162,0.11068502130451618
6.838318584070797,0.8,-0.8054271266028541,0.19457287339714593
6.846316617502459,0.8,-0.8135883852065905,0.1864116147934096
6.854314650934121,0.8,-0.8217496438103278,0.17825035618967233
6.862312684365783,0.8,-0.8299109024140641,0.170089097585936
6.8703107177974445,0.8,-0.8380721610178005,0.16192783898219962
6.878308751229106,0.8,-0.8462334196215368,0.15376658037846327
6.886306784660768,0.8,-0.8543946782252732,0.14560532177472693
6.894304818092429,0.8,-0.8625559368290094,0.1374440631709906
6.902302851524092,0.8,-0.8707171954327467,0.12928280456725333
6.9103008849557535,0.8,-0.878878454036483,0.12112154596351699
6.918298918387415,0.8,-0.8870397126402194,0.11296028735978063
6.926296951819077,0.8,-0.8952009712439557,0.10479902875604429
6.934294985250738,0.8988495575221492,-0.867050147492617,0.1
6.9422930186824,1.1287337484977782,-0.8,0.1
6.9502910521140615,1.314552605703068,-0.792723697148466,0.12910521140613618
6.958289085545724,1.5238282530318015,-0.7178711897738511,0.5119141265159007
6.966287118977386,1.5682617720965881,-0.751196329072441,0.5341308860482941
6.974285152409047,1.6126952911613748,-0.7845214683710311,0.5563476455806874
6.982283185840709,1.6571288102261614,-0.8178466076696211,0.5785644051130807
6.9902812192723704,1.701562329290948,-0.8511717469682112,0.600781164645474
6.998279252704032,1.7459958483557347,-0.8844968862668011,0.6229979241778674
7.006277286135695,1.7904293674205265,-0.9178220255653948,0.6452146837102632
7.014275319567356,1.8348628864853131,-0.9511471648639849,0.6674314432426566
7.022273352999018,1.8792964055500998,-0.9844723041625749,0.6896482027750499
7.030271386430679,1.3452310717798623,-0.9,1.0271386430679172
7.038269419862341,2.28695735711298,-0.9,1.605217057154808
7.046267453294003,2.240991647735615,-0.9,1.623603340905754
7.054265486725665,2.1950259383582447,-0.9,1.641989624656702
7.062263520157327,2.1490602289808796,-0.9,1.6603759084076481
7.070261553588988,2.1030945196035145,-0.9,1.6787621921585942
7.07825958702065,2.057128810226149,-0.9,1.6971484759095403
7.086257620452312,2.011163100848784,-0.9,1.7155347596604864
7.094255653883973,1.9651973914714187,-0.9,1.7339210434114327
7.102253687315635,1.9192316820940534,-0.9,1.7523073271623788
7.110251720747297,1.8732659727166832,-0.9,1.7706936109133269
7.118249754178959,1.8273002633393178,-0.9,1.789079894664273
7.1262477876106205,1.3,-1.0,2.0
7.134245821042282,1.3,-0.9438544739429454,2.0561455260570547
7.142243854473944,1.2814996904475746,-0.9,2.1
7.150241887905605,1.2578018136130216,-0.9,2.1
7.158239921337268,1.234103936778466,-0.9,2.1
7.166237954768929,1.210406059943913,-0.9,2.1
7.174235988200591,1.18670818310936,-0.9,2.1
7.182234021632253,1.1630103062748072,-0.9,2.1
7.190232055063914,1.1393124294402541,-0.9,2.1
7.198230088495576,1.115614552605701,-0.9,2.1
7.206228121927238,1.0919166757711456,-0.9,2.1
7.2142261553589,1.0682187989365926,-0.9,2.1
7.222224188790562,1.0445209221020397,-0.9,2.1
7.230222222222223,1.0208230452674867,-0.9,2.1
7.238220255653885,0.9971251684329338,-0.9,2.1
7.246218289085546,0.9734272915983808,-0.9,2.1
7.254216322517208,0.9497294147638278,-0.9,2.1
7.2622143559488705,0.9260315379292723,-0.9,2.1
7.270212389380532,0.9023336610947192,-0.9,2.1
7.278210422812194,0.09078171091453258,-0.7697394296951559,2.139478859390312
7.286208456243855,0.31398243286941124,-0.6545570931744135,1.9790263506958832
7.294206489675517,0.33545366355843564,-0.584775593435084,1.9468195046623464
7.302204523107179,0.3569248942474601,-0.5149940936957546,1.9146126586288097
7.310202556538841,0.37839612493648694,-0.4452125939564173,1.8824058125952694
7.318200589970503,0.3998673556255114,-0.37543109421708787,1.8501989665617329
7.326198623402164,0.42133858631453586,-0.30564959447775836,1.8179921205281961
7.334196656833826,0.4428098170035603,-0.2358680947384289,1.7857852744946594
7.3421946902654875,0.46428104769258477,-0.1660865949990995,1.7535784284611227
7.350192723697149,0.4857522783816092,-0.09630509525976994,1.7213715824275861
7.358190757128812,0.5072235090706361,-0.02652359552043282,1.6891647363940456
7.366188790560473,0.5286947397596605,0.04325790421889664,1.6569578903605091
7.374186823992135,0.550165970448685,0.1130394039582262,1.6247510443269724
7.3821848574237965,0.5716372011377094,0.18282090369755566,1.5925441982934356
7.390182890855458,0.5931084318267339,0.2526024034368851,1.5603373522598991
7.39818092428712,0.6145796625157584,0.32238390317621457,1.5281305062263624
7.406178957718781,0.6360508932047828,0.3921654029155439,1.4959236601928256
7.414176991150444,0.6575221238938096,0.46194690265488125,1.4637168141592853
7.422175024582105,0.678993354582834,0.5317284023942106,1.4315099681257486
7.430173058013767,0.7519174041301799,0.62595870206509,1.24424778760946
7.438171091445429,-0.8639664170637421,-0.18198320853187105,1.4977479010664838
7.44616912487709,-0.6178730807049213,-0.05893654035246068,1.4823670675440577
7.454167158308752,-0.3717797443461007,0.06411012782694964,1.4669862340216313
7.462165191740414,-0.1256864079872526,0.1871567960063737,1.4516054004992032
7.470163225172076,0.12040692837156797,0.310203464185784,1.436224566976777
7.478161258603738,0.3665002647303889,0.43325013236519444,1.4208437334543507
7.486159292035399,0.6125936010892096,0.5562968005446047,1.4054628999319243
7.494157325467061,-1.0842674532939556,-0.2,1.745689937725274
7.502155358898722,-0.5421302965859249,-0.04253733049780695,1.35685211863437
7.510153392330385,-0.07712835288460884,0.16206352473077212,1.1708513411538435
7.5181514257620465,0.3878735908166556,0.3666643799593285,0.9848505636733378
7.526149459193708,0.8528755345179199,0.5712652351878849,0.798849786192832
7.53414749262537,1.3178774782191844,0.7758660904164414,0.6128490087123262
7.542145526057031,0.3006614820774161,-0.5973540716903354,1.8927236971484223
7.550143559488693,0.33701617949405943,-0.45193528202376226,1.4928220255653462
7.5581415929203555,0.37337087691070675,-0.306516492357173,1.0929203539822256
7.566139626352017,0.38964696926443376,-0.21035303073556624,0.7827449487740563
7.574137659783679,0.3509468074983294,-0.24905319250167063,0.7182446791638823
7.58213569321534,0.312246645732225,-0.28775335426777504,0.6537444095537084
7.590133726647002,0.2735464839661206,-0.3264535160338794,0.5892441399435343
7.5981317600786635,0.2348463222000162,-0.3651536777999838,0.5247438703333603
7.606129793510325,0.19614616043391178,-0.4038538395660882,0.4602436007231863
7.614127826941988,0.1574459986678031,-0.4425540013321969,0.3957433311130052
7.622125860373649,0.11874583690169871,-0.48125416309830127,0.33124306150283117
7.630123893805311,-0.4106194690263772,-0.6168141592919107,0.47079646017702237
7.6381219272369725,0.3116658318027513,-0.10388861060091711,0.5844455575963315
7.646119960668634,0.33430177547726536,-0.11143392515908845,0.5542642993636462
7.654117994100296,0.35693771915177935,-0.1189792397172598,0.5240830411309608
7.662116027531958,0.3795736628262959,-0.12652455427543197,0.49390178289827213
7.67011406096362,0.40220960650080995,-0.13406986883360333,0.4637205246655868
7.678112094395281,0.42484555017532394,-0.14161518339177465,0.4335392664329014
7.686110127826943,0.44748149384983793,-0.149160497949946,0.40335800820021606
7.694108161258605,0.470117437524352,-0.15670581250811733,0.3731767499675307
7.702106194690266,0.492753381198866,-0.1642511270662887,0.34299549173484534
7.710104228121929,0.5153893248733825,-0.17179644162446087,0.31281423350215665
7.71810226155359,0.5380252685478966,-0.1793417561826322,0.2826329752694713
7.726100294985252,0.5606612122224106,-0.18688707074080355,0.2524517170367859
7.734098328416914,0.5832971558969247,-0.19443238529897489,0.22227045880410057
7.742096361848575,0.7740904621437918,0.10963618485751672,0.6548180924287583
7.750094395280237,-0.5078539823008872,-0.29476401179940853,-0.20261799410029574
7.758092428711898,-0.5378466076696182,-0.2747689282202545,-0.21261553588987275
7.766090462143561,-0.5678392330383526,-0.2547738446410983,-0.22261307767945085
7.7740884955752225,-0.5978318584070835,-0.23477876106194429,-0.23261061946902786
7.782086529006884,-0.6278244837758146,-0.21478367748279026,-0.24260816125860485
7.790084562438546,-0.6578171091445456,-0.1947885939036363,-0.25260570304818186
7.798082595870207,-0.6878097345132766,-0.17479351032448226,-0.2626032448377589
7.806080629301869,-0.7178023598820076,-0.15479842674532826,-0.2726007866273359
7.8140786627335315,-0.747794985250742,-0.134803343166172,-0.282598328416914
7.822076696165193,-0.777787610619473,-0.11480825958701801,-0.29259587020649097
7.830074729596855,-0.9283513602096727,-0.3820878400524182,-0.46417568010483634
7.838072763028516,0.1,0.3,-0.19968016251201662
7.846070796460178,0.1,0.3,-0.164523971603614
7.8540688298918395,0.1,0.3,-0.1293677806952114
7.862066863323502,0.1,0.3,-0.0942115897868049
7.870064896755164,0.1,0.3,-0.059055398878402277
7.878062930186825,0.1,0.3,-0.02389920796999967
7.886060963618487,0.1,0.3,0.011256982938402937
7.8940589970501485,0.1,0.3,0.046413173846805544
7.90205703048181,0.1,0.3,0.08156936475520815
7.910055063913472,0.1,0.3,0.11672555566361076
7.918053097345134,0.1,0.3,0.1518817465720173
7.926051130776796,0.1,0.3,0.1870379374804199
7.934049164208457,0.30245821042286236,0.30122910521143115,0.10245821042286236
7.942047197640119,0.6998477495480037,0.5997969993973383,0.8002030006026617
7.950045231071781,0.6740476417039339,0.5653968556052453,0.8346031443947547
7.958043264503442,0.6482475338598642,0.5309967118131523,0.8690032881868477
7.966041297935105,0.6224474260157917,0.49659656802105556,0.9034034319789445
7.974039331366766,0.596647318171722,0.4621964242289627,0.9378035757710373
7.982037364798428,0.5708472103276523,0.4277962804368697,0.9722037195631303
7.99003539823009,0.5450471024835826,0.39339613664477674,1.0066038633552232
7.998033431661751,0.5192469946395128,0.3589959928526838,1.0410040071473163
8.006031465093413,0.49344688679544313,0.3245958490605908,1.0754041509394092
8.014029498525074,0.4676467789513734,0.29019570526849786,1.109804294731502
8.022027531956736,0.4418466711073037,0.2557955614764049,1.144204438523595
8.030025565388398,0.41604656326323397,0.22139541768431198,1.178604582315688
8.03802359882006,0.28661504424777157,0.04882005899702874,1.388974926253714
8.046021632251723,0.08142486815049521,-0.36284973630099043,1.2513989452039616
8.054019665683384,-0.06399392151608971,-0.0720121569678206,0.08804862787128265
8.062017699115046,-0.030229575477720497,0.01744260613056988,-0.14767218160829035
8.070015732546707,0.06250124691835501,0.04062531172958876,-0.0781240648112337
8.078013765978369,0.15523206931443054,0.06380801732860765,-0.008575948014177048
8.08601179941003,0.24796289171050603,0.08699072292762652,0.06097216878287964
8.094009832841692,0.34069371410658156,0.11017342852664541,0.13052028557993628
8.102007866273354,0.4334245365026571,0.1333561341256643,0.20006840237699292
8.110005899705016,0.5261553588987326,0.15653883972468316,0.2696165191740496
8.118003933136677,0.6188861812948081,0.17972154532370205,0.3391646359711063
8.126001966568339,0.7,0.25009832841691976,0.3499016715830802
8.134,0.29999999999999993,0.3,0.0
