gyro_time_list,gyro_x_list,gyro_y_list,gyro_z_list
0.0,0.2,0.1,0.1
0.008,-0.5914893617021276,0.2978723404255319,0.2978723404255319
0.016,-0.5234042553191489,0.2808510638297872,0.2808510638297872
0.024,-0.4553191489361702,0.26382978723404255,0.26382978723404255
0.032,-0.3872340425531915,0.24680851063829787,0.24680851063829787
0.04,-0.3191489361702127,0.2297872340425532,0.2297872340425532
0.048,-0.251063829787234,0.21276595744680848,0.21276595744680848
0.056,-0.1829787234042553,0.19574468085106383,0.19574468085106383
0.064,-0.11489361702127654,0.17872340425531913,0.17872340425531913
0.07200000000000001,-0.04680851063829783,0.16170212765957445,0.16170212765957445
0.08,0.02127659574468077,0.1446808510638298,0.1446808510638298
0.088,0.08936170212765948,0.12765957446808512,0.12765957446808512
0.096,0.1574468085106383,0.11063829787234042,0.11063829787234042
0.10400000000000001,-0.10000000000000278,-0.09999999999999931,-0.1
0.112,-0.49375,0.006250000000000005,-0.0875
0.12,-0.48541666666666666,0.01458333333333333,-0.07083333333333335
0.128,-0.47708333333333336,0.02291666666666667,-0.05416666666666667
0.136,-0.46875,0.03125000000000001,-0.03749999999999999
0.14400000000000002,-0.46041666666666664,0.039583333333333345,-0.020833333333333315
0.152,-0.45208333333333334,0.047916666666666656,-0.0041666666666666935
0.16,-0.44375000000000003,0.05625,0.012499999999999997
0.168,-0.4354166666666667,0.06458333333333334,0.029166666666666674
0.176,-0.42708333333333337,0.07291666666666664,0.04583333333333328
0.184,-0.41875,0.08124999999999999,0.06249999999999997
0.192,-0.4104166666666667,0.08958333333333333,0.07916666666666666
0.2,-0.40208333333333335,0.09791666666666667,0.09583333333333333
0.20800000000000002,-0.20654205607476656,-0.0009345794392523632,0.19906542056074764
0.216,-0.25887850467289725,-0.008411214953271035,0.19158878504672897
0.224,-0.3112149532710281,-0.015887850467289733,0.18411214953271027
0.232,-0.363551401869159,-0.02336448598130843,0.17663551401869157
0.24,-0.4158878504672897,-0.030841121495327105,0.1691588785046729
0.248,-0.46822429906542057,-0.0383177570093458,0.1616822429906542
0.256,-0.5205607476635514,-0.0457943925233645,0.1542056074766355
0.264,-0.5728971962616823,-0.0532710280373832,0.1467289719626168
0.272,-0.6252336448598133,-0.0607476635514019,0.1392523364485981
0.28,-0.6775700934579441,-0.0682242990654206,0.1317757009345794
0.28800000000000003,-0.7299065420560749,-0.0757009345794393,0.12429906542056071
0.296,-0.7822429906542054,-0.08317757009345794,0.11682242990654207
0.304,-0.8345794392523362,-0.09065420560747664,0.10934579439252337
0.312,-0.8869158878504673,-0.09813084112149534,0.10186915887850467
0.32,-2.05,-0.22499999999999998,0.725
0.328,-1.9266666666666665,-0.0053333333333333375,1.4106666666666665
0.336,-2.033333333333333,-0.02666666666666669,1.4533333333333334
0.34400000000000003,-2.14,-0.04800000000000004,1.496
0.352,-2.246666666666666,-0.06933333333333325,1.5386666666666664
0.36,-2.353333333333333,-0.09066666666666659,1.581333333333333
0.368,-2.4599999999999995,-0.11199999999999995,1.6239999999999999
0.376,-2.5666666666666664,-0.1333333333333333,1.6666666666666665
0.384,-2.673333333333333,-0.15466666666666665,1.7093333333333334
0.392,-2.78,-0.176,1.752
0.4,-2.8866666666666667,-0.19733333333333336,1.7946666666666666
0.40800000000000003,-3.410869565217391,-0.40869565217391307,2.7108695652173913
0.41600000000000004,-3.4543478260869565,-0.4434782608695653,2.7543478260869567
0.424,-3.4978260869565214,-0.4782608695652173,2.7978260869565217
0.432,-3.541304347826087,-0.5130434782608695,2.841304347826087
0.44,-3.584782608695652,-0.5478260869565217,2.8847826086956525
0.448,-3.628260869565217,-0.5826086956521739,2.9282608695652175
0.456,-3.6717391304347826,-0.6173913043478261,2.971739130434783
0.464,-3.715217391304348,-0.6521739130434784,3.015217391304348
0.47200000000000003,-3.758695652173913,-0.6869565217391306,3.0586956521739133
0.48,-3.802173913043478,-0.7217391304347825,3.1021739130434782
0.488,-3.8456521739130434,-0.7565217391304347,3.1456521739130436
0.496,-3.889130434782609,-0.791304347826087,3.189130434782609
0.504,-4.166666666666667,-0.8,3.6333333333333333
0.512,-3.8711340206185567,-1.0041237113402062,3.804123711340206
0.52,-3.81340206185567,-1.0123711340206185,3.8123711340206183
0.528,-3.7556701030927835,-1.020618556701031,3.8206185567010307
0.536,-3.6979381443298966,-1.0288659793814434,3.828865979381443
0.544,-3.64020618556701,-1.0371134020618558,3.8371134020618554
0.552,-3.5824742268041234,-1.045360824742268,3.845360824742268
0.56,-3.5247422680412366,-1.0536082474226804,3.8536082474226805
0.5680000000000001,-3.46701030927835,-1.061855670103093,3.861855670103093
0.5760000000000001,-3.4092783505154634,-1.0701030927835053,3.870103092783505
0.584,-3.351546391752578,-1.0783505154639177,3.8783505154639175
0.592,-3.293814432989691,-1.08659793814433,3.88659793814433
0.6,-3.236082474226804,-1.0948453608247424,3.894845360824742
0.608,-2.7,-0.75,3.95
0.616,-2.7144230769230773,-0.49038461538461536,3.9951923076923075
0.624,-2.7375000000000003,-0.475,3.9875
0.632,-2.7605769230769233,-0.4596153846153846,3.979807692307692
0.64,-2.7836538461538463,-0.44423076923076915,3.9721153846153845
0.648,-2.8067307692307693,-0.42884615384615377,3.964423076923077
0.656,-2.8298076923076927,-0.4134615384615384,3.956730769230769
0.664,-2.8528846153846157,-0.39807692307692294,3.9490384615384615
0.672,-2.8759615384615387,-0.38269230769230755,3.941346153846154
0.68,-2.8990384615384617,-0.36730769230769217,3.933653846153846
0.6880000000000001,-2.9221153846153847,-0.3519230769230768,3.9259615384615385
0.6960000000000001,-2.945192307692308,-0.33653846153846134,3.918269230769231
0.704,-2.9682692307692307,-0.3211538461538461,3.910576923076923
0.712,-2.9913461538461537,-0.3057692307692308,3.9028846153846155
0.72,-3.8041666666666667,-0.1,3.504166666666667
0.728,-3.8375,-0.1,3.5375
0.736,-3.870833333333333,-0.1,3.5708333333333333
0.744,-3.889655172413793,-0.10172413793103449,3.5982758620689657
0.752,-3.806896551724138,-0.11551724137931035,3.5844827586206898
0.76,-3.7241379310344827,-0.12931034482758622,3.570689655172414
0.768,-3.6413793103448273,-0.14310344827586208,3.556896551724138
0.776,-3.5586206896551724,-0.15689655172413794,3.543103448275862
0.784,-3.475862068965517,-0.1706896551724138,3.529310344827586
0.792,-3.3931034482758617,-0.18448275862068966,3.5155172413793103
0.8,-3.3103448275862064,-0.19827586206896552,3.5017241379310344
0.808,-1.6876288659793814,0.004123711340206191,3.2989690721649483
0.8160000000000001,-1.588659793814433,0.03711340206185571,3.290721649484536
0.8240000000000001,-1.4896907216494844,0.07010309278350524,3.2824742268041236
0.8320000000000001,-1.3907216494845356,0.10309278350515476,3.2742268041237113
0.84,-1.2917525773195886,0.13608247422680383,3.265979381443299
0.848,-1.1927835051546398,0.16907216494845337,3.2577319587628866
0.856,-1.0938144329896913,0.20206185567010287,3.2494845360824742
0.864,-0.9948453608247428,0.2350515463917524,3.241237113402062
0.872,-0.8958762886597943,0.26804123711340194,3.2329896907216495
0.88,-0.7969072164948457,0.3010309278350515,3.224742268041237
0.888,-0.6979381443298971,0.33402061855670095,3.216494845360825
0.896,-0.5989690721649485,0.3670103092783505,3.2082474226804125
0.904,-0.5,0.4,3.2
0.912,-0.8901098901098902,0.5967032967032967,3.1934065934065936
0.92,-0.8637362637362637,0.5879120879120878,3.175824175824176
0.928,-0.8373626373626373,0.5791208791208791,3.158241758241758
0.936,-0.8109890109890109,0.5703296703296703,3.1406593406593406
0.9440000000000001,-0.7846153846153845,0.5615384615384614,3.123076923076923
0.9520000000000001,-0.7582417582417581,0.5527472527472527,3.1054945054945056
0.96,-0.731868131868132,0.543956043956044,3.087912087912088
0.968,-0.7054945054945057,0.5351648351648353,3.0703296703296705
0.976,-0.6791208791208792,0.5263736263736264,3.052747252747253
0.984,-0.6527472527472528,0.5175824175824176,3.035164835164835
0.992,-0.6263736263736264,0.5087912087912088,3.0175824175824175
1.0,-0.6,0.5,3.0
1.008,0.5136363636363641,0.5027272727272728,2.686363636363636
1.016,0.5500000000000005,0.5100000000000001,2.6499999999999995
1.024,0.5863636363636369,0.5172727272727273,2.6136363636363633
1.032,0.6227272727272732,0.5245454545454546,2.577272727272727
1.04,0.6590909090909096,0.531818181818182,2.5409090909090906
1.048,0.695454545454546,0.5390909090909092,2.5045454545454544
1.056,0.7318181818181824,0.5463636363636365,2.468181818181818
1.064,0.7681818181818187,0.5536363636363637,2.4318181818181817
1.072,0.8045454545454551,0.560909090909091,2.395454545454545
1.08,0.8409090909090915,0.5681818181818182,2.359090909090909
1.088,0.8772727272727278,0.5754545454545456,2.3227272727272723
1.096,0.9136363636363641,0.5827272727272728,2.286363636363636
1.104,0.9500000000000005,0.5900000000000001,2.2499999999999996
1.112,0.9863636363636369,0.5972727272727274,2.2136363636363634
1.12,1.120000000000001,0.6,1.8199999999999963
1.1280000000000001,1.1733333333333347,0.6,1.6066666666666616
1.1360000000000001,1.2031746031746036,0.5968253968253965,1.1777777777777754
1.1440000000000001,1.2158730158730162,0.5841269841269838,1.0888888888888866
1.1520000000000001,1.2285714285714289,0.5714285714285711,0.9999999999999979
1.16,1.2412698412698413,0.5587301587301587,0.9111111111111116
1.168,1.253968253968254,0.5460317460317461,0.8222222222222229
1.176,1.2666666666666666,0.5333333333333334,0.7333333333333342
1.184,1.2793650793650793,0.5206349206349208,0.6444444444444455
1.192,1.292063492063492,0.5079365079365081,0.5555555555555567
1.2,1.0,0.3,0.0
1.208,0.46767676767676764,0.09191919191919191,-0.2161616161616162
1.216,0.4030303030303029,0.07575757575757573,-0.24848484848484853
1.224,0.33838383838383823,0.059595959595959556,-0.2808080808080809
1.232,0.2737373737373735,0.043434343434343374,-0.31313131313131326
1.24,0.20909090909090877,0.0272727272727272,-0.34545454545454557
1.248,0.14444444444444404,0.011111111111111016,-0.377777777777778
1.256,0.07979797979797931,-0.005050505050505166,-0.4101010101010103
1.264,0.015151515151514583,-0.02121212121212135,-0.44242424242424266
1.272,-0.04949494949495015,-0.03737373737373753,-0.47474747474747503
1.28,-0.11414141414141488,-0.053535353535353714,-0.5070707070707074
1.288,-0.1787878787878796,-0.0696969696969699,-0.5393939393939398
1.296,-0.24343434343434434,-0.08585858585858608,-0.5717171717171721
1.304,-0.3222222222222244,-0.11111111111111222,-0.6222222222222245
1.312,-0.5,-0.2,-0.8
1.32,-0.3812499999999996,-0.3,-1.0
1.328,-0.3512499999999996,-0.3,-1.0
1.336,-0.3212499999999996,-0.3,-1.0
1.344,-0.29124999999999956,-0.3,-1.0
1.352,-0.2612499999999996,-0.3,-1.0
1.36,-0.23124999999999957,-0.3,-1.0
1.368,-0.20124999999999957,-0.3,-1.0
1.3760000000000001,-0.17124999999999957,-0.3,-1.0
1.3840000000000001,-0.14124999999999954,-0.3,-1.0
1.3920000000000001,-0.11124999999999957,-0.3,-1.0
1.4000000000000001,0.0,-0.2999999999999998,-0.9999999999999998
1.408,0.0,-0.2932773109243697,-0.9932773109243698
1.416,0.0,-0.2865546218487395,-0.9865546218487394
1.424,0.0,-0.2798319327731092,-0.9798319327731092
1.432,0.0,-0.27310924369747897,-0.973109243697479
1.44,0.0,-0.2663865546218487,-0.9663865546218487
1.448,0.0,-0.25966386554621845,-0.9596638655462184
1.456,0.0,-0.25294117647058817,-0.9529411764705882
1.464,0.0,-0.24621848739495794,-0.946218487394958
1.472,0.0,-0.23949579831932766,-0.9394957983193277
1.48,0.0,-0.23277310924369743,-0.9327731092436974
1.488,0.0,-0.22605042016806715,-0.9260504201680672
1.496,0.0,-0.21932773109243692,-0.9193277310924369
1.504,0.0,-0.21260504201680663,-0.9126050420168067
1.512,0.0,-0.2058823529411764,-0.9058823529411764
1.52,0.00833333333333426,-0.2,-0.9
1.528,0.07500000000000093,-0.2,-0.9
1.536,0.09692307692307692,-0.19692307692307692,-0.7938461538461539
1.544,0.08461538461538459,-0.1846153846153846,-0.7692307692307692
1.552,0.07230769230769227,-0.17230769230769227,-0.7446153846153846
1.56,0.059999999999999935,-0.15999999999999995,-0.7199999999999999
1.568,0.0476923076923076,-0.14769230769230762,-0.6953846153846153
1.576,0.03538461538461528,-0.13538461538461527,-0.6707692307692306
1.584,0.02307692307692294,-0.12307692307692294,-0.6461538461538459
1.592,0.010769230769230614,-0.11076923076923062,-0.6215384615384612
1.6,0.0,-0.1,-0.5
1.608,0.0,-0.027272727272726532,-0.4272727272727266
1.616,0.0,0.0,-0.29354838709677394
1.624,0.0,0.0,-0.2763440860215051
1.6320000000000001,0.0,0.0,-0.25913978494623624
1.6400000000000001,0.0,0.0,-0.24193548387096742
1.6480000000000001,0.0,0.0,-0.2247311827956986
1.6560000000000001,0.0,0.0,-0.20752688172042977
1.6640000000000001,0.0,0.0,-0.19032258064516094
1.672,0.0,0.0,-0.17311827956989256
1.68,0.0,0.0,-0.15591397849462374
1.688,0.0,0.0,-0.1387096774193549
1.696,0.0,0.0,-0.12150537634408606
1.704,0.0,0.0,-0.10430107526881724
1.712,0.0,0.10108695652173902,0.20217391304347804
1.72,0.0,0.10978260869565208,0.21956521739130416
1.728,0.0,0.11847826086956514,0.2369565217391303
1.736,0.0,0.12717391304347822,0.25434782608695644
1.744,0.0,0.13586956521739127,0.27173913043478254
1.752,0.0,0.14456521739130435,0.2891304347826087
1.76,0.0,0.1532608695652174,0.3065217391304348
1.768,0.0,0.16195652173913047,0.32391304347826094
1.776,0.0,0.17065217391304355,0.3413043478260871
1.784,0.0,0.1793478260869566,0.3586956521739132
1.792,0.0,0.18804347826086967,0.37608695652173935
1.8,0.0,0.19673913043478275,0.3934782608695655
1.808,0.0,0.2,0.5
1.816,0.00661157024793389,0.2,0.5
1.824,0.01322314049586778,0.2,0.5
1.832,0.01983471074380167,0.2,0.5
1.84,0.02644628099173556,0.2,0.5
1.848,0.03305785123966945,0.2,0.5
1.856,0.03966942148760334,0.2,0.5
1.864,0.046280991735537236,0.2,0.5
1.872,0.05289256198347112,0.2,0.5
1.8800000000000001,0.059504132231405014,0.2,0.5
1.8880000000000001,0.0661157024793389,0.2,0.5
1.8960000000000001,0.0727272727272728,0.2,0.5
1.9040000000000001,0.07933884297520669,0.2,0.5
1.9120000000000001,0.08595041322314058,0.2,0.5
1.92,0.09256198347107428,0.2,0.5
1.928,0.09917355371900817,0.2,0.5
1.936,-0.1,0.1,0.5
1.944,-0.1,0.1,0.5
1.952,-0.1,0.1,0.5
1.96,-0.1,0.1,0.5
1.968,-0.1,0.1,0.5
1.976,-0.1,0.1,0.5
1.984,-0.1,0.1,0.5
1.992,-0.1,0.1,0.5
2.0,-0.1,0.1,0.5
2.008,-0.1,0.1,0.5
2.016,-0.19784946236559117,0.1,0.2978494623655912
2.024,-0.1892473118279568,0.1,0.28924731182795677
2.032,-0.18064516129032243,0.1,0.2806451612903224
2.04,-0.17204301075268805,0.1,0.272043010752688
2.048,-0.16344086021505366,0.1,0.26344086021505364
2.056,-0.15483870967741928,0.1,0.2548387096774193
2.064,-0.1462365591397849,0.1,0.2462365591397849
2.072,-0.13763440860215054,0.1,0.23763440860215052
2.08,-0.12903225806451615,0.1,0.22903225806451616
2.088,-0.12043010752688177,0.1,0.22043010752688175
2.096,-0.1118279569892474,0.1,0.2118279569892474
2.104,-0.10322580645161301,0.1,0.20322580645161303
2.112,-0.1,0.1,0.0
2.12,-0.1,0.1,-0.00792079207920793
2.128,-0.1,0.1,-0.01584158415841586
2.136,-0.1,0.1,-0.023762376237623787
2.144,-0.1,0.1,-0.03168316831683172
2.152,-0.1,0.1,-0.039603960396039646
2.16,-0.1,0.1,-0.047524752475247574
2.168,-0.1,0.1,-0.05544554455445551
2.176,-0.1,0.1,-0.06336633663366344
2.184,-0.1,0.1,-0.07128712871287136
2.192,-0.1,0.1,-0.07920792079207929
2.2,-0.1,0.1,-0.08712871287128722
2.208,-0.1,0.1,-0.09504950495049515
2.216,-0.1,0.1,-0.1
2.224,-0.1,0.1,-0.1
2.232,-0.1,0.1,-0.2
2.24,-0.1,0.1,-0.2
2.248,-0.1,0.1,-0.2
2.2560000000000002,-0.1,0.1,-0.2
2.2640000000000002,-0.1,0.1,-0.2
2.2720000000000002,-0.1,0.1,-0.2
2.2800000000000002,-0.1,0.1,-0.2
2.2880000000000003,-0.1,0.1,-0.2
2.2960000000000003,-0.1,0.1,-0.2
2.3040000000000003,-0.1,0.1,-0.2
2.312,-0.00526315789473672,0.1,-0.3
2.32,-0.013684210526315658,0.1,-0.3
2.328,-0.022105263157894597,0.1,-0.3
2.336,-0.030526315789473533,0.1,-0.3
2.344,-0.038947368421052474,0.1,-0.3
2.352,-0.047368421052631414,0.1,-0.3
2.36,-0.05578947368421035,0.1,-0.3
2.368,-0.06421052631578929,0.1,-0.3
2.376,-0.07263157894736823,0.1,-0.3
2.384,-0.08105263157894717,0.1,-0.3
2.392,-0.08947368421052611,0.1,-0.3
2.4,-0.09789473684210505,0.1,-0.3
2.408,-0.1,1.3877787807814457e-17,-0.3
2.416,-0.09425287356321853,0.0,-0.2
2.424,-0.08505747126436797,0.0,-0.2
2.432,-0.0758620689655174,0.0,-0.2
2.44,-0.06666666666666685,0.0,-0.2
2.448,-0.05747126436781628,0.0,-0.2
2.456,-0.04827586206896572,0.0,-0.2
2.464,-0.03908045977011516,0.0,-0.2
2.472,-0.02988505747126459,0.0,-0.2
2.48,-0.02068965517241403,0.0,-0.2
2.488,-0.011494252873563468,0.0,-0.2
2.496,-0.0022988505747129073,0.0,-0.2
2.504,0.0,0.0,-0.14285714285714377
2.512,0.0,0.0,-0.1
2.52,0.0,0.0,-0.1
2.528,0.0,0.0,-0.1
2.536,0.0,0.0,-0.1
2.544,0.0,0.0,-0.1
2.552,0.0,0.0,-0.1
2.56,0.0,0.0,-0.1
2.568,0.0,0.0,-0.1
2.576,0.0,0.0,-0.1
2.584,0.0,0.0,-0.1
2.592,0.0,0.0,-0.1
2.6,0.0,0.0,-0.1
2.608,0.0,0.0,-0.1
2.616,0.02222222222222387,0.0,-0.07777777777777614
2.624,0.09285714285714354,0.0,0.0
2.632,0.03571428571428549,0.0,0.0
2.64,-0.004411764705882517,0.0,0.0
2.648,-0.01617647058823546,0.0,0.0
2.656,-0.0279411764705884,0.0,0.0
2.664,-0.03970588235294134,0.0,0.0
2.672,-0.05147058823529428,0.0,0.0
2.68,-0.06323529411764722,0.0,0.0
2.688,-0.07500000000000016,0.0,0.0
2.696,-0.0867647058823531,0.0,0.0
2.704,-0.09852941176470605,0.0,0.0
2.712,-0.1968421052631578,0.0,0.0
2.72,-0.1884210526315788,0.0,0.0
2.728,-0.17999999999999983,0.0,0.0
2.736,-0.17157894736842083,0.0,0.0
2.744,-0.16315789473684186,0.0,0.0
2.7520000000000002,-0.1547368421052629,0.0,0.0
2.7600000000000002,-0.1463157894736839,0.0,0.0
2.7680000000000002,-0.13789473684210493,0.0,0.0
2.7760000000000002,-0.12947368421052596,0.0,0.0
2.7840000000000003,-0.12105263157894698,0.0,0.0
2.7920000000000003,-0.112631578947368,0.0,0.0
2.8000000000000003,-0.10421052631578903,0.0,0.0
2.8080000000000003,-0.024999999999997233,0.0,0.0
2.816,0.1,0.0041666666666666675,0.1
2.824,0.1,0.0125,0.1
2.832,0.1,0.020833333333333336,0.1
2.84,0.1,0.02916666666666667,0.1
2.848,0.1,0.037500000000000006,0.1
2.856,0.1,0.04583333333333334,0.1
2.864,0.1,0.054166666666666675,0.1
2.872,0.1,0.0625,0.1
2.88,0.1,0.07083333333333335,0.1
2.888,0.1,0.07916666666666668,0.1
2.896,0.1,0.08750000000000001,0.1
2.904,0.1,0.09583333333333334,0.1
2.912,0.0,0.1,0.1
2.92,0.0,0.1,0.1
2.928,0.0,0.1,0.1
2.936,0.0,0.1,0.1
2.944,0.0,0.1,0.1
2.952,0.0,0.1,0.1
2.96,0.0,0.1,0.1
2.968,0.0,0.1,0.1
2.976,0.0,0.1,0.1
2.984,0.0,0.1,0.1
2.992,0.0,0.1,0.1
3.0,0.0,0.1,0.1
3.008,0.0,0.1,0.1
3.016,0.0,0.1,0.1
3.024,-0.1,0.1,0.045454545454543985
3.032,-0.1,0.1,0.0
3.04,-0.1,0.1,-0.009090909090909398
3.048,-0.1,0.1,-0.021212121212121477
3.056,-0.1,0.1,-0.033333333333333555
3.064,-0.1,0.1,-0.045454545454545636
3.072,-0.1,0.1,-0.05757575757575772
3.08,-0.1,0.1,-0.0696969696969698
3.088,-0.1,0.1,-0.08181818181818187
3.096,-0.1,0.1,-0.09393939393939396
3.104,0.0,0.10098039215686265,-0.1
3.112,0.0,0.10882352941176462,-0.1
3.12,0.0,0.1166666666666666,-0.1
3.128,0.0,0.12450980392156857,-0.1
3.136,0.0,0.13235294117647056,-0.1
3.144,0.0,0.14019607843137255,-0.1
3.152,0.0,0.1480392156862745,-0.1
3.16,0.0,0.1558823529411765,-0.1
3.168,0.0,0.16372549019607846,-0.1
3.176,0.0,0.17156862745098045,-0.1
3.184,0.0,0.17941176470588244,-0.1
3.192,0.0,0.1872549019607844,-0.1
3.2,0.0,0.1950980392156864,-0.1
3.208,0.0,0.2,-0.1
3.216,0.0,0.2,-0.1
3.224,0.0,0.2,-0.1
3.232,0.0,0.2,-0.1
3.24,0.0,0.2,-0.1
3.248,0.0,0.2,-0.1
3.2560000000000002,0.0,0.2,-0.1
3.2640000000000002,0.0,0.2,-0.1
3.2720000000000002,0.0,0.2,-0.1
3.2800000000000002,0.0,0.2,-0.1
3.2880000000000003,0.0,0.2,-0.1
3.2960000000000003,0.0,0.2,-0.1
3.3040000000000003,-0.09905660377358459,0.2,-0.1
3.3120000000000003,-0.09150943396226383,0.2,-0.1
3.3200000000000003,-0.08396226415094304,0.2,-0.1
3.3280000000000003,-0.07641509433962228,0.2,-0.1
3.336,-0.06886792452830193,0.2,-0.1
3.344,-0.06132075471698116,0.2,-0.1
3.352,-0.053773584905660386,0.2,-0.1
3.36,-0.04622641509433961,0.2,-0.1
3.368,-0.038679245283018845,0.2,-0.1
3.376,-0.03113207547169808,0.2,-0.1
3.384,-0.023584905660377298,0.2,-0.1
3.392,-0.01603773584905653,0.2,-0.1
3.4,-0.008490566037735764,0.2,-0.1
3.408,-0.0009433962264149831,0.2,-0.1
3.416,-0.06363636363636402,0.136363636363636,-0.1
3.424,-0.13636363636363602,0.1,-0.1
3.432,-0.2,0.15000000000000002,-0.1
3.44,-0.18970588235294103,0.2,-0.1
3.448,-0.17794117647058807,0.2,-0.1
3.456,-0.16617647058823515,0.2,-0.1
3.464,-0.1544117647058822,0.2,-0.1
3.472,-0.14264705882352927,0.2,-0.1
3.48,-0.1308823529411763,0.2,-0.1
3.488,-0.11911764705882337,0.2,-0.1
3.496,-0.10735294117647043,0.2,-0.1
3.504,-0.05714285714285624,0.2,-0.14285714285714377
3.512,0.0,0.2,-0.3
3.52,0.0,0.2,-0.3
3.528,0.0,0.2,-0.3
3.536,0.0,0.2,-0.3
3.544,0.0,0.2,-0.3
3.552,0.0,0.2,-0.3
3.56,0.0,0.2,-0.3
3.568,0.0,0.2,-0.3
3.576,0.0,0.2,-0.3
3.584,0.0,0.2,-0.3
3.592,0.0,0.2,-0.3
3.6,0.0,0.2,-0.3
3.608,0.1,0.2,-0.5
3.616,0.1964285714285713,0.2,-0.6035714285714286
3.624,0.1869047619047618,0.2,-0.6130952380952382
3.632,0.17738095238095225,0.2,-0.6226190476190477
3.64,0.16785714285714273,0.2,-0.6321428571428572
3.648,0.15833333333333321,0.2,-0.6416666666666667
3.656,0.14880952380952367,0.2,-0.6511904761904763
3.664,0.13928571428571415,0.2,-0.6607142857142858
3.672,0.12976190476190463,0.2,-0.6702380952380953
3.68,0.1202380952380951,0.2,-0.6797619047619049
3.688,0.11071428571428558,0.2,-0.6892857142857144
3.696,0.10119047619047605,0.2,-0.6988095238095239
3.704,-0.3009009009009012,0.1,-1.1009009009009012
3.712,-0.3081081081081084,0.1,-1.1081081081081086
3.72,-0.3153153153153156,0.1,-1.1153153153153157
3.728,-0.3225225225225228,0.1,-1.1225225225225228
3.736,-0.32972972972973,0.1,-1.12972972972973
3.744,-0.3369369369369372,0.1,-1.1369369369369373
3.7520000000000002,-0.3441441441441444,0.1,-1.1441441441441444
3.7600000000000002,-0.3513513513513516,0.1,-1.1513513513513516
3.7680000000000002,-0.3585585585585588,0.1,-1.1585585585585587
3.7760000000000002,-0.365765765765766,0.1,-1.165765765765766
3.7840000000000003,-0.3729729729729732,0.1,-1.1729729729729732
3.7920000000000003,-0.3801801801801804,0.1,-1.1801801801801803
3.8000000000000003,-0.38738738738738765,0.1,-1.1873873873873875
3.8080000000000003,-0.3945945945945948,0.1,-1.1945945945945948
3.8160000000000003,-0.4533333333333389,0.08666666666666528,-1.2400000000000042
3.8240000000000003,-0.6666666666666707,0.03333333333333234,-1.400000000000003
3.8320000000000003,-0.5999999999999989,-0.10000000000000059,-1.8000000000000007
3.84,-0.5792207792207792,-0.11038961038961041,-1.8103896103896104
3.848,-0.5584415584415584,-0.12077922077922082,-1.8207792207792208
3.856,-0.5376623376623375,-0.1311688311688312,-1.8311688311688312
3.864,-0.5168831168831167,-0.14155844155844163,-1.8415584415584416
3.872,-0.49610389610389594,-0.15194805194805203,-1.851948051948052
3.88,-0.47532467532467515,-0.16233766233766245,-1.8623376623376624
3.888,-0.45454545454545436,-0.17272727272727284,-1.8727272727272728
3.896,-0.4337662337662336,-0.18311688311688323,-1.8831168831168832
3.904,-0.41298701298701274,-0.19350649350649365,-1.8935064935064936
3.912,-0.5,-0.5,-2.2
3.92,-0.49390243902439035,-0.7,-2.518292682926829
3.928,-0.48414634146341473,-0.7,-2.547560975609756
3.936,-0.4743902439024391,-0.7,-2.5768292682926828
3.944,-0.46463414634146344,-0.7,-2.6060975609756096
3.952,-0.4548780487804878,-0.7,-2.6353658536585365
3.96,-0.4451219512195122,-0.7,-2.6646341463414633
3.968,-0.43536585365853653,-0.7,-2.69390243902439
3.976,-0.4256097560975609,-0.7,-2.723170731707317
3.984,-0.4158536585365853,-0.7,-2.752439024390244
3.992,-0.4060975609756097,-0.7,-2.7817073170731708
4.0,-0.5,-1.0,-3.4
4.008,-1.4946808510638299,-0.9,-3.81063829787234
4.016,-1.4861702127659575,-0.9,-3.827659574468085
4.024,-1.4776595744680852,-0.9,-3.8446808510638295
4.032,-1.469148936170213,-0.9,-3.8617021276595738
4.04,-1.4606382978723407,-0.9,-3.8787234042553185
4.048,-1.4521276595744683,-0.9,-3.895744680851063
4.056,-1.443617021276596,-0.9,-3.912765957446808
4.064,-1.4351063829787236,-0.9,-3.9297872340425526
4.072,-1.4265957446808513,-0.9,-3.9468085106382973
4.08,-1.418085106382979,-0.9,-3.963829787234042
4.088,-1.4095744680851066,-0.9,-3.9808510638297867
4.096,-1.4010638297872342,-0.9,-3.9978723404255314
4.104,-1.7,-0.7,-4.3
4.112,-2.2146788990825708,-0.7963302752293574,-4.507339449541285
4.12,-2.2440366972477084,-0.788990825688073,-4.522018348623854
4.128,-2.273394495412846,-0.7816513761467886,-4.536697247706423
4.136,-2.3027522935779836,-0.7743119266055042,-4.551376146788992
4.144,-2.3321100917431212,-0.7669724770642198,-4.56605504587156
4.152,-2.361467889908259,-0.7596330275229354,-4.5807339449541296
4.16,-2.3908256880733965,-0.752293577981651,-4.595412844036698
4.168,-2.420183486238534,-0.7449541284403665,-4.610091743119267
4.176,-2.4495412844036717,-0.737614678899082,-4.6247706422018355
4.184,-2.4788990825688093,-0.7302752293577977,-4.639449541284405
4.192,-2.508256880733947,-0.7229357798165132,-4.654128440366973
4.2,-2.5376146788990845,-0.7155963302752288,-4.668807339449542
4.208,-2.566972477064222,-0.7082568807339444,-4.683486238532112
4.216,-2.5963302752293598,-0.70091743119266,-4.69816513761468
4.224,-2.2937499999999758,-0.6562499999999964,-4.612499999999994
4.232,-1.9437499999999757,-0.6062499999999965,-4.512499999999993
4.24,-2.949999999999972,-2.237499999999968,-4.474999999999992
4.248,-4.391666666666657,-3.416666666666662,-4.941666666666663
4.256,-5.498333333333331,-3.9233333333333325,-5.328333333333333
4.264,-6.605000000000007,-4.430000000000003,-5.715000000000002
4.272,-7.711666666666682,-4.936666666666674,-6.101666666666672
4.28,-8.818333333333356,-5.443333333333344,-6.488333333333341
4.288,-9.925000000000033,-5.950000000000014,-6.875000000000011
4.296,-11.031666666666707,-6.456666666666685,-7.26166666666668
4.304,-10.1999999999996,-5.574999999999706,-6.549999999999766
4.312,-0.013043478260841027,-2.219565217391311,0.1086956521739159
4.32,0.334782608695679,-2.297826086956528,0.14347826086956791
4.328,0.6826086956521992,-2.376086956521745,0.17826086956521991
4.336,1.030434782608719,-2.454347826086962,0.21304347826087194
4.344,1.3782608695652392,-2.532608695652179,0.24782608695652394
4.352,1.7260869565217591,-2.610869565217396,0.28260869565217595
4.36,2.0739130434782793,-2.689130434782613,0.317391304347828
4.368,2.4217391304347995,-2.76739130434783,0.35217391304348
4.376,2.7695652173913192,-2.845652173913047,0.386956521739132
4.384,3.1173913043478394,-2.923913043478264,0.42173913043478406
4.392,3.4652173913043596,-3.002173913043481,0.45652173913043603
4.4,3.8130434782608797,-3.080434782608698,0.491304347826088
4.408,-10.7,-0.2,0.5
4.416,-10.45384615384615,-0.3461538461538474,0.5615384615384621
4.424,-10.207692307692303,-0.49230769230769483,0.6230769230769242
4.432,-9.961538461538455,-0.6384615384615422,0.6846153846153862
4.44,-9.715384615384606,-0.7846153846153896,0.7461538461538483
4.448,-9.469230769230759,-0.930769230769237,0.8076923076923104
4.456,-9.22307692307691,-1.0769230769230844,0.8692307692307724
4.464,-8.976923076923061,-1.2230769230769318,0.9307692307692346
4.472,-8.730769230769214,-1.3692307692307792,0.9923076923076966
4.48,-8.484615384615365,-1.5153846153846267,1.0538461538461585
4.488,-8.238461538461518,-1.6615384615384738,1.1153846153846207
4.496,-7.992307692307669,-1.8076923076923213,1.1769230769230827
4.5040000000000004,-7.74615384615382,-1.9538461538461687,1.2384615384615447
4.5120000000000005,-7.499999999999944,-2.0999999999999486,1.299999999999827
4.5200000000000005,-6.99473684210521,-1.6368421052631092,-0.25789473684226905
4.5280000000000005,-6.489473684210476,-1.17368421052627,-1.8157894736843654
4.5360000000000005,0.47499999999998066,-1.4624999999999653,-0.7500000000000056
4.5440000000000005,-0.4684210526315822,0.1421052631578967,-0.9789473684210517
4.5520000000000005,-0.650877192982461,0.25438596491228377,-0.9228070175438581
4.5600000000000005,-0.83333333333334,0.3666666666666708,-0.8666666666666646
4.5680000000000005,-1.0157894736842188,0.4789473684210579,-0.8105263157894711
4.5760000000000005,-1.1982456140350979,0.591228070175445,-0.7543859649122775
4.5840000000000005,-1.380701754385977,0.7035087719298321,-0.6982456140350839
4.5920000000000005,-1.5631578947368556,0.8157894736842191,-0.6421052631578905
4.6000000000000005,-0.9857142857141044,0.9571428571428717,-0.4571428571428209
4.6080000000000005,-1.0327656043024677e-15,0.6999999999999978,0.40000000000000313
4.616,-0.009302325581395326,0.6813953488372093,0.427906976744186
4.624,-0.018604651162790652,0.6627906976744187,0.45581395348837195
4.632,-0.027906976744185977,0.644186046511628,0.4837209302325579
4.64,-0.037209302325581305,0.6255813953488374,0.5116279069767439
4.648,-0.046511627906976626,0.6069767441860467,0.5395348837209298
4.656,-0.055813953488371953,0.5883720930232561,0.5674418604651158
4.664,-0.06511627906976727,0.5697674418604655,0.5953488372093018
4.672,-0.07441860465116261,0.5511627906976748,0.6232558139534878
4.68,-0.08372093023255793,0.5325581395348842,0.6511627906976738
4.688,-0.09302325581395325,0.5139534883720935,0.6790697674418598
4.696,0.042857142857133795,0.38571428571429295,0.7
4.704,0.49600000000000044,-0.7059999999999993,0.49400000000000066
4.712,0.48000000000000037,-0.7299999999999994,0.47000000000000053
4.72,0.4640000000000003,-0.7539999999999996,0.4460000000000004
4.728,0.44800000000000023,-0.7779999999999997,0.4220000000000003
4.736,0.43200000000000016,-0.8019999999999997,0.39800000000000024
4.744,0.41600000000000004,-0.8259999999999998,0.3740000000000001
4.752,0.4,-0.85,0.35
4.76,0.3839999999999999,-0.8740000000000001,0.3259999999999999
4.768,0.3679999999999999,-0.8980000000000001,0.3019999999999998
4.776,0.35199999999999976,-0.9220000000000004,0.2779999999999997
4.784,0.33599999999999974,-0.9460000000000004,0.25399999999999956
4.792,0.3199999999999996,-0.9700000000000005,0.22999999999999948
4.8,0.3039999999999996,-0.9940000000000007,0.20599999999999935
4.808,4.0,-3.9,-1.2
4.816,3.542857142857142,-3.671428571428571,-1.1265306122448977
4.824,3.0857142857142836,-3.4428571428571417,-1.0530612244897957
4.832,2.6285714285714255,-3.2142857142857126,-0.9795918367346934
4.84,2.1714285714285673,-2.9857142857142835,-0.9061224489795912
4.848,1.714285714285709,-2.7571428571428545,-0.8326530612244889
4.856,1.2571428571428513,-2.528571428571426,-0.7591836734693868
4.864,0.7999999999999932,-2.2999999999999963,-0.6857142857142846
4.872,0.342857142857135,-2.0714285714285676,-0.6122448979591824
4.88,-0.11428571428572365,-1.842857142857138,-0.5387755102040802
4.888,-0.5714285714285818,-1.614285714285709,-0.46530612244897795
4.896,-1.0285714285714391,-1.3857142857142803,-0.3918367346938758
4.904,-1.4857142857142973,-1.1571428571428513,-0.31836734693877355
4.912,-2.0499999999999945,2.049999999999839,-0.09999999999995562
4.92,2.1393939393939463,4.3439393939394,1.4772727272727297
4.928,1.8969696969697027,4.119696969696975,1.3863636363636385
4.936,1.6545454545454596,3.8954545454545504,1.2954545454545472
4.944,1.4121212121212163,3.6712121212121254,1.2045454545454561
4.952,1.169696969696973,3.4469696969697003,1.1136363636363649
4.96,0.9272727272727299,3.2227272727272753,1.0227272727272736
4.968,0.6848484848484866,2.9984848484848503,0.9318181818181824
4.976,0.4424242424242433,2.7742424242424253,0.8409090909090913
4.984,0.20000000000000018,2.5500000000000003,0.75
4.992,-0.042424242424243364,2.3257575757575752,0.6590909090909088
5.0,-0.28484848484848646,2.1015151515151502,0.5681818181818176
5.008,-0.5272727272727296,1.8772727272727252,0.4772727272727264
5.016,-0.7696969696969731,1.6530303030303002,0.38636363636363513
5.024,-1.0121212121212162,1.4287878787878752,0.29545454545454386
5.032,-1.2545454545454593,1.2045454545454501,0.2045454545454528
5.04,-1.4969696969697028,0.9803030303030251,0.11363636363636154
5.048,-1.739393939393946,0.7560606060606001,0.022727272727270265
5.056,-0.7000000000000002,-0.3,0.7
5.064,0.6885245901639379,-0.9393442622950835,0.4704918032786874
5.072,0.806557377049184,-0.9918032786885262,0.43114754098360536
5.08,0.92459016393443,-1.0442622950819689,0.39180327868852327
5.088,1.0426229508196763,-1.0967213114754117,0.35245901639344124
5.096,1.1606557377049223,-1.1491803278688544,0.3131147540983592
5.104,1.2786885245901685,-1.201639344262297,0.27377049180327717
5.112,1.3967213114754147,-1.2540983606557399,0.23442622950819514
5.12,1.6333333333333728,-1.3333333333333433,-5.92303983637521e-14
5.128,1.3919999999999972,-0.7933333333333311,-0.593333333333331
5.136,1.3279999999999974,-0.7399999999999979,-0.5399999999999978
5.144,1.2639999999999976,-0.6866666666666646,-0.4866666666666646
5.152,1.1999999999999975,-0.6333333333333314,-0.43333333333333135
5.16,1.1359999999999977,-0.5799999999999982,-0.3799999999999981
5.168,1.0719999999999978,-0.5266666666666648,-0.32666666666666483
5.176,1.0079999999999978,-0.47333333333333166,-0.2733333333333316
5.184,0.943999999999998,-0.4199999999999984,-0.2199999999999983
5.192,0.8799999999999981,-0.36666666666666514,-0.16666666666666508
5.2,0.8159999999999982,-0.31333333333333185,-0.11333333333333179
5.208,-0.10000000000000009,1.2,0.0
5.216,-0.5283018867924539,0.9603773584905645,0.4943396226415092
5.224,-0.5660377358490578,0.9075471698113191,0.48679245283018846
5.232,-0.6037735849056617,0.8547169811320737,0.47924528301886765
5.24,-0.6415094339622655,0.8018867924528283,0.4716981132075469
5.248,-0.6792452830188693,0.7490566037735829,0.46415094339622615
5.256,-0.7169811320754732,0.6962264150943376,0.4566037735849054
5.264,-0.7547169811320771,0.6433962264150921,0.4490566037735846
5.272,-0.7924528301886808,0.5905660377358468,0.44150943396226383
5.28,-0.8301886792452848,0.5377358490566013,0.4339622641509431
5.288,-0.8679245283018886,0.48490566037735594,0.4264150943396223
5.296,-0.9056603773584925,0.43207547169811056,0.4188679245283015
5.304,-0.9433962264150964,0.3792452830188652,0.41132075471698076
5.312,-0.9811320754717001,0.3264150943396198,0.40377358490566
5.32,-0.5333333333331952,0.2666666666667456,0.2333333333333136
5.328,-0.16874999999998958,0.4437500000000035,0.15624999999999653
5.336,-0.01874999999998961,0.49375000000000346,0.10624999999999654
5.344,0.04179104477612265,0.4895522388059693,0.11044776119403067
5.352,0.08955223880597332,0.4776119402985067,0.12238805970149333
5.36,0.137313432835824,0.46567164179104403,0.134328358208956
5.368,0.18507462686567466,0.45373134328358133,0.14626865671641867
5.376,0.23283582089552535,0.4417910447761187,0.15820895522388134
5.384,0.28059701492537603,0.42985074626865605,0.170149253731344
5.392,0.32835820895522666,0.41791044776119335,0.18208955223880668
5.4,0.37611940298507734,0.4059701492537307,0.19402985074626933
5.408,0.4,-0.4,0.1
5.416,0.29354838709677394,-0.5,0.0870967741935479
5.424,0.28494623655913953,-0.5,0.06989247311827906
5.432,0.2763440860215051,-0.5,0.05268817204301022
5.44,0.2677419354838707,-0.5,0.03548387096774139
5.448,0.25913978494623624,-0.5,0.01827956989247255
5.456,0.25053763440860183,-0.5,0.0010752688172037117
5.464,0.24193548387096742,-0.5,-0.016129032258065126
5.472,0.233333333333333,-0.5,-0.033333333333333964
5.48,0.2247311827956986,-0.5,-0.050537634408602816
5.488,0.21612903225806418,-0.5,-0.06774193548387164
5.496,0.20752688172042977,-0.5,-0.08494623655914049
5.5040000000000004,-0.09999999999999479,-0.7999999999999792,-0.3
5.5120000000000005,-0.05294117647058394,-0.6117647058823358,-0.3
5.5200000000000005,-0.005882352941173091,-0.4235294117646924,-0.3
5.5280000000000005,0.2026315789473693,-0.19736842105263072,-0.2973684210526307
5.5360000000000005,0.2131578947368429,-0.18684210526315712,-0.28684210526315707
5.5440000000000005,0.22368421052631654,-0.17631578947368348,-0.27631578947368346
5.5520000000000005,0.23421052631579015,-0.16578947368420988,-0.26578947368420985
5.5600000000000005,0.24473684210526378,-0.15526315789473624,-0.25526315789473625
5.5680000000000005,0.2552631578947374,-0.1447368421052626,-0.24473684210526261
5.5760000000000005,0.265789473684211,-0.134210526315789,-0.23421052631578898
5.5840000000000005,0.2763157894736846,-0.12368421052631537,-0.22368421052631537
5.5920000000000005,0.28684210526315823,-0.11315789473684175,-0.21315789473684177
5.6000000000000005,0.29736842105263184,-0.10263157894736812,-0.20263157894736814
5.6080000000000005,0.15000000000002223,0.15000000000002223,0.05000000000002221
5.6160000000000005,0.1929292929292924,0.21414141414141527,0.10707070707070764
5.6240000000000006,0.18484848484848432,0.2303030303030314,0.1151515151515157
5.632,0.17676767676767713,0.24646464646464575,0.12323232323232287
5.64,0.16868686868686905,0.2626262626262619,0.13131313131313094
5.648,0.160606060606061,0.27878787878787803,0.13939393939393901
5.656,0.15252525252525292,0.2949494949494942,0.1474747474747471
5.664,0.14444444444444485,0.31111111111111034,0.15555555555555517
5.672,0.13636363636363677,0.3272727272727265,0.16363636363636325
5.68,0.12828282828282872,0.34343434343434265,0.17171717171717132
5.688,0.12020202020202063,0.3595959595959588,0.1797979797979794
5.696,0.11212121212121257,0.3757575757575749,0.18787878787878745
5.704,0.10404040404040449,0.39191919191919106,0.19595959595959553
5.712,0.05555555555555775,0.4888888888888845,0.28888888888888453
5.72,-0.04615384615384511,0.5538461538461549,0.37692307692307747
5.728,-0.16923076923076083,0.43076923076923923,0.3153846153846196
5.736,-0.19411764705882414,0.19411764705882414,0.09411764705882415
5.744,-0.18235294117647113,0.18235294117647113,0.08235294117647113
5.752,-0.17058823529411812,0.17058823529411812,0.07058823529411812
5.76,-0.15882352941176509,0.15882352941176509,0.058823529411765094
5.768,-0.14705882352941207,0.14705882352941207,0.047058823529412076
5.776,-0.13529411764705906,0.13529411764705906,0.03529411764705906
5.784,-0.12352941176470604,0.12352941176470604,0.023529411764706035
5.792,-0.11176470588235303,0.11176470588235303,0.011764705882353024
5.8,-0.1,0.1,0.0
5.808,-0.1,-0.1200000000000071,-0.06000000000000355
5.816,-0.30476190476190423,-0.30476190476190423,-0.2
5.824,-0.31428571428571384,-0.31428571428571384,-0.2
5.832,-0.3238095238095234,-0.3238095238095234,-0.2
5.84,-0.333333333333333,-0.333333333333333,-0.2
5.848,-0.3428571428571425,-0.3428571428571425,-0.2
5.856,-0.35238095238095213,-0.35238095238095213,-0.2
5.864,-0.36190476190476173,-0.36190476190476173,-0.2
5.872,-0.3714285714285713,-0.3714285714285713,-0.2
5.88,-0.3809523809523809,-0.3809523809523809,-0.2
5.888,-0.3904761904761904,-0.3904761904761904,-0.2
5.896,-0.4,-0.4,-0.2
5.904,-0.4,-0.3111111111111144,-0.2
5.912,-0.29767441860465144,0.0,-0.09767441860465144
5.92,-0.2883720930232561,0.0,-0.0883720930232561
5.928,-0.2790697674418608,0.0,-0.07906976744186078
5.936,-0.2697674418604655,0.0,-0.06976744186046546
5.944,-0.26046511627907015,0.0,-0.06046511627907013
5.952,-0.2511627906976748,0.0,-0.051162790697674806
5.96,-0.24186046511627948,0.0,-0.04186046511627948
5.968,-0.23255813953488416,0.0,-0.03255813953488415
5.976,-0.22325581395348884,0.0,-0.02325581395348883
5.984,-0.21395348837209352,0.0,-0.013953488372093495
5.992,-0.2046511627906982,0.0,-0.004651162790698174
6.0,-0.014285714285719717,0.12857142857142678,0.028571428571426763
6.008,0.3,0.3,0.10098039215686308
6.016,0.3,0.3,0.10882352941176501
6.024,0.3,0.3,0.11666666666666696
6.032,0.3,0.3,0.1245098039215689
6.04,0.3,0.3,0.13235294117647084
6.048,0.3,0.3,0.1401960784313728
6.056,0.3,0.3,0.14803921568627473
6.064,0.3,0.3,0.1558823529411767
6.072,0.3,0.3,0.16372549019607863
6.08,0.3,0.3,0.17156862745098056
6.088,0.3,0.3,0.17941176470588252
6.096,0.3,0.3,0.18725490196078448
6.104,0.3,0.3,0.19509803921568641
6.112,0.1857142857142812,0.1928571428571406,0.1857142857142812
6.12,0.07142857142856873,0.13571428571428437,0.07142857142856873
6.128,-0.10136986301369909,0.0,0.0
6.136,-0.11232876712328807,0.0,0.0
6.144,-0.12328767123287707,0.0,0.0
6.152,-0.13424657534246606,0.0,0.0
6.16,-0.14520547945205506,0.0,0.0
6.168,-0.15616438356164403,0.0,0.0
6.176,-0.16712328767123302,0.0,0.0
6.184,-0.17808219178082202,0.0,0.0
6.192,-0.18904109589041102,0.0,0.0
6.2,-0.2,0.0,0.0
6.208,-0.26666666666667654,-0.06666666666667653,-0.06666666666667653
6.216,-0.29444444444444456,-0.2,-0.1
6.224,-0.2855555555555556,-0.2,-0.1
6.232,-0.2766666666666667,-0.2,-0.1
6.24,-0.26777777777777784,-0.2,-0.1
6.248,-0.2588888888888889,-0.2,-0.1
6.256,-0.25,-0.2,-0.1
6.264,-0.24111111111111108,-0.2,-0.1
6.272,-0.23222222222222216,-0.2,-0.1
6.28,-0.22333333333333327,-0.2,-0.1
6.288,-0.21444444444444435,-0.2,-0.1
6.296,-0.20555555555555544,-0.2,-0.1
6.304,-0.033333333333313606,-0.033333333333313606,-0.033333333333313606
6.312,0.10549450549450543,0.0,0.0
6.32,0.1142857142857143,0.0,0.0
6.328,0.12307692307692317,0.0,0.0
6.336,0.131868131868132,0.0,0.0
6.344,0.14065934065934088,0.0,0.0
6.352,0.14945054945054975,0.0,0.0
6.36,0.15824175824175862,0.0,0.0
6.368,0.1670329670329675,0.0,0.0
6.376,0.17582417582417637,0.0,0.0
6.384,0.18461538461538524,0.0,0.0
6.392,0.1934065934065941,0.0,0.0
6.4,0.2,0.1,0.1
6.408,0.1958677685950407,0.1,0.1
6.416,0.18925619834710683,0.1,0.1
6.424,0.18264462809917298,0.1,0.1
6.432,0.1760330578512391,0.1,0.1
6.44,0.16942148760330525,0.1,0.1
6.448,0.16280991735537137,0.1,0.1
6.456,0.15619834710743752,0.1,0.1
6.464,0.14958677685950364,0.1,0.1
6.472,0.14297520661156976,0.1,0.1
6.48,0.1363636363636359,0.1,0.1
6.488,0.12975206611570206,0.1,0.1
6.496,0.12314049586776817,0.1,0.1
6.5040000000000004,0.1165289256198343,0.1,0.1
6.5120000000000005,0.10991735537190044,0.1,0.1
6.5200000000000005,0.10330578512396657,0.1,0.1
6.5280000000000005,0.06666666666666174,0.1,0.06666666666666174
6.5360000000000005,0.0,0.09999999999999193,0.0
6.5440000000000005,0.0,0.027272727272719927,0.0
6.5520000000000005,-0.1,0.0,0.0
6.5600000000000005,-0.1,0.0,0.0
6.5680000000000005,-0.1,0.0,0.0
6.5760000000000005,-0.1,0.0,0.0
6.5840000000000005,-0.1,0.0,0.0
6.5920000000000005,-0.1,0.0,0.0
6.6000000000000005,-0.1,0.0,0.0
6.6080000000000005,0.0,-0.1,0.0
6.6160000000000005,0.0,-0.1,0.0
6.6240000000000006,0.0,-0.1,0.0
6.632000000000001,0.0,-0.1,0.0
6.640000000000001,0.0,-0.1,0.0
6.648000000000001,0.0,-0.1,0.0
6.656000000000001,0.0,-0.1,0.0
6.664,0.0,-0.1,0.0
6.672,0.0,-0.1,0.0
6.68,0.0,-0.1,0.0
6.688,0.0,-0.1,0.0
6.696,0.0,-0.1,0.0
6.704,0.0,0.0,0.0
6.712,0.0,0.0,0.0
6.72,0.0,0.0,0.0
6.728,0.0,0.0,0.0
6.736,0.0,0.0,0.0
6.744,0.0,0.0,0.0
6.752,0.0,0.0,0.0
6.76,0.0,0.0,0.0
6.768,0.0,0.0,0.0
6.776,0.0,0.0,0.0
6.784,0.0,0.0,0.0
6.792,0.0,0.0,0.0
6.8,0.0,0.06666666666666668,0.0
6.808,0.0,0.0,0.0
6.816,0.0,0.0,0.0
6.824,0.0,0.0,0.0
6.832,0.0,0.0,0.0
6.84,0.0,0.0,0.0
6.848,0.0,0.0,0.0
6.856,0.0,0.0,0.0
6.864,0.0,0.0,0.0
6.872,0.0,0.0,0.0
6.88,0.0,0.0,0.0
6.888,0.0,0.0,0.0
6.896,0.0,0.0,0.0
6.904,0.0,0.0,0.0
6.912,0.0,0.0,0.0
6.92,0.0,0.0,0.0
6.928,0.0,0.0,0.0
6.936,-0.09843749999999948,0.0,0.0
6.944,-0.08593749999999949,0.0,0.0
6.952,-0.07343749999999949,0.0,0.0
6.96,-0.060937499999999485,0.0,0.0
6.968,-0.04843749999999948,0.0,0.0
6.976,-0.035937499999999484,0.0,0.0
6.984,-0.023437499999999487,0.0,0.0
6.992,-0.010937499999999475,0.0,0.0
7.0,0.0,0.0,0.0
7.008,0.0,0.0,0.0
7.016,0.0,0.0,0.0
7.024,0.0,0.0,0.0
7.032,0.0,0.0,0.0
7.04,0.0,0.0,0.0
7.048,0.0,0.0,0.0
7.056,0.0,0.0,0.0
7.064,0.0,0.0,0.0
7.072,0.0,0.0,0.0
7.08,0.0,0.0,0.0
7.088,0.0,0.0,0.0
7.096,0.0,0.0,0.0
7.104,0.0,0.0,0.0
7.112,0.0,0.0,0.0
7.12,0.0,0.0,0.0
7.128,0.0,0.0,0.0
7.136,0.0,0.0,0.0
7.144,0.0,0.0,0.0
7.152,0.0,0.0,0.0
7.16,0.0,0.0,0.0
7.168,0.0,0.0,0.0
7.176,0.0,0.0,0.0
7.184,0.0,0.0,0.0
7.192,0.0,0.0,0.0
7.2,0.0,0.0,0.0
7.208,0.0,0.0,0.0
7.216,0.0,0.0,0.0
7.224,0.0,0.0,0.0
7.232,0.0,0.0,0.0
7.24,0.0,0.0,0.0
7.248,0.0,0.0,0.0
7.256,0.0,0.0,0.0
7.264,0.0,0.0,0.0
7.272,0.0,0.0,0.0
7.28,0.0,0.0,0.0
7.288,0.0,0.0,0.0
7.296,0.0,0.0,0.0
7.304,0.0,0.0,0.0
7.312,0.08571428571429297,0.0,0.0
7.32,0.09195402298850516,0.0,0.0
7.328,0.08275862068965464,0.0,0.0
7.336,0.07356321839080412,0.0,0.0
7.344,0.0643678160919536,0.0,0.0
7.352,0.0551724137931031,0.0,0.0
7.36,0.04597701149425258,0.0,0.0
7.368,0.03678160919540206,0.0,0.0
7.376,0.027586206896551543,0.0,0.0
7.384,0.018390804597701038,0.0,0.0
7.392,0.009195402298850519,0.0,0.0
7.4,0.0,0.0,0.0
7.408,0.0,0.0,0.0
7.416,0.0,0.0,0.0
7.424,0.0,0.0,0.0
7.432,0.0,0.0,0.0
7.44,0.0,0.0,0.0
7.448,0.0,0.0,0.0
7.456,0.0,0.0,0.0
7.464,0.0,0.0,0.0
7.472,0.0,0.0,0.0
7.48,0.0,0.0,0.0
7.488,0.0,0.0,0.0
7.496,0.0,0.0,0.0
7.5040000000000004,0.0,0.0,0.0
7.5120000000000005,0.0,0.0,0.0
7.5200000000000005,0.0,0.0,0.0
7.5280000000000005,0.0,0.0,0.0
7.5360000000000005,0.0,0.0,0.0
7.5440000000000005,0.0,0.0,0.0
7.5520000000000005,0.0,0.0,0.0
7.5600000000000005,0.0,0.0,0.0
7.5680000000000005,0.0,0.0,0.0
7.5760000000000005,0.0,0.0,0.0
7.5840000000000005,0.0,0.0,0.0
7.5920000000000005,0.0,0.0,0.0
7.6000000000000005,0.0,0.0,0.0
7.6080000000000005,0.0,0.0,0.0
7.6160000000000005,0.0,0.0,0.0
7.6240000000000006,0.0,0.0,0.0
7.632000000000001,0.0,0.0,0.0
7.640000000000001,0.0,0.0,0.0
7.648000000000001,0.0,0.0,0.0
7.656000000000001,0.0,0.0,0.0
7.664000000000001,0.0,0.0,0.0
7.672000000000001,0.0,0.0,0.0
7.68,0.0,0.0,0.0
7.688,0.0,0.0,0.0
7.696,0.0,0.0,0.0
7.704,0.0,0.0,0.0
7.712,0.0,0.0,0.0
7.72,0.0,0.0,0.0
7.728,0.0,0.0,0.0
7.736,0.0,0.0,0.0
7.744,0.0,0.0,0.0
7.752,0.0,0.0,0.0
7.76,0.0,0.0,0.0
7.768,0.0,0.0,0.0
7.776,0.0,0.0,0.0
7.784,0.0,0.0,0.0
7.792,0.0,0.0,0.0
7.8,0.0,0.0,0.0
7.808,0.0,0.0,0.0
7.816,0.0,0.0,0.0
7.824,0.0,0.0,0.0
7.832,0.0,0.0,0.0
7.84,0.0,0.0,0.0
7.848,0.0,0.0,0.0
7.856,0.0,0.0,0.0
7.864,0.0,0.0,0.0
7.872,0.0,0.0,0.0
7.88,0.0,0.0,0.0
7.888,0.0,0.0,0.0
7.896,0.0,0.0,0.0
7.904,0.0,0.0,0.0
7.912,0.0,0.0,0.0
7.92,0.0,0.0,0.0
7.928,0.0,0.0,0.0
7.936,0.0,0.0,0.0
7.944,0.0,0.0,0.0
7.952,0.0,0.0,0.0
7.96,0.0,0.0,0.0
7.968,0.0,0.0,0.0
7.976,0.0,0.0,0.0
7.984,0.0,0.0,0.0
7.992,0.0,0.0,0.0
8.0,0.0,0.0,0.0
8.008000000000001,0.0,0.0,0.0
8.016,0.0,0.0,0.0
8.024000000000001,0.0,0.0,0.0
8.032,0.0,0.0,0.0
8.040000000000001,0.0,0.0,0.0
8.048,0.0,0.0,0.0
8.056000000000001,0.0,0.0,0.0
8.064,0.0,0.0,0.0
8.072000000000001,0.0,0.0,0.0
8.08,0.0,0.0,0.0
8.088000000000001,0.0,0.0,0.0
8.096,0.0,0.0,0.0
8.104000000000001,0.0,0.0,0.0
8.112,0.0,0.0,0.0
8.120000000000001,0.0,0.0,0.0
8.128,0.0,0.0,0.0
8.136000000000001,0.0,0.0,0.0
8.144,0.0,0.0,0.0
8.152000000000001,0.0,0.0,0.0
8.16,0.0,0.0,0.0
8.168000000000001,0.0,0.0,0.0
8.176,0.0,0.0,0.0
8.184000000000001,0.0,0.0,0.0
8.192,0.0,0.0,0.0
8.2,0.0,0.0,0.0
8.208,-0.12608695652173663,0.004347826086956102,0.004347826086956102
8.216,-0.17826086956520984,0.013043478260868307,0.013043478260868307
8.224,-0.23043478260869465,0.02173913043478244,0.02173913043478244
8.232,-0.28260869565216784,0.030434782608694647,0.030434782608694647
8.24,-0.3347826086956527,0.03913043478260878,0.03913043478260878
8.248,-0.38695652173912587,0.047826086956520984,0.047826086956520984
8.256,-0.4391304347826107,0.05652173913043512,0.05652173913043512
8.264,-0.4913043478260839,0.06521739130434732,0.06521739130434732
8.272,-0.5434782608695687,0.07391304347826146,0.07391304347826146
8.28,-0.5956521739130419,0.08260869565217366,0.08260869565217366
8.288,-0.6478260869565268,0.0913043478260878,0.0913043478260878
8.296,-0.7,0.1,0.1
8.304,-0.2867256637168136,0.1,-0.09734513274336272
8.312,-0.2513274336283218,0.1,-0.09026548672566437
8.32,-0.2159292035398221,0.1,-0.08318584070796442
8.328,-0.1805309734513303,0.1,-0.07610619469026605
8.336,-0.1451327433628306,0.1,-0.06902654867256612
8.344,-0.10973451327433878,0.1,-0.06194690265486776
8.352,-0.0743362831858391,0.1,-0.05486725663716783
8.36,-0.03893805309734727,0.1,-0.04778761061946946
8.368,-0.0035398230088476423,0.1,-0.04070796460176952
8.376,0.03185840707964421,0.1,-0.03362831858407116
8.384,0.0672566371681439,0.1,-0.026548672566371223
8.392,0.1026548672566357,0.1,-0.019469026548672858
8.4,0.13805309734513538,0.1,-0.012389380530972924
8.408,0.17345132743362718,0.1,-0.005309734513274558
8.416,0.1999999999999112,0.15000000000004443,0.0
8.424,0.22727272727270967,0.3272727272727097,0.0
8.432,0.31333333333333185,0.41777777777777586,0.0
8.44,0.33999999999999564,0.4533333333333276,0.0
8.448,0.36666666666666536,0.48888888888888715,0.0
8.456,0.3933333333333291,0.5244444444444388,0.0
8.464,0.4199999999999988,0.5599999999999985,0.0
8.472,0.44666666666666255,0.5955555555555502,0.0
8.48,0.4733333333333323,0.6311111111111097,0.0
8.488,0.499999999999996,0.6666666666666614,0.0
8.496,0.5266666666666657,0.702222222222221,0.0
8.504,0.5533333333333295,0.7377777777777728,0.0
8.512,0.5799999999999992,0.7733333333333323,0.0
8.52,0.8,0.9,0.0
8.528,3.4312500000000203,1.5,-0.13125000000000486
8.536,3.6412499999999968,1.5,-0.1812499999999993
8.544,3.8512500000000203,1.5,-0.23125000000000487
8.552,4.061249999999997,1.5,-0.28124999999999933
8.56,4.271250000000021,1.5,-0.3312500000000049
8.568,4.4812499999999975,1.5,-0.3812499999999993
8.576,4.691250000000021,1.5,-0.4312500000000049
8.584,4.901249999999997,1.5,-0.4812499999999993
8.592,5.1112500000000205,1.5,-0.5312500000000049
8.6,5.321249999999997,1.5,-0.5812499999999994
8.608,4.3,1.6,-0.9
8.616,4.317391304347824,1.5565217391304391,-0.9086956521739122
8.624,4.334782608695653,1.5130434782608684,-0.9173913043478263
8.632,4.352173913043477,1.4695652173913074,-0.9260869565217386
8.64,4.3695652173913055,1.4260869565217367,-0.9347826086956527
8.648,4.38695652173913,1.3826086956521757,-0.9434782608695649
8.656,4.4043478260869575,1.339130434782605,-0.952173913043479
8.664,4.421739130434783,1.295652173913044,-0.9608695652173912
8.672,4.43913043478261,1.2521739130434733,-0.9695652173913054
8.68,4.4565217391304355,1.2086956521739123,-0.9782608695652175
8.688,4.473913043478263,1.1652173913043415,-0.9869565217391317
8.696,4.4913043478260875,1.1217391304347806,-0.995652173913044
8.704,4.099999999999378,0.7499999999999556,-1.2
8.712,3.252293577981658,0.712844036697247,-1.2064220183486236
8.72,3.083486238532098,0.7275229357798175,-1.2137614678899087
8.728,2.9146788990825754,0.7422018348623847,-1.2211009174311924
8.736,2.745871559633015,0.7568807339449551,-1.2284403669724775
8.744,2.5770642201834923,0.7715596330275224,-1.2357798165137612
8.752,2.408256880733932,0.7862385321100929,-1.2431192660550465
8.76,2.2394495412844098,0.80091743119266,-1.25045871559633
8.768,2.070642201834849,0.8155963302752305,-1.2577981651376153
8.776,1.9018348623853265,0.8302752293577977,-1.2651376146788988
8.784,1.7330275229357663,0.8449541284403681,-1.2724770642201841
8.792,1.5642201834862437,0.8596330275229354,-1.2798165137614677
8.8,1.3954128440366835,0.8743119266055058,-1.287155963302753
8.808,1.2266055045871607,0.888990825688073,-1.2944954128440365
8.816,0.9666666666666273,0.9,-1.3
8.824,0.836363636363635,0.836363636363635,-1.3
8.832,0.9976470588235286,0.7952941176470573,-1.5023529411764713
8.84,0.9882352941176472,0.7764705882352944,-1.511764705882353
8.848,0.9788235294117636,0.7576470588235273,-1.5211764705882362
8.856,0.9694117647058823,0.7388235294117645,-1.5305882352941178
8.864,0.9599999999999987,0.7199999999999975,-1.5400000000000014
8.872,0.9505882352941173,0.7011764705882346,-1.5494117647058827
8.88,0.9411764705882338,0.6823529411764676,-1.5588235294117663
8.888,0.9317647058823524,0.6635294117647048,-1.5682352941176476
8.896,0.9223529411764689,0.6447058823529378,-1.5776470588235312
8.904,0.9129411764705875,0.625882352941175,-1.5870588235294125
8.912,0.903529411764704,0.6070588235294079,-1.596470588235296
8.92,0.1,0.2,-1.3
8.928,0.11000000000000111,0.2,-1.2799999999999978
8.936,0.12000000000000001,0.2,-1.26
8.944,0.13000000000000111,0.2,-1.2399999999999978
8.952,0.14,0.2,-1.22
8.96,0.15000000000000113,0.2,-1.199999999999998
8.968,0.16,0.2,-1.1800000000000002
8.976,0.17000000000000112,0.2,-1.159999999999998
8.984,0.18,0.2,-1.1400000000000001
8.992,0.1900000000000011,0.2,-1.1199999999999979
9.0,0.2,0.2,-1.1
9.008000000000001,0.003296703296703447,-0.006593406593406894,-0.7901098901098897
9.016,0.012087912087911339,-0.024175824175822678,-0.763736263736266
9.024000000000001,0.020879120879121183,-0.041758241758242366,-0.7373626373626365
9.032,0.029670329670329072,-0.059340659340658145,-0.7109890109890128
9.040000000000001,0.038461538461538915,-0.07692307692307783,-0.6846153846153833
9.048,0.04725274725274681,-0.09450549450549361,-0.6582417582417597
9.056000000000001,0.05604395604395665,-0.1120879120879133,-0.6318681318681301
9.064,0.06483516483516454,-0.12967032967032907,-0.6054945054945065
9.072000000000001,0.07362637362637439,-0.14725274725274878,-0.5791208791208768
9.08,0.08241758241758228,-0.16483516483516455,-0.5527472527472532
9.088000000000001,0.09120879120879212,-0.18241758241758424,-0.5263736263736236
9.096,0.1,-0.2,-0.5
9.104000000000001,-0.10267857142857158,-0.09732142857142843,0.2
9.112,-0.10982142857142804,-0.09017857142857197,0.2
9.120000000000001,-0.11696428571428609,-0.08303571428571392,0.2
9.128,-0.12410714285714256,-0.07589285714285746,0.2
9.136000000000001,-0.1312500000000006,-0.06874999999999941,0.2
9.144,-0.13839285714285707,-0.06160714285714295,0.2
9.152000000000001,-0.1455357142857151,-0.054464285714284896,0.2
9.16,-0.15267857142857158,-0.04732142857142844,0.2
9.168000000000001,-0.1598214285714296,-0.040178571428570384,0.2
9.176,-0.1669642857142861,-0.03303571428571392,0.2
9.184000000000001,-0.17410714285714413,-0.02589285714285587,0.2
9.192,-0.1812500000000006,-0.018749999999999406,0.2
9.200000000000001,-0.18839285714285864,-0.011607142857141359,0.2
9.208,-0.19553571428571512,-0.0044642857142848935,0.2
9.216000000000001,-0.1454545454545161,-0.027272727272741954,0.11818181818177413
9.224,-2.7755575615628914e-17,-0.09999999999999999,-0.10000000000000003
9.232,0.1729729729729783,-0.0729729729729783,-0.2
9.24,0.12972972972973013,-0.02972972972973012,-0.2
9.248,0.08648648648649156,0.013513513513508449,-0.2
9.256,0.043243243243243384,0.05675675675675662,-0.2
9.264,4.801714581503802e-15,0.0999999999999952,-0.2
9.272,-0.04324324324324336,0.14324324324324336,-0.2
9.28,-0.08648648648648194,0.18648648648648194,-0.2
9.288,-0.12972972972973013,0.22972972972973013,-0.2
9.296,-0.17297297297296865,0.27297297297296863,-0.2
9.304,-0.3,0.2,-0.2
9.312,-0.19767441860465246,0.3,-0.09883720930232623
9.32,-0.17906976744185976,0.3,-0.08953488372092988
9.328,-0.16046511627907117,0.3,-0.08023255813953559
9.336,-0.14186046511627845,0.3,-0.07093023255813923
9.344,-0.12325581395348986,0.3,-0.06162790697674493
9.352,-0.10465116279069715,0.3,-0.052325581395348576
9.36,-0.08604651162790856,0.3,-0.04302325581395428
9.368,-0.06744186046511585,0.3,-0.03372093023255793
9.376,-0.04883720930232727,0.3,-0.024418604651163633
9.384,-0.030232558139534543,0.3,-0.015116279069767272
9.392,-0.011627906976745955,0.3,-0.005813953488372978
9.4,0.04285714285714649,0.3,0.0
9.408,0.3,0.3,-0.1
9.416,0.2934959349593489,0.2934959349593489,-0.11951219512195324
9.424,0.2869918699186993,0.2869918699186993,-0.13902439024390212
9.432,0.2804878048780482,0.2804878048780482,-0.15853658536585535
9.44,0.2739837398373986,0.2739837398373986,-0.17804878048780426
9.448,0.2674796747967475,0.2674796747967475,-0.1975609756097575
9.456,0.2609756097560979,0.2609756097560979,-0.2170731707317064
9.464,0.2544715447154468,0.2544715447154468,-0.2365853658536596
9.472,0.24796747967479715,0.24796747967479715,-0.25609756097560854
9.48,0.24146341463414608,0.24146341463414608,-0.2756097560975617
9.488,0.23495934959349646,0.23495934959349646,-0.2951219512195106
9.496,0.2284552845528454,0.2284552845528454,-0.31463414634146386
9.504,0.22195121951219576,0.22195121951219576,-0.33414634146341277
9.512,0.21544715447154467,0.21544715447154467,-0.35365853658536595
9.52,0.20894308943089507,0.20894308943089507,-0.37317073170731485
9.528,0.20243902439024397,0.20243902439024397,-0.3926829268292681
9.536,0.2,0.4,-1.5
9.544,-0.05384615384615175,0.3184615384615393,-1.9
9.552,0.007692307692303488,0.3430769230769214,-1.9
9.56,0.06923076923077237,0.36769230769230893,-1.9
9.568,0.1307692307692276,0.392307692307691,-1.9
9.576,0.19230769230769648,0.4169230769230786,-1.9
9.584,0.2538461538461517,0.44153846153846066,-1.9
9.592,0.3153846153846206,0.46615384615384825,-1.9
9.6,0.3769230769230759,0.49076923076923035,-1.9
9.608,0.6857142857142712,0.5857142857142712,-0.8571428571428137
9.616,0.6025641025641011,0.5025641025641011,-0.6
9.624,0.6128205128205126,0.5128205128205127,-0.6
9.632,0.6230769230769219,0.5230769230769219,-0.6
9.64,0.6333333333333333,0.5333333333333333,-0.6
9.648,0.6435897435897425,0.5435897435897425,-0.6
9.656,0.653846153846154,0.553846153846154,-0.6
9.664,0.6641025641025632,0.5641025641025632,-0.6
9.672,0.6743589743589746,0.5743589743589746,-0.6
9.68,0.6846153846153838,0.5846153846153839,-0.6
9.688,0.6948717948717953,0.5948717948717954,-0.6
9.696,0.29693877551020575,0.29489795918367623,-0.895918367346941
9.704,0.2724489795918354,0.254081632653059,-0.8632653061224472
9.712,0.24795918367347047,0.21326530612245082,-0.8306122448979607
9.72,0.22346938775510014,0.17244897959183358,-0.7979591836734669
9.728,0.19897959183673525,0.1316326530612254,-0.7653061224489803
9.736,0.1744897959183649,0.09081632653060817,-0.7326530612244866
9.744,0.15,0.04999999999999999,-0.7
9.752,0.12551020408162966,0.009183673469382758,-0.6673469387755062
9.76,0.10102040816326474,-0.031632653061225424,-0.6346938775510197
9.768,0.07653061224489441,-0.07244897959184265,-0.6020408163265258
9.776,0.052040816326529515,-0.11326530612245084,-0.5693877551020394
9.784,0.027551020408159155,-0.15408163265306807,-0.5367346938775456
9.792,0.0030612244897942342,-0.19489795918367625,-0.504081632653059
9.8,-0.049999999999955594,-0.2500000000000444,-0.2499999999999556
9.808,0.45607476635514177,-0.3,0.01682242990654252
9.816,0.5308411214953362,-0.3,0.03925233644860088
9.824,0.6056074766355142,-0.3,0.06168224299065425
9.832,0.6803738317757086,-0.3,0.08411214953271261
9.84,0.7551401869158867,-0.3,0.10654205607476598
9.848,0.8299065420560812,-0.3,0.12897196261682434
9.856,0.9046728971962591,-0.3,0.1514018691588777
9.864,0.9794392523364536,-0.3,0.17383177570093608
9.872,1.0542056074766315,-0.3,0.19626168224298945
9.88,1.128971962616826,-0.3,0.2186915887850478
9.888,1.2037383177570038,-0.3,0.2411214953271012
9.896,1.2785046728971985,-0.3,0.26355140186915954
9.904,1.3532710280373763,-0.3,0.28598130841121294
9.912,1.0699999999999803,-0.23999999999999644,0.20999999999999466
9.92,-0.8,0.20000000000000004,0.1
9.928,-0.054430379746833055,0.8075949367088612,0.14556962025316694
9.936,0.006329113924047211,0.8177215189873412,0.20632911392404724
9.944,0.06708860759494098,0.8278481012658235,0.267088607594941
9.952,0.12784810126582125,0.8379746835443036,0.32784810126582126
9.96,0.188607594936715,0.8481012658227859,0.38860759493671504
9.968,0.2493670886075953,0.858227848101266,0.44936708860759533
9.976,0.310126582278489,0.8683544303797482,0.5101265822784891
9.984,0.3708860759493693,0.8784810126582282,0.5708860759493694
9.992,0.4316455696202631,0.8886075949367105,0.6316455696202631
10.0,0.4924050632911433,0.8987341772151906,0.6924050632911433
10.008000000000001,0.48556701030927346,1.779381443298962,1.4835051546391698
10.016,0.42783505154639295,1.696907216494847,1.4175257731958777
10.024000000000001,0.3701030927834996,1.6144329896907137,1.351546391752571
10.032,0.3123711340206191,1.5319587628865987,1.285567010309279
10.040000000000001,0.2546391752577257,1.4494845360824653,1.2195876288659724
10.048,0.19690721649484522,1.3670103092783503,1.1536082474226803
10.056000000000001,0.13917525773195188,1.284536082474217,1.0876288659793736
10.064,0.08144329896907138,1.202061855670102,1.0216494845360815
10.072000000000001,0.023711340206178044,1.1195876288659687,0.9556701030927749
10.08,-0.034020618556702464,1.0371134020618535,0.8896907216494828
10.088000000000001,-0.09175257731959585,0.9546391752577202,0.8237113402061762
10.096,-0.14948453608247636,0.8721649484536053,0.7577319587628841
10.104000000000001,-0.2,0.09999999999982237,0.39999999999989344
10.112,-0.10232558139534759,-0.8,-0.10697674418604278
10.120000000000001,-0.1209302325581407,-0.8,-0.16279069767442206
10.128,-0.13953488372092965,-0.8,-0.218604651162789
10.136000000000001,-0.15813953488372276,-0.8,-0.2744186046511683
10.144,-0.1767441860465117,-0.8,-0.33023255813953517
10.152000000000001,-0.19534883720930482,-0.8,-0.3860465116279145
10.16,-0.21395348837209377,-0.8,-0.4418604651162814
10.168000000000001,-0.23255813953488688,-0.8,-0.49767441860466066
10.176,-0.2511627906976759,-0.8,-0.5534883720930276
10.184000000000001,-0.26976744186046897,-0.8,-0.6093023255814068
10.192,-0.28837209302325795,-0.8,-0.6651162790697738
10.200000000000001,-0.09999999999991119,-1.6000000000007994,-0.5999999999994671
10.208,0.03214285714285833,-2.4357142857142833,0.026785714285715276
10.216000000000001,0.07500000000000595,-2.349999999999988,0.06250000000000495
10.224,0.11785714285714405,-2.264285714285712,0.0982142857142867
10.232000000000001,0.16071428571429167,-2.178571428571417,0.13392857142857637
10.24,0.20357142857142976,-2.0928571428571403,0.16964285714285812
10.248,0.24642857142856786,-2.0071428571428642,0.20535714285713988
10.256,0.2892857142857155,-1.921428571428569,0.24107142857142955
10.264,0.3321428571428536,-1.835714285714293,0.2767857142857113
10.272,0.37500000000000117,-1.7499999999999978,0.31250000000000094
10.28,0.41785714285713926,-1.6642857142857215,0.3482142857142827
10.288,0.4607142857142869,-1.578571428571426,0.3839285714285724
10.296,0.503571428571425,-1.49285714285715,0.41964285714285415
10.304,0.5464285714285726,-1.4071428571428548,0.4553571428571438
10.312,0.5892857142857107,-1.3214285714285785,0.49107142857142555
10.32,-1.5222222222222288,-0.5111111111111144,-2.3555555555554832
10.328,-1.6111111111111045,-0.5555555555555522,-1.3777777777778502
10.336,-1.7,-0.6,-0.3999999999999999
10.344,-1.3645161290322916,-0.4838709677419471,-0.34838709677419877
10.352,-1.0290322580645088,-0.36774193548386847,-0.296774193548386
10.36,-0.6935483870968007,-0.2516129032258156,-0.24516129032258474
10.368,-0.3580645161290177,-0.13548387096773695,-0.193548387096772
10.376,-0.02258064516130953,-0.01935483870968413,-0.1419354838709707
10.384,0.31290322580647323,0.09677419354839456,-0.09032258064515797
10.392,0.6483870967741818,0.21290322580644738,-0.038709677419356714
10.4,-0.3500000000001332,0.04999999999986676,-0.20000000000008883
10.408,-0.5874999999999861,-0.18749999999998612,-0.3
10.416,-0.5688888888888903,-0.17666666666666772,-0.3
10.424,-0.5333333333333385,-0.15000000000000396,-0.3
10.432,-0.497777777777779,-0.12333333333333425,-0.3
10.44,-0.4622222222222273,-0.09666666666667047,-0.3
10.448,-0.42666666666666775,-0.07000000000000078,-0.3
10.456,-0.391111111111116,-0.043333333333337,-0.3
10.464,-0.35555555555555646,-0.0166666666666673,-0.3
10.472,-0.3200000000000047,0.009999999999996484,-0.3
10.48,-0.28444444444444517,0.03666666666666618,-0.3
10.488,-0.2488888888888935,0.06333333333332997,-0.3
10.496,-0.21333333333333387,0.08999999999999964,-0.3
10.504,-0.3,-0.1,-0.1
10.512,-0.26701030927834724,-0.08350515463917364,-0.07525773195876045
10.52,-0.23402061855670186,-0.06701030927835094,-0.05051546391752639
10.528,-0.2010309278350491,-0.05051546391752457,-0.025773195876286847
10.536,-0.1680412371134037,-0.03402061855670187,-0.0010309278350527779
10.544,-0.135051546391751,-0.017525773195875505,0.023711340206186773
10.552,-0.10206185567010556,-0.0010309278350527917,0.04845360824742084
10.56,-0.06907216494845284,0.015463917525773571,0.0731958762886604
10.568,-0.03608247422680744,0.03195876288659627,0.09793814432989445
10.576,-0.0030927835051546837,0.04845360824742265,0.122680412371134
10.584,0.029896907216490687,0.06494845360824533,0.14742268041236806
10.592,0.06288659793814344,0.08144329896907171,0.1721649484536076
10.6,0.09587628865978887,0.09793814432989442,0.1969072164948417
10.608,0.19639639639639522,0.01261261261261675,0.1036036036036048
10.616,0.18198198198198248,0.06306306306306134,0.11801801801801753
10.624,0.16756756756756652,0.11351351351351714,0.13243243243243347
10.632,0.1531531531531538,0.16396396396396173,0.1468468468468462
10.64,0.13873873873873785,0.21441441441441753,0.16126126126126217
10.648,0.12432432432432511,0.2648648648648621,0.17567567567567488
10.656,0.10990990990990916,0.3153153153153179,0.1900900900900908
10.664,0.09549549549549642,0.3657657657657625,0.20450450450450358
10.672,0.08108108108108047,0.4162162162162183,0.21891891891891951
10.68,0.06666666666666773,0.4666666666666629,0.23333333333333225
10.688,0.052252252252251774,0.5171171171171187,0.2477477477477482
10.696,0.03783783783783903,0.5675675675675633,0.2621621621621609
10.704,0.0234234234234231,0.618018018018019,0.27657657657657686
10.712,0.00900900900901036,0.6684684684684636,0.29099099099098963
10.72,0.1166666666666864,0.7916666666667752,0.6250000000000295
10.728,0.24999999999999997,1.525,0.825
10.736,0.5176470588235036,3.4764705882352556,0.6411764705882168
10.744,0.3529411764705839,3.229411764705876,0.5235294117647028
10.752,0.18823529411762768,2.982352941176442,0.4058823529411626
10.76,0.02352941176470802,2.735294117647062,0.28823529411764853
10.768,-0.14117647058824823,2.4882352941176276,0.17058823529410838
10.776,-0.30588235294116795,2.241176470588248,0.052941176470594375
10.784,-0.4705882352941241,1.994117647058814,-0.06470588235294583
10.792,-0.6352941176470438,1.7470588235294344,-0.18235294117645984
10.8,-0.8000000000000002,1.5,-0.30000000000000004
10.808,-0.44999999999999996,0.2,0.5
10.816,-0.16195652173912278,0.08478260869564912,0.6076086956521755
10.824,-0.1184782608695626,0.06739130434782503,0.6163043478260875
10.832,-0.07499999999999277,0.0499999999999971,0.6250000000000014
10.84,-0.031521739130432574,0.03260869565217303,0.6336956521739134
10.848,0.01195652173913725,0.015217391304345088,0.6423913043478274
10.856,0.05543478260869744,-0.002173913043478984,0.6510869565217394
10.864,0.09891304347826729,-0.019565217391306913,0.6597826086956534
10.872,0.14239130434782743,-0.036956521739131,0.6684782608695654
10.88,0.18586956521739728,-0.05434782608695893,0.6771739130434794
10.888,0.22934782608695747,-0.071739130434783,0.6858695652173914
10.896,0.2728260869565273,-0.08913043478261093,0.6945652173913054
10.904,0.3,0.0,0.35
10.912,0.27333333333333226,-0.00666666666666693,-0.06000000000000237
10.92,0.23777777777778059,-0.015555555555554854,-0.13999999999999369
10.928,0.20222222222222097,-0.024444444444444755,-0.22000000000000278
10.936,0.16666666666666927,-0.03333333333333268,-0.2999999999999941
10.944,0.13111111111110968,-0.04222222222222258,-0.38000000000000317
10.952,0.09555555555555797,-0.051111111111110503,-0.45999999999999447
10.96,0.05999999999999839,-0.0600000000000004,-0.5400000000000036
10.968,0.02444444444444671,-0.06888888888888832,-0.6199999999999949
10.976,-0.011111111111112904,-0.07777777777777822,-0.700000000000004
10.984,-0.04666666666666458,-0.08666666666666614,-0.7799999999999953
10.992,-0.0822222222222242,-0.09555555555555605,-0.8600000000000043
11.0,-0.1,-0.7,-1.8
11.008000000000001,0.1,-1.2842592592592763,-0.006481481481482792
11.016,0.1,-1.3805555555555615,-0.013888888888889348
11.024000000000001,0.1,-1.476851851851868,-0.02129629629629755
11.032,0.1,-1.5731481481481533,-0.028703703703704102
11.040000000000001,0.1,-1.6694444444444598,-0.0361111111111123
11.048,0.1,-1.765740740740745,-0.04351851851851886
11.056000000000001,0.1,-1.8620370370370516,-0.050925925925927054
11.064,0.1,-1.958333333333337,-0.05833333333333361
11.072000000000001,0.1,-2.0546296296296434,-0.06574074074074181
11.08,0.1,-2.150925925925929,-0.07314814814814836
11.088000000000001,0.1,-2.247222222222235,-0.08055555555555657
11.096,0.1,-2.3435185185185206,-0.08796296296296312
11.104000000000001,0.1,-2.4398148148148273,-0.09537037037037133
11.112,0.060000000000000005,-2.56,-0.14
11.120000000000001,-0.04666666666667457,-2.7200000000000117,-0.24666666666667456
11.128,0.6849315068493231,0.2890410958904168,0.19315068493151052
11.136000000000001,0.5643835616438279,0.20136986301369303,0.13835616438355816
11.144,0.4438356164383594,0.1136986301369887,0.08356164383561794
11.152000000000001,0.32328767123286417,0.026027397260264873,0.028767123287665564
11.16,0.2027397260273957,-0.061643835616439435,-0.026027397260274643
11.168000000000001,0.08219178082190048,-0.14931506849316323,-0.080821917808227
11.176,-0.03835616438356804,-0.2369863013698676,-0.1356164383561672
11.184000000000001,-0.1589041095890632,-0.32465753424659133,-0.19041095890411958
11.192,-0.2794520547945317,-0.41232876712329575,-0.24520547945205978
11.200000000000001,-0.4000000000000296,-0.5000000000000296,-0.3000000000000592
11.208,-0.09999999999999998,0.0,-0.09999999999999998
11.216000000000001,-0.0929411764705879,0.06470588235293946,0.07176470588235156
11.224,-0.08352941176470648,0.01764705882353236,0.03411764705882589
11.232000000000001,-0.07411764705882297,-0.02941176470588519,-0.003529411764708154
11.24,-0.06470588235294156,-0.07647058823529229,-0.041176470588233816
11.248000000000001,-0.055294117647058036,-0.12352941176470983,-0.07882352941176787
11.256,-0.04588235294117662,-0.1705882352941169,-0.11647058823529355
11.264,-0.0364705882352952,-0.217647058823524,-0.15411764705881922
11.272,-0.02705882352941169,-0.26470588235294157,-0.19176470588235325
11.28,-0.017647058823530265,-0.3117647058823486,-0.22941176470587896
11.288,-0.008235294117646758,-0.3588235294117662,-0.267058823529413
11.296,-0.2,-0.2,-0.3
11.304,-0.2,-0.20618556701030955,-0.29381443298969045
11.312,-0.2,-0.21443298969072105,-0.28556701030927895
11.32,-0.2,-0.2226804123711344,-0.2773195876288656
11.328,-0.2,-0.23092783505154588,-0.2690721649484541
11.336,-0.2,-0.23917525773195922,-0.26082474226804075
11.344,-0.2,-0.24742268041237073,-0.2525773195876293
11.352,-0.2,-0.25567010309278404,-0.24432989690721596
11.36,-0.2,-0.26391752577319555,-0.23608247422680445
11.368,-0.2,-0.2721649484536089,-0.2278350515463911
11.376,-0.2,-0.2804123711340204,-0.2195876288659796
11.384,-0.2,-0.28865979381443374,-0.2113402061855663
11.392,-0.2,-0.2969072164948452,-0.20309278350515478
11.4,-0.025000000000005553,0.050000000000011105,0.07499999999999446
11.408,0.0,-0.10000000000000003,-0.1
11.416,0.0,-0.08476190476190312,-0.1
11.424,0.0,-0.06952380952380963,-0.1
11.432,0.0,-0.054285714285712744,-0.1
11.44,0.0,-0.03904761904761924,-0.1
11.448,0.0,-0.023809523809522365,-0.1
11.456,0.0,-0.008571428571428868,-0.1
11.464,0.0,0.006666666666668014,-0.1
11.472,0.0,0.021904761904761524,-0.1
11.48,0.0,0.03714285714285839,-0.1
11.488,0.0,0.05238095238095189,-0.1
11.496,0.0,0.06761904761904877,-0.1
11.504,0.0,0.08285714285714227,-0.1
11.512,0.0,0.09809523809523915,-0.1
11.52,0.0,0.12058823529411627,-0.07941176470588374
11.528,0.0,0.1441176470588243,-0.05588235294117571
11.536,0.0,0.1676470588235271,-0.0323529411764729
11.544,0.0,0.19117647058823514,-0.008823529411764869
11.552,0.0,0.2,0.0
11.56,0.0,0.2,0.0
11.568,-0.3868852459016408,0.5,0.11967213114753884
11.576,-0.36065573770491655,0.5,0.15901639344262525
11.584,-0.33442622950819806,0.5,0.19836065573770292
11.592,-0.3081967213114738,0.5,0.23770491803278931
11.6,-0.28196721311475537,0.5,0.27704918032786696
11.608,-0.25573770491803105,0.5,0.31639344262295344
11.616,-0.22950819672131265,0.5,0.35573770491803103
11.624,-0.20327868852458836,0.5,0.3950819672131175
11.632,-0.17704918032786993,0.5,0.4344262295081952
11.64,-0.15081967213114564,0.5,0.47377049180328157
11.648,-0.12459016393442718,0.5,0.5131147540983593
11.656,-0.09836065573770292,0.5,0.5524590163934456
11.664,-0.07213114754098449,0.5,0.5918032786885233
11.672,-0.045901639344260226,0.5,0.6311475409836097
11.68,-0.019672131147541738,0.5,0.6704918032786874
11.688,0.6000000000001776,1.5000000000002962,0.7666666666666864
11.696,-0.5043478260869542,1.197826086956523,1.0913043478260918
11.704,-0.5217391304347825,1.1891304347826088,1.0565217391304351
11.712,-0.5391304347826068,1.1804347826086965,1.0217391304347863
11.72,-0.5565217391304351,1.1717391304347824,0.9869565217391298
11.728,-0.5739130434782596,1.1630434782608703,0.952173913043481
11.736,-0.5913043478260878,1.1543478260869562,0.9173913043478245
11.744,-0.6086956521739122,1.1456521739130439,0.8826086956521756
11.752,-0.6260869565217404,1.1369565217391298,0.8478260869565191
11.76,-0.6434782608695648,1.1282608695652177,0.8130434782608702
11.768,-0.6608695652173932,1.1195652173913035,0.7782608695652138
11.776,-0.6782608695652175,1.1108695652173912,0.7434782608695649
11.784,-0.6956521739130458,1.1021739130434771,0.7086956521739083
11.792,-0.9571428571428788,1.185714285714293,0.528571428571414
11.8,0.3444444444444576,0.5111111111110848,0.3148148148148192
11.808,0.43333333333333335,0.3333333333333333,0.34444444444444444
11.816,0.5222222222222288,0.1555555555555424,0.3740740740740763
11.824,0.5000000000000592,-0.1333333333332544,0.33333333333337284
11.832,0.2,-0.5,0.2
11.84,0.22083333333332944,-0.8930555555555569,-0.4624999999999883
11.848,0.2541666666666669,-0.8819444444444444,-0.5625000000000007
11.856,0.2874999999999969,-0.8708333333333343,-0.6624999999999908
11.864,0.32083333333333436,-0.8597222222222219,-0.7625000000000031
11.872,0.3541666666666644,-0.8486111111111119,-0.8624999999999933
11.88,0.38750000000000184,-0.8374999999999995,-0.9625000000000056
11.888,0.4208333333333319,-0.8263888888888894,-1.0624999999999958
11.896,0.4541666666666693,-0.8152777777777769,-1.162500000000008
11.904,0.4874999999999994,-0.8041666666666669,-1.2624999999999982
11.912,0.18181818181810988,-0.9363636363636673,-1.5272727272727786
11.92,-0.23636363636364519,-1.4636363636364518,-1.6545454545454192
11.928,-0.3818181818181936,-2.9181818181819357,-1.0727272727272257
11.936,-0.09859154929578795,-3.0112676056337637,-1.3084507042253397
11.944,-0.25633802816904167,-2.549295774647806,-1.1619718309858897
11.952,-0.41408450704226035,-2.0873239436619517,-1.0154929577464724
11.96,-0.5718309859155141,-1.6253521126759942,-0.8690140845070226
11.968,-0.7295774647887328,-1.1633802816901397,-0.7225352112676052
11.976,-0.8873239436619865,-0.7014084507041822,-0.5760563380281554
11.984,-1.0450704225352052,-0.2394366197183273,-0.42957746478873804
11.992,-1.2028169014084589,0.22253521126762976,-0.28309859154928807
12.0,-1.3605633802816777,0.6845070422534847,-0.13661971830987074
12.008000000000001,-0.2,0.0,0.0
12.016,-0.2,0.0,0.0
12.024000000000001,-0.2,0.0,0.0
12.032,-0.2,0.0,0.0
12.040000000000001,-0.2,0.0,0.0
12.048,-0.2,0.0,0.0
12.056000000000001,-0.2,0.0,0.0
12.064,-0.2,0.0,0.0
12.072000000000001,-0.2,0.0,0.0
12.08,-0.2,0.0,0.0
12.088000000000001,-0.2,0.0,0.0
12.096,-0.2,0.0,0.0
12.104000000000001,-0.09999999999991119,-0.09999999999982237,0.0
12.112,0.007317073170731919,0.09268292682926808,0.007317073170731919
12.120000000000001,0.017073170731708533,0.08292682926829148,0.017073170731708533
12.128,0.026829268292682982,0.07317073170731703,0.026829268292682982
12.136000000000001,0.036585365853659596,0.06341463414634041,0.036585365853659596
12.144,0.04634146341463404,0.053658536585365964,0.04634146341463404
12.152000000000001,0.05609756097561066,0.043902439024389346,0.05609756097561066
12.16,0.0658536585365851,0.0341463414634149,0.0658536585365851
12.168000000000001,0.07560975609756172,0.024390243902438283,0.07560975609756172
12.176,0.08536585365853616,0.014634146341463844,0.08536585365853616
12.184000000000001,0.09512195121951278,0.004878048780487226,0.09512195121951278
12.192,0.0,-0.1,-0.1
12.2,-0.2,0.2,0.0
