accel_time_list,vertical_Accel_x,vertical_Accel_y,vertical_Accel_z
0.0,0.553,0.771,-9.853
0.007997977755308392,0.7234524772497473,1.3144706774519717,-9.798401921132458
0.015995955510616784,0.7084069267436305,1.322849709441216,-9.81609478994211
0.023993933265925176,0.6642862142912699,1.31581852020578,-9.780763064034044
0.03199191102123357,0.6201655018389094,1.3087873309703442,-9.745431338125979
0.03998988877654196,0.5760447893865488,1.3017561417349082,-9.710099612217913
0.04798786653185035,0.5319240769341882,1.2947249524994722,-9.674767886309848
0.05598584428715875,0.4878033644818276,1.2876937632640364,-9.639436160401782
0.06398382204246714,0.44368265202946705,1.2806625740286004,-9.604104434493717
0.07198179979777553,0.39956193957710645,1.2736313847931644,-9.568772708585652
0.07997977755308391,0.3554412271247459,1.2666001955577284,-9.533440982677586
0.08797775530839232,0.3113205146723853,1.2595690063222926,-9.49810925676952
0.0959757330637007,0.2671998022200247,1.2525378170868566,-9.462777530861453
0.1039737108190091,0.4017335692618806,0.7390626895854397,-9.685505055611728
0.1119716885743175,0.5121752612066061,0.9912450286484664,-9.901221435793731
0.11996966632962588,0.5128861925626335,1.0287466576789124,-9.857499157398045
0.12796764408493427,0.5135971239186609,1.0662482867093583,-9.81377687900236
0.13596562184024266,0.5143080552746883,1.1037499157398045,-9.770054600606674
0.14396359959555105,0.5150189866307157,1.1412515447702505,-9.726332322210988
0.15196157735085944,0.5157299179867431,1.1787531738006964,-9.682610043815302
0.15995955510616783,0.5164408493427705,1.2162548028311424,-9.638887765419616
0.16795753286147624,0.5171517806987979,1.2537564318615886,-9.59516548702393
0.17595551061678463,0.5178627120548254,1.2912580608920345,-9.551443208628244
0.18395348837209302,0.5185736434108528,1.3287596899224805,-9.507720930232558
0.1919514661274014,0.5192845747668802,1.3662613189529265,-9.463998651836873
0.1999494438827098,0.5199955061229076,1.4037629479833724,-9.420276373441187
0.2079474216380182,0.4967469584787501,1.0162816247540145,-9.601840623199278
0.21594539939332658,0.4861689878991487,0.9848917120584494,-9.634262533024561
0.223943377148635,0.4755910173195472,0.9535017993628842,-9.666684442849844
0.23194135490394338,0.4650130467399458,0.922111886667319,-9.699106352675125
0.23993933265925177,0.4544350761603444,0.8907219739717538,-9.731528262500408
0.24793731041456016,0.443857105580743,0.8593320612761886,-9.763950172325691
0.25593528816986855,0.43327913500114157,0.8279421485806234,-9.796372082150972
0.26393326592517696,0.42270116442154015,0.7965522358850581,-9.828793991976255
0.2719312436804853,0.41212319384193874,0.7651623231894931,-9.861215901801538
0.27992922143579374,0.4015452232623373,0.7337724104939278,-9.893637811626819
0.2879271991911021,0.3909672526827359,0.7023824977983627,-9.926059721452102
0.2959251769464105,0.3803892821031345,0.6709925851027974,-9.958481631277385
0.3039231547017189,0.3779231547017189,0.11673003033367059,-9.881765419615775
0.3119211324570273,0.286755561172902,1.075458796764408,-9.77140335355578
0.31991911021233566,0.2385299012023826,1.373237979217172,-9.624461900179078
0.32791708796764407,0.2838196547565387,1.3437514588180832,-9.631207182623314
0.3359150657229525,0.3291094083106948,1.3142649384189944,-9.637952465067551
0.34391304347826085,0.37439916186485056,1.2847784180199058,-9.644697747511787
0.35191102123356927,0.4196889154190066,1.255291897620817,-9.651443029956022
0.3599089989888776,0.46497866897316237,1.2258053772217283,-9.658188312400258
0.36790697674418604,0.5102684225273184,1.1963188568226395,-9.664933594844495
0.3759049544994944,0.5555581760814742,1.1668323364235509,-9.67167887728873
0.3839029322548028,0.6008479296356303,1.137345816024462,-9.678424159732966
0.39190091001011124,0.6461376831897864,1.1078592956253732,-9.685169442177202
0.3998988877654196,0.6914274367439421,1.0783727752262846,-9.691914724621439
0.407896865520728,0.5187066734074822,0.6727058645096057,-9.667675328614763
0.4158948432760364,0.3393895200142747,0.8061787307440672,-9.740442276809611
0.4238928210313448,0.3428709926842325,0.7899004936656159,-9.753333135074051
0.43189079878665315,0.34635246535419023,0.7736222565871648,-9.766223993338489
0.43988877654196157,0.349833938024148,0.7573440195087136,-9.779114851602927
0.44788675429727,0.35331541069410577,0.7410657824302622,-9.792005709867365
0.45588473205257835,0.3567968833640635,0.7247875453518111,-9.804896568131802
0.46388270980788676,0.3602783560340213,0.7085093082733599,-9.817787426396242
0.4718806875631951,0.36375982870397905,0.6922310711949088,-9.83067828466068
0.47987866531850354,0.36724130137393685,0.6759528341164576,-9.843569142925118
0.4878766430738119,0.3707227740438946,0.6596745970380063,-9.856460001189555
0.4958746208291203,0.3742042467138524,0.6433963599595551,-9.869350859453993
0.5038725985844287,0.22761779575328603,1.0499122345803804,-9.76506976744186
0.5118705763397371,0.6918670593924474,0.2952739042511103,-10.149003516947289
0.5198685540950455,0.6570932430650195,0.21520719215720752,-10.191775311030025
0.5278665318503539,0.6223194267375916,0.13514048006330476,-10.234547105112762
0.5358645096056622,0.5875456104101642,0.05507376796940311,-10.277318899195498
0.5438624873609706,0.5527717940827362,-0.02499294412449965,-10.320090693278233
0.5518604651162791,0.5179979777553083,-0.10505965621840241,-10.362862487360971
0.5598584428715875,0.4832241614278805,-0.18512636831230517,-10.405634281443707
0.5678564206268958,0.44845034510045306,-0.26519308040620676,-10.448406075526442
0.5758543983822042,0.41367652877302513,-0.3452597925001096,-10.49117786960918
0.5838523761375126,0.37890271244559726,-0.4253265045940123,-10.533949663691915
0.591850353892821,0.3441288961181694,-0.5053932166879151,-10.576721457774651
0.5998483316481295,0.30935507979074145,-0.5854599287818179,-10.619493251857389
0.6078463094034378,0.1933816986855309,2.9883225480282856,-9.05911122345805
0.6158442871587462,0.5638009644551604,3.8131813020144665,-8.66538127090301
0.6238422649140546,0.6886045733841488,3.981666174068601,-8.574678929765886
0.631840242669363,0.8134081823131374,4.150151046122735,-8.483976588628762
0.6398382204246713,0.9382117912421242,4.318635918176867,-8.39327424749164
0.6478361981799797,1.0630154001711127,4.487120790231002,-8.302571906354515
0.6558341759352881,1.187819009100101,4.6556056622851365,-8.211869565217391
0.6638321536905966,1.3126226180290896,4.8240905343392715,-8.121167224080267
0.671830131445905,1.4374262269580782,4.992575406393406,-8.030464882943143
0.6798281092012133,1.562229835887065,5.161060278447538,-7.9397625418060205
0.6878260869565217,1.6870334448160536,5.329545150501673,-7.849060200668896
0.6958240647118301,1.8118370537450421,5.498030022555807,-7.758357859531772
0.7038220424671385,2.690881698685543,6.872204246713857,-6.095661274014157
0.711820020222447,2.8364143579373113,6.800851769464105,-5.953201617795752
0.7198179979777553,3.4090855602099275,7.6300028889209885,-4.796272954884684
0.7278159757330637,3.6417886272810436,7.504320381337571,-4.786370696711445
0.7358139534883721,3.8744916943521597,7.378637873754153,-4.776468438538206
0.7438119312436805,4.107194761423276,7.2529553661707356,-4.7665661803649675
0.7518099089989888,4.339897828494388,7.127272858587319,-4.756663922191728
0.7598078867542972,4.572600895565505,7.001590351003901,-4.746761664018489
0.7678058645096056,4.805303962636621,6.8759078434204834,-4.736859405845251
0.7758038422649141,5.038007029707737,6.750225335837065,-4.726957147672011
0.7838018200202225,5.270710096778853,6.624542828253648,-4.7170548894987725
0.7917997977755308,5.503413163849967,6.498860320670231,-4.707152631325534
0.7997977755308392,5.736116230921082,6.373177813086814,-4.697250373152294
0.8077957532861476,6.029898554310178,7.114666759890714,-4.840900425962179
0.815793731041456,5.94847233397156,7.0610632919561995,-4.900204580169094
0.8237917087967643,5.867046113632942,7.007459824021686,-4.959508734376008
0.8317896865520727,5.785619893294324,6.953856356087172,-5.018812888582922
0.8397876643073812,5.7041936729557055,6.900252888152659,-5.078117042789836
0.8477856420626896,5.6227674526170865,6.846649420218145,-5.137421196996751
0.855783619817998,5.541341232278468,6.793045952283631,-5.196725351203666
0.8637815975733063,5.4599150119398505,6.739442484349118,-5.256029505410579
0.8717795753286147,5.378488791601232,6.6858390164146035,-5.315333659617494
0.8797775530839231,5.297062571262613,6.63223554848009,-5.374637813824409
0.8877755308392316,5.215636350923995,6.578632080545576,-5.4339419680313235
0.89577350859454,5.134210130585376,6.525028612611062,-5.493246122238237
0.9037714863498483,4.558076845298293,6.021266936299278,-6.424226491405422
0.9117694641051567,3.1694074823053633,5.783362992922149,-7.398362992922139
0.9197674418604651,3.1176626570435713,5.71102058273189,-7.462854584335739
0.9277654196157735,3.080246830073335,5.658528108039003,-7.512129481770742
0.9357633973710818,3.0428310031031,5.606035633346118,-7.5614043792057455
0.9437613751263902,3.005415176132864,5.553543158653231,-7.610679276640749
0.9517593528816987,2.967999349162628,5.5010506839603455,-7.659954174075752
0.9597573306370071,2.930583522192392,5.448558209267459,-7.709229071510756
0.9677553083923155,2.8931676952221563,5.396065734574573,-7.758503968945759
0.9757532861476238,2.8557518682519207,5.343573259881687,-7.807778866380763
0.9837512639029322,2.8183360412816847,5.291080785188801,-7.857053763815766
0.9917492416582406,2.780920214311449,5.238588310495914,-7.90632866125077
0.999747219413549,2.8172386248736143,5.224998483316483,-7.902804347826083
1.0077451971688574,2.566949964460552,5.6459043938772036,-7.488028591736827
1.0157431749241659,2.477150887485108,5.607260699376307,-7.539342350008511
1.0237411526794742,2.3873518105096663,5.568617004875412,-7.590656108280191
1.0317391304347825,2.297552733534224,5.529973310374516,-7.6419698665518725
1.039737108190091,2.20775365655878,5.491329615873619,-7.693283624823555
1.0477350859453993,2.1179545795833383,5.452685921372724,-7.744597383095235
1.0557330637007079,2.028155502607894,5.414042226871827,-7.795911141366918
1.0637310414560162,1.9383564256324521,5.375398532370932,-7.847224899638599
1.0717290192113245,1.8485573486570104,5.3367548378700365,-7.89853865791028
1.079726996966633,1.7587582716815662,5.298111143369139,-7.949852416181963
1.0877249747219413,1.6689591947061244,5.259467448868244,-8.001166174453644
1.0957229524772498,1.5791601177306802,5.2208237543673475,-8.052479932725326
1.1037209302325581,1.4893610407552385,5.182180059866452,-8.103793690997007
1.1117189079878664,1.764495045500504,5.663151668351876,-7.9165087967644014
1.119716885743175,2.000565217391297,5.460397371081902,-7.963443882709815
1.1277148634984833,2.1349432684258,5.4394134294443175,-7.906707633430098
1.1357128412537916,2.242700968720438,5.421181480152647,-7.878413712123685
1.1437108190091,2.3504586690150786,5.402949530860976,-7.85011979081727
1.1517087967644084,2.4582163693097163,5.384717581569306,-7.821825869510857
1.159706774519717,2.565974069604357,5.366485632277635,-7.793531948204443
1.1677047522750252,2.673731769898995,5.348253682985964,-7.76523802689803
1.1757027300303335,2.7814894701936326,5.330021733694293,-7.736944105591617
1.183700707785642,2.8892471704882734,5.311789784402623,-7.708650184285203
1.1916986855409504,2.997004870782911,5.293557835110952,-7.680356262978789
1.199696663296259,3.1047625710775515,5.275325885819281,-7.652062341672375
1.2076946410515672,3.212520271372189,5.25709393652761,-7.623768420365962
1.2156926188068755,3.458460060667351,5.549874620829121,-7.452038422649136
1.223690596562184,3.4819583495372184,5.190154351715019,-7.401911461979207
1.2316885743174923,3.3309196157735115,5.284592012133467,-7.400886080215706
1.2396865520728009,3.1798808820098,5.379029672551917,-7.399860698452205
1.2476845298281092,3.0288421482460928,5.473467332970365,-7.398835316688704
1.2556825075834175,2.8778034144823854,5.567904993388814,-7.397809934925204
1.263680485338726,2.7267646807186745,5.662342653807265,-7.3967845531617025
1.2716784630940343,2.575725946954967,5.756780314225713,-7.395759171398201
1.2796764408493426,2.42468721319126,5.851217974644161,-7.3947337896347
1.2876744186046511,2.2736484794275484,5.945655635062612,-7.393708407871199
1.2956723963599595,2.1226097456638415,6.04009329548106,-7.392683026107698
1.303670374115268,1.4505308392315492,6.245786653185037,-7.645919110212334
1.3116683518705763,1.6196576209269709,5.595376170129488,-7.665018624221273
1.3196663296258846,1.6447695510834228,5.628572077802058,-7.651344662252519
1.3276643073811931,1.6698814812398755,5.661767985474629,-7.637670700283767
1.3356622851365014,1.6949934113963272,5.694963893147199,-7.623996738315014
1.34366026289181,1.7201053415527798,5.72815980081977,-7.61032277634626
1.3516582406471183,1.7452172717092318,5.76135570849234,-7.596648814377508
1.3596562184024266,1.7703292018656835,5.79455161616491,-7.582974852408754
1.367654196157735,1.7954411320221362,5.827747523837481,-7.569300890440001
1.3756521739130434,1.8205530621785881,5.8609434315100515,-7.5556269284712485
1.383650151668352,1.8456649923350408,5.8941393391826225,-7.541952966502495
1.3916481294236602,1.8707769224914927,5.927335246855192,-7.528279004533743
1.3996461071789685,1.8958888526479445,5.960531154527762,-7.514605042564989
1.407644084934277,1.658032355915057,6.205506572295238,-7.6121536905965685
1.4156420626895854,1.6238546006066732,5.927856825075835,-7.584183192899674
1.423640040444894,1.6494481294236605,5.9310560161779575,-7.57760707785642
1.4316380182002022,1.675041658240647,5.934255207280081,-7.571030962813167
1.4396359959555105,1.7006351870576337,5.937454398382204,-7.564454847769913
1.447633973710819,1.726228715874621,5.940653589484327,-7.55787873272666
1.4556319514661273,1.7518222446916076,5.943852780586451,-7.551302617683406
1.4636299292214356,1.7774157735085943,5.947051971688574,-7.544726502640153
1.4716279069767442,1.8030093023255815,5.950251162790698,-7.538150387596899
1.4796258847320525,1.8286028311425682,5.953450353892821,-7.531574272553646
1.487623862487361,1.8541963599595555,5.956649544994944,-7.524998157510392
1.4956218402426693,1.879789888776542,5.959848736097068,-7.518422042467138
1.5036198179979776,1.798385439838223,5.928459251769461,-7.646487360970675
1.5116177957532861,1.647223660262892,6.04922871587462,-7.762458038422649
1.5196157735085944,1.6377536231884067,5.798723963599597,-7.629379170879678
1.527613751263903,1.6521309403437816,5.813128159757331,-7.6112469666329625
1.5356117290192113,1.6701263902932253,5.835322548028311,-7.597850353892821
1.5436097067745196,1.688121840242669,5.857516936299292,-7.58445374115268
1.5516076845298281,1.7061172901921131,5.879711324570273,-7.571057128412538
1.5596056622851364,1.7241127401415568,5.901905712841254,-7.557660515672397
1.567603640040445,1.742108190091001,5.924100101112234,-7.544263902932255
1.5756016177957533,1.7601036400404446,5.946294489383215,-7.530867290192114
1.5835995955510616,1.7780990899898883,5.968488877654195,-7.517470677451972
1.59159757330637,1.7960945399393324,5.990683265925177,-7.504074064711831
1.5995955510616784,1.8140899898887761,6.012877654196157,-7.490677451971689
1.607593528816987,1.702102185900576,5.982256501933642,-7.474383694870379
1.6155915065722952,1.828090948891412,5.968486787653884,-7.451214295393661
1.6235894843276035,1.954079711882248,5.954717073374126,-7.428044895916943
1.631587462082912,2.0800684748730873,5.940947359094368,-7.404875496440225
1.6395854398382204,2.2060572378639236,5.927177644814611,-7.381706096963506
1.6475834175935287,2.3320460008547594,5.913407930534853,-7.358536697486788
1.6555813953488372,2.458034763845599,5.899638216255095,-7.33536729801007
1.6635793731041455,2.584023526836435,5.885868501975337,-7.312197898533352
1.671577350859454,2.710012289827275,5.872098787695579,-7.289028499056633
1.6795753286147623,2.8360010528181103,5.858329073415821,-7.265859099579916
1.6875733063700706,2.9619898158089466,5.844559359136063,-7.242689700103198
1.6955712841253792,3.0879785787997864,5.8307896448563055,-7.219520300626479
1.7035692618806875,3.23630940343781,5.864679474216372,-7.187753286147625
1.711567239635996,3.2884863498483345,5.612229524772502,-7.53731547017189
1.7195652173913043,3.1627746126936533,5.423699650174913,-7.578792103948025
1.7275631951466126,3.1527541578048184,5.408714933231059,-7.582193542763502
1.7355611729019211,3.142733702915984,5.393730216287206,-7.585594981578978
1.7435591506572294,3.1327132480271493,5.378745499343352,-7.588996420394454
1.751557128412538,3.1226927931383144,5.363760782399498,-7.59239785920993
1.7595551061678463,3.11267233824948,5.348776065455644,-7.595799298025406
1.7675530839231546,3.1026518833606453,5.333791348511791,-7.599200736840882
1.775551061678463,3.0926314284718104,5.318806631567937,-7.602602175656358
1.7835490394337714,3.082610973582976,5.303821914624083,-7.606003614471834
1.79154701718908,3.072590518694141,5.2888371976802295,-7.60940505328731
1.7995449949443882,3.0625700638053064,5.273852480736376,-7.612806492102786
1.8075429726996965,3.20762285136501,5.570141557128408,-7.448078867542974
1.815540950455005,3.3338021570610046,5.659505673519829,-7.418274351196495
1.8235389282103134,3.340733737782272,5.653018424896079,-7.410009774182677
1.8315369059656217,3.3476653185035388,5.646531176272329,-7.401745197168858
1.8395348837209302,3.3545968992248065,5.640043927648579,-7.39348062015504
1.8475328614762385,3.3615284799460734,5.633556679024829,-7.38521604314122
1.855530839231547,3.3684600606673407,5.627069430401079,-7.376951466127402
1.8635288169868554,3.375391641388608,5.620582181777328,-7.368686889113583
1.8715267947421637,3.3823232221098753,5.614094933153578,-7.3604223120997645
1.8795247724974722,3.3892548028311427,5.607607684529828,-7.352157735085946
1.8875227502527805,3.39618638355241,5.601120435906078,-7.343893158072127
1.895520728008089,3.4031179642736773,5.594633187282328,-7.335628581058308
1.9035187057633973,3.322551061678463,5.608593528816987,-7.3720515672396365
1.9115166835187056,3.127793225480268,5.182152679474189,-7.5273195146612455
1.9195146612740142,3.158349942389541,5.594462694288334,-7.630095586333388
1.9275126390293225,3.174810896606861,5.599484680320738,-7.599777670656289
1.935510616784631,3.191271850824182,5.60450666635314,-7.5694597549791895
1.9435085945399393,3.207732805041503,5.609528652385543,-7.53914183930209
1.9515065722952476,3.2241937592588235,5.614550638417946,-7.508823923624991
1.9595045500505561,3.2406547134761445,5.619572624450349,-7.4785060079478916
1.9675025278058644,3.257115667693465,5.6245946104827516,-7.448188092270793
1.9755005055611727,3.273576621910786,5.629616596515155,-7.417870176593694
1.9834984833164813,3.290037576128107,5.634638582547558,-7.3875522609165944
1.9914964610717896,3.306498530345427,5.63966056857996,-7.357234345239496
1.999494438827098,3.322959484562748,5.644682554612364,-7.326916429562396
2.0074924165824064,3.125507583417593,5.883347395822128,-7.295731278101672
2.0154903943377147,3.117509605662285,5.842336488608739,-7.321086569283394
2.023488372093023,3.1095116279069765,5.801325581395349,-7.3464418604651165
2.0314863498483318,3.101513650151668,5.7603146741819575,-7.37179715164684
2.03948432760364,3.0935156723963595,5.719303766968569,-7.3971524428285615
2.0474823053589484,3.085517694641051,5.678292859755179,-7.422507734010284
2.0554802831142567,3.0775197168857433,5.63728195254179,-7.447863025192006
2.063478260869565,3.069521739130435,5.5962710453284,-7.473218316373727
2.0714762386248737,3.0615237613751263,5.555260138115009,-7.498573607555451
2.079474216380182,3.053525783619818,5.51424923090162,-7.523928898737173
2.0874721941354903,3.0455278058645097,5.47323832368823,-7.549284189918895
2.0954701718907986,3.0375298281092014,5.432227416474841,-7.5746394811006175
2.103468149646107,3.7215197168856644,5.455649140545963,-7.039026289181056
2.1114661274014157,2.6861244441545167,6.097358741859377,-7.393686519455951
2.119464105156724,2.7329083140350297,6.09262875501484,-7.418196451286734
2.1274620829120323,2.779692183915543,6.087898768170303,-7.4427063831175175
2.1354600606673406,2.826476053796056,6.083168781325766,-7.467216314948301
2.143458038422649,2.873259923676569,6.078438794481229,-7.491726246779085
2.1514560161779577,2.9200437935570847,6.073708807636692,-7.516236178609869
2.159453993933266,2.966827663437598,6.068978820792155,-7.5407461104406535
2.1674519716885743,3.013611533318111,6.064248833947618,-7.565256042271437
2.1754499494438826,3.060395403198624,6.05951884710308,-7.58976597410222
2.183447927199191,3.1071792730791374,6.054788860258543,-7.614275905933003
2.1914459049544996,3.153963142959653,6.050058873414006,-7.6387858377637885
2.199443882709808,3.200747012840166,6.045328886569468,-7.663295769594573
2.2074418604651163,1.446662790697678,3.5295581395348203,-9.82444186046514
2.2154398382204246,4.019592654025744,6.489840856159327,-6.248643596414492
2.223437815975733,4.182787346201474,6.536390883993593,-6.2930368662023835
2.231435793731041,4.345982038377203,6.582940911827859,-6.3374301359902745
2.23943377148635,4.509176730552941,6.629490939662128,-6.381823405778168
2.2474317492416582,4.67237142272867,6.6760409674963945,-6.426216675566059
2.2554297269969665,4.835566114904399,6.722590995330661,-6.47060994535395
2.263427704752275,4.998760807080128,6.769141023164927,-6.515003215141841
2.271425682507583,5.161955499255857,6.8156910509991935,-6.559396484929732
2.279423660262892,5.325150191431595,6.862241078833462,-6.603789754717626
2.2874216380182,5.488344883607324,6.908791106667728,-6.648183024505517
2.2954196157735085,5.651539575783054,6.955341134501994,-6.692576294293408
2.303417593528817,5.598973710819036,7.898805864509582,-7.346156723963615
2.311415571284125,10.459980756745239,8.178140226704274,-3.0863800755680915
2.319413549039434,10.939943611303292,8.1149982970571,-3.0653327656857003
2.327411526794742,11.419906465861319,8.051856367409929,-3.04428545580331
2.3354095045500505,11.899869320419345,7.988714437762759,-3.02323814592092
2.343407482305359,12.379832174977372,7.9255725081155886,-3.0021908360385297
2.351405460060667,12.859795029535398,7.862430578468418,-2.9811435261561394
2.359403437815976,13.339757884093453,7.799288648821244,-2.960096216273748
2.367401415571284,13.81972073865148,7.736146719174073,-2.9390489063913576
2.3753993933265924,14.299683593209506,7.673004789526902,-2.9180015965089674
2.3833973710819008,14.779646447767533,7.6098628598797315,-2.896954286626577
2.391395348837209,15.259609302325561,7.546720930232561,-2.875906976744187
2.399393326592518,15.739572156883614,7.483579000585387,-2.8548596668617954
2.407391304347826,15.651915601023019,9.263537084398957,-3.9046265984654784
2.4153892821031344,15.729543032177483,8.033730387200368,-4.248069172664014
2.4233872598584427,11.551775530839423,3.5565106167846063,-7.177056622851135
2.431385237613751,10.800678782395828,3.772054228087912,-8.059375711776916
2.4393832153690598,10.834985897504126,3.896654302591669,-7.996970437975626
2.447381193124368,10.869293012612422,4.02125437709542,-7.934565164174339
2.4553791708796764,10.903600127720718,4.1458544515991695,-7.872159890373052
2.4633771486349847,10.937907242829013,4.27045452610292,-7.809754616571764
2.471375126390293,10.97221435793731,4.39505460060667,-7.747349342770477
2.4793731041456017,11.006521473045607,4.519654675110427,-7.684944068969187
2.48737108190091,11.040828588153904,4.644254749614178,-7.622538795167899
2.4953690596562184,11.0751357032622,4.768854824117929,-7.5601335213666125
2.5033670374115267,8.421881193124424,2.4377229524772552,-6.765785642062642
2.511365015166835,5.727725034788616,-0.24185336723763354,-8.567619928120212
2.5193629929221437,5.563330957362666,-0.3206453263122095,-8.63413776291684
2.527360970677452,5.398936879936726,-0.3994372853867811,-8.700655597713464
2.5353589484327603,5.234542802510786,-0.4782292444613527,-8.767173432510086
2.5433569261880686,5.070148725084845,-0.5570212035359243,-8.83369126730671
2.551354903943377,4.905754647658905,-0.6358131626104958,-8.900209102103332
2.5593528816986852,4.741360570232965,-0.7146051216850675,-8.966726936899956
2.567350859453994,4.576966492807015,-0.7933970807596433,-9.033244771696584
2.5753488372093023,4.412572415381075,-0.8721890398342149,-9.099762606493206
2.5833468149646106,4.248178337955135,-0.9509809989087865,-9.16628044128983
2.591344792719919,4.083784260529194,-1.029772957983358,-9.232798276086452
2.599342770475227,3.9193901831032543,-1.1085649170579297,-9.299316110883076
2.607340748230536,3.8393498483316257,-1.1819555106167852,-9.334036400404457
2.6153387259858443,3.110122750252767,-1.9383061678463007,-6.602745399393313
2.6233367037411526,1.6113017189080252,-1.0081413549039664,-5.137515874620865
2.631334681496461,1.3043573755757856,-0.9953822042467113,-4.925720031457144
2.639332659251769,1.105197855421997,-1.0655866756544174,-4.827275786740571
2.647330637007078,0.9060383352681975,-1.1357911470621276,-4.728831542023992
2.6553286147623862,0.7068788151144091,-1.205995618469834,-4.63038729730742
2.6633265925176945,0.5077192949606206,-1.2762000898775403,-4.531943052590847
2.671324570273003,0.3085597748068323,-1.3464045612852464,-4.433498807874274
2.679322548028311,0.1094002546530437,-1.4166090326929528,-4.335054563157702
2.68732052578362,-0.08975926550075575,-1.4868135041006627,-4.236610318441124
2.695318503538928,-0.2889187856545441,-1.5570179755083693,-4.138166073724552
2.7033164812942365,-0.48807830580833245,-1.6272224469160754,-4.039721829007979
2.711314459049545,-0.7856712728906848,-0.8287767666554312,-0.7963913043478283
2.719312436804853,-0.8810249410178607,-0.8700107853050207,-0.6588260869565252
2.727310414560162,-0.9763786091450418,-0.9112448039546126,-0.5212608695652146
2.73530839231547,-1.0717322772722175,-0.9524788226042022,-0.3836956521739115
2.7433063700707785,-1.1670859453993936,-0.9937128412537918,-0.24613043478260843
2.751304347826087,-1.2624396135265692,-1.0349468599033813,-0.10856521739130531
2.759302325581395,-1.3577932816537452,-1.076180878552971,0.028999999999997694
2.767300303336704,-1.4531469497809262,-1.1174148972025626,0.16656521739130847
2.775298281092012,-1.5485006179081022,-1.1586489158521522,0.3041304347826115
2.7832962588473205,-1.6438542860352778,-1.1998829345017419,0.4416956521739146
2.7912942366026288,-1.7392079541624539,-1.2411169531513315,0.5792608695652177
2.799292214357937,-1.8345616222896295,-1.282350971800921,0.7168260869565208
2.807290192113246,-5.607607684530043,0.55729726996981,5.152597573306291
2.815288169868554,-6.723546563927337,-1.326058749694917,6.3229259614378845
2.8232861476238624,-6.883230326697113,-1.5334545866601537,6.4347597538440064
2.8312841253791707,-7.04291408946689,-1.7408504236253903,6.5465935462501275
2.839282103134479,-7.202597852236666,-1.948246260590627,6.658427338656249
2.847280080889788,-7.362281615006451,-2.155642097555875,6.7702611310623775
2.855278058645096,-7.521965377776228,-2.363037934521112,6.8820949234684985
2.8632760364004044,-7.681649140546005,-2.5704337714863486,6.99392871587462
2.8712740141557127,-7.841332903315781,-2.777829608451585,7.105762508280742
2.879271991911021,-8.001016666085558,-2.985225445416822,7.217596300686863
2.8872699696663298,-8.160700428855343,-3.1926212823820697,7.329430093092991
2.895267947421638,-8.32038419162512,-3.4000171193473063,7.441263885499113
2.9032659251769464,-8.480067954394897,-3.607412956312543,7.553097677905235
2.9112639029322547,-8.639751717164673,-3.8148087932777797,7.664931470311356
2.919261880687563,-8.79943547993445,-4.022204630243016,7.776765262717478
2.9272598584428713,-8.684560161779867,-2.8374408493432437,5.6038746208298935
2.93525783619818,0.6766157877497577,-0.7347972486079238,-6.971894102735726
2.9432558139534883,1.801063871601699,0.2160609236816209,-6.845841467409106
2.9512537917087966,2.9255119554536395,1.1669190959711653,-6.719788832082486
2.959251769464105,4.049960039305581,2.11777726826071,-6.593736196755866
2.9672497472194133,5.174408123157522,3.068635440550255,-6.467683561429245
2.975247724974722,6.298856207009526,4.019493612839852,-6.341630926102619
2.9832457027300303,7.423304290861466,4.970351785129397,-6.215578290775999
2.9912436804853386,8.547752374713406,5.921209957418942,-6.089525655449378
2.999241658240647,9.672200458565348,6.872068129708486,-5.963473020122758
3.0072396359959552,25.018527805864142,25.839087462082677,-2.6692814290529783
3.015237613751264,30.880795652173994,18.39815308392301,0.9585812942368506
3.0232355915065723,-15.656700707790538,-13.805007077860827,-22.422403437819096
3.0312335692618806,16.573950810264257,13.432845708195579,-1.6555715574016938
3.039231547017189,16.75412147131965,11.638164348372678,-1.286908015194171
3.047229524772497,16.934292132375038,9.843482988549777,-0.9182444729866481
3.055227502527806,17.11446279343044,8.048801628726775,-0.5495809307791051
3.0632254802831143,17.294633454485833,6.254120268903874,-0.18091738857158224
3.0712234580384226,17.474804115541225,4.459438909080973,0.18774615363594038
3.079221435793731,17.654974776596614,2.6647575492580717,0.5564096958434634
3.087219413549039,17.835145437652006,0.870076189435169,0.9250732380509861
3.095217391304348,18.01531609870741,-0.9246051703878315,1.2937367802585296
3.1032153690596562,10.981486891156251,3.1970815536558703,0.822431973935511
3.1112133468149645,10.170944357630917,2.9735421147777084,0.20303302999663575
3.119211324570273,9.360401824105583,2.7500026758995464,-0.41636591394223954
3.127209302325581,8.54985929058025,2.5264632370213844,-1.0357648578811147
3.13520728008089,7.73931675705487,2.30292379814321,-1.6551638018200243
3.143205257836198,6.928774223529536,2.079384359265048,-2.2745627457588995
3.1512032355915065,6.118231690004202,1.855844920386886,-2.8939616896977753
3.159201213346815,5.307689156478868,1.6323054815087241,-3.5133606336366503
3.167199191102123,4.497146622953534,1.4087660426305622,-4.132759577575526
3.175197168857432,3.6866040894281555,1.1852266037523878,-4.752158521514436
3.18319514661274,2.8760615559028206,0.9616871648742258,-5.371557465453311
3.1911931243680485,2.0655190223774866,0.7381477259960638,-5.990956409392186
3.199191102123357,1.2549764888521526,0.5146082871179019,-6.6103553533310615
3.207189079878665,8.705458543984069,4.4550596562185145,-4.202172396359913
3.215187057633974,5.522655593551537,5.06056759182468,-3.0746128537508173
3.223185035389282,5.464692721055202,5.120866952204589,-3.306913668329154
3.2311830131445904,5.406729848558866,5.181166312584498,-3.5392144829074907
3.2391809908998987,5.348766976062531,5.241465672964407,-3.771515297485828
3.247178968655207,5.290804103566195,5.301765033344315,-4.003816112064165
3.2551769464105154,5.23284123106986,5.362064393724224,-4.236116926642501
3.263174924165824,5.174878358573521,5.422363754104136,-4.4684177412208514
3.2711729019211324,5.116915486077185,5.482663114484045,-4.700718555799188
3.2791708796764407,5.05895261358085,5.542962474863954,-4.933019370377525
3.287168857431749,5.000989741084514,5.603261835243862,-5.165320184955862
3.2951668351870573,4.943026868588179,5.663561195623771,-5.397620999534199
3.303164812942366,10.427265925176732,2.8782093023255784,-3.9755975733062776
3.3111627906976744,9.222709302325582,2.508408430232557,-3.258174418604652
3.3191607684529827,9.220709807886754,2.6221296764408466,-3.1562002022244715
3.327158746208291,9.218710313447927,2.7358509226491368,-3.0542259858442904
3.3351567239635993,9.2167108190091,2.8495721688574265,-2.9522517694641097
3.343154701718908,9.214711324570272,2.9632934150657224,-2.8502775530839233
3.3511526794742164,9.212711830131445,3.0770146612740126,-2.7483033367037426
3.3591506572295247,9.210712335692618,3.1907359074823023,-2.646329120323562
3.367148634984833,9.208712841253792,3.304457153690592,-2.544354903943381
3.3751466127401413,9.206713346814965,3.418178399898882,-2.4423806875632
3.38314459049545,9.204713852376138,3.5318996461071785,-2.3404064711830137
3.3911425682507583,9.20271435793731,3.645620892315468,-2.238432254802833
3.3991405460060666,9.200714863498483,3.759342138523758,-2.136458038422652
3.407138523761375,8.264271532309953,3.3290415479363906,-3.5698602812758526
3.4151365015166832,9.00953764132731,3.6358730581854877,-3.5880375034470076
3.423134479271992,8.203429751658483,3.6518040518878414,-4.49230489037954
3.4311324570273003,8.059271079434756,3.7141297565907925,-4.464019359293694
3.4391304347826086,7.915112407211028,3.7764554612937435,-4.435733828207847
3.447128412537917,7.770953734987302,3.8387811659966946,-4.407448297122001
3.455126390293225,7.626795062763574,3.9011068706996457,-4.3791627660361545
3.463124368048534,7.482636390539839,3.9634325754026003,-4.350877234950307
3.4711223458038423,7.338477718316112,4.025758280105552,-4.32259170386446
3.4791203235591506,7.194319046092384,4.088083984808502,-4.294306172778614
3.487118301314459,7.050160373868657,4.150409689511454,-4.2660206416927675
3.495116279069767,6.90600170164493,4.212735394214405,-4.237735110606922
3.503114256825076,8.239764004044488,4.06761698685541,-3.2283383215369064
3.5111122345803842,8.123046826199305,3.7958694079316926,-3.1972306257723853
3.5191102123356925,8.210313650151669,3.78022891809909,-3.1867443882709807
3.527108190091001,8.297580474104032,3.764588428266487,-3.1762581507695766
3.535106167846309,8.384847298056396,3.748947938433884,-3.1657719132681725
3.543104145601618,8.472114122008763,3.7333074486012805,-3.1552856757667676
3.551102123356926,8.559380945961127,3.7176669587686777,-3.1447994382653635
3.5591001011122345,8.646647769913491,3.702026468936075,-3.1343132007639594
3.567098078867543,8.733914593865855,3.686385979103472,-3.1238269632625553
3.575096056622851,8.821181417818218,3.6707454892708693,-3.1133407257611507
3.58309403437816,8.908448241770587,3.6551049994382656,-3.102854488259746
3.591092012133468,8.995715065722951,3.639464509605663,-3.0923682507583417
3.5990899898887765,9.083799797775526,3.611581395348871,-3.038804853387377
3.607087967644085,8.819626310467777,3.450208823372891,-3.128417753179713
3.615085945399393,8.810533872598583,3.454839231547017,-3.153001011122345
3.6230839231547014,8.80144143472939,3.4594696397211426,-3.177584269064977
3.63108190091001,8.792348996860198,3.464100047895269,-3.20216752700761
3.6390798786653185,8.783256558991006,3.4687304560693946,-3.2267507849502417
3.6470778564206268,8.774164121121814,3.4733608642435208,-3.2513340428928736
3.655075834175935,8.765071683252621,3.4779912724176465,-3.2759173008355056
3.6630738119312434,8.755979245383429,3.4826216805917722,-3.300500558778137
3.671071789686552,8.746886807514235,3.4872520887658984,-3.3250838167207704
3.6790697674418604,8.737794369645043,3.491882496940024,-3.3496670746634023
3.6870677451971687,8.72870193177585,3.4965129051141504,-3.3742503326060342
3.695065722952477,8.719609493906658,3.501143313288276,-3.3988335905486657
3.7030637007077853,8.392004044489388,3.540129423660265,-3.4930657229524797
3.711061678463094,8.79015800774815,3.5689355494711488,-3.189880801172447
3.7190596562184024,8.810647209188716,3.5605781120414446,-3.1744240351734243
3.7270576339737107,8.83113641062928,3.5522206746117404,-3.1589672691744015
3.735055611729019,8.851625612069846,3.543863237182036,-3.1435105031753787
3.7430535894843273,8.87211481351041,3.535505799752332,-3.128053737176356
3.751051567239636,8.892604014950978,3.5271483623226274,-3.1125969711773323
3.7590495449949444,8.913093216391543,3.518790924892923,-3.0971402051783095
3.7670475227502527,8.933582417832108,3.510433487463219,-3.0816834391792867
3.775045500505561,8.954071619272673,3.502076050033515,-3.066226673180264
3.7830434782608693,8.97456082071324,3.4937186126038107,-3.050769907181241
3.791041456016178,8.995050022153805,3.485361175174106,-3.0353131411822174
3.7990394337714863,9.01553922359437,3.477003737744402,-3.0198563751831946
3.8070374115267946,8.394829929221435,3.5357942366026296,-3.474081698685543
3.815035389282103,8.400928463094036,3.456906976744186,-3.4285826592517687
3.8230333670374113,8.193655918810622,3.5675145863760607,-3.5776652061566123
3.83103134479272,8.18220202474129,3.708614712454285,-3.524049133056209
3.8390293225480283,8.17074813067196,3.849714838532502,-3.470433059955809
3.8470273003033366,8.15929423660263,3.990814964610719,-3.416816986855409
3.855025278058645,8.147840342533298,4.131915090688937,-3.363200913755009
3.8630232558139532,8.136386448463968,4.273015216767153,-3.3095848406546087
3.871021233569262,8.124932554394638,4.414115342845378,-3.2559687675542057
3.8790192113245703,8.113478660325308,4.555215468923595,-3.2023526944538054
3.8870171890798786,8.102024766255976,4.696315595001812,-3.148736621353405
3.895015166835187,8.090570872186646,4.837415721080029,-3.0951205482530053
3.903013144590495,8.000183013144566,4.871565217391293,-2.9659145601617816
3.911011122345804,8.57354703941155,3.5612845476060873,-3.1927718974655273
3.9190091001011123,8.50859642884921,3.68687916532406,-3.1788852987255414
3.9270070778564206,8.443645818286871,3.812473783042033,-3.1649986999855555
3.935005055611729,8.378695207724531,3.938068400760006,-3.1511121012455696
3.943003033367037,8.313744597162193,4.063663018477979,-3.1372255025055837
3.9510010111223455,8.248793986599853,4.189257636195952,-3.123338903765598
3.9589989888776542,8.183843376037512,4.314852253913932,-3.1094523050256115
3.9669969666329625,8.118892765475174,4.440446871631905,-3.0955657062856257
3.974994944388271,8.053942154912834,4.566041489349878,-3.08167910754564
3.982992922143579,7.988991544350496,4.691636107067851,-3.067792508805654
3.9909908998988874,7.924040933788157,4.817230724785825,-3.053905910065668
3.998988877654196,7.859090323225814,4.942825342503804,-3.0400193113256817
4.0069868554095045,7.844190765082575,4.999448521977042,-3.2320545807807446
4.014984833164813,7.82952780586451,4.994979063819663,-3.240601439362398
4.022982810920121,7.8148648466464445,4.990509605662285,-3.2491482979440507
4.030980788675429,7.800201887428379,4.986040147504907,-3.257695156525704
4.038978766430738,7.785538928210315,4.981570689347529,-3.266242015107357
4.046976744186046,7.770875968992249,4.977101231190151,-3.27478887368901
4.054974721941355,7.756213009774182,4.972631773032772,-3.2833357322706638
4.0629726996966635,7.741550050556117,4.968162314875394,-3.291882590852317
4.070970677451972,7.726887091338051,4.963692856718016,-3.30042944943397
4.07896865520728,7.712224132119986,4.9592233985606375,-3.308976308015623
4.086966632962588,7.697561172901921,4.954753940403259,-3.317523166597276
4.094964610717897,7.682898213683855,4.9502844822458805,-3.3260700251789292
4.102962588473205,7.66823525446579,4.945815024088502,-3.334616883760582
4.110960566228513,8.025251769464074,5.02446511627906,-3.0345965621840416
4.118958543983822,7.95436214640111,4.974468502363205,-3.030809015449009
4.12695652173913,7.9630111223458035,4.955868554095046,-3.0272750252780587
4.134954499494438,7.9716600982904975,4.937268605826888,-3.0237410351071086
4.1429524772497475,7.980309074235192,4.918668657558727,-3.020207044936158
4.150950455005056,7.988958050179885,4.900068709290568,-3.016673054765208
4.158948432760364,7.997607026124579,4.881468761022409,-3.0131390645942577
4.166946410515672,8.006256002069273,4.86286881275425,-3.0096050744233076
4.174944388270981,8.014904978013968,4.844268864486091,-3.0060710842523575
4.182942366026289,8.023553953958661,4.825668916217932,-3.0025370940814073
4.190940343781597,8.032202929903354,4.807068967949774,-2.999003103910457
4.198938321536906,8.040851905848049,4.788469019681615,-2.995469113739507
4.206936299292214,7.929477811481859,4.863069992135713,-3.125248286709355
4.214934277047522,7.896,4.886,-3.164
4.222932254802831,7.896,4.886,-3.164
4.23093023255814,7.896,4.886,-3.164
4.238928210313448,7.896,4.886,-3.164
4.246926188068756,7.896,4.886,-3.164
4.254924165824065,7.896,4.886,-3.164
4.262922143579373,7.896,4.886,-3.164
4.270920121334681,7.896,4.886,-3.164
4.2789180990899895,7.896,4.886,-3.164
4.286916076845298,7.896,4.886,-3.164
4.294914054600606,7.896,4.886,-3.164
4.302912032355915,7.873865809620104,4.860824064711831,-3.122083200924461
4.310910010111224,7.984575636347649,4.927585527761902,-3.158365015166836
4.318907987866532,7.9720570624697755,4.915153888424847,-3.1703619817997986
4.32690596562184,7.959538488591901,4.902722249087791,-3.182358948432761
4.334903943377149,7.947019914714027,4.890290609750736,-3.194355915065723
4.342901921132457,7.934501340836154,4.877858970413681,-3.2063528816986855
4.350899898887765,7.92198276695828,4.865427331076625,-3.218349848331648
4.3588978766430735,7.909464193080407,4.8529956917395705,-3.2303468149646104
4.366895854398382,7.8969456192025325,4.840564052402515,-3.242343781597573
4.37489383215369,7.884427045324658,4.82813241306546,-3.2543407482305353
4.382891809908999,7.871908471446783,4.815700773728403,-3.2663377148634987
4.390889787664308,7.85938989756891,4.803269134391348,-3.278334681496461
4.398887765419616,7.846871323691036,4.7908374950542925,-3.2903316481294236
4.406885743174924,7.93422834512976,4.94545652173913,-3.044000168520391
4.4148837209302325,8.035904002163331,5.02772958355868,-3.0283875067604105
4.422881698685541,8.018513050532603,5.022335598560915,-3.0385244785665573
4.430879676440849,8.001122098901874,5.016941613563148,-3.0486614503727036
4.438877654196157,7.983731147271145,5.011547628565382,-3.0587984221788505
4.446875631951466,7.966340195640417,5.006153643567616,-3.068935393984997
4.454873609706774,7.948949244009689,5.00075965856985,-3.0790723657911436
4.462871587462082,7.93155829237896,4.995365673572084,-3.0892093375972904
4.4708695652173915,7.91416734074823,4.989971688574317,-3.099346309403438
4.4788675429727,7.896776389117501,4.9845777035765515,-3.1094832812095845
4.486865520728008,7.879385437486772,4.979183718578785,-3.1196202530157313
4.4948634984833165,7.8619944858560435,4.973789733581019,-3.129757224821878
4.502861476238625,7.883248230535895,5.0540217391304365,-3.1124747219413544
4.510859453993933,7.991535894843276,4.899140546006067,-3.063117290192113
4.518857431749241,7.98721698685541,4.891142568250759,-3.073514661274014
4.52685540950455,7.982898078867543,4.8831445904954505,-3.0839120323559146
4.534853387259858,7.9785791708796765,4.875146612740142,-3.0943094034378156
4.542851365015166,7.97426026289181,4.867148634984834,-3.104706774519716
4.5508493427704755,7.969941354903943,4.859150657229525,-3.115104145601618
4.558847320525784,7.965622446916076,4.851152679474216,-3.125501516683519
4.566845298281092,7.9613035389282105,4.843154701718908,-3.1358988877654195
4.5748432760364,7.956984630940344,4.8351567239636,-3.1462962588473204
4.582841253791709,7.952665722952477,4.827158746208291,-3.156693629929221
4.590839231547017,7.94834681496461,4.819160768452983,-3.167091001011122
4.598837209302325,7.9440279069767445,4.811162790697675,-3.1774883720930225
4.606835187057634,7.939708998988878,4.8031648129423665,-3.1878857431749235
4.614833164812942,7.892084934277053,4.814844720496892,-3.18440502672252
4.62283114256825,7.81610414560162,4.839409937888198,-3.1718367759641777
4.630829120323559,7.939411035678175,4.802613029033656,-3.188603062256246
4.638827098078868,7.945580904232269,4.81403871154124,-3.173749674996388
4.646825075834176,7.951750772786364,4.825464394048823,-3.1588962877365296
4.654823053589484,7.9579206413404595,4.836890076556407,-3.1440429004766712
4.662821031344793,7.964090509894555,4.84831575906399,-3.1291895132168133
4.670819009100101,7.970260378448649,4.859741441571574,-3.114336125956955
4.678816986855409,7.976430247002744,4.8711671240791565,-3.0994827386970965
4.686814964610718,7.982600115556839,4.88259280658674,-3.0846293514372385
4.694812942366026,7.9887699841109345,4.894018489094323,-3.06977596417738
4.702810920121334,7.865973913043474,4.929052173913051,-3.044541152679472
4.710808897876643,7.85203525446579,4.968427345242107,-3.1357034602853613
4.718806875631952,7.847769666329626,4.957052443545669,-3.138813784967981
4.72680485338726,7.843504078193461,4.94567754184923,-3.141924109650601
4.734802831142568,7.839238490057297,4.934302640152792,-3.145034434333221
4.742800808897877,7.834972901921132,4.9229277384563535,-3.1481447590158407
4.750798786653185,7.830707313784968,4.911552836759915,-3.1512550836984605
4.758796764408493,7.826441725648803,4.900177935063477,-3.1543654083810804
4.7667947421638015,7.822176137512639,4.888803033367038,-3.1574757330637
4.77479271991911,7.8179105493764744,4.8774281316706,-3.1605860577463205
4.782790697674418,7.8136449612403105,4.8660532299741615,-3.1636963824289404
4.790788675429726,7.809379373104146,4.854678328277723,-3.16680670711156
4.798786653185036,7.805113784967981,4.843303426581283,-3.1699170317941805
4.806784630940344,7.895637213651239,4.886717135805691,-3.1637553301368824
4.814782608695652,7.891939223936419,4.894027115474521,-3.161261337073399
4.8227805864509605,7.888241234221598,4.901337095143351,-3.1587673440099158
4.830778564206269,7.884543244506779,4.9086470748121815,-3.1562733509464325
4.838776541961577,7.880845254791959,4.915957054481011,-3.153779357882949
4.846774519716885,7.877147265077139,4.923267034149841,-3.151285364819466
4.854772497472194,7.873449275362319,4.930577013818672,-3.1487913717559826
4.862770475227502,7.8697512856474985,4.937886993487502,-3.1462973786924993
4.87076845298281,7.866053295932679,4.9451969731563326,-3.143803385629016
4.8787664307381196,7.862355306217858,4.952506952825163,-3.1413093925655327
4.886764408493428,7.858657316503039,4.959816932493993,-3.1388153995020494
4.894762386248736,7.854959326788219,4.967126912162824,-3.136321406438566
4.9027603640040445,7.889497472194132,4.9767027300303335,-3.0962214357937343
4.910758341759353,7.847486694060194,4.968427123894758,-3.1354288126842067
4.918756319514661,7.839829055783835,4.96485355936579,-3.136024406772368
4.926754297269969,7.832171417507476,4.961279994836822,-3.1366200008605296
4.934752275025278,7.824513779231117,4.957706430307855,-3.1372155949486906
4.942750252780586,7.816856140954758,4.954132865778887,-3.137811189036852
4.950748230535894,7.809198502678399,4.950559301249919,-3.138406783125013
4.9587462082912035,7.801540864402039,4.9469857367209515,-3.1390023772131745
4.966744186046512,7.79388322612568,4.943412172191985,-3.139597971301336
4.97474216380182,7.786225587849321,4.939838607663017,-3.140193565389497
4.982740141557128,7.778567949572961,4.936265043134049,-3.1407891594776585
4.990738119312437,7.7709103112966025,4.932691478605082,-3.1413847535658195
4.998736097067745,7.763252673020244,4.929117914076114,-3.141980347653981
5.006734074823053,7.91479474216381,4.917988877654198,-3.2318756319514574
5.014732052578362,7.799,4.871,-3.266
5.02273003033367,7.799,4.871,-3.266
5.030728008088978,7.799,4.871,-3.266
5.038725985844287,7.799,4.871,-3.266
5.046723963599596,7.799,4.871,-3.266
5.054721941354904,7.799,4.871,-3.266
5.062719919110212,7.799,4.871,-3.266
5.070717896865521,7.799,4.871,-3.266
5.078715874620829,7.799,4.871,-3.266
5.086713852376137,7.799,4.871,-3.266
5.094711830131446,7.799,4.871,-3.266
5.102709807886754,7.799,4.871,-3.266
5.110707785642062,7.89190522834513,4.9136051145938655,-3.253443398213684
5.1187057633973705,7.900486391978429,4.9124387428378835,-3.2370308813616453
5.12670374115268,7.909067555611729,4.911272371081901,-3.2206183645096043
5.134701718907988,7.9176487192450296,4.910105999325919,-3.2042058476575654
5.142699696663296,7.926229882878329,4.908939627569936,-3.1877933308055266
5.150697674418605,7.934811046511628,4.907773255813954,-3.171380813953488
5.158695652173913,7.9433922101449275,4.906606884057971,-3.154968297101449
5.166693629929221,7.951973373778228,4.905440512301989,-3.1385557802494097
5.1746916076845295,7.960554537411527,4.904274140546006,-3.122143263397371
5.182689585439838,7.969135701044826,4.903107768790024,-3.105730746545332
5.190687563195146,7.977716864678126,4.901941397034041,-3.0893182296932933
5.198685540950454,7.986298028311426,4.900775025278059,-3.0729057128412545
5.206683518705764,7.896,4.886,-3.164
5.214681496461072,7.896,4.886,-3.164
5.22267947421638,7.896,4.886,-3.164
5.2306774519716885,7.896,4.886,-3.164
5.238675429726997,7.896,4.886,-3.164
5.246673407482305,7.896,4.886,-3.164
5.2546713852376135,7.896,4.886,-3.164
5.262669362992922,7.896,4.886,-3.164
5.27066734074823,7.896,4.886,-3.164
5.278665318503538,7.896,4.886,-3.164
5.286663296258848,7.896,4.886,-3.164
5.294661274014156,7.896,4.886,-3.164
5.302659251769464,7.8605621840242925,4.890770475227499,-3.2314681496460578
5.3106572295247725,7.7887987866531825,4.940366329625886,-3.219897775530841
5.318655207280081,7.762378547746138,4.957920615138618,-3.230292661132927
5.326653185035389,7.771399522656195,4.959222611517389,-3.2208066875161663
5.334651162790697,7.780420497566252,4.96052460789616,-3.211320713899405
5.342649140546006,7.789441472476309,4.961826604274931,-3.2018347402826444
5.350647118301314,7.798462447386366,4.963128600653702,-3.192348766665883
5.358645096056622,7.807483422296423,4.964430597032473,-3.182862793049122
5.3666430738119315,7.816504397206481,4.965732593411245,-3.17337681943236
5.37464105156724,7.825525372116538,4.967034589790016,-3.163890845815599
5.382639029322548,7.834546347026595,4.968336586168787,-3.154404872198838
5.390637007077856,7.843567321936652,4.969638582547558,-3.1449188985820773
5.398634984833165,7.852588296846709,4.970940578926329,-3.135432924965316
5.406632962588473,7.704310468343265,4.856253006475486,-3.3683821827334723
5.414630940343781,7.715626756018328,4.852594357076781,-3.370254049867693
5.42262891809909,7.726943043693392,4.848935707678076,-3.3721259170019144
5.430626895854398,7.7382593313684565,4.845277058279371,-3.3739977841361357
5.438624873609706,7.7495756190435205,4.841618408880667,-3.3758696512703565
5.4466228513650154,7.7608919067185855,4.837959759481961,-3.3777415184045783
5.454620829120324,7.77220819439365,4.834301110083256,-3.379613385538799
5.462618806875632,7.783524482068714,4.830642460684551,-3.3814852526730204
5.47061678463094,7.794840769743778,4.826983811285847,-3.3833571198072416
5.478614762386249,7.806157057418841,4.8233251618871416,-3.3852289869414625
5.486612740141557,7.817473345093905,4.819666512488436,-3.3871008540756837
5.494610717896865,7.828789632768969,4.816007863089732,-3.388972721209905
5.502608695652174,7.8741884057971046,4.924144927536229,-3.2762463768115904
5.510606673407482,7.780305695989215,4.714101112234581,-3.5223346814964605
5.51860465116279,7.771152454780362,4.715434108527132,-3.539930232558139
5.5266026289180985,7.761999213571509,4.7167671048196835,-3.557525783619817
5.534600606673408,7.752845972362655,4.718100101112235,-3.5751213346814974
5.542598584428716,7.743692731153803,4.719433097404786,-3.5927168857431755
5.550596562184024,7.734539489944949,4.720766093697338,-3.610312436804854
5.558594539939333,7.725386248736097,4.722099089989889,-3.627907987866532
5.566592517694641,7.716233007527244,4.723432086282441,-3.6455035389282107
5.574590495449949,7.707079766318391,4.724765082574992,-3.6630990899898888
5.5825884732052575,7.697926525109538,4.726098078867543,-3.6806946410515673
5.590586450960566,7.6887732839006855,4.727431075160094,-3.6982901921132454
5.598584428715874,7.679620042691832,4.7287640714526455,-3.715885743174924
5.6065824064711824,7.88587664307367,4.957,-3.246318503538918
5.614580384226492,7.965569536642194,4.962932474612036,-3.2330602936650985
5.6225783619818,7.951399206488768,4.969191761550974,-3.212022134787005
5.630576339737108,7.937228876335341,4.97545104848991,-3.190983975908911
5.6385743174924166,7.923058546181914,4.981710335428848,-3.1699458170308175
5.646572295247725,7.908888216028488,4.9879696223677845,-3.1489076581527238
5.654570273003033,7.89471788587506,4.994228909306721,-3.12786949927463
5.6625682507583415,7.880547555721634,5.000488196245659,-3.1068313403965364
5.67056622851365,7.866377225568208,5.006747483184595,-3.085793181518443
5.678564206268958,7.85220689541478,5.013006770123533,-3.0647550226403495
5.686562184024266,7.838036565261354,5.019266057062469,-3.043716863762256
5.694560161779576,7.823866235107926,5.025525344001407,-3.0226787048841595
5.702558139534884,7.920734883720923,5.175674418604652,-2.837227906976737
5.710556117290192,7.935601415571279,5.186,-2.7628341759352875
5.7185540950455005,8.228048580901545,5.056747007783291,-2.83497488654267
5.726552072800809,8.202566651774166,5.05544501140452,-2.90174870082536
5.734550050556117,8.17708472264679,5.0541430150257485,-2.96852251510805
5.742548028311425,8.15160279351941,5.052841018646977,-3.0352963293907402
5.750546006066734,8.126120864392034,5.051539022268207,-3.10207014367343
5.758543983822042,8.100638935264657,5.050237025889436,-3.16884395795612
5.76654196157735,8.075157006137278,5.048935029510664,-3.23561777223881
5.7745399393326595,8.049675077009898,5.047633033131893,-3.3023915865215074
5.782537917087968,8.02419314788252,5.046331036753122,-3.3691654008041976
5.790535894843276,7.998711218755143,5.0450290403743505,-3.4359392150868877
5.798533872598584,7.973229289627765,5.043727043995579,-3.502713029369578
5.806531850353893,7.05022446916077,5.557366026289185,-4.238775530839231
5.814529828109201,7.174040589339882,5.7374850276114175,-4.023041467127411
5.822527805864509,7.146618951321683,5.7540962121801345,-4.062152457249523
5.830525783619818,7.1191973133034825,5.770707396748851,-4.101263447371635
5.838523761375126,7.091775675285283,5.787318581317569,-4.140374437493747
5.846521739130434,7.064354037267083,5.803929765886286,-4.179485427615859
5.854519716885743,7.036932399248883,5.820540950455003,-4.21859641773797
5.862517694641052,7.009510761230681,5.8371521350237225,-4.257707407860087
5.87051567239636,6.98208912321248,5.8537633195924395,-4.296818397982199
5.878513650151668,6.954667485194281,5.870374504161156,-4.335929388104311
5.886511627906977,6.927245847176081,5.886985688729874,-4.375040378226423
5.894509605662285,6.899824209157881,5.903596873298591,-4.414151368348534
5.902507583417593,6.497174924165797,5.837025278058695,-4.872449949443916
5.910505561172902,6.600498483316471,6.421511122345822,-4.7527770475227635
5.91850353892821,6.429223562637286,6.645179363806469,-4.985611020071359
5.926501516683518,6.388957881524354,6.6219208767709175,-5.041688795137314
5.9344994944388265,6.348692200411423,6.598662389735366,-5.097766570203268
5.942497472194136,6.308426519298488,6.5754039026998115,-5.153844345269229
5.950495449949444,6.2681608381855565,6.55214541566426,-5.209922120335183
5.958493427704752,6.227895157072625,6.528886928628708,-5.265999895401137
5.966491405460061,6.187629475959694,6.5056284415931565,-5.322077670467092
5.974489383215369,6.147363794846763,6.482369954557605,-5.3781554455330465
5.982487360970677,6.107098113733832,6.459111467522054,-5.434233220599
5.9904853387259855,6.066832432620901,6.435852980486502,-5.490310995664955
5.998483316481294,5.709044489383583,6.63197573306345,-5.548316481294231
6.006481294236602,3.2132398629826056,4.156268153773136,-7.351084872371594
6.0144792719919105,3.20230385258249,4.163776459420976,-7.406417820515461
6.02247724974722,3.1913678421823732,4.171284765068818,-7.461750768659336
6.030475227502528,3.1804318317822577,4.178793070716659,-7.517083716803203
6.038473205257836,3.1694958213821423,4.186301376364499,-7.572416664947071
6.046471183013145,3.1585598109820268,4.19380968201234,-7.627749613090939
6.054469160768453,3.1476238005819113,4.20131798766018,-7.683082561234807
6.062467138523761,3.136687790181796,4.208826293308021,-7.738415509378674
6.0704651162790695,3.1257517797816807,4.216334598955861,-7.793748457522542
6.078463094034378,3.1148157693815652,4.223842904603702,-7.84908140566641
6.086461071789686,3.1038797589814497,4.2313512102515425,-7.904414353810278
6.094459049544994,3.0929437485813343,4.2388595158993825,-7.959747301954145
6.102457027300304,3.0162482305358744,4.456997472194199,-7.153367542972444
6.110455005055612,3.34602912032355,5.0139274014155735,-7.113277047522766
6.11845298281092,3.009047657566553,5.121633501853728,-7.715791371756005
6.1264509605662285,3.156678731873393,4.9356142760236015,-8.272665996851442
6.134448938321537,3.095529636123947,4.943814734228411,-8.242496409875722
6.142446916076845,3.034380540374501,4.952015192433221,-8.212326822900003
6.150444893832153,2.9732314446250547,4.96021565063803,-8.182157235924283
6.158442871587462,2.9120823488756087,4.968416108842841,-8.151987648948563
6.16644084934277,2.8509332531261626,4.9766165670476505,-8.121818061972842
6.174438827098078,2.789784157376717,4.98481702525246,-8.091648474997122
6.182436804853387,2.728635061627271,4.99301748345727,-8.061478888021401
6.190434782608696,2.667485965877818,5.00121794166208,-8.031309301045678
6.198432760364004,2.606336870128372,5.00941839986689,-8.001139714069959
6.2064307381193125,1.606768721898329,4.305882795860852,-8.99493148032614
6.214428715874621,1.5272143686939328,4.310817718305617,-9.022498978121034
6.222426693629929,1.4476600154895367,4.3157526407503815,-9.050066475915925
6.230424671385237,1.3681056622851404,4.320687563195146,-9.077633973710817
6.238422649140546,1.2885513090807443,4.325622485639911,-9.10520147150571
6.246420626895854,1.2089969558763483,4.330557408084676,-9.132768969300603
6.254418604651162,1.129442602671952,4.335492330529441,-9.160336467095496
6.262416582406471,1.0498882494675557,4.340427252974205,-9.187903964890387
6.27041456016178,0.9703338962631508,4.345362175418971,-9.215471462685283
6.278412537917088,0.8907795430587546,4.350297097863735,-9.243038960480176
6.286410515672396,0.8112251898543584,4.3552320203085,-9.270606458275067
6.294408493427705,0.7316708366499622,4.360166942753265,-9.29817395606996
6.302406471183013,-1.3413528816986662,3.6678705763397335,-8.941352881698666
6.310404448938321,-0.17277841976021946,3.1210812342359358,-8.959567161857354
6.31840242669363,-0.18534667051856107,3.1446357181746456,-8.928190479894221
6.326400404448938,-0.19791492127690266,3.168190202113356,-8.896813797931088
6.334398382204246,-0.21048317203524425,3.191744686052066,-8.865437115967957
6.3423963599595545,-0.22305142279358586,3.215299169990776,-8.834060434004824
6.350394337714864,-0.23561967355192887,3.238853653929489,-8.802683752041688
6.358392315470172,-0.24818792431027042,3.2624081378681993,-8.771307070078555
6.36639029322548,-0.26075617506861204,3.285962621806909,-8.739930388115424
6.374388270980789,-0.2733244258269536,3.3095171057456194,-8.70855370615229
6.382386248736097,-0.2858926765852952,3.3330715896843297,-8.677177024189158
6.390384226491405,-0.29846092734363683,3.3566260736230396,-8.645800342226025
6.398382204246714,-0.3110291781019784,3.38018055756175,-8.614423660262894
6.406380182002022,0.3355423779218496,2.5345722357699385,-8.149217629215492
6.41437815975733,0.29232641408434334,2.5552728840777954,-8.104119788259089
6.4223761375126385,0.24911045024683703,2.5759735323856523,-8.059021947302687
6.430374115267948,0.20589448640932592,2.596674180693511,-8.013924106346279
6.438372093023256,0.1626785225718196,2.617374829001368,-7.968826265389877
6.446370070778564,0.1194625587343133,2.6380754773092248,-7.923728424433475
6.454368048533873,0.07624659489680702,2.6587761256170817,-7.878630583477072
6.462366026289181,0.03303063105930071,2.6794767739249385,-7.83353274252067
6.470364004044489,-0.010185332778205602,2.7001774222327954,-7.788434901564267
6.4783619817997975,-0.05340129661571191,2.7208780705406523,-7.743337060607865
6.486359959555106,-0.09661726045321822,2.741578718848509,-7.698239219651462
6.494357937310414,-0.13983322429072448,2.7622793671563657,-7.65314137869506
6.502355915065722,-0.18304918812823084,2.7829800154642226,-7.6080435377386575
6.510353892821031,-0.2262651519657371,2.8036806637720795,-7.562945696782256
6.51835187057634,-0.26948111580324824,2.8243813120799386,-7.517847855825848
6.526349848331648,-1.3650151668352108,2.8600045500505398,-11.360763902932222
6.5343478260869565,-0.5652173913043633,3.4110652173912936,-12.47328260869563
6.542345803842265,-0.5102254208053284,2.241026277285438,-8.9042860524594
6.550343781597573,-0.5290441919942891,2.1472147029084683,-9.057564943793485
6.558341759352881,-0.5478629631832499,2.053403128531499,-9.21084383512757
6.56633973710819,-0.5666817343722106,1.9595915541545301,-9.364122726461655
6.574337714863498,-0.5855005055611713,1.865779979777561,-9.51740161779574
6.582335692618806,-0.604319276750132,1.7719684054005915,-9.670680509129825
6.590333670374115,-0.6231380479390928,1.6781568310236223,-9.82395940046391
6.598331648129424,-0.6419568191280556,1.584345256646643,-9.977238291798013
6.606329625884732,-0.6607755903170163,1.4905336822696738,-10.130517183132097
6.6143276036400405,-0.679594361505977,1.3967221078927046,-10.283796074466181
6.622325581395349,-0.6984131326949378,1.3029105335157354,-10.437074965800267
6.630323559150657,-0.15146612740141732,1.6868200202224484,-9.522600606673409
6.638321536905965,0.08910750563895146,1.4918203780042,-9.40043367815198
6.646319514661274,0.07532637473749723,1.495388706541184,-9.412369121879133
6.654317492416582,0.06154524383604301,1.4989570350781676,-9.424304565606285
6.66231547017189,0.047764112934588786,1.5025253636151512,-9.436240009333437
6.670313447927199,0.03398298203313456,1.5060936921521348,-9.448175453060589
6.678311425682508,0.0202018511316788,1.509662020689119,-9.460110896787743
6.686309403437816,0.006420720230224566,1.5132303492261026,-9.472046340514895
6.694307381193124,-0.007360410671229667,1.5167986777630862,-9.483981784242047
6.702305358948433,0.14543577266599256,0.2468593065385912,-9.745435772665992
6.710303336703741,0.1568495534209638,0.19079014998314867,-9.756849553420963
6.718301314459049,0.168263334175935,0.1347209934277061,-9.768263334175934
6.726299292214358,0.1796771149309062,0.07865183687226357,-9.779677114930905
6.734297269969666,0.19109089568587742,0.022582680316821008,-9.791090895685876
6.742295247724974,0.20250467644084866,-0.033486476238621554,-9.802504676440847
6.7502932254802825,0.21391845719581987,-0.08955563279406409,-9.81391845719582
6.758291203235592,0.22533223795079235,-0.1456247893495129,-9.825332237950791
6.7662891809909,0.23674601870576356,-0.20169394590495543,-9.836746018705764
6.774287158746208,0.2481597994607348,-0.257763102460398,-9.848159799460735
6.782285136501517,0.259573580215706,-0.31383225901584055,-9.859573580215706
6.790283114256825,0.2709873609706772,-0.3699014155712831,-9.870987360970677
6.798281092012133,0.2977411526794621,-0.35611627906981946,-9.911795753286125
6.806279069767442,0.2043671449777338,0.44230628401781297,-9.607088570014843
6.81427704752275,0.19415696060925514,0.45047443151259586,-9.61389535959383
6.822275025278058,0.1839467762407765,0.4586425790073788,-9.620702149172816
6.8302730030333665,0.17373659187229784,0.4668107265021617,-9.6275089387518
6.838270980788675,0.1635264075038192,0.47497887399694466,-9.634315728330787
6.846268958543984,0.15331622313533938,0.4831470214917285,-9.641122517909773
6.854266936299292,0.14310603876686073,0.4913151689865114,-9.64792930748876
6.862264914054601,0.13289585439838209,0.49948331648129435,-9.654736097067746
6.870262891809909,0.12268567002990342,0.5076514639760773,-9.66154288664673
6.878260869565217,0.11247548566142478,0.5158196114708602,-9.668349676225716
6.8862588473205255,0.10226530129294611,0.5239877589656431,-9.675156465804703
6.894256825075834,0.09205511692446747,0.5321559064604261,-9.681963255383689
6.902254802831142,0.16339197842937592,0.3427967644085287,-9.763391978429375
6.91025278058645,0.1648978766429491,0.0337704752273061,-9.814341759352864
6.918250758341759,0.08269121969572021,0.6166371716791712,-9.66437462082912
6.926248736097068,0.10659215322030716,0.5917132409998354,-9.660375631951466
6.934246713852376,0.13049308674489143,0.5667893103205023,-9.656376643073813
6.9422446916076845,0.15439402026947574,0.5418653796411693,-9.652377654196158
6.950242669362993,0.17829495379406002,0.5169414489618362,-9.648378665318504
6.958240647118301,0.2021958873186443,0.49201751828250323,-9.644379676440849
6.9662386248736095,0.22609682084322857,0.4670935876031702,-9.640380687563196
6.974236602628918,0.24999775436781285,0.44216965692383714,-9.636381698685542
6.982234580384226,0.27389868789239713,0.4172457262445042,-9.632382709807887
6.990232558139534,0.29779962141698146,0.3923217955651711,-9.628383720930232
6.998230535894843,0.32170055494156574,0.3673978648858381,-9.62438473205258
7.006228513650152,0.2564084934276398,-0.2086268958544112,-9.940685540950456
7.01422649140546,0.15946871631907036,0.2284742052689477,-9.55946871631907
7.0222244691607685,0.17291586573184145,0.2522044689385437,-9.572915865731842
7.030222446916077,0.1863630151446125,0.2759347326081397,-9.586363015144611
7.038220424671385,0.1998101645573836,0.2996649962777358,-9.599810164557383
7.046218402426693,0.21325731397015468,0.32339525994733176,-9.613257313970154
7.054216380182002,0.22670446338292577,0.34712552361692783,-9.626704463382925
7.06221435793731,0.24015161279569683,0.3708557872865238,-9.640151612795696
7.070212335692618,0.2535987622084679,0.39458605095611987,-9.653598762208468
7.078210313447927,0.267045911621239,0.41831631462571583,-9.667045911621239
7.086208291203236,0.28049306103401156,0.4420465782953146,-9.680493061034012
7.094206268958544,0.29394021044678265,0.46577684196491054,-9.693940210446783
7.102204246713852,0.3351193124368078,0.2254843276037028,-9.855543983822031
7.110202224469161,0.2546742784490741,-0.5152704101552763,-9.787714953598496
7.118200202224469,0.3295068425952756,-0.4480398842715461,-9.759603249607066
7.126198179979777,0.40433940674147706,-0.38080935838781593,-9.731491545615635
7.134196157735086,0.4791719708876786,-0.3135788325040857,-9.703379841624205
7.142194135490394,0.55400453503388,-0.24634830662035545,-9.675268137632775
7.150192113245702,0.6288370991800816,-0.17911778073662527,-9.647156433641344
7.158190091001011,0.703669663326283,-0.11188725485289502,-9.619044729649914
7.16618806875632,0.7785022274724928,-0.04465672896915729,-9.590933025658481
7.174186046511628,0.8533347916186943,0.02257379691457284,-9.562821321667052
7.182184024266936,0.9281673557648957,0.08980432279830308,-9.534709617675622
7.190182002022245,1.0029999199110973,0.15703484868203332,-9.50659791368419
7.198179979777553,1.0778324840572988,0.22426537456576356,-9.478486209692761
7.206177957532861,1.1397886754297637,0.30379170879671913,-9.484278058644987
7.21417593528817,1.912165865504157,1.0201131213844103,-9.722768560725358
7.222173913043478,1.811273342836784,0.9868756236635798,-9.69398895224519
7.230171890798786,1.710380820169411,0.9536381259427493,-9.665209343765024
7.2381698685540945,1.6094882975020381,0.9204006282219189,-9.636429735284857
7.246167846309403,1.5085957748346652,0.8871631305010885,-9.60765012680469
7.254165824064712,1.407703252167281,0.8539256327802544,-9.57887051832452
7.26216380182002,1.306810729499908,0.820688135059424,-9.550090909844354
7.270161779575329,1.2059182068325351,0.7874506373385934,-9.521311301364186
7.278159757330637,1.1050256841651624,0.7542131396177629,-9.49253169288402
7.286157735085945,1.0041331614977895,0.7209756418969326,-9.463752084403854
7.2941557128412535,0.9032406388304166,0.6877381441761021,-9.434972475923686
7.302153690596562,0.8023481161630437,0.6545006464552716,-9.406192867443519
7.31015166835187,0.7014555934956708,0.6212631487344412,-9.377413258963353
7.318149646107178,0.6005630708282979,0.5880256510136108,-9.348633650483187
7.326147623862487,0.49967054816092493,0.5547881532927803,-9.31985404200302
7.334145601617796,0.3987780254935409,0.5215506555719462,-9.29107443352285
7.342143579373104,-0.8821769464105151,-0.7698468149646096,-9.919794742163804
7.3501415571284126,-0.9323711516334846,-0.8736826296154229,-9.883390153760331
7.358139534883721,-0.9825653568564542,-0.9775184442662361,-9.846985565356858
7.366137512639029,-1.0327595620794237,-1.0813542589170495,-9.810580976953386
7.3741354903943375,-1.0829537673023932,-1.1851900735678629,-9.774176388549913
7.382133468149646,-1.1331479725253628,-1.289025888218676,-9.73777180014644
7.390131445904954,-1.1833421777483322,-1.3928617028694894,-9.701367211742967
7.398129423660262,-1.2335363829713017,-1.4966975175203028,-9.664962623339495
7.406127401415571,-0.6244150657230504,0.48710128075475656,-9.521018031681834
7.41412537917088,1.0996260166175766,2.2465768672792,-9.763753154262101
7.422123356926188,1.1783887105992001,2.1197393722249083,-9.77296821558887
7.4301213346814965,1.2571514045808234,1.9929018771706164,-9.782183276915637
7.438119312436805,1.335914098562447,1.8660643821163243,-9.791398338242406
7.446117290192113,1.4146767925440704,1.7392268870620322,-9.800613399569174
7.454115267947421,1.4934394865256937,1.6123893920077403,-9.809828460895943
7.46211324570273,1.5722021805073172,1.4855518969534485,-9.81904352222271
7.470111223458038,1.6509648744889405,1.3587144018991564,-9.828258583549479
7.478109201213346,1.729727568470564,1.2318769068448643,-9.837473644876248
7.486107178968655,1.8084902624521875,1.1050394117905724,-9.846688706203016
7.494105156723964,1.8872529564338196,0.9782019167362663,-9.855903767529785
7.502103134479272,1.8604216380178733,0.8465025278058442,-9.832615773508493
7.51010111223458,1.6750414560158557,0.13518806875625503,-9.696376137512646
7.518099089989889,-0.07518184738000586,0.4972284065901386,-9.700705858561825
7.526097067745197,-0.007246083387857635,0.4957229048950218,-9.721594694581572
7.534095045500505,0.06068968060429057,0.4942174031999049,-9.74248353060132
7.542093023255814,0.12862544459643882,0.49271190150478805,-9.763372366621066
7.550091001011122,0.19656120858858706,0.4912063998096712,-9.784261202640812
7.55808897876643,0.26449697258073523,0.4897008981145543,-9.805150038660559
7.566086956521739,0.33243273657288347,0.4881953964194375,-9.826038874680306
7.574084934277047,0.4003685005650317,0.4866898947243206,-9.846927710700053
7.582082912032356,0.46830426455718743,0.4851843930292036,-9.867816546719801
7.590080889787664,0.5362400285493357,0.4836788913340867,-9.888705382739547
7.598078867542973,0.6041757925414839,0.4821733896389699,-9.909594218759294
7.606076845298281,0.8072426693630069,0.6371456016178041,-9.782975733063699
7.614074823053589,0.19201361126236327,0.268008166757418,-9.844498638873764
7.622072800808898,0.20542163801819247,0.23141233569261563,-9.851781597573307
7.630070778564206,0.4303826884461474,0.33694759253193524,-9.82605764821487
7.638068756319514,0.41314760962132824,0.3628565345561732,-9.79755781198821
7.6460667340748225,0.3959125307965091,0.38876547658041116,-9.769057975761548
7.654064711830131,0.37867745197168995,0.4146744186046491,-9.740558139534885
7.66206268958544,0.3614423731468689,0.4405833606288899,-9.71205830330822
7.670060667340748,0.3442072943220497,0.4664923026531279,-9.683558467081559
7.678058645096057,0.32697221549723055,0.4924012446773658,-9.655058630854898
7.686056622851365,0.30973713667241143,0.5183101867016038,-9.626558794628236
7.694054600606673,0.29250205784759226,0.5442191287258418,-9.598058958401573
7.7020525783619815,0.4544271991911294,-0.30500303336705087,-9.754427199191129
7.71005055611729,0.34007929937647496,-0.22404631150994517,-9.669456616531848
7.718048533872598,0.33449737740141605,-0.19347070904954783,-9.697199601870574
7.7260465116279065,0.32891545542635714,-0.16289510658915046,-9.724942587209298
7.734044489383215,0.3233335334512982,-0.13231950412875312,-9.752685572548025
7.742042467138524,0.3177516114762387,-0.10174390166835237,-9.780428557886754
7.750040444893832,0.3121696895011798,-0.07116829920795503,-9.808171543225479
7.758038422649141,0.3065877675261209,-0.040592696747557666,-9.835914528564205
7.766036400404449,0.30100584555106197,-0.010017094287160327,-9.86365751390293
7.774034378159757,0.29542392357600306,0.02055850817323701,-9.891400499241657
7.7820323559150655,0.28984200160094414,0.05113411063363438,-9.919143484580381
7.790030333670374,0.28426007962588523,0.08170971309403174,-9.946886469919107
7.798028311425682,0.2786781576508263,0.11228531555442905,-9.974629455257833
7.80602628918099,0.5369863498483213,-0.1647740141556642,-9.888300808897839
7.814024266936299,0.5567371842960738,-0.2214316405188292,-9.934078258695111
7.822022244691608,0.5587151787946987,-0.19004172782326084,-9.910256324950804
7.830020222446916,0.5606931732933232,-0.15865181512769597,-9.886434391206498
7.8380182002022245,0.5626711677919479,-0.1272619024321311,-9.862612457462193
7.846016177957533,0.5646491622905726,-0.09587198973656624,-9.838790523717888
7.854014155712841,0.5666271567891972,-0.06448207704100137,-9.814968589973581
7.862012133468149,0.5686051512878219,-0.03309216434543652,-9.791146656229277
7.870010111223458,0.5705831457864464,-0.0017022516498716445,-9.767324722484972
7.878008088978766,0.5725611402850711,0.029687661045693203,-9.743502788740667
7.886006066734074,0.5745391347836957,0.06107757374125805,-9.71968085499636
7.894004044489383,0.5765171292823204,0.09246748643682295,-9.695858921252055
7.902002022244691,0.7145374115267883,0.20333164812936633,-9.714537411526788
7.91,0.049000000000000044,0.71,-9.549
