accel_time_list,accel_x_list,accel_y_list,accel_z_list
0.0,-1.1,0.3,9.6
0.007995628415300547,-1.7967882954345145,1.2,10.60214113637699
0.015991256830601094,-1.7709959457077384,1.2,10.619336036194841
0.02398688524590164,-1.7452035959809624,1.2,10.636530936012692
0.03198251366120219,-1.7194112462541866,1.2,10.653725835830542
0.039978142076502736,-1.6936188965274106,1.2,10.670920735648393
0.04797377049180328,-1.6678265468006346,1.2,10.688115635466243
0.055969398907103826,-1.6420341970738586,1.2,10.705310535284095
0.06396502732240437,-1.6162418473470828,1.2,10.722505435101946
0.07196065573770492,-1.5904494976203067,1.2,10.739700334919796
0.07995628415300547,-1.5646571478935307,1.2,10.756895234737646
0.08795191256830602,-1.5388647981667547,1.2,10.774090134555497
0.09594754098360656,-1.513072448439979,1.2,10.791285034373349
0.1039431693989071,-0.4227322404371566,0.3289617486338856,9.680109289617487
0.11193879781420765,-1.7063916411457394,0.6978694529514201,9.79360835885426
0.1199344262295082,-1.7327508557016753,0.6890830480994415,9.767249144298326
0.12793005464480875,-1.7591100702576112,0.6802966432474629,9.740889929742389
0.1359256830601093,-1.7854692848135472,0.6715102383954843,9.714530715186454
0.14392131147540985,-1.8118284993694829,0.6627238335435056,9.688171500630517
0.1519169398907104,-1.8381877139254188,0.653937428691527,9.661812286074582
0.15991256830601094,-1.8645469284813547,0.6451510238395484,9.635453071518645
0.1679081967213115,-1.8909061430372907,0.6363646189875698,9.60909385696271
0.17590382513661204,-1.9172653575932266,0.6275782141355911,9.582734642406773
0.1838994535519126,-1.9436245721491623,0.6187918092836125,9.556375427850838
0.1918950819672131,-1.9699837867050982,0.6100054044316339,9.530016213294902
0.19989071038251366,-1.996343001261034,0.6012189995796553,9.503656998738967
0.2078863387978142,-1.5123896821199836,0.5028591574123039,9.793328632704625
0.21588196721311476,-1.6241565309360129,0.5286515071390799,9.733146483342148
0.2238775956284153,-1.735923379752042,0.5544438568658558,9.672964333979671
0.23187322404371585,-1.8476902285680712,0.5802362065926319,9.612782184617194
0.2398688524590164,-1.9594570773841005,0.6060285563194078,9.552600035254715
0.24786448087431695,-2.0712239262001297,0.6318209060461838,9.492417885892237
0.2558601092896175,-2.1829907750161586,0.6576132557729597,9.43223573652976
0.26385573770491805,-2.294757623832188,0.6834056054997357,9.372053587167283
0.2718513661202186,-2.406524472648217,0.7091979552265117,9.311871437804806
0.27984699453551914,-2.518291321464246,0.7349903049532877,9.251689288442329
0.2878426229508197,-2.630058170280275,0.7607826546800636,9.191507139079851
0.29583825136612024,-2.7418250190963045,0.7865750044068396,9.131324989717374
0.3038338797814208,-2.0971220400728536,0.3527140255009069,9.738979963570133
0.31182950819672134,-2.623579234972678,0.3357923497267783,9.876420765027323
0.3198251366120219,-2.690209471766849,1.00209471766849,9.809790528233151
0.32782076502732244,-2.674422131147541,1.117051912568306,9.740318306010929
0.335816393442623,-2.644438524590164,1.1370409836065576,9.67035655737705
0.34381202185792353,-2.614454918032787,1.157030054644809,9.60039480874317
0.3518076502732241,-2.5844713114754096,1.1770191256830602,9.53043306010929
0.35980327868852463,-2.554487704918033,1.1970081967213115,9.460471311475409
0.3677989071038252,-2.5245040983606555,1.216997267759563,9.39050956284153
0.3757945355191257,-2.4945204918032786,1.2369863387978144,9.32054781420765
0.3837901639344262,-2.4645368852459018,1.2569754098360655,9.25058606557377
0.39178579234972677,-2.4345532786885244,1.276964480874317,9.180624316939891
0.3997814207650273,-2.4045696721311476,1.2969535519125683,9.110662568306012
0.40777704918032787,-2.9016710735060816,-1.4050132205182444,8.10167107350608
0.4157726775956284,-2.918865973323932,-1.4565979199717962,8.118865973323931
0.42376830601092896,-2.9360608731417828,-1.5081826194253483,8.136060873141783
0.4317639344262295,-2.953255772959633,-1.5597673188789,8.153255772959634
0.43975956284153006,-2.970450672777484,-1.6113520183324521,8.170450672777484
0.4477551912568306,-2.987645572595335,-1.662936717786004,8.187645572595335
0.45575081967213116,-3.004840472413185,-1.7145214172395558,8.204840472413185
0.4637464480874317,-3.022035372231036,-1.7661061166931078,8.222035372231037
0.47174207650273225,-3.0392302720488864,-1.8176908161466598,8.239230272048887
0.4797377049180328,-3.0564251718667372,-1.8692755156002117,8.256425171866738
0.48773333333333335,-3.073620071684588,-1.9208602150537635,8.273620071684588
0.4957289617486339,-3.0908149715024384,-1.9724449145073155,8.290814971502439
0.5037245901639344,-2.7413114754098333,-2.5347540983606676,6.710163934426221
0.511720218579235,-1.6898489923027205,-3.0812080615782365,5.679697984605441
0.5197158469945355,-1.6726540924848698,-3.2187672601210418,5.64530818496974
0.5277114754098361,-1.655459192667019,-3.3563264586638466,5.610918385334038
0.5357071038251366,-1.6382642928491684,-3.493885657206652,5.576528585698337
0.5437027322404372,-1.6210693930313178,-3.631444855749457,5.542138786062636
0.5516983606557377,-1.6038744932134672,-3.769004054292262,5.507748986426934
0.5596939890710383,-1.5866795933956166,-3.9065632528350673,5.4733591867912335
0.5676896174863388,-1.569484693577766,-4.044122451377873,5.438969387155532
0.5756852459016394,-1.5522897937599152,-4.1816816499206775,5.40457958751983
0.5836808743169399,-1.5350948939420646,-4.319240848463483,5.370189787884129
0.5916765027322405,-1.517899994124214,-4.456800047006288,5.335799988248428
0.599672131147541,-1.5007050943063633,-4.594359245549093,5.301410188612726
0.6076677595628416,-0.5075502629137026,-5.4176172801319735,3.3025167543045675
0.6156633879781421,-0.5301793999381381,-5.470418599855656,3.310059799979379
0.6236590163934427,-0.5528085369625737,-5.523219919579339,3.317602845654191
0.6316546448087432,-0.5754376739870092,-5.576021239303022,3.325145891329003
0.6396502732240438,-0.5980668110114448,-5.6288225590267045,3.3326889370038146
0.6476459016393443,-0.6206959480358802,-5.681623878750387,3.3402319826786266
0.6556415300546449,-0.6433250850603158,-5.73442519847407,3.3477750283534387
0.6636371584699454,-0.6659542220847513,-5.787226518197753,3.35531807402825
0.671632786885246,-0.6885833591091868,-5.840027837921435,3.3628611197030622
0.6796284153005465,-0.7112124961336224,-5.892829157645118,3.370404165377874
0.6876240437158471,-0.7338416331580578,-5.945630477368802,3.377947211052686
0.6956196721311476,-0.7564707701824933,-5.9984317970924845,3.385490256727498
0.7036153005464482,-0.7790999072069289,-6.051233116816167,3.3930333024023094
0.7116109289617487,-1.0138251366120612,-6.466557377049248,3.216721311475376
0.7196065573770493,-2.416393442622957,-8.408196721311478,2.263934426229507
0.7276021857923498,-2.8320437158469964,-8.636316211293263,2.193591256830601
0.7355978142076504,-2.9919562841530074,-8.817550455373409,2.1616087431693987
0.7435934426229509,-3.151868852459018,-8.998784699453553,2.1296262295081965
0.7515890710382515,-3.311781420765029,-9.1800189435337,2.0976437158469943
0.759584699453552,-3.47169398907104,-9.361253187613846,2.065661202185792
0.7675803278688524,-3.631606557377048,-9.542487431693988,2.0336786885245903
0.775575956284153,-3.791519125683059,-9.723721675774135,2.001696174863388
0.7835715846994535,-3.95143169398907,-9.904955919854281,1.969713661202186
0.7915672131147541,-4.111344262295081,-10.086190163934425,1.9377311475409837
0.7995628415300546,-4.271256830601091,-10.267424408014572,1.9057486338797816
0.8075584699453552,-6.2036030319055175,-8.602402021270345,-0.7012010106351723
0.8155540983606557,-6.255187731359069,-8.636791820906046,-0.718395910453023
0.8235497267759563,-6.306772430812621,-8.671181620541747,-0.7355908102708736
0.8315453551912568,-6.358357130266173,-8.705571420177447,-0.7527857100887242
0.8395409836065574,-6.409941829719725,-8.73996121981315,-0.7699806099065749
0.8475366120218579,-6.461526529173277,-8.77435101944885,-0.7871755097244255
0.8555322404371585,-6.513111228626829,-8.808740819084552,-0.8043704095422762
0.863527868852459,-6.564695928080381,-8.843130618720254,-0.8215653093601268
0.8715234972677596,-6.616280627533932,-8.877520418355955,-0.8387602091779776
0.8795191256830601,-6.667865326987484,-8.911910217991656,-0.8559551089958282
0.8875147540983607,-6.719450026441036,-8.946300017627358,-0.8731500088136788
0.8955103825136612,-6.771034725894588,-8.980689817263059,-0.8903449086315295
0.9035060109289618,-7.0224893746205215,-7.860643594414087,0.39437765634486954
0.9115016393442623,-7.377850637522768,-7.238761384335156,0.30553734061930793
0.9194972677595629,-7.934594367381253,-6.365405632618748,0.6901158950339278
0.9274928961748634,-7.996099201345103,-6.303900798654897,0.6725430853299705
0.935488524590164,-8.057604035308954,-6.242395964691047,0.6549702756260133
0.9434841530054645,-8.119108869272804,-6.180891130727197,0.637397465922056
0.9514797814207651,-8.180613703236654,-6.119386296763346,0.6198246562180988
0.9594754098360656,-8.242118537200504,-6.057881462799496,0.6022518465141415
0.9674710382513662,-8.303623371164354,-5.9963766288356455,0.5846790368101843
0.9754666666666667,-8.365128205128205,-5.934871794871795,0.567106227106227
0.9834622950819673,-8.426633039092055,-5.873366960907944,0.5495334174022698
0.9914579234972678,-8.488137873055905,-5.811862126944094,0.5319606076983125
0.9994535519125683,-8.549642707019757,-5.750357292980244,0.5143877979943553
1.007449180327869,-9.6347540983607,-5.8,0.3
1.0154448087431696,-10.5,-5.685022570681872,0.5887669280114036
1.02344043715847,-10.5,-5.6502589688762175,0.5626942266571631
1.0314360655737704,-10.5,-5.615495367070563,0.5366215253029225
1.039431693989071,-10.5,-5.580731765264908,0.5105488239486813
1.0474273224043715,-10.5,-5.545968163459254,0.4844761225944408
1.0554229508196722,-10.5,-5.511204561653599,0.4584034212401995
1.0634185792349726,-10.5,-5.476440959847945,0.43233071988595895
1.0714142076502733,-10.5,-5.44167735804229,0.4062580185317177
1.0794098360655737,-10.5,-5.406913756236636,0.38018531717747717
1.0874054644808744,-10.5,-5.372150154430981,0.35411261582323594
1.0954010928961748,-10.5,-5.337386552625327,0.3280399144689954
1.1033967213114755,-10.5,-5.302622950819672,0.30196721311475416
1.111392349726776,-9.898229508196724,-4.732153005464483,0.7713879781420656
1.1193879781420766,-9.90047898536059,-4.699521014639412,1.8995210146394115
1.127383606557377,-9.910350131552317,-4.689649868447683,1.8896498684476826
1.1353792349726777,-9.920221277744046,-4.6797787222559535,1.8797787222559534
1.1433748633879781,-9.930092423935776,-4.669907576064224,1.8699075760642245
1.1513704918032788,-9.939963570127505,-4.660036429872496,1.8600364298724952
1.1593661202185792,-9.949834716319234,-4.650165283680766,1.8501652836807663
1.1673617486338799,-9.959705862510964,-4.640294137489037,1.8402941374890371
1.1753573770491803,-9.969577008702691,-4.630422991297308,1.8304229912973082
1.183353005464481,-9.97944815489442,-4.620551845105579,1.820551845105579
1.1913486338797814,-9.98931930108615,-4.61068069891385,1.8106806989138502
1.199344262295082,-9.99919044727788,-4.60080955272212,1.8008095527221208
1.2073398907103825,-9.61699453551912,-4.083005464480879,1.6169945355191215
1.2153355191256832,-9.7,-3.582214936247723,1.4940716454159075
1.2233311475409836,-9.7,-3.5555628415300546,1.4851876138433515
1.2313267759562843,-9.7,-3.528910746812386,1.4763035822707953
1.2393224043715847,-9.7,-3.5022586520947177,1.4674195506982393
1.2473180327868854,-9.7,-3.475606557377049,1.4585355191256828
1.2553136612021858,-9.7,-3.4489544626593807,1.4496514875531268
1.2633092896174865,-9.7,-3.422302367941712,1.4407674559805705
1.271304918032787,-9.7,-3.3956502732240437,1.4318834244080145
1.2793005464480875,-9.7,-3.368998178506375,1.4229993928354583
1.287296174863388,-9.7,-3.3423460837887067,1.4141153612629023
1.2952918032786886,-9.7,-3.315693989071038,1.4052313296903458
1.303287431693989,-9.385628415300543,-3.156885245901628,1.6143715846994575
1.3112830601092897,-9.290789118044538,-2.504605440977731,1.495394559022269
1.3192786885245902,-9.273594218226688,-2.513202890886656,1.4867971091133438
1.3272743169398908,-9.256399318408837,-2.521800340795582,1.4781996592044184
1.3352699453551913,-9.239204418590987,-2.530397790704507,1.4696022092954932
1.343265573770492,-9.222009518773136,-2.538995240613432,1.4610047593865676
1.3512612021857924,-9.204814618955286,-2.5475926905223574,1.4524073094776424
1.359256830601093,-9.187619719137434,-2.556190140431283,1.443809859568717
1.3672524590163935,-9.170424819319583,-2.564787590340208,1.4352124096597918
1.3752480874316941,-9.153229919501733,-2.573385040249134,1.4266149597508664
1.3832437158469946,-9.136035019683883,-2.581982490158059,1.4180175098419412
1.3912393442622952,-9.11884011986603,-2.590579940066984,1.4094200599330158
1.3992349726775957,-9.10164522004818,-2.5991773899759094,1.4008226100240906
1.4072306010928963,-8.80129536957147,-2.8012953695714695,1.0974092608570603
1.4152262295081968,-8.809711820534945,-2.809711820534944,1.080576358930112
1.4232218579234974,-8.81812827149842,-2.818128271498418,1.0637434570031632
1.4312174863387979,-8.826544722461893,-2.8265447224618923,1.046910555076215
1.4392131147540985,-8.834961173425368,-2.834961173425367,1.0300776531492661
1.447208743169399,-8.843377624388841,-2.843377624388841,1.013244751222318
1.4552043715846996,-8.851794075352316,-2.8517940753523154,0.9964118492953691
1.4632,-8.86021052631579,-2.8602105263157895,0.9795789473684208
1.4711956284153007,-8.868626977279265,-2.868626977279264,0.962746045441472
1.4791912568306012,-8.877043428242738,-2.877043428242738,0.9459131435145237
1.4871868852459018,-8.885459879206213,-2.8854598792062123,0.929080241587575
1.4951825136612023,-8.893876330169688,-2.893876330169687,0.9122473396606267
1.503178142076503,-9.0,-2.9,1.001979356405589
1.5111737704918033,-9.0,-2.9,1.0908196721311483
1.519169398907104,-8.891530054644795,-2.908469945355205,0.8
1.5271650273224044,-8.807803832053677,-3.0078038320536766,0.8
1.5351606557377049,-8.81792488068064,-3.0179248806806394,0.8
1.5431562841530055,-8.828045929307603,-3.028045929307602,0.8
1.551151912568306,-8.838166977934565,-3.038166977934565,0.8
1.5591475409836066,-8.848288026561528,-3.0482880265615275,0.8
1.567143169398907,-8.85840907518849,-3.05840907518849,0.8
1.5751387978142077,-8.868530123815454,-3.068530123815453,0.8
1.5831344262295082,-8.878651172442416,-3.0786511724424153,0.8
1.5911300546448088,-8.88877222106938,-3.0887722210693784,0.8
1.5991256830601093,-8.898893269696341,-3.0988932696963407,0.8
1.60712131147541,-8.800130442446678,-3.1001304424466776,0.8001304424466774
1.6151169398907104,-8.808727892355604,-3.1087278923556028,0.8087278923556026
1.623112568306011,-8.817325342264528,-3.117325342264528,0.817325342264528
1.6311081967213115,-8.825922792173454,-3.125922792173453,0.8259227921734532
1.6391038251366121,-8.834520242082379,-3.134520242082379,0.8345202420823787
1.6470994535519126,-8.843117691991305,-3.143117691991304,0.8431176919913039
1.6550950819672132,-8.85171514190023,-3.1517151419002296,0.8517151419002293
1.6630907103825137,-8.860312591809155,-3.160312591809155,0.8603125918091545
1.6710863387978143,-8.868910041718081,-3.16891004171808,0.86891004171808
1.6790819672131148,-8.877507491627005,-3.177507491627005,0.8775074916270051
1.6870775956284154,-8.886104941535931,-3.186104941535931,0.8861049415359307
1.6950732240437159,-8.894702391444856,-3.194702391444856,0.8947023914448559
1.7030688524590165,-8.8,-3.2,0.8786229508196693
1.711064480874317,-8.798817243472982,-3.3,0.9
1.7190601092896176,-8.789933211900426,-3.3,0.9
1.727055737704918,-8.78104918032787,-3.3,0.9
1.7350513661202187,-8.772165148755313,-3.3,0.9
1.7430469945355191,-8.763281117182757,-3.3,0.9
1.7510426229508198,-8.7543970856102,-3.3,0.9
1.7590382513661202,-8.745513054037644,-3.3,0.9
1.767033879781421,-8.736629022465088,-3.3,0.9
1.7750295081967213,-8.727744990892532,-3.3,0.9
1.783025136612022,-8.718860959319976,-3.3,0.9
1.7910207650273224,-8.70997692774742,-3.3,0.9
1.799016393442623,-8.701092896174863,-3.3,0.9
1.8070120218579235,-8.89892338100221,-3.501076618997791,0.8
1.8150076502732242,-8.890417393326357,-3.509582606673643,0.8
1.8230032786885246,-8.881911405650506,-3.518088594349494,0.8
1.8309989071038253,-8.873405417974654,-3.526594582025346,0.8
1.8389945355191257,-8.864899430298802,-3.5351005697011977,0.8
1.8469901639344264,-8.85639344262295,-3.5436065573770494,0.8
1.8549857923497268,-8.8478874549471,-3.5521125450529007,0.8
1.8629814207650275,-8.839381467271249,-3.5606185327287525,0.8
1.870977049180328,-8.830875479595397,-3.5691245204046043,0.8
1.8789726775956286,-8.822369491919545,-3.577630508080456,0.8
1.886968306010929,-8.813863504243693,-3.5861364957563078,0.8
1.8949639344262297,-8.805357516567842,-3.5946424834321595,0.8
1.9029595628415301,-8.826905116741184,-3.5730948832588165,0.8269051167411834
1.9109551912568308,-8.89959264778937,-3.5004073522106296,0.8995926477893704
1.9189508196721312,-8.89648711943794,-3.5035128805620612,0.803512880562061
1.9269464480874319,-8.886968514181628,-3.5130314858183715,0.8130314858183714
1.9349420765027323,-8.87744990892532,-3.5225500910746814,0.8225500910746815
1.942937704918033,-8.867931303669009,-3.5320686963309917,0.8320686963309918
1.9509333333333334,-8.8584126984127,-3.5415873015873016,0.8415873015873018
1.958928961748634,-8.848894093156389,-3.551105906843612,0.8511059068436121
1.9669245901639345,-8.839375487900078,-3.5606245120999223,0.8606245120999221
1.9749202185792352,-8.829856882643769,-3.5701431173562326,0.8701431173562324
1.9829158469945356,-8.820338277387458,-3.5796617226125425,0.8796617226125424
1.9909114754098363,-8.810819672131148,-3.5891803278688528,0.8891803278688527
1.9989071038251367,-8.801301066874839,-3.5986989331251626,0.8986989331251628
2.0069027322404374,-8.9,-3.5,0.800960353447274
2.014898360655738,-8.9,-3.5,0.8094663411231255
2.0228939890710382,-8.9,-3.5,0.8179723287989771
2.030889617486339,-8.9,-3.5,0.8264783164748291
2.0388852459016396,-8.9,-3.5,0.8349843041506805
2.04688087431694,-8.9,-3.5,0.843490291826532
2.0548765027322404,-8.9,-3.5,0.8519962795023835
2.062872131147541,-8.9,-3.5,0.860502267178235
2.0708677595628417,-8.9,-3.5,0.869008254854087
2.078863387978142,-8.9,-3.5,0.8775142425299385
2.0868590163934426,-8.9,-3.5,0.88602023020579
2.094854644808743,-8.9,-3.5,0.8945262178816415
2.102850273224044,-8.9,-3.507486338797812,0.8925136612021879
2.1108459016393444,-8.89229508196721,-3.5922950819672095,0.8077049180327907
2.118841530054645,-8.9,-3.6,0.8
2.1268371584699453,-8.9,-3.6,0.8
2.134832786885246,-8.9,-3.6,0.8
2.1428284153005466,-8.9,-3.6,0.8
2.150824043715847,-8.9,-3.6,0.8
2.1588196721311474,-8.9,-3.6,0.8
2.1668153005464483,-8.9,-3.6,0.8
2.1748109289617488,-8.9,-3.6,0.8
2.182806557377049,-8.9,-3.6,0.8
2.1908021857923496,-8.9,-3.6,0.8
2.1987978142076505,-8.9,-3.6,0.8
2.206793442622951,-8.9,-3.50688524590163,0.8931147540983697
2.2147890710382514,-8.9,-3.5,0.8053211900425017
2.222784699453552,-8.9,-3.5,0.8142052216150577
2.2307803278688527,-8.9,-3.5,0.8230892531876143
2.238775956284153,-8.9,-3.5,0.8319732847601703
2.2467715846994536,-8.9,-3.5,0.8408573163327263
2.254767213114754,-8.9,-3.5,0.8497413479052824
2.262762841530055,-8.9,-3.5,0.858625379477839
2.2707584699453554,-8.9,-3.5,0.867509411050395
2.278754098360656,-8.9,-3.5,0.876393442622951
2.2867497267759562,-8.9,-3.5,0.8852774741955072
2.294745355191257,-8.9,-3.5,0.8941615057680636
2.3027409836065575,-8.9,-3.472590163934423,0.8725901639344235
2.310736612021858,-8.9,-3.473661202185801,0.8
2.3187322404371584,-9.00439087110254,-3.5,1.0043908711025393
2.3267278688524593,-9.0137974927676,-3.5,1.0137974927675992
2.3347234972677597,-9.023204114432659,-3.5,1.0232041144326587
2.34271912568306,-9.032610736097718,-3.5,1.032610736097718
2.3507147540983606,-9.042017357762777,-3.5,1.0420173577627774
2.3587103825136615,-9.051423979427836,-3.5,1.0514239794278373
2.366706010928962,-9.060830601092896,-3.5,1.0608306010928965
2.3747016393442624,-9.070237222757955,-3.5,1.070237222757956
2.382697267759563,-9.079643844423014,-3.5,1.0796438444230152
2.3906928961748637,-9.089050466088075,-3.5,1.089050466088075
2.398688524590164,-9.098457087753134,-3.5,1.0984570877531346
2.4066841530054646,-9.7,-4.731584699453543,1.5842076502732287
2.414679781420765,-9.715673023307684,-4.676490465038475,1.607836511653842
2.422675409836066,-9.731990632318501,-4.652014051522247,1.615995316159251
2.4306710382513663,-9.748308241329319,-4.627537638006022,1.6241541206646595
2.4386666666666668,-9.764625850340137,-4.603061224489796,1.632312925170068
2.446662295081967,-9.780943459350953,-4.57858481097357,1.6404717296754767
2.454657923497268,-9.797261068361772,-4.554108397457343,1.6486305341808858
2.4626535519125685,-9.813578677372588,-4.529631983941117,1.6567893386862944
2.470649180327869,-9.829896286383406,-4.505155570424891,1.664948143191703
2.4786448087431694,-9.846213895394223,-4.480679156908665,1.6731069476971117
2.4866404371584703,-9.862531504405041,-4.456202743392438,1.6812657522025207
2.4946360655737707,-9.878849113415859,-4.431726329876212,1.6894245567079293
2.502631693989071,-9.895166722426676,-4.407249916359986,1.697583361213338
2.5106273224043716,-9.9,-6.888196721311477,2.225464480874318
2.5186229508196725,-9.882869773438939,-7.017130226561061,2.334260453122123
2.526618579234973,-9.864902069134892,-7.035097930865107,2.3701958617302146
2.5346142076502733,-9.846934364830847,-7.053065635169153,2.4061312703383066
2.542609836065574,-9.8289666605268,-7.0710333394732,2.4420666789463983
2.5506054644808747,-9.810998956222754,-7.089001043777246,2.4780020875544926
2.558601092896175,-9.793031251918707,-7.106968748081292,2.513937496162584
2.5665967213114755,-9.775063547614662,-7.124936452385338,2.5498729047706763
2.574592349726776,-9.757095843310616,-7.142904156689384,2.585808313378768
2.5825879781420764,-9.739128139006569,-7.16087186099343,2.62174372198686
2.5905836065573773,-9.721160434702522,-7.178839565297477,2.657679130594954
2.5985792349726777,-9.703192730398477,-7.196807269601523,2.693614539203046
2.606574863387978,-8.748797814207697,-11.983551912568116,1.814972677595602
2.6145704918032786,-8.59219536927497,-12.623413892175087,1.876586107824912
2.6225661202185795,-8.583952453382908,-12.648142639851276,1.8518573601487238
2.63056174863388,-8.575709537490845,-12.672871387527463,1.8271286124725368
2.6385573770491804,-8.567466621598783,-12.69760013520365,1.80239986479635
2.646553005464481,-8.55922370570672,-12.722328882879836,1.7776711171201631
2.6545486338797817,-8.550980789814657,-12.747057630556025,1.7529423694439747
2.662544262295082,-8.542737873922595,-12.771786378232212,1.728213621767788
2.6705398907103826,-8.534494958030534,-12.7965151259084,1.7034848740916009
2.678535519125683,-8.526252042138472,-12.821243873584587,1.678756126415414
2.686531147540984,-8.518009126246408,-12.845972621260774,1.6540273787392257
2.6945267759562843,-8.509766210354346,-12.870701368936961,1.6292986310630388
2.7025224043715848,-8.501523294462284,-12.895430116613149,1.604569883386852
2.710518032786885,-5.665081967213095,-13.14098360655736,0.33491803278690535
2.718513661202186,-5.292661982825912,-12.842202606137029,0.583486458896294
2.7265092896174865,-5.178438719750192,-12.78069777217318,0.5659136491923371
2.734504918032787,-5.064215456674471,-12.71919293820933,0.5483408394883801
2.7425005464480874,-4.94999219359875,-12.657688104245482,0.5307680297844232
2.7504961748633883,-4.835768930523024,-12.596183270281628,0.5131952200804653
2.7584918032786887,-4.7215456674473035,-12.534678436317778,0.4956224103765082
2.766487431693989,-4.607322404371583,-12.47317360235393,0.4780496006725513
2.7744830601092896,-4.493099141295863,-12.41166876839008,0.4604767909685943
2.7824786885245905,-4.3788758782201365,-12.350163934426227,0.44290398126463637
2.790474316939891,-4.264652615144415,-12.288659100462377,0.4253311715606794
2.7984699453551913,-4.150429352068695,-12.227154266498527,0.40775836185672243
2.8064655737704918,-1.937049180327879,-11.006885245901644,0.6698360655737661
2.8144612021857927,-0.5832045725770978,-10.381525029834808,1.5899227435462588
2.822456830601093,-0.49130079768858675,-10.280430877457446,1.534780478613152
2.8304524590163935,-0.3993970228000757,-10.179336725080084,1.4796382136800454
2.838448087431694,-0.3074932479115647,-10.078242572702722,1.4244959487469389
2.846443715846995,-0.21558947302304848,-9.977148420325355,1.3693536838138292
2.8544393442622953,-0.12368569813453745,-9.876054267947993,1.3142114188807226
2.8624349726775957,-0.03178192324602647,-9.774960115570629,1.259069153947616
2.870430601092896,0.060121851642484625,-9.673865963193267,1.2039268890145092
2.878426229508197,0.1520256265310007,-9.5727718108159,1.1487846240813995
2.8864218579234975,0.2439294014195118,-9.471677658438537,1.0936423591482929
2.894417486338798,0.3358331763080228,-9.370583506061175,1.0385000942151863
2.9024131147540984,1.9652459016393586,-8.093442622950802,0.8880327868852407
2.9104087431693992,2.9328310661551,-6.8546052784559866,1.8187606092314856
2.9184043715846997,2.9923729798860603,-6.590919660504589,1.8527845599348918
2.9264,3.0519148936170213,-6.327234042553191,1.886808510638298
2.9343956284153005,3.1114568073479822,-6.063548424601794,1.920832461341704
2.9423912568306014,3.1709987210789463,-5.799862806650381,1.9548564120451122
2.950386885245902,3.230540634809907,-5.536177188698983,1.9888803627485183
2.9583825136612023,3.290082548540868,-5.272491570747586,2.0229043134519245
2.9663781420765027,3.3496244622718288,-5.0088059527961875,2.0569282641553306
2.9743737704918036,3.409166376002793,-4.745120334844775,2.090952214858739
2.982369398907104,3.468708289733754,-4.481434716893377,2.124976165562145
2.9903650273224045,3.5282502034647143,-4.2177490989419795,2.159000116265551
2.998360655737705,3.5877921171956753,-3.9540634809905817,2.1930240669689574
3.006356284153006,4.114972677595266,-3.9356284153005916,2.421857923497041
3.0143519125683063,3.8070382513661247,-0.5972131147540644,2.353519125683062
3.0223475409836067,3.9167377049180327,0.1627663934426231,2.4167377049180327
3.030343169398907,3.956715846994535,0.31268442622950615,2.456715846994535
3.038338797814208,3.9966939890710393,0.4626024590163975,2.4966939890710393
3.0463344262295085,4.036672131147541,0.6125204918032806,2.5366721311475415
3.054330054644809,4.076650273224043,0.7624385245901636,2.5766502732240437
3.0623256830601093,4.1166284153005455,0.9123565573770467,2.6166284153005455
3.0703213114754098,4.156606557377048,1.0622745901639299,2.6566065573770477
3.0783169398907106,4.1965846994535525,1.2121926229508213,2.696584699453552
3.086312568306011,4.236562841530055,1.3621106557377043,2.7365628415300542
3.0943081967213115,4.276540983606557,1.5120286885245873,2.7765409836065564
3.102303825136612,4.084808743169397,4.054426229508191,2.8240437158469858
3.110299453551913,3.7944216278400917,3.9780972102387158,2.139048605119358
3.1182950819672133,3.7860051768766176,4.095927523727354,2.1979637618636767
3.1262907103825137,3.7775887259131435,4.213757837215991,2.256878918607996
3.134286338797814,3.7691722749496694,4.331588150704629,2.3157940753523145
3.142281967213115,3.760755823986195,4.449418464193274,2.3747092320966368
3.1502775956284155,3.752339373022721,4.567248777681911,2.4336243888409554
3.158273224043716,3.7439229220592467,4.685079091170548,2.4925395455852746
3.1662688524590163,3.7355064710957726,4.802909404659187,2.5514547023295933
3.1742644808743172,3.727090020132298,4.920739718147831,2.6103698590739155
3.1822601092896177,3.718673569168824,5.0385700316364685,2.669285015818234
3.190255737704918,3.71025711820535,5.156400345125107,2.728200172562553
3.1982513661202185,3.7018406672418758,5.274230658613744,2.787115329306872
3.2062469945355194,0.3713843351547771,3.450601092896121,-0.05451730418940365
3.21424262295082,-0.5473641554614158,2.4854264137041797,0.5473641554614158
3.2222382513661203,-0.6641542334377144,2.449491005096088,0.6641542334377144
3.2302338797814207,-0.780944311414013,2.413555596487996,0.780944311414013
3.2382295081967216,-0.897734389390318,2.377620187879902,0.897734389390318
3.246225136612022,-1.0145244673666167,2.3416847792718105,1.0145244673666167
3.2542207650273225,-1.1313145453429152,2.3057493706637184,1.1313145453429152
3.262216393442623,-1.2481046233192137,2.269813962055627,1.2481046233192137
3.270212021857924,-1.3648947012955188,2.233878553447533,1.3648947012955188
3.2782076502732242,-1.4816847792718173,2.197943144839441,1.4816847792718173
3.2862032786885247,-1.598474857248116,2.1620077362313492,1.598474857248116
3.294198907103825,-1.7152649352244147,2.126072327623257,1.7152649352244147
3.302194535519126,-3.6389071038251726,2.3867273831208236,1.1894596235578918
3.3101901639344264,-5.380655737705091,1.8436065573766123,-2.8380327868852824
3.318185792349727,-10.47025940581621,-1.0656302996042875,-0.14965140380629582
3.3261814207650273,-11.812054519188472,-2.5544714527981665,0.23634445072545052
3.334177049180328,-13.153849632560807,-4.043312605992128,0.6223403052572184
3.3421726775956286,-14.495644745933067,-5.532153759186007,1.0083361597889646
3.350168306010929,-15.837439859305329,-7.020994912379885,1.3943320143207112
3.3581639344262295,-17.17923497267759,-8.509836065573763,1.7803278688524578
3.3661595628415304,-18.521030086049926,-9.998677218767725,2.1663237233842256
3.374155191256831,-19.86282519942219,-11.487518371961604,2.5523195779159717
3.3821508196721313,-21.204620312794447,-12.976359525155484,2.9383154324477183
3.3901464480874317,-22.54641542616671,-14.465200678349362,3.3243112869794644
3.3981420765027326,-23.888210539539045,-15.954041831543323,3.7103071415112328
3.406137704918033,19.255409836063674,14.922950819674519,-20.356721311469286
3.4141333333333335,-1.220000000000229,-18.474666666668483,-5.887333333334432
3.422128961748634,11.242978142076504,-17.790537340619316,-2.3412568306010964
3.430124590163935,10.586194379391076,-15.210995316159151,-0.9134660421545115
3.438120218579235,9.929410616705683,-12.631453291699131,0.5143247462919938
3.4461158469945357,9.27262685402029,-10.051911267239111,1.9421155347384995
3.454111475409836,8.615843091334899,-7.4723692427790915,3.369906323185005
3.462107103825137,7.959059328649468,-4.892827218318928,4.797697111631589
3.4701027322404374,7.302275565964076,-2.3132851938589063,6.225487900078095
3.478098360655738,6.645491803278684,0.2662568306011117,7.653278688524599
3.4860939890710383,5.988708040593291,2.8457988550611333,9.081069476971106
3.494089617486339,5.331924277907863,5.425340879521297,10.50886026541769
3.5020852459016396,4.67514051522247,8.004882903981315,11.936651053864196
3.51008087431694,2.9974839101396364,-5.102246508803896,1.7
3.5180765027322405,2.748731026108068,-5.324347298117796,1.7
3.5260721311475414,2.499978142076486,-5.546448087431709,1.7
3.534067759562842,2.2512252580449177,-5.768548876745609,1.7
3.5420633879781422,2.002472374013349,-5.990649666059509,1.7
3.5500590163934427,1.753719489981781,-6.21275045537341,1.7
3.5580546448087436,1.504966605950199,-6.434851244687322,1.7
3.566050273224044,1.2562137219186305,-6.656952034001223,1.7
3.5740459016393444,1.0074608378870622,-6.8790528233151225,1.7
3.582041530054645,0.7587079538554939,-7.101153612629023,1.7
3.5900371584699453,0.5099550698239255,-7.323254401942924,1.7
3.598032786885246,0.26120218579234367,-7.545355191256837,1.7
3.6060284153005466,1.700213878606266,-9.60003055408661,1.900366649039313
3.614024043715847,1.7603960279687423,-9.608628003995534,2.0035360479464153
3.6220196721311475,1.8205781773312188,-9.61722545390446,2.106705446853518
3.6300153005464484,1.8807603266936985,-9.625822903813384,2.209874845760626
3.638010928961749,1.9409424760561749,-9.63442035372231,2.3130442446677284
3.6460065573770493,2.0011246254186514,-9.643017803631235,2.416213643574831
3.6540021857923497,2.061306774781128,-9.651615253540161,2.5193830424819335
3.6619978142076506,2.1214889241436077,-9.660212703449087,2.6225524413890415
3.669993442622951,2.181671073506084,-9.668810153358011,2.7257218402961443
3.6779890710382515,2.2418532228685604,-9.677407603266937,2.8288912392032466
3.685984699453552,2.3020353722310367,-9.686005053175862,2.9320606381103493
3.6939803278688528,2.3622175215935166,-9.694602503084788,3.035230037017457
3.701975956284153,1.5144262295080482,-10.187978142076625,2.4752459016390844
3.7099715846994537,0.10284153005463172,-11.391475409836104,0.6943169398907365
3.717967213114754,0.09114754098360651,-11.674426229508198,0.664590163934426
3.725962841530055,0.08226350941104997,-11.949831208257452,0.6290540376441999
3.7339584699453554,0.07337947783849391,-12.22523618700669,0.5935179113539756
3.741954098360656,0.06449544626593787,-12.500641165755926,0.5579817850637514
3.7499497267759563,0.0556114146933818,-12.776046144505164,0.5224456587735271
3.757945355191257,0.04672738312082525,-13.051451123254417,0.486909532483301
3.7659409836065576,0.0378433515482692,-13.326856102003655,0.45137340619307675
3.773936612021858,0.028959319975713133,-13.602261080752893,0.4158372799028526
3.7819322404371585,0.020075288403157088,-13.87766605950213,0.38030115361262834
3.7899278688524594,0.01119125683060053,-14.153071038251383,0.34476502732240216
3.79792349726776,0.0023072252580444708,-14.428476017000621,0.3092289010321779
3.8059191256830602,0.17296343001261005,-14.024262295081964,0.8135182849936949
3.8139147540983607,-0.19606557377048994,-11.625573770491815,0.998032786885245
3.8219103825136616,2.2417486338799737,-9.27311475409845,1.6268852459015504
3.829906010928962,2.248662266695052,-9.361605279965937,1.5178596267120839
3.8379016393442624,2.1967426016606337,-9.42390887800724,1.4347881626570145
3.845897267759563,2.1448229366262153,-9.486212476048543,1.3517166986019449
3.8538928961748637,2.092903271591794,-9.548516074089848,1.2686452345468706
3.861888524590164,2.0409836065573757,-9.61081967213115,1.1855737704918012
3.8698841530054646,1.9890639415229572,-9.673123270172452,1.1025023064367316
3.877879781420765,1.9371442764885387,-9.735426868213754,1.019430842381662
3.885875409836066,1.8852246114541176,-9.797730466255059,0.9363593783265879
3.8938710382513664,1.833304946419699,-9.86003406429636,0.8532879142715184
3.901866666666667,1.4386666666667132,-8.518666666666538,1.0040000000000349
3.9098622950819673,3.104586675967912,-5.710090687129407,2.2018346703871647
3.917857923497268,3.147116614347172,-5.803656551563778,2.2188466457388687
3.9258535519125686,3.1896465527264293,-5.897222415998145,2.2358586210905718
3.933849180327869,3.2321764911056867,-5.990788280432511,2.252870596442275
3.9418448087431694,3.2747064294849446,-6.084354144866878,2.269882571793978
3.9498404371584703,3.3172363678642043,-6.177920009301249,2.286894547145682
3.9578360655737708,3.3597663062434617,-6.271485873735616,2.303906522497385
3.965831693989071,3.402296244622719,-6.365051738169982,2.3209184978490875
3.9738273224043716,3.444826183001977,-6.458617602604349,2.3379304732007906
3.9818229508196725,3.4873561213812367,-6.55218346703872,2.3549424485524946
3.989818579234973,3.529886059760494,-6.645749331473087,2.3719544239041976
3.9978142076502734,3.5724159981397516,-6.739315195907453,2.3889663992559007
4.005809836065574,4.004918032787238,-6.233114754097866,2.3619672131148954
4.013805464480875,7.021141469338194,-5.933826350941111,2.516913175470555
4.021801092896175,7.0655616272009745,-6.00489860352156,2.5524493017607797
4.029796721311476,7.109981785063755,-6.075970856102008,2.5879854280510037
4.037792349726776,7.154401942926535,-6.147043108682456,2.623521554341228
4.0457879781420765,7.198822100789315,-6.218115361262905,2.6590576806314523
4.053783606557377,7.243242258652096,-6.289187613843353,2.6945938069216764
4.061779234972678,7.2876624165148804,-6.360259866423809,2.7301299332119044
4.069774863387979,7.332082574377661,-6.431332119004258,2.765666059502129
4.077770491803279,7.376502732240441,-6.502404371584706,2.801202185792353
4.0857661202185795,7.420922890103221,-6.5734766241651545,2.836738312082577
4.09376174863388,7.465343047966002,-6.644548876745603,2.872274438372801
4.10175737704918,7.236393442622972,-7.402950819672075,2.9878688524590094
4.109753005464481,6.644104173933262,-8.727947913033368,2.5
4.117748633879781,6.525020346471341,-8.787489826764329,2.5
4.125744262295082,6.40593651900942,-8.84703174049529,2.5
4.133739890710383,6.286852691547486,-8.906573654226257,2.5
4.1417355191256835,6.167768864085565,-8.966115567957218,2.5
4.149731147540984,6.0486850366236435,-9.025657481688178,2.5
4.157726775956284,5.9296012091617225,-9.085199395419139,2.5
4.165722404371585,5.8105173816998015,-9.144741309150099,2.5
4.173718032786885,5.69143355423788,-9.20428322288106,2.5
4.181713661202186,5.572349726775959,-9.26382513661202,2.5
4.189709289617486,5.453265899314038,-9.32336705034298,2.5
4.1977049180327874,5.334182071852104,-9.382908964073948,2.5
4.205700546448088,4.958983606557362,-8.335027322404397,2.0529945355191206
4.213696174863388,4.191297814207647,-9.204275956284118,1.6348087431694123
4.221691803278689,4.10087570035277,-8.192118696825066,2.0008757003527706
4.229687431693989,4.1109967489797326,-8.101029259182402,2.010996748979733
4.23768306010929,4.121117797606695,-8.009939821539739,2.0211177976066956
4.24567868852459,4.131238846233658,-7.918850383897075,2.0312388462336584
4.2536743169398905,4.141359894860621,-7.827760946254411,2.041359894860621
4.261669945355192,4.151480943487584,-7.736671508611738,2.0514809434875847
4.269665573770492,4.161601992114547,-7.645582070969074,2.0616019921145474
4.277661202185793,4.17172304074151,-7.554492633326411,2.07172304074151
4.285656830601093,4.1818440893684725,-7.463403195683747,2.0818440893684724
4.293652459016394,4.191965137995435,-7.372313758041084,2.091965137995435
4.301648087431694,4.506480874316939,-7.187038251366123,2.1194426229508165
4.3096437158469945,4.586437158469945,-7.0271256830601105,2.3593114754098345
4.317639344262295,3.6937897782063662,-7.234156219864988,2.3875795564127316
4.325634972677596,3.674976534876245,-7.337629058180652,2.34995306975249
4.333630601092897,3.6561632915461266,-7.441101896496305,2.312326583092253
4.341626229508197,3.6373500482160077,-7.544574734811958,2.2747000964320154
4.3496218579234975,3.6185368048858892,-7.64804757312761,2.237073609771778
4.357617486338798,3.5997235615557703,-7.751520411443264,2.1994471231115407
4.365613114754098,3.580910318225652,-7.854993249758916,2.1618206364513033
4.373608743169399,3.562097074895533,-7.9584660880745695,2.124194149791066
4.381604371584699,3.5432838315654145,-8.061938926390223,2.0865676631308285
4.389600000000001,3.5244705882352934,-8.165411764705887,2.048941176470587
4.397595628415301,3.505657344905175,-8.268884603021538,2.0113146898103498
4.4055912568306015,3.7795628415300606,-7.600728597449899,2.5189799635701418
4.413586885245902,4.197218402961395,-8.327815970386048,2.3777472236911628
4.421582513661202,4.18862095305247,-8.4137904694753,2.3089676244197608
4.429578142076503,4.180023503143545,-8.499764968564552,2.2401880251483592
4.437573770491803,4.17142605323462,-8.585739467653804,2.1714084258769577
4.445569398907104,4.1628286033256945,-8.671713966743056,2.102628826605556
4.453565027322405,4.154231153416768,-8.757688465832317,2.033849227334147
4.461560655737705,4.145633703507843,-8.843662964921569,1.965069628062745
4.469556284153006,4.137036253598918,-8.92963746401082,1.8962900287913436
4.477551912568306,4.128438803689993,-9.015611963100072,1.827510429519942
4.485547540983607,4.119841353781068,-9.101586462189324,1.7587308302485405
4.493543169398907,4.1112439038721424,-9.187560961278578,1.6899512309771387
4.501538797814208,4.102646453963216,-9.27353546036783,1.621171631705737
4.509534426229508,4.613770491803113,-9.17934426229533,2.7336065573769455
4.517530054644809,4.949726775956274,-8.43142076502733,2.8622950819672055
4.52552568306011,4.877039244908088,-8.476850471932446,2.807779433681066
4.53352131147541,4.804351713859903,-8.52228017883756,2.753263785394927
4.541516939890711,4.731664182811717,-8.567709885742676,2.6987481371087876
4.549512568306011,4.658976651763531,-8.613139592647792,2.6442324888226483
4.557508196721312,4.586289120715346,-8.658569299552909,2.589716840536509
4.565503825136612,4.51360158966716,-8.703999006458025,2.53520119225037
4.5734994535519125,4.440914058618974,-8.749428713363141,2.4806855439642304
4.581495081967214,4.368226527570781,-8.794858420268262,2.4261698956780853
4.589490710382514,4.295538996522595,-8.840288127173379,2.371654247391946
4.597486338797815,4.22285146547441,-8.885717834078495,2.3171385991058067
4.605481967213115,3.8710819672130956,-9.009639344262302,2.1903606557376984
4.6134775956284155,3.1567213114753225,-7.939562841529865,2.169398907103898
4.621473224043716,2.191230809263596,-5.896492323705439,2.6
4.629468852459016,2.143637782982046,-5.877455113192819,2.6
4.637464480874317,2.096044756700495,-5.858417902680198,2.6
4.645460109289617,2.048451730418945,-5.839380692167579,2.6
4.653455737704919,2.0008587041373893,-5.820343481654956,2.6
4.661451366120219,1.9532656778558386,-5.8013062711423355,2.6
4.6694469945355195,1.9056726515742883,-5.782269060629716,2.6
4.67744262295082,1.8580796252927376,-5.763231850117095,2.6
4.68543825136612,1.8104865990111874,-5.744194639604475,2.6
4.693433879781421,1.7628935727296369,-5.725157429091855,2.6
4.701429508196721,1.7153005464480864,-5.706120218579235,2.6
4.709425136612022,1.4850273224043788,-6.9975956284153265,2.3975956284153264
4.717420765027323,1.6062307643992222,-5.056384649205445,4.0560768795929985
4.725416393442623,1.615421141888073,-4.992052006783488,4.1387902769926574
4.733412021857924,1.6246115193769242,-4.927719364361531,4.221503674392317
4.741407650273224,1.6338018968657753,-4.863386721939574,4.304217071791976
4.749403278688525,1.6429922743546261,-4.799054079517617,4.386930469191635
4.757398907103825,1.6521826518434772,-4.7347214370956605,4.469643866591294
4.765394535519126,1.661373029332328,-4.670388794673703,4.552357263990953
4.773390163934426,1.6705634068211792,-4.606056152251746,4.635070661390612
4.781385792349727,1.6797537843100312,-4.541723509829782,4.717784058790281
4.789381420765028,1.688944161798882,-4.477390867407825,4.80049745618994
4.797377049180328,1.6981345392877332,-4.413058224985868,4.883210853589599
4.805372677595629,0.3440983606556719,-7.327322404371146,4.00497267759587
4.813368306010929,0.290670640834576,-5.324878291107797,5.607774465971186
4.82136393442623,0.2361549925484367,-5.470253353204169,5.653204172876302
4.82935956284153,0.1816393442622974,-5.61562841530054,5.698633879781418
4.8373551912568304,0.12712369597615808,-5.761003477396912,5.744063586686535
4.845350819672132,0.07260804769001275,-5.906378539493299,5.789493293591656
4.853346448087432,0.018092399403873416,-6.051753601589671,5.834923000496771
4.861342076502733,-0.036423248882265835,-6.197128663686042,5.8803527074018875
4.869337704918033,-0.09093889716840514,-6.342503725782414,5.925782414307004
4.8773333333333335,-0.14545454545454445,-6.487878787878786,5.97121212121212
4.885328961748634,-0.19997019374068375,-6.633253849975157,6.016641828117236
4.893324590163934,-0.25448584202682306,-6.778628912071529,6.062071535022352
4.901320218579235,-1.2359562841529865,-8.239890710382467,6.223879781420713
4.909315846994536,-2.1634949424485703,-7.812879897686347,3.538802464829682
4.917311475409837,-2.3166027206138975,-8.085071503313596,3.6323683292640485
4.925307103825137,-2.4697104987792247,-8.357263108940844,3.7259341936984147
4.9333027322404375,-2.6228182769445514,-8.62945471456809,3.8195000581327814
4.941298360655738,-2.7759260551098786,-8.90164632019534,3.913065922567148
4.949293989071038,-2.9290338332752057,-9.173837925822587,4.006631787001514
4.957289617486339,-3.082141611440533,-9.446029531449836,4.100197651435881
4.965285245901639,-3.2352493896058596,-9.718221137077084,4.1937635158702475
4.9732808743169405,-3.3883571677712037,-9.990412742704363,4.287329380304624
4.981276502732241,-3.541464945936531,-10.26260434833161,4.380895244738991
4.989272131147541,-3.6945727241018576,-10.53479595395886,4.474461109173357
4.997267759562842,-3.8476805022671847,-10.806987559586107,4.568026973607724
5.005263387978142,-5.057887067395252,-9.594644808743027,3.3052094717667657
5.013259016393443,-6.325069356872638,-10.32865069356873,1.4322320302648202
5.021254644808743,-6.3865741908364875,-10.398941932384558,1.5113096739326266
5.029250273224044,-6.448079024800337,-10.469233171200385,1.5903873176004328
5.037245901639345,-6.509583858764193,-10.53952441001622,1.669464961268248
5.045241530054645,-6.5710886927280425,-10.609815648832049,1.7485426049360544
5.053237158469946,-6.632593526691892,-10.680106887647877,1.8276202486038606
5.061232786885246,-6.694098360655741,-10.750398126463704,1.906697892271667
5.069228415300547,-6.7556031946195905,-10.820689365279533,1.9857755359394735
5.077224043715847,-6.81710802858344,-10.89098060409536,2.0648531796072795
5.085219672131148,-6.878612862547289,-10.961271842911188,2.143930823275086
5.093215300546448,-6.940117696511138,-11.031563081727015,2.2230084669428924
5.101210928961749,-7.010546448087468,-10.973442622950378,2.3632786885248107
5.10920655737705,-7.701043219076009,-6.205216095380045,1.1008345752608073
5.11720218579235,-7.741425180769445,-6.407125903847227,1.1331401446155565
5.125197814207651,-7.781807142462882,-6.60903571231441,1.1654457139703056
5.133193442622951,-7.822189104156318,-6.810945520781592,1.1977512833250548
5.1411890710382515,-7.862571065849755,-7.012855329248774,1.230056852679804
5.149184699453552,-7.902953027543191,-7.214765137715957,1.262362422034553
5.157180327868852,-7.943334989236628,-7.4166749461831385,1.2946679913893022
5.165175956284153,-7.983716950930064,-7.618584754650321,1.3269735607440514
5.173171584699454,-8.024098912623504,-7.820494563117526,1.3592791300988043
5.181167213114755,-8.064480874316942,-8.022404371584708,1.3915846994535535
5.189162841530055,-8.104862836010378,-8.224314180051891,1.4238902688083026
5.1971584699453555,-8.145244797703814,-8.426223988519073,1.4561958381630518
5.205154098360656,-8.18562675939725,-8.628133796986255,1.488501407517801
5.213149726775956,-8.614972677595627,-5.76256830601093,1.7775409836065585
5.221145355191257,-8.828919318547092,-5.321689488910319,1.4927701703632272
5.229140983606557,-8.866545805207329,-5.349909353905496,1.4833635486981678
5.2371366120218585,-8.904172291867571,-5.3781292189006775,1.4739569270331074
5.245132240437159,-8.941798778527808,-5.406349083895855,1.464550305368048
5.253127868852459,-8.979425265188045,-5.434568948891034,1.4551436837029887
5.26112349726776,-9.017051751848282,-5.4627888138862115,1.4457370620379293
5.26911912568306,-9.054678238508519,-5.491008678881389,1.43633044037287
5.277114754098361,-9.092304725168757,-5.519228543876568,1.4269238187078106
5.285110382513661,-9.129931211828994,-5.5474484088717455,1.4175171970427514
5.293106010928962,-9.167557698489231,-5.575668273866923,1.408110575377692
5.301101639344263,-9.310163934426322,-6.040655737705291,1.4
5.309097267759563,-9.2,-5.518054644808733,1.5
5.317092896174864,-9.202462230793957,-5.395075538412087,1.497537769206043
5.325088524590164,-9.211868852459016,-5.376262295081967,1.4881311475409837
5.333084153005465,-9.221275474124075,-5.357449051751849,1.4787245258759243
5.341079781420765,-9.230682095789135,-5.3386358084217305,1.469317904210865
5.3490754098360656,-9.240088717454194,-5.319822565091612,1.4599112825458056
5.357071038251366,-9.249495339119253,-5.301009321761493,1.4505046608807464
5.365066666666667,-9.258901960784314,-5.282196078431372,1.4410980392156858
5.373062295081968,-9.268308582449373,-5.263382835101253,1.4316914175506266
5.381057923497268,-9.277715204114433,-5.244569591771135,1.422284795885567
5.389053551912569,-9.287121825779492,-5.225756348441016,1.4128781742205079
5.397049180327869,-9.296528447444553,-5.206943105110898,1.4034715525554484
5.4050448087431695,-9.199103825136614,-4.899103825136615,1.3
5.41304043715847,-9.1,-4.8,1.2966217364905892
5.42103606557377,-9.1,-4.8,1.2877377049180332
5.429031693989072,-9.1,-4.8,1.278853673345476
5.437027322404372,-9.1,-4.8,1.26996964177292
5.445022950819673,-9.1,-4.8,1.2610856102003638
5.453018579234973,-9.1,-4.8,1.2522015786278078
5.4610142076502735,-9.1,-4.8,1.2433175470552518
5.469009836065574,-9.1,-4.8,1.2344335154826958
5.477005464480874,-9.1,-4.8,1.2255494839101397
5.485001092896175,-9.1,-4.8,1.2166654523375835
5.492996721311476,-9.1,-4.8,1.2077814207650266
5.5009923497267765,-9.090076502732234,-4.760306010928938,1.2099234972677655
5.508987978142077,-9.010120218579228,-4.440480874316914,1.2898797814207716
5.516983606557377,-8.8,-4.096608253250422,1.4033917467495771
5.524979234972678,-8.8,-4.069037120783869,1.4309628792161304
5.532974863387978,-8.8,-4.041465988317316,1.4585340116826837
5.540970491803279,-8.8,-4.013894855850762,1.486105144149237
5.548966120218579,-8.8,-3.986323723384209,1.5136762766157905
5.5569617486338805,-8.8,-3.958752590917653,1.5412474090823467
5.564957377049181,-8.8,-3.9311814584511,1.5688185415489002
5.572953005464481,-8.8,-3.9036103259845465,1.5963896740154535
5.580948633879782,-8.8,-3.876039193517993,1.6239608064820068
5.588944262295082,-8.8,-3.84846806105144,1.65153193894856
5.596939890710383,-8.8,-3.8208969285848866,1.6791030714151134
5.604935519125683,-8.938251366120229,-3.717049180327863,1.7829508196721369
5.6129311475409835,-8.667213114754114,-3.6068852459016454,1.8603278688524678
5.620926775956285,-8.416108781293687,-3.532217562587372,1.6436192654720991
5.628922404371585,-8.434703265980431,-3.5694065319608623,1.578538569068491
5.636918032786886,-8.453297750667176,-3.6065955013343522,1.513457872664883
5.644913661202186,-8.471892235353922,-3.6437844707078426,1.4483771762612752
5.652909289617487,-8.490486720040666,-3.680973440081333,1.383296479857667
5.660904918032787,-8.509081204727412,-3.7181624094548233,1.318215783454059
5.6689005464480875,-8.527675689414156,-3.7553513788283137,1.2531350870504512
5.676896174863388,-8.546270174100902,-3.7925403482018036,1.188054390646843
5.684891803278688,-8.564864658787647,-3.829729317575294,1.1229736942432351
5.69288743169399,-8.583459143474395,-3.8669182869487884,1.05789299783962
5.70088306010929,-8.77661202185809,-3.8116939890709554,0.8233879781419108
5.708878688524591,-8.612131147540907,-2.9060655737704537,1.1181967213113608
5.716874316939891,-8.64921448087432,-3.2937158469945684,0.7062841530054315
5.7248699453551914,-8.699187158469948,-3.6934972677595903,0.3065027322404099
5.732865573770492,-8.680087155011412,-3.729869267482882,0.26017431002282443
5.740861202185792,-8.659845057757487,-3.7602324133637692,0.21969011551497442
5.748856830601093,-8.639602960503561,-3.790595559244657,0.1792059210071244
5.756852459016394,-8.619360863249634,-3.820958705125548,0.1387217264992699
5.7648480874316945,-8.59911876599571,-3.851321851006435,0.09823753199141991
5.772843715846995,-8.578876668741785,-3.881684996887323,0.057753337483569894
5.780839344262295,-8.55863457148786,-3.91204814276821,0.01726914297571991
5.788834972677596,-8.538392474233936,-3.9424112886490974,-0.023215051532130104
5.796830601092896,-8.51815037698001,-3.972774434529985,-0.06369924603998012
5.804826229508197,-8.472459016393453,-4.0826229508196406,-0.127540983606547
5.812821857923497,-8.47277322404371,-4.445546448087419,-0.054453551912581
5.8208174863387985,-8.396521621803952,-4.896521621803952,-0.29652162180395203
5.828813114754099,-8.386650475612223,-4.886650475612224,-0.2866504756122232
5.836808743169399,-8.376779329420495,-4.876779329420494,-0.27677932942049427
5.8448043715847,-8.366908183228766,-4.866908183228766,-0.26690818322876536
5.8528,-8.357037037037037,-4.857037037037037,-0.2570370370370365
5.860795628415301,-8.347165890845309,-4.847165890845307,-0.24716589084530763
5.868791256830601,-8.33729474465358,-4.837294744653579,-0.23729474465357875
5.8767868852459015,-8.32742359846185,-4.827423598461849,-0.22742359846184984
5.884782513661203,-8.317552452270121,-4.81755245227012,-0.21755245227011988
5.892778142076503,-8.307681306078392,-4.807681306078391,-0.20768130607839097
5.900773770491804,-8.277377049180346,-5.354754098360694,-0.1386885245901734
5.908769398907104,-8.395083093910202,-4.9950830939102016,0.2049169060897982
5.916765027322405,-8.38684017801814,-4.98684017801814,0.21315982198186045
5.924760655737705,-8.378597262126078,-4.978597262126077,0.22140273787392273
5.9327562841530055,-8.370354346234015,-4.970354346234015,0.229645653765985
5.940751912568306,-8.362111430341953,-4.9621114303419525,0.23788856965804728
5.948747540983607,-8.35386851444989,-4.95386851444989,0.24613148555011044
5.956743169398908,-8.345625598557827,-4.945625598557827,0.2543744014421727
5.964738797814208,-8.337382682665766,-4.937382682665765,0.262617317334235
5.972734426229509,-8.329139766773704,-4.929139766773703,0.27086023322629726
5.980730054644809,-8.320896850881642,-4.920896850881641,0.27910314911835954
5.988725683060109,-8.312653934989578,-4.912653934989579,0.2873460650104218
5.99672131147541,-8.304411019097516,-4.904411019097516,0.2955889809024841
6.00471693989071,-8.5,-4.679234972677629,0.09245901639342267
6.012712568306012,-8.5534426229509,-5.7821857923497,-0.5178142076502998
6.020708196721312,-8.805350223546947,-5.662548435171382,-0.5839493293591634
6.0287038251366125,-8.814436164927969,-5.598946845504219,-0.5566915052160938
6.036699453551913,-8.823522106308992,-5.535345255837057,-0.5294336810730241
6.044695081967213,-8.832608047690016,-5.4717436661698935,-0.5021758569299545
6.052690710382514,-8.84169398907104,-5.408142076502731,-0.4749180327868848
6.060686338797814,-8.850779930452061,-5.344540486835569,-0.44766020864381517
6.068681967213115,-8.859865871833085,-5.280938897168406,-0.4204023845007455
6.076677595628416,-8.86895181321411,-5.217337307501237,-0.39314456035767287
6.0846732240437165,-8.878037754595132,-5.153735717834074,-0.3658867362146032
6.092668852459017,-8.887123695976156,-5.090134128166912,-0.33862891207153356
6.100664480874317,-8.89620963735718,-5.026532538499749,-0.3113710879284639
6.108660109289618,-8.616601092896175,-7.232808743169408,-0.4162076502732326
6.116655737704918,-8.696557377049182,-7.872459016393457,-0.9759016393442752
6.124651366120219,-8.606976995210147,-7.639539904202935,-1.6441840383188262
6.132646994535519,-8.616848141401876,-7.836962828037512,-1.565214868784995
6.1406426229508195,-8.626719287593604,-8.03438575187209,-1.486245699251164
6.148638251366121,-8.636590433785335,-8.23180867570669,-1.4072765297173242
6.156633879781421,-8.646461579977062,-8.429231599541268,-1.328307360183493
6.164629508196722,-8.656332726168792,-8.626654523375844,-1.249338190649662
6.172625136612022,-8.666203872360521,-8.824077447210422,-1.1703690211158309
6.180620765027323,-8.676075018552249,-9.021500371045,-1.0913998515819998
6.188616393442623,-8.685946164743978,-9.218923294879579,-1.0124306820481688
6.1966120218579235,-8.695817310935707,-9.416346218714157,-0.9334615125143376
6.204607650273224,-8.648087431694007,-9.886120218579183,-1.3784699453552045
6.212603278688525,-7.809578254168419,-12.852108729157903,-0.7808434916631611
6.220598907103826,-7.823245995049275,-12.783770024753625,-0.7535080099014502
6.228594535519126,-7.83691373593013,-12.715431320349348,-0.7261725281397393
6.236590163934427,-7.850581476810985,-12.647092615945072,-0.6988370463780283
6.244585792349727,-7.8642492176918415,-12.578753911540794,-0.6715015646163175
6.252581420765027,-7.877916958572697,-12.510415207136516,-0.6441660828546065
6.260577049180328,-7.891584699453552,-12.44207650273224,-0.6168306010928957
6.268572677595628,-7.905252440334408,-12.373737798327962,-0.5894951193311848
6.27656830601093,-7.918920181215264,-12.305399093923677,-0.5621596375694708
6.28456393442623,-7.93258792209612,-12.2370603895194,-0.53482415580776
6.2925595628415305,-7.946255662976975,-12.168721685115123,-0.5074886740460491
6.300555191256831,-7.959923403857831,-12.100382980710846,-0.48015319228433817
6.308550819672131,-7.973591144738687,-12.032044276306568,-0.45281771052262726
6.316546448087432,-7.987258885619542,-11.963705571902292,-0.42548222876091635
6.324542076502732,-7.918688524590129,-11.656065573770388,-0.21027322404363433
6.332537704918033,-5.184400095034455,-10.086628652886676,1.7977714421477793
6.340533333333334,-5.103285024154586,-10.01710144927536,1.7861835748792267
6.3485289617486345,-5.022169953274727,-9.947574245664052,1.7745957076106753
6.356524590163935,-4.941054882394868,-9.878047042052744,1.7630078403421239
6.364520218579235,-4.859939811515008,-9.808519838441436,1.7514199730735724
6.372515846994536,-4.778824740635148,-9.738992634830128,1.7398321058050212
6.380511475409836,-4.697709669755289,-9.66946543121882,1.7282442385364698
6.388507103825137,-4.616594598875429,-9.59993822760751,1.7166563712679184
6.396502732240437,-4.5354795279955695,-9.530411023996201,1.705068503999367
6.404498360655738,-2.401639344261672,-3.6013114754093376,5.049180327869164
6.412493989071039,-1.5658066048942723,-0.1804609170824413,3.714654312188169
6.420489617486339,-1.5049703017343774,-0.1456973152767871,3.74072701354241
6.42848524590164,-1.4441339985744825,-0.11093371347113287,3.7667997148966506
6.43648087431694,-1.3832976954145877,-0.07617011166547866,3.792872416250891
6.444476502732241,-1.3224613922546928,-0.04140650985982444,3.8189451176051317
6.452472131147541,-1.261625089094798,-0.006642908054170227,3.8450178189593722
6.4604677595628415,-1.2007887859349031,0.02812069375148399,3.8710905203136132
6.468463387978143,-1.1399524827750014,0.06288429555714209,3.8971632216678564
6.476459016393443,-1.0791161796151065,0.09764789736279628,3.9232359230220974
6.484454644808744,-1.0182798764552117,0.13241149916845052,3.949308624376338
6.492450273224044,-0.9574435732953168,0.1671751009741047,3.9753813257305786
6.5004459016393445,-0.8866229508196632,0.1866229508196633,4.04013114754101
6.508441530054645,-0.646754098360645,-0.053245901639355,4.759737704918066
6.516437158469945,-0.23216237314599314,0.45175644028101036,6.00351288056202
6.524432786885246,-0.07426885245901588,0.5385967213114762,6.66783606557377
6.532428415300547,-0.042286338797810734,0.5865704918032839,6.627857923497263
6.540424043715848,-0.010303825136609157,0.6345442622950863,6.587879781420762
6.548419672131148,0.021678688524592427,0.6825180327868887,6.54790163934426
6.5564153005464485,0.05366120218579401,0.730491803278691,6.5079234972677575
6.564410928961749,0.0856437158469956,0.7784655737704934,6.467945355191255
6.572406557377049,0.11762622950819718,0.8264393442622958,6.427967213114754
6.58040218579235,0.14960874316939876,0.8744131147540981,6.387989071038252
6.58839781420765,0.18159125683060037,0.9223868852459005,6.34801092896175
6.596393442622952,0.2135737704918055,0.9703606557377082,6.308032786885243
6.604389071038252,0.2455562841530071,1.0183344262295106,6.268054644808742
6.6123846994535525,0.27753879781420865,1.066308196721313,6.22807650273224
6.620380327868853,0.3619672131147177,0.5190163934426412,7.214098360655846
6.628375956284153,0.3664002732240431,0.5839993169398922,8.916799863387979
6.636371584699454,0.31642759562841544,0.7089310109289614,8.941786202185792
6.644367213114754,0.26645491803278776,0.8338627049180307,8.966772540983607
6.652362841530055,0.21648224043716008,0.9587943989070998,8.99175887978142
6.660358469945355,0.20564049467932088,1.0676859361518507,8.915392579810186
6.668354098360656,0.21405694564279598,1.1686833477135519,8.78914581535806
6.676349726775957,0.22247339660627016,1.269680759275242,8.662899050905947
6.684345355191257,0.23088984756974432,1.370678170836932,8.536652286453835
6.692340983606558,0.2393062985332185,1.471675582398622,8.410405522001723
6.700336612021858,0.24772274949669265,1.5726729939603121,8.28415875754961
6.708332240437159,0.2561392004601668,1.673670405522002,8.157911993097498
6.716327868852459,0.264555651423641,1.774667817083692,8.031665228645386
6.7243234972677595,0.27297210238711517,1.8756652286453819,7.905418464193272
6.732319125683061,0.28138855335059026,1.9766626402070833,7.779171699741147
6.740314754098361,0.2898050043140644,2.077660051768773,7.652924935289033
6.748310382513662,0.29822145527753857,2.178657463330463,7.526678170836921
6.756306010928962,-0.23060109289623187,0.29234972677594206,8.861202185792463
6.7643016393442625,-0.5,0.40835868062413616,9.594185265652774
6.772297267759563,-0.5,0.6299242873131841,9.440052669695175
6.780292896174863,-0.5,0.8514898940022317,9.285920073737577
6.788288524590164,-0.5,1.0730555006912796,9.13178747777998
6.796284153005465,-0.5,1.294621107380352,8.977654881822364
6.804279781420766,-0.5,1.5161867140693999,8.823522285864765
6.812275409836066,-0.5,1.7377523207584478,8.669389689907167
6.8202710382513665,-0.5,1.9593179274474957,8.515257093949568
6.828266666666667,-0.5,2.180883534136543,8.36112449799197
6.836262295081967,-0.5,2.402449140825591,8.206991902034371
6.844257923497268,-0.5,2.624014747514639,8.052859306076773
6.852253551912568,-0.8746448087431931,0.9267759562840346,10.122513661202351
6.86024918032787,-0.810819672131149,1.321639344262298,9.535081967213106
6.86824480874317,-0.8227534458853287,1.3455068917706574,9.463479324688027
6.87624043715847,-0.8346872196395084,1.3693744392790168,9.39187668216295
6.884236065573771,-0.8466209933936881,1.3932419867873762,9.320274039637871
6.892231693989071,-0.8585547671478679,1.4171095342957356,9.248671397112792
6.900227322404372,-0.8704885409020476,1.4409770818040952,9.177068754587715
6.908222950819672,-0.8824223146562273,1.4648446293124546,9.105466112062636
6.916218579234973,-0.894356088410407,1.488712176820814,9.033863469537557
6.924214207650274,-0.9842841530054824,1.205005464480812,9.168568306010965
6.932209836065574,-1.0684309133489358,0.8,9.526276346604257
6.940205464480875,-1.2940798369917534,0.6059201630082466,9.801044734648515
6.948201092896175,-1.0636973233305516,0.8363026766694485,9.841700472353432
6.956196721311476,-0.8333148096693497,1.0666851903306502,9.88235621005835
6.964192349726776,-0.6029322960081477,1.2970677039918521,9.923011947763268
6.972187978142077,-0.3725497823469458,1.527450217653054,9.963667685468186
6.980183606557377,-0.1421672686857438,1.7578327313142559,10.004323423173105
6.988179234972678,0.08821524497548361,1.9882152449754833,10.044979160878027
6.996174863387979,0.3185977586366855,2.218597758636685,10.085634898582944
7.004170491803279,-0.5340983606559306,1.5602185792347476,9.877267759562713
7.01216612021858,-1.060692563554283,0.939307436445717,9.516846044191022
7.02016174863388,-0.9998562603943888,1.0001437396056114,9.542918745545261
7.0281573770491805,-0.9390199572344945,1.0609800427655056,9.568991446899503
7.036153005464481,-0.8781836540746002,1.1218163459254,9.595064148253742
7.044148633879781,-0.8173473509147059,1.1826526490852942,9.621136849607984
7.052144262295083,-0.7565110477548048,1.2434889522451953,9.647209550962227
7.060139890710383,-0.6956747445949105,1.3043252554050895,9.673282252316467
7.068135519125684,-0.6348384414350162,1.365161558564984,9.699354953670708
7.076131147540984,-0.5740021382751219,1.4259978617248783,9.725427655024948
7.0841267759562845,-0.5131658351152276,1.4868341648847725,9.75150035637919
7.092122404371585,-0.4523295319553333,1.5476704680446667,9.777573057733429
7.100118032786885,-0.2940983606557163,1.5881967213114327,10.0
7.108113661202186,-0.6,1.0032775381075636,9.7
7.116109289617487,-0.6,1.0116939890710386,9.7
7.124104918032788,-0.6,1.020110440034513,9.7
7.132100546448088,-0.6,1.028526890997987,9.7
7.140096174863388,-0.6,1.036943341961461,9.7
7.148091803278689,-0.6,1.0453597929249354,9.7
7.156087431693989,-0.6,1.0537762438884095,9.7
7.16408306010929,-0.6,1.0621926948518836,9.7
7.17207868852459,-0.6,1.070609145815358,9.7
7.180074316939891,-0.6,1.079025596778832,9.7
7.188069945355192,-0.6,1.0874420477423072,9.7
7.196065573770492,-0.6,1.0958584987057813,9.7
7.204061202185793,-0.5707468123861661,1.0938797814207508,9.664626593806917
7.212056830601093,-0.4,1.1043621834420356,9.5
7.220052459016394,-0.4,1.1129596333509608,9.5
7.228048087431694,-0.4,1.121557083259886,9.5
7.236043715846995,-0.4,1.1301545331688112,9.5
7.244039344262295,-0.4,1.1387519830777364,9.5
7.252034972677596,-0.4,1.1473494329866625,9.5
7.260030601092897,-0.4,1.1559468828955877,9.5
7.268026229508197,-0.4,1.1645443328045129,9.5
7.276021857923498,-0.4,1.173141782713438,9.5
7.284017486338798,-0.4,1.1817392326223632,9.5
7.2920131147540985,-0.4,1.1903366825312884,9.5
7.300008743169399,-0.4,1.1989341324402136,9.5
7.308004371584699,-0.4,1.270043715846994,9.5
7.316,0.4,1.5,9.7
