accel_time_list,vertical_Accel_x,vertical_Accel_y,vertical_Accel_z
0.0,1.011,-8.578,-4.722
0.007996563573883161,0.7325727376861397,-5.8270320733104235,-2.6324633447880874
0.015993127147766323,0.7238605737673269,-8.562132978107263,-4.645472527896829
0.023989690721649484,0.5854032202015522,-8.590435422217073,-4.566315533418279
0.031986254295532646,0.44694586663577757,-8.618737866326885,-4.4871585389397275
0.03998281786941581,0.30848851307000286,-8.647040310436696,-4.408001544461176
0.04797938144329897,0.1700311595042281,-8.675342754546508,-4.328844549982625
0.05597594501718213,0.03157380593845338,-8.703645198656318,-4.249687555504074
0.06397250859106529,-0.10688354762732133,-8.73194764276613,-4.170530561025522
0.07196907216494845,-0.24534090119309615,-8.76025008687594,-4.091373566546971
0.07996563573883161,-0.38379825475887086,-8.788552530985752,-4.01221657206842
0.08796219931271478,-0.5222556083246453,-8.816854975095563,-3.933059577589868
0.09595876288659794,-0.6607129618904201,-8.845157419205375,-3.8539025831113167
0.1039553264604811,1.162785223367696,-7.8330017182130565,-5.075173539518902
0.11195189003436426,0.8417156930126002,-8.787906147384499,-4.480284306987399
0.11994845360824742,0.8446477663230241,-8.799812142038947,-4.477352233676976
0.12794501718213058,0.8475798396334479,-8.811718136693395,-4.474420160366552
0.13594158075601376,0.8505119129438717,-8.823624131347843,-4.471488087056128
0.1439381443298969,0.8534439862542955,-8.835530126002292,-4.4685560137457045
0.15193470790378005,0.8563760595647193,-8.84743612065674,-4.465623940435281
0.15993127147766323,0.8593081328751432,-8.859342115311188,-4.462691867124857
0.1679278350515464,0.862240206185567,-8.871248109965636,-4.459759793814433
0.17592439862542955,0.8651722794959908,-8.883154104620084,-4.456827720504009
0.1839209621993127,0.8681043528064146,-8.895060099274533,-4.453895647193586
0.19191752577319587,0.8710364261168385,-8.90696609392898,-4.450963573883162
0.19991408934707905,0.8739684994272623,-8.918872088583429,-4.448031500572738
0.2079106529209622,1.011,-8.578,-4.722
0.21590721649484534,1.019341678939617,-8.575740795287187,-4.72139175257732
0.22390378006872852,1.0277776141384387,-8.573456062837506,-4.720776632302406
0.2319003436426117,1.0362135493372606,-8.571171330387825,-4.720161512027492
0.23989690721649484,1.0446494845360823,-8.568886597938144,-4.719546391752577
0.247893470790378,1.0530854197349042,-8.566601865488463,-4.718931271477663
0.25589003436426117,1.0615213549337261,-8.564317133038783,-4.71831615120275
0.26388659793814434,1.0699572901325478,-8.562032400589102,-4.717701030927835
0.2718831615120275,1.0783932253313697,-8.559747668139421,-4.717085910652921
0.27987972508591064,1.0868291605301914,-8.55746293568974,-4.716470790378007
0.2878762886597938,1.0952650957290133,-8.55517820324006,-4.7158556701030925
0.295872852233677,1.103701030927835,-8.552893470790378,-4.715240549828178
0.3038694158075601,1.1771720504009164,-8.51929301260023,-4.730990378006872
0.3118659793814433,1.1217292096219933,-8.505432302405499,-4.7805690721649485
0.31986254295532646,1.0572963917525773,-8.36848891343479,-4.833708517427589
0.32785910652920963,0.9673350515463917,-8.38229250531828,-4.840277123220423
0.3358556701030928,0.877373711340206,-8.396096097201768,-4.846845729013255
0.3438522336769759,0.7874123711340208,-8.409899689085258,-4.853414334806088
0.3518487972508591,0.6974510309278352,-8.423703280968745,-4.85998294059892
0.3598453608247423,0.6074896907216496,-8.437506872852234,-4.866551546391753
0.3678419243986254,0.5175283505154644,-8.451310464735723,-4.873120152184585
0.3758384879725086,0.4275670103092788,-8.465114056619212,-4.8796887579774175
0.38383505154639175,0.33760567010309306,-8.478917648502701,-4.886257363770251
0.3918316151202749,0.24764432989690743,-8.492721240386189,-4.892825969563083
0.3998281786941581,0.1576829896907217,-8.506524832269678,-4.899394575355916
0.4078247422680412,0.122,-8.512,-4.902
0.4158213058419244,0.1223982436044292,-8.566667430316915,-4.826943489881634
0.42381786941580757,0.13341573119511269,-8.568622145857198,-4.837427873234058
0.4318144329896907,0.1444332187857961,-8.570576861397479,-4.847912256586483
0.43981099656357386,0.15545070637647956,-8.572531576937761,-4.858396639938908
0.44780756013745704,0.16646819396716306,-8.574486292478044,-4.868881023291332
0.4558041237113402,0.17748568155784655,-8.576441008018326,-4.879365406643757
0.4638006872852234,0.18850316914853002,-8.578395723558609,-4.889849789996181
0.4717972508591065,0.19952065673921343,-8.580350439098892,-4.9003341733486065
0.4797938144329897,0.21053814432989693,-8.582305154639174,-4.910818556701031
0.48779037800687286,0.2215556319205804,-8.584259870179457,-4.921302940053455
0.495786941580756,0.2325731195112638,-8.58621458571974,-4.93178732340588
0.5037835051546392,0.3511855670103097,-8.467644329896908,-5.073278350515466
0.5117800687285223,0.3684328788382665,-8.480321139563241,-5.19662073679932
0.5197766323024055,0.21546635627979255,-8.462780290433434,-5.182261316188153
0.5277731958762887,0.06249983372131651,-8.445239441303626,-5.167901895576987
0.5357697594501718,-0.09046668883715736,-8.427698592173817,-5.15354247496582
0.543766323024055,-0.24343321139563334,-8.410157743044008,-5.139183054354654
0.5517628865979382,-0.3963997339541073,-8.3926168939142,-5.124823633743487
0.5597594501718213,-0.5493662565125811,-8.375076044784391,-5.110464213132321
0.5677560137457045,-0.7023327790710573,-8.357535195654583,-5.096104792521154
0.5757525773195876,-0.855299301629531,-8.339994346524776,-5.081745371909988
0.5837491408934707,-1.0082658241880051,-8.322453497394967,-5.067385951298822
0.591745704467354,-1.161232346746481,-8.304912648265159,-5.053026530687655
0.5997422680412371,-1.2257731958762885,-8.225907216494846,-5.000659793814433
0.6077388316151202,-1.3,-8.39471965997468,-5.050812262615301
0.6157353951890034,-1.3,-8.303390486525592,-5.175811177428107
0.6237319587628866,-1.3,-8.212061313076505,-5.300810092240911
0.6317285223367698,-1.3,-8.12073213962742,-5.425809007053718
0.6397250859106529,-1.3,-8.029402966178333,-5.5508079218665225
0.647721649484536,-1.3,-7.938073792729246,-5.675806836679327
0.6557182130584193,-1.3,-7.846744619280159,-5.800805751492133
0.6637147766323024,-1.3,-7.755415445831073,-5.925804666304938
0.6717113402061856,-1.3,-7.664086272381985,-6.050803581117744
0.6797079037800687,-1.3,-7.5727570989328985,-6.175802495930549
0.6877044673539519,-1.3,-7.481427925483812,-6.300801410743354
0.6957010309278351,-1.3,-7.390098752034725,-6.42580032555616
0.7036975945017182,-0.9775200458190146,-7.54404467353952,-6.450931271477662
0.7116941580756013,-0.9108820160366554,-7.7279656357388316,-6.346975945017182
0.7196907216494846,-1.3063402061855671,-7.779962371134021,-6.874415463917525
0.7276872852233677,-1.3363273195876288,-7.746676675257732,-6.777057302405498
0.7356838487972508,-1.3663144329896906,-7.713390979381443,-6.679699140893471
0.743680412371134,-1.3963015463917527,-7.680105283505155,-6.582340979381443
0.7516769759450171,-1.4262886597938143,-7.646819587628866,-6.484982817869416
0.7596735395189004,-1.4562757731958764,-7.613533891752577,-6.387624656357388
0.7676701030927835,-1.4862628865979381,-7.580248195876289,-6.290266494845361
0.7756666666666666,-1.5162499999999999,-7.5469625,-6.192908333333334
0.7836632302405498,-1.5462371134020618,-7.513676804123711,-6.095550171821306
0.791659793814433,-1.5762242268041236,-7.480391108247423,-5.998192010309279
0.7996563573883162,-1.434364261168385,-7.227079037800687,-6.073053608247423
0.8076529209621993,-1.8347079037800735,-6.935888316151196,-6.442603092783505
0.8156494845360824,-1.6237180586123037,-6.935063477354339,-6.45882288891463
0.8236460481099657,-1.439437700297309,-6.882861191551798,-6.478499826248118
0.8316426116838488,-1.2551573419823172,-6.8306589057492575,-6.498176763581606
0.8396391752577319,-1.070876983667325,-6.778456619946716,-6.517853700915094
0.8476357388316151,-0.8865966253523305,-6.726254334144175,-6.537530638248581
0.8556323024054983,-0.7023162670373386,-6.674052048341635,-6.557207575582069
0.8636288659793814,-0.5180359087223465,-6.621849762539095,-6.576884512915556
0.8716254295532646,-0.33375555040735216,-6.569647476736554,-6.596561450249045
0.8796219931271477,-0.14947519209236004,-6.517445190934013,-6.616238387582532
0.887618556701031,0.03480516622263452,-6.465242905131472,-6.63591532491602
0.8956151202749141,0.21908552453762664,-6.413040619328932,-6.655592262249508
0.9036116838487972,0.4478662248404522,-6.835190967108493,-7.0280991654393725
0.9116082474226804,0.392624658110667,-6.8262152324847465,-7.003783084367768
0.9196048109965635,0.33738309138088257,-6.817239497861,-6.979467003296164
0.9276013745704468,0.2821415246510974,-6.808263763237253,-6.95515092222456
0.9355979381443299,0.22689995792131296,-6.799288028613507,-6.930834841152956
0.943594501718213,0.17165839119152854,-6.790312293989761,-6.906518760081353
0.9515910652920962,0.11641682446174334,-6.781336559366014,-6.882202679009748
0.9595876288659794,0.06117525773195892,-6.772360824742268,-6.857886597938145
0.9675841924398625,0.0059336910021745015,-6.763385090118522,-6.833570516866541
0.9755807560137457,-0.049307875727610695,-6.754409355494776,-6.809254435794937
0.9835773195876288,-0.10454944245739511,-6.7454336208710295,-6.784938354723333
0.991573883161512,-0.15979100918717953,-6.736457886247282,-6.760622273651729
0.9995704467353952,-0.21503257591696473,-6.727482151623536,-6.736306192580125
1.0075670103092784,0.2526108247422646,-6.068324742268041,-7.0010850515463865
1.0155635738831614,-0.21413917525775022,-5.793929553264608,-7.529295532646027
1.0235601374570447,-0.13509886970562662,-5.77071312052333,-7.605418457334492
1.031556701030928,-0.13943435598062356,-5.76300558936778,-7.58576425288784
1.039553264604811,-0.14376984225562037,-5.75529805821223,-7.566110048441187
1.0475498281786941,-0.1481053285306173,-5.74759052705668,-7.546455843994535
1.0555463917525774,-0.15244081480561422,-5.73988299590113,-7.526801639547882
1.0635429553264604,-0.15677630108061105,-5.7321754647455805,-7.5071474351012295
1.0715395189003436,-0.161111787355608,-5.724467933590031,-7.487493230654577
1.0795360824742268,-0.1654472736306049,-5.71676040243448,-7.467839026207924
1.08753264604811,-0.16978275990560185,-5.709052871278931,-7.448184821761272
1.095529209621993,-0.17411824618059865,-5.701345340123381,-7.428530617314619
1.1035257731958763,-0.05116408934707811,-5.442293814432988,-7.788096219931274
1.1115223367697595,0.18816838487973114,-5.047945017182135,-8.275601374570424
1.1195189003436425,0.5012688048873598,-5.654449408171055,-7.507309660175654
1.1275154639175258,0.5422396246365325,-5.762802802008988,-6.972180412371135
1.135512027491409,0.49046700149792943,-5.766903603841748,-6.93619587628866
1.143508591065292,0.4386943783593278,-5.771004405674509,-6.900211340206186
1.1515051546391752,0.3869217552207247,-5.775105207507269,-6.864226804123712
1.1595017182130585,0.33514913208212166,-5.77920600934003,-6.828242268041237
1.1674982817869415,0.28337650894352,-5.783306811172791,-6.792257731958763
1.1754948453608247,0.23160388580491698,-5.787407613005551,-6.756273195876289
1.183491408934708,0.17983126266631394,-5.791508414838312,-6.720288659793814
1.191487972508591,0.1280586395277123,-5.795609216671073,-6.684304123711341
1.1994845360824742,0.07628601638910926,-5.799710018503833,-6.648319587628865
1.2074810996563574,0.5913470790377979,-7.453319587628918,-7.190793814432937
1.2154776632302404,0.8193902798232654,-5.741637211585665,-8.84695139911635
1.2234742268041237,0.9865272459499237,-5.743658321060383,-8.787636229749632
1.2314707903780069,1.153664212076582,-5.745679430535101,-8.728321060382916
1.2394673539518901,1.3208011782032405,-5.747700540009818,-8.6690058910162
1.2474639175257731,1.487938144329894,-5.7497216494845365,-8.609690721649486
1.2554604810996564,1.6550751104565524,-5.751742758959254,-8.55037555228277
1.2634570446735396,1.8222120765832108,-5.753763868433971,-8.491060382916054
1.2714536082474226,1.9893490427098643,-5.755784977908689,-8.43174521354934
1.2794501718213058,2.1564860088365227,-5.757806087383407,-8.372430044182622
1.287446735395189,2.323622974963181,-5.759827196858125,-8.313114874815906
1.295443298969072,2.4907599410898347,-5.761848306332842,-8.253799705449191
1.3034398625429553,1.9709140893470707,-4.756563573883165,-6.990178694158066
1.3114364261168385,1.6822685215977535,-3.947711524960278,-7.474580053948195
1.3194329896907215,1.6194138122159418,-4.084083028489078,-7.448956656689946
1.3274295532646048,1.5565591028341286,-4.220454532017882,-7.423333259431697
1.335426116838488,1.493704393452315,-4.356826035546687,-7.397709862173447
1.3434226804123712,1.4308496840705018,-4.493197539075491,-7.372086464915197
1.3514192439862542,1.3679949746886901,-4.629569042604292,-7.3464630676569485
1.3594158075601375,1.3051402653068767,-4.765940546133097,-7.3208396703986995
1.3674123711340207,1.2422855559250634,-4.902312049661901,-7.29521627314045
1.3754089347079037,1.1794308465432517,-5.038683553190701,-7.269592875882201
1.383405498281787,1.1165761371614384,-5.175055056719506,-7.243969478623952
1.3914020618556702,1.053721427779625,-5.31142656024831,-7.218346081365702
1.3993986254295532,0.9637044673539568,-5.335364261168402,-7.402879725085877
1.4073951890034364,-0.2326933538056603,-3.81774669152592,-7.9928893032097665
1.4153917525773196,-0.02801535424435142,-3.6800186444395697,-8.282977407326168
1.4233883161512026,0.1766626453169518,-3.5422905973532233,-8.573065511442563
1.4313848797250859,0.38134064487826075,-3.404562550266873,-8.863153615558964
1.439381443298969,0.5860186444395696,-3.2668345031805224,-9.153241719675368
1.4473780068728521,0.7906966440008727,-3.129106456094176,-9.44332982379176
1.4553745704467353,0.9953746435621817,-2.9913784090078255,-9.733417927908164
1.4633711340206186,1.2000526431234906,-2.853650361921475,-10.023506032024565
1.4713676975945016,1.4047306426847939,-2.7159223148351286,-10.31359413614096
1.4793642611683848,1.6094086422461027,-2.578194267748778,-10.603682240257362
1.487360824742268,1.8140866418074117,-2.4404662206624277,-10.893770344373763
1.4953573883161513,2.0187646413687204,-2.3027381735760772,-11.183858448490167
1.5033539518900343,4.380412371134124,-2.2127147766322297,-13.517525773195976
1.5113505154639175,1.179824409710675,-2.703072830063186,-9.829722647156636
1.5193470790378008,1.1915183091305472,-2.4984295902154217,-9.730668440305953
1.5273436426116838,1.2032122085504193,-2.2937863503676628,-9.631614233455272
1.535340206185567,1.2149061079702914,-2.089143110519898,-9.53256002660459
1.5433367697594502,1.2266000073901637,-1.8844998706721339,-9.433505819753908
1.5513333333333332,1.2382939068100356,-1.6798566308243752,-9.334451612903226
1.5593298969072165,1.249987806229908,-1.4752133909766108,-9.235397406052545
1.5673264604810997,1.2616817056497802,-1.2705701511288463,-9.136343199201862
1.5753230240549827,1.273375605069652,-1.0659269112810874,-9.037288992351181
1.583319587628866,1.2850695044895244,-0.861283671433323,-8.9382347855005
1.5913161512027492,1.2967634039093967,-0.6566404315855587,-8.839180578649817
1.5993127147766324,1.2423298969071925,-0.47563573883162086,-8.656439862542923
1.6073092783505154,0.4687319587628827,-1.2160180412371135,-9.068521907216477
1.6153058419243986,0.5583336493265393,-1.7982298455583203,-10.19570344037603
1.6233024054982819,0.5760731524272228,-1.8060425800845281,-10.224013113718055
1.6312989690721649,0.5938126555279059,-1.8138553146107357,-10.252322787060077
1.639295532646048,0.6115521586285892,-1.8216680491369435,-10.280632460402101
1.6472920962199313,0.6292916617292728,-1.829480783663151,-10.308942133744125
1.6552886597938143,0.6470311648299558,-1.8372935181893586,-10.337251807086147
1.6632852233676976,0.6647706679306393,-1.8451062527155664,-10.365561480428171
1.6712817869415808,0.6825101710313228,-1.8529189872417742,-10.393871153770194
1.6792783505154638,0.7002496741320058,-1.8607317217679817,-10.422180827112218
1.687274914089347,0.7179891772326893,-1.8685444562941895,-10.45049050045424
1.6952714776632303,0.7357286803333727,-1.8763571908203973,-10.478800173796264
1.7032680412371133,1.7068689248895426,-0.7018851251840956,-9.851917525773203
1.7112646048109965,1.7700356138706654,-0.7791090284286161,-9.351238363011559
1.7192611683848797,1.8082010309278354,-0.773475085910653,-9.346422250859106
1.7272577319587628,1.8463664479850042,-0.7678411433926898,-9.341606138706654
1.735254295532646,1.884531865042174,-0.7622072008747267,-9.336790026554201
1.7432508591065292,1.922697282099344,-0.7565732583567635,-9.331973914401749
1.7512474226804124,1.9608626991565141,-0.7509393158388004,-9.327157802249298
1.7592439862542955,1.999028116213683,-0.7453053733208372,-9.322341690096845
1.7672405498281787,2.0371935332708526,-0.7396714308028741,-9.317525577944393
1.775237113402062,2.075358950328023,-0.7340374882849109,-9.31270946579194
1.783233676975945,2.1135243673851916,-0.7284035457669479,-9.307893353639487
1.7912302405498282,2.1516897844423615,-0.7227696032489848,-9.303077241487035
1.7992268041237114,2.1903384879725087,-0.6838539518900343,-9.328852233676976
1.8072233676975944,2.042509562229195,-0.42409711639025843,-9.678211228148813
1.8152199312714776,2.024951890034364,-0.427573883161512,-9.685773195876289
1.8232164948453609,2.0073942178395336,-0.4310506499327656,-9.693335163603766
1.8312130584192439,1.9898365456447038,-0.43452741670401906,-9.700897131331242
1.839209621993127,1.972278873449873,-0.43800418347527265,-9.708459099058718
1.8472061855670103,1.9547212012550426,-0.4414809502465262,-9.716021066786196
1.8552027491408936,1.937163529060212,-0.4449577170177798,-9.723583034513672
1.8631993127147766,1.919605856865382,-0.4484344837890333,-9.731145002241147
1.8711958762886598,1.9020481846705513,-0.45191125056028686,-9.738706969968625
1.879192439862543,1.8844905124757207,-0.45538801733154044,-9.746268937696101
1.887189003436426,1.8669328402808907,-0.45886478410279397,-9.753830905423577
1.8951855670103093,1.8493751680860602,-0.4623415508740475,-9.761392873151054
1.9031821305841925,1.7185459008345607,-0.6260103092783537,-9.751632793323514
1.9111786941580755,1.799148911798396,-0.7700337533409698,-9.643872928598702
1.9191752577319587,1.8058127147766323,-0.77154421534937,-9.638186483390607
1.927171821305842,1.8124765177548683,-0.7730546773577701,-9.632500038182512
1.935168384879725,1.819140320733104,-0.7745651393661703,-9.626813592974418
1.9431649484536082,1.8258041237113403,-0.7760756013745704,-9.621127147766323
1.9511615120274914,1.8324679266895763,-0.7775860633829706,-9.615440702558228
1.9591580756013744,1.839131729667812,-0.7790965253913708,-9.609754257350135
1.9671546391752577,1.8457955326460482,-0.780606987399771,-9.60406781214204
1.975151202749141,1.8524593356242842,-0.7821174494081711,-9.598381366933944
1.983147766323024,1.85912313860252,-0.7836279114165712,-9.59269492172585
1.9911443298969072,1.8657869415807562,-0.7851383734249714,-9.587008476517754
1.9991408934707904,1.8724507445589922,-0.7866488354333716,-9.58132203130966
2.0071374570446734,2.045852233676989,-0.6653092783504966,-9.591364261168394
2.015134020618557,2.001,-0.73,-9.556
2.02313058419244,2.001,-0.73,-9.556
2.031127147766323,2.001,-0.73,-9.556
2.0391237113402063,2.001,-0.73,-9.556
2.0471202749140893,2.001,-0.73,-9.556
2.0551168384879723,2.001,-0.73,-9.556
2.063113402061856,2.001,-0.73,-9.556
2.071109965635739,2.001,-0.73,-9.556
2.079106529209622,2.001,-0.73,-9.556
2.0871030927835053,2.001,-0.73,-9.556
2.0950996563573883,2.001,-0.73,-9.556
2.1030962199312713,1.7082325315005855,-0.8507817869415726,-9.646833906071018
2.1110927835051547,1.504,-0.98,-9.672
2.1190893470790377,1.504,-0.98,-9.672
2.1270859106529207,1.504,-0.98,-9.672
2.135082474226804,1.504,-0.98,-9.672
2.143079037800687,1.504,-0.98,-9.672
2.15107560137457,1.504,-0.98,-9.672
2.1590721649484537,1.504,-0.98,-9.672
2.1670687285223367,1.504,-0.98,-9.672
2.17506529209622,1.504,-0.98,-9.672
2.183061855670103,1.504,-0.98,-9.672
2.191058419243986,1.504,-0.98,-9.672
2.1990549828178696,1.504,-0.98,-9.672
2.2070515463917526,1.511292783505155,-0.963793814432989,-9.681723711340208
2.2150481099656356,1.5256865979381444,-0.931807560137457,-9.700915463917527
2.223044673539519,1.54,-0.9,-9.72
2.231041237113402,1.54,-0.9,-9.72
2.239037800687285,1.54,-0.9,-9.72
2.2470343642611685,1.54,-0.9,-9.72
2.2550309278350515,1.54,-0.9,-9.72
2.2630274914089346,1.54,-0.9,-9.72
2.271024054982818,1.54,-0.9,-9.72
2.279020618556701,1.54,-0.9,-9.72
2.287017182130584,1.54,-0.9,-9.72
2.2950137457044675,1.54,-0.9,-9.72
2.3030103092783505,1.4921237113402066,-0.8414432989690772,-9.65616494845361
2.3110068728522335,1.5035880974695408,-0.9809153389565758,-9.671450796626056
2.319003436426117,1.5003167760074976,-0.9881849422055607,-9.667089034676664
2.327,1.4970454545454546,-0.9954545454545454,-9.662727272727274
2.334996563573883,1.4937741330834116,-1.0027241487035299,-9.658365510777882
2.3429931271477664,1.4905028116213683,-1.0099937519525148,-9.654003748828492
2.3509896907216494,1.4872314901593253,-1.0172633552014994,-9.6496419868791
2.3589862542955324,1.4839601686972823,-1.0245329584504839,-9.64528022492971
2.366982817869416,1.480688847235239,-1.0318025616994688,-9.64091846298032
2.374979381443299,1.4774175257731958,-1.0390721649484536,-9.636556701030928
2.382975945017182,1.4741462043111528,-1.046341768197438,-9.632194939081538
2.3909725085910654,1.4708748828491096,-1.053611371446423,-9.627833177132146
2.3989690721649484,1.4854432989690702,-1.0212371134020664,-9.64725773195876
2.4069656357388314,1.4917525773195857,-0.8405498281786984,-9.655670103092781
2.414962199312715,1.5363276311317549,-0.8954095389146934,-9.715103508175673
2.422958762886598,1.532109663532344,-0.89013707941543,-9.70947955137646
2.430955326460481,1.5278916959329332,-0.8848646199161665,-9.703855594577245
2.4389518900343643,1.5236737283335222,-0.8795921604169027,-9.69823163777803
2.4469484536082473,1.5194557607341113,-0.8743197009176391,-9.692607680978815
2.4549450171821308,1.5152377931347003,-0.8690472414183753,-9.686983724179601
2.4629415807560138,1.5110198255352896,-0.8637747819191118,-9.681359767380387
2.470938144329897,1.5068018579358786,-0.8585023224198483,-9.675735810581171
2.4789347079037802,1.5025838903364677,-0.8532298629205844,-9.670111853781957
2.4869312714776632,1.4983659227370567,-0.847957403421321,-9.664487896982743
2.4949278350515462,1.494147955137646,-0.8426849439220575,-9.65886394018353
2.5029243986254297,1.504,-0.98,-9.672
2.5109209621993127,1.5082790975646199,-0.98,-9.668790676826536
2.5189175257731957,1.515232631107127,-0.98,-9.663575526669655
2.526914089347079,1.5221861646496342,-0.98,-9.658360376512775
2.534910652920962,1.5291396981921412,-0.98,-9.653145226355894
2.542907216494845,1.5360932317346483,-0.98,-9.647930076199014
2.5509037800687286,1.5430467652771556,-0.98,-9.642714926042133
2.5589003436426117,1.5500002988196624,-0.98,-9.637499775885253
2.5668969072164947,1.5569538323621694,-0.98,-9.632284625728373
2.574893470790378,1.5639073659046767,-0.98,-9.627069475571492
2.582890034364261,1.5708608994471838,-0.98,-9.621854325414612
2.590886597938144,1.5778144329896908,-0.98,-9.616639175257733
2.5988831615120276,1.4815532646048188,-1.050652920962194,-9.62259793814433
2.6068797250859106,1.504,-0.98,-9.672
2.6148762886597936,1.584,-0.98,-9.612
2.622872852233677,1.584,-0.98,-9.612
2.63086941580756,1.584,-0.98,-9.612
2.638865979381443,1.584,-0.98,-9.612
2.6468625429553265,1.584,-0.98,-9.612
2.6548591065292095,1.584,-0.98,-9.612
2.6628556701030925,1.584,-0.98,-9.612
2.670852233676976,1.584,-0.98,-9.612
2.678848797250859,1.584,-0.98,-9.612
2.6868453608247425,1.584,-0.98,-9.612
2.6948419243986255,1.584,-0.98,-9.612
2.7028384879725085,1.458118285404232,-0.92264785675529,-9.610824380538977
2.710835051546392,1.4783201302224638,-0.9479001627780798,-9.637760173629951
2.718831615120275,1.4985219750406944,-0.973152468800868,-9.664695966720926
2.726828178694158,1.504901567575201,-0.977996516499553,-9.673202090100268
2.7348247422680414,1.5088450783787601,-0.9692331591583109,-9.678460104505014
2.7428213058419244,1.512788589182319,-0.9604698018170692,-9.68371811890976
2.7508178694158074,1.5167320999858775,-0.9517064444758275,-9.688976133314505
2.758814432989691,1.5206756107894366,-0.9429430871345854,-9.69423414771925
2.766810996563574,1.5246191215929954,-0.9341797297933437,-9.699492162123994
2.774807560137457,1.528562632396554,-0.9254163724521021,-9.704750176528739
2.7828041237113403,1.532506143200113,-0.91665301511086,-9.710008190933484
2.7908006872852233,1.5364496540036718,-0.9078896577696183,-9.71526620533823
2.7987972508591064,1.5256494845360848,-0.931890034364256,-9.700865979381447
2.80679381443299,1.5182886597938172,-0.9482474226804062,-9.691051546391757
2.814790378006873,1.5061942485078677,-0.9751238922047388,-9.674925664677158
2.822786941580756,1.5092245252306022,-0.9683899439319952,-9.678966033640803
2.8307835051546393,1.512254801953337,-0.9616559956592512,-9.68300640260445
2.8387800687285223,1.5152850786760717,-0.9549220473865077,-9.687046771568095
2.8467766323024053,1.5183153553988062,-0.948188099113764,-9.691087140531742
2.8547731958762887,1.521345632121541,-0.94145415084102,-9.69512750949539
2.8627697594501718,1.5243759088442757,-0.9347202025682765,-9.699167878459034
2.8707663230240548,1.5274061855670102,-0.9279862542955328,-9.703208247422682
2.878762886597938,1.530436462289745,-0.9212523060227888,-9.707248616386327
2.8867594501718212,1.5334667390124797,-0.9145183577500453,-9.711288985349974
2.8947560137457042,1.5364970157352142,-0.9077844094773017,-9.715329354313619
2.9027525773195877,1.539527292457949,-0.9010504612045577,-9.719369723277266
2.9107491408934707,2.417832474226801,-1.9752892845985581,-11.055203061543265
2.9187457044673537,2.522787371134015,-2.1384918775382613,-11.17478803498906
2.926742268041237,2.6277422680412355,-2.3016944704779734,-11.294373008434862
2.93473883161512,2.73269716494845,-2.464897063417676,-11.413957981880658
2.942735395189003,2.8376520618556644,-2.6280996563573793,-11.533542955326455
2.9507319587628866,2.9426069587628847,-2.7913022492970914,-11.653127928772257
2.9587285223367696,3.047561855670099,-2.9545048422367945,-11.772712902218052
2.966725085910653,3.1525167525773194,-3.1177074351765066,-11.892297875663855
2.974721649484536,3.257471649484534,-3.28091002811621,-12.01188284910965
2.982718213058419,3.362426546391748,-3.444112621055913,-12.131467822555447
2.9907147766323026,3.4673814432989687,-3.607315213995625,-12.251052796001249
2.9987113402061856,3.8708917525772373,-3.8520309278350258,-12.83790206185554
3.0067079037800686,7.133040091637975,-4.692594501718205,-17.807233676975862
3.014704467353952,10.006471935853426,-5.0664338487972564,-21.989436426116907
3.022701030927835,5.846159057437415,4.997399116347574,-13.051699558173782
3.030697594501718,6.566161333511843,5.40356223501584,-12.796432632659439
3.0386941580756015,7.2861636095863105,5.809725353684128,-12.541165707145081
3.0466907216494845,8.006165885660739,6.215888472352393,-12.285898781630738
3.0546872852233675,8.726168161735165,6.622051591020659,-12.030631856116393
3.062683848797251,9.446170437809634,7.028214709688948,-11.775364930602036
3.070680412371134,10.16617271388406,7.4343778283572135,-11.520098005087693
3.078676975945017,10.886174989958489,7.840540947025479,-11.26483107957335
3.0866735395189004,11.606177266032956,8.246704065693766,-11.009564154058992
3.0946701030927835,12.326179542107385,8.652867184362034,-10.754297228544647
3.1026666666666665,11.948208333333431,-0.08974999999991573,-8.727625000000106
3.11066323024055,8.272473172446103,-2.999818338019371,-2.9541229693845676
3.118659793814433,7.96469634489222,-3.0699700093720717,-2.9676626054358013
3.126656357388316,7.656919517338336,-3.1401216807247727,-2.981202241487035
3.1346529209621994,7.349142689784435,-3.2102733520774773,-2.9947418775382695
3.1426494845360824,7.041365862230553,-3.2804250234301784,-3.008281513589503
3.1506460481099654,6.733589034676669,-3.3505766947828794,-3.021821149640737
3.158642611683849,6.425812207122769,-3.420728366135584,-3.0353607856919713
3.166639175257732,6.1180353795688855,-3.4908800374882847,-3.048900421743205
3.174635738831615,5.810258552015002,-3.5610317088409857,-3.0624400577944386
3.1826323024054983,5.502481724461102,-3.6311833801936904,-3.075979693845673
3.1906288659793813,5.1947048969072185,-3.7013350515463914,-3.089519329896907
3.198625429553265,4.989491408934727,-2.9457491408932626,-2.9675326460480758
3.206621993127148,2.5049473081328752,-1.751239958615084,-1.8070453386542507
3.214618556701031,2.534268041237113,-1.6242407715330924,-1.9009404722314578
3.2226151202749143,2.563588774341352,-1.497241584451094,-1.9948356058086698
3.2306116838487973,2.5929095074455897,-1.3702423973691025,-2.088730739385877
3.2386082474226803,2.6222302405498277,-1.243243210287111,-2.182625872963084
3.2466048109965637,2.651550973654067,-1.1162440232051125,-2.276521006540296
3.2546013745704467,2.6808717067583046,-0.989244836123121,-2.370416140117503
3.2625979381443297,2.710192439862542,-0.8622456490411295,-2.46431127369471
3.270594501718213,2.7395131729667814,-0.735246461959131,-2.558206407271922
3.278591065292096,2.768833906071019,-0.6082472748771395,-2.652101540849129
3.286587628865979,2.798154639175257,-0.48124808779514816,-2.745996674426336
3.2945841924398627,2.8274753722794963,-0.3542489007131495,-2.8398918080035482
3.3025807560137457,3.289072164948456,0.6632302405498278,-2.157525773195878
3.3105773195876287,2.326081517695826,-0.010670528217664926,-1.3049012647465217
3.318573883161512,2.258811457115528,0.012742090905870144,-1.2488428809296068
3.326570446735395,2.191541396535234,0.036154710029403916,-1.192784497112695
3.334567010309278,2.1242713359549397,0.05956732915293768,-1.136726113295783
3.3425635738831616,2.057001275374642,0.08297994827647275,-1.0806677294788682
3.3505601374570446,1.9897312147943476,0.10639256740000652,-1.0246093456619563
3.3585567010309276,1.9224611542140533,0.12980518652354028,-0.9685509618450445
3.366553264604811,1.8551910936337555,0.15321780564707535,-0.9124925780281296
3.374549828178694,1.7879210330534612,0.1766304247706091,-0.8564341942112177
3.382546391752577,1.720650972473167,0.20004304389414287,-0.8003758103943058
3.3905429553264606,1.653380911892869,0.22345566301767797,-0.744317426577391
3.3985395189003436,1.5861108513125748,0.24686828214121173,-0.6882590427604791
3.4065360824742266,1.456298969072171,0.24702061855670165,-0.5850721649484584
3.41453264604811,1.2787752577319544,0.22942817869415766,-0.4459319587628834
3.422529209621993,-0.2727869415805254,3.2708556701028715,0.172711340205995
3.430525773195876,-2.3189310392867,5.098101142379488,1.9468826971301096
3.4385223367697595,-2.6644041980124475,5.263651620692859,2.333959598774034
3.4465189003436425,-3.009877356738176,5.42920209900622,2.721036500417937
3.4545154639175255,-3.355350515463904,5.594752577319581,3.10811340206184
3.462512027491409,-3.7008236741896514,5.760303055632951,3.4951903037057646
3.470508591065292,-4.046296832915379,5.925853533946313,3.8822672053496676
3.4785051546391754,-4.391769991641127,6.091404012259683,4.269344106993592
3.4865017182130584,-4.737243150366854,6.256954490573044,4.656421008637495
3.4944982817869414,-5.082716309092583,6.422504968886405,5.043497910281398
3.502494845360825,-13.67589175257768,3.4061443298969043,-3.279231958763651
3.510491408934708,-11.544488545246343,3.2528626861397503,-8.725320446735374
3.518487972508591,-7.192025630011608,3.104343177262319,-10.143211125429502
3.5264845360824744,-2.8395627147766316,2.9558236683848795,-11.561101804123712
3.5344810996563574,1.5129002004581054,2.8073041595074484,-12.97899248281784
3.5424776632302404,5.8653631156928405,2.6587846506300172,-14.39688316151197
3.550474226804124,10.217826030927817,2.510265141752578,-15.814773840206179
3.558470790378007,14.570288946162552,2.361745632875147,-17.232664518900307
3.56646735395189,18.922751861397288,2.213226123997716,-18.65055519759444
3.5744639175257733,23.275214776632268,2.064706615120276,-20.06844587628865
3.5824604810996563,27.627677691867,1.9161871062428448,-21.486336554982778
3.5904570446735393,31.98014060710174,1.7676675973654137,-22.904227233676906
3.5984536082474228,36.33260352233671,1.6191480884879743,-24.322117912371112
3.606450171821306,-1.8875051546392303,1.6710096219931025,-9.291294845360826
3.614446735395189,17.396406171396183,10.154770432564574,-8.427884684876185
3.6224432989690722,16.970939525985745,9.449424062068214,-8.18131023488149
3.6304398625429553,16.545472880575332,8.744077691571896,-7.934735784886808
3.6384364261168383,16.12000623516492,8.038731321075575,-7.688161334892127
3.6464329896907217,15.694539589754479,7.333384950579216,-7.441586884897432
3.6544295532646047,15.269072944344064,6.628038580082896,-7.19501243490275
3.6624261168384877,14.84360629893365,5.922692209586575,-6.94843798490807
3.670422680412371,14.418139653523212,5.217345839090216,-6.701863534913374
3.678419243986254,13.992673008112797,4.5119994685938964,-6.455289084918693
3.686415807560137,13.567206362702382,3.806653098097576,-6.2087146349240125
3.6944123711340207,13.141739717291944,3.1013067276012167,-5.962140184929317
3.7024089347079037,12.716273071881531,2.3959603571048973,-5.715565734934636
3.710405498281787,3.377237113402045,-3.2619037800689856,-2.2567594501716792
3.71840206185567,6.865384879725086,-0.10927319587628836,-4.303158075601375
3.726398625429553,6.880616429389625,-0.06072263132057014,-4.325243822614957
3.7343951890034366,6.895847979054166,-0.012172066764849221,-4.347329569628539
3.7423917525773196,6.911079528718704,0.03637849779086902,-4.369415316642121
3.7503883161512026,6.926311078383243,0.08492906234658723,-4.391501063655703
3.758384879725086,6.941542628047784,0.13347962690230813,-4.413586810669285
3.766381443298969,6.956774177712322,0.18203019145802635,-4.435672557682867
3.774378006872852,6.972005727376861,0.23058075601374461,-4.457758304696449
3.7823745704467355,6.987237277041401,0.2791313205694655,-4.479844051710031
3.7903711340206185,7.0024688267059405,0.32768188512518376,-4.501929798723613
3.7983676975945015,6.990648339060726,0.3369238258877651,-4.5342760595647125
3.806364261168385,6.417561282932412,-0.4693963344788157,-4.779504009163805
3.814360824742268,7.753737113402052,-1.9957061855670148,-5.877618556701022
3.822357388316151,8.050211321324724,-1.8019832710245083,-6.2053261961406285
3.8303539518900345,8.030351723877496,-1.7428438503077661,-6.271144065556438
3.8383505154639175,8.010492126430272,-1.683704429591027,-6.336961934972244
3.8463470790378005,7.9906325289830455,-1.624565008874288,-6.402779804388051
3.854343642611684,7.9707729315358185,-1.5654255881575456,-6.468597673803861
3.862340206185567,7.950913334088592,-1.5062861674408066,-6.534415543219667
3.87033676975945,7.931053736641366,-1.4471467467240675,-6.600233412635473
3.8783333333333334,7.911194139194139,-1.3880073260073251,-6.666051282051283
3.8863298969072164,7.891334541746913,-1.328867905290586,-6.731869151467089
3.8943264604810994,7.871474944299687,-1.269728484573847,-6.797687020882895
3.902323024054983,7.85161534685246,-1.2105890638571046,-6.863504890298705
3.910319587628866,7.189587628866031,-2.1194742268040065,-6.928680412371096
3.918316151202749,7.82819807063305,-2.7669241916118117,-7.5972912681654465
3.9263127147766324,7.7490995321492155,-2.6751082267213184,-7.573879642280462
3.9343092783505154,7.670000993665385,-2.5832922618308305,-7.550468016395479
3.9423058419243984,7.5909024551815545,-2.491476296940343,-7.527056390510497
3.950302405498282,7.511803916697719,-2.3996603320498497,-7.503644764625513
3.958298969072165,7.432705378213889,-2.3078443671593623,-7.48023313874053
3.966295532646048,7.353606839730058,-2.2160284022688743,-7.456821512855547
3.9742920962199313,7.2745083012462235,-2.1242124373783815,-7.433409886970563
3.9822886597938143,7.1954097627623925,-2.0323964724878936,-7.409998261085581
3.9902852233676978,7.116311224278558,-1.9405805075974005,-7.386586635200596
3.9982817869415808,7.021214203894629,-1.8491821305841945,-7.34427491408936
4.006278350515464,6.662783505154641,-1.6051752577319418,-7.003237113402067
4.014274914089347,6.777051546391756,-1.2308869068303778,-8.546747017259351
4.02227147766323,6.633113402061863,-1.2991721688096032,-8.589065909880688
4.030268041237114,6.4891752577319535,-1.367457430788836,-8.631384802502028
4.038264604810997,6.34523711340206,-1.4357426927680614,-8.673703695123363
4.04626116838488,6.201298969072166,-1.5040279547472868,-8.7160225877447
4.054257731958763,6.057360824742273,-1.5723132167265121,-8.758341480366035
4.062254295532646,5.9134226804123795,-1.6405984787057375,-8.800660372987371
4.070250859106529,5.769484536082486,-1.708883740684963,-8.842979265608706
4.078247422680413,5.625546391752577,-1.777169002664196,-8.885298158230047
4.086243986254296,5.481608247422683,-1.8454542646434213,-8.927617050851383
4.094240549828179,5.3376701030927896,-1.9137395266226467,-8.969935943472718
4.102237113402062,5.475422680411798,-2.007030927834996,-9.200809278350123
4.110233676975945,5.153623228696103,-2.63700810842117,-7.3863801691185
4.118230240549829,4.840050117765151,-2.747252866906063,-7.369398702652612
4.126226804123712,4.526477006834234,-2.857497625390944,-7.352417236186725
4.134223367697595,4.212903895903318,-2.967742383875825,-7.3354357697208386
4.142219931271478,3.8993307849724013,-3.0779871423607057,-7.318454303254953
4.150216494845361,3.585757674041485,-3.1882319008455866,-7.301472836789066
4.158213058419244,3.272184563110568,-3.298476659330468,-7.28449137032318
4.1662096219931275,2.9586114521796167,-3.408721417815361,-7.267509903857292
4.1742061855670105,2.6450383412487004,-3.5189661763002418,-7.250528437391406
4.1822027491408935,2.331465230317784,-3.6292109347851227,-7.233546970925519
4.1901993127147765,2.0178921193868673,-3.7394556932700036,-7.216565504459632
4.1981958762886595,1.6828144329897856,-3.736819587629224,-7.177180412371208
4.2061924398625425,1.6009873997709272,-5.131050400916291,-5.893804696449066
4.214189003436426,0.8589938993783391,-7.208816247731573,-5.182266921502759
4.2221855670103094,0.6771394648441915,-7.210074134136454,-5.1564802502027085
4.2301821305841925,0.495285030310044,-7.211332020541334,-5.130693578902659
4.2381786941580755,0.3134305957758965,-7.2125899069462145,-5.10490690760261
4.2461752577319585,0.13157616124174887,-7.2138477933510945,-5.07912023630256
4.2541718213058415,-0.050278273292398645,-7.215105679755975,-5.053333565002511
4.262168384879725,-0.2321327078265666,-7.216363566160856,-5.027546893702458
4.270164948453608,-0.4139871423607141,-7.217621452565736,-5.0017602224024085
4.278161512027491,-0.5958415768948616,-7.218879338970617,-4.975973551102359
4.286158075601374,-0.7776960114290091,-7.220137225375497,-4.95018687980231
4.294154639175257,-0.9595504459631569,-7.221395111780378,-4.924400208502259
4.30215120274914,-1.1235223367696023,-6.150615120274757,-8.802261168384543
4.310147766323024,3.031157051985058,-7.119567302771053,-11.442564963076657
4.318144329896907,2.638389668786997,-6.7662723184908815,-10.832954595305962
4.32614089347079,2.245622285588936,-6.412977334210711,-10.223344227535264
4.334137457044673,1.8528549023908751,-6.059682349930541,-9.613733859764569
4.342134020618556,1.4600875191928142,-5.70638736565037,-9.004123491993873
4.35013058419244,1.0673201359947093,-5.3530923813701605,-8.394513124223108
4.358127147766323,0.6745527527966484,-4.99979739708999,-7.784902756452412
4.366123711340206,0.28178536959858747,-4.646502412809819,-7.175292388681715
4.374120274914089,-0.11098201359947346,-4.293207428529649,-6.5656820209110185
4.382116838487972,-0.5037493967975344,-3.939912444249478,-5.956071653140322
4.390113402061855,-0.8965167799955953,-3.5866174599693075,-5.346461285369626
4.398109965635739,-1.2892841631936998,-3.233322475689098,-4.736850917598861
4.406106529209622,-0.742359106529217,-5.212350515463912,-7.970288087056144
4.414103092783505,-0.5320869259606379,-6.780376757263355,-7.235716494845361
4.422099656357388,-0.4718400890346785,-6.802549047172758,-7.213725945017183
4.430096219931271,-0.4115932521087191,-6.824721337082161,-7.191735395189005
4.438092783505154,-0.35134641518275966,-6.846893626991563,-7.169744845360826
4.446089347079038,-0.29109957825679356,-6.869065916900969,-7.147754295532645
4.454085910652921,-0.2308527413308341,-6.891238206810372,-7.125763745704467
4.462082474226804,-0.17060590440487472,-6.9134104967197745,-7.103773195876289
4.470079037800687,-0.11035906747891527,-6.935582786629177,-7.081782646048111
4.47807560137457,-0.05011223055295588,-6.9577550765385805,-7.059792096219932
4.486072164948453,0.010134606373003563,-6.979927366447983,-7.037801546391754
4.494068728522337,0.07038144329896967,-7.002099656357388,-7.015810996563573
4.50206529209622,0.6,-6.949625429553269,-7.22536426116838
4.510061855670103,0.6,-7.013524914089349,-7.330309278350517
4.518058419243986,0.5926303150747315,-7.109148594377511,-7.341587173436012
4.526054982817869,0.5733614871858569,-7.127839357429719,-7.30651790667826
4.534051546391752,0.5540926592969821,-7.146530120481928,-7.271448639920508
4.542048109965636,0.5348238314081053,-7.165220883534138,-7.236379373162752
4.550044673539519,0.5155550035192307,-7.183911646586346,-7.201310106405
4.558041237113402,0.49628617563035604,-7.202602409638555,-7.166240839647248
4.566037800687285,0.47701734774148136,-7.221293172690763,-7.131171572889496
4.574034364261168,0.4577485198526067,-7.239983935742972,-7.096102306131744
4.582030927835051,0.438479691963732,-7.25867469879518,-7.061033039373992
4.590027491408935,0.4192108640748552,-7.277365461847391,-7.025963772616236
4.598024054982818,0.3975945017181908,-7.292415807560104,-6.987776632302375
4.606020618556701,-0.10004482294935023,-7.012939937247871,-7.005066562079785
4.614017182130584,-0.11742865680561754,-6.989645599880473,-7.030881555356342
4.622013745704467,-0.13481249066188483,-6.966351262513074,-7.056696548632899
4.630010309278351,-0.1521963245181541,-6.943056925145673,-7.082511541909459
4.638006872852234,-0.1695801583744214,-6.919762587778275,-7.108326535186015
4.646003436426117,-0.1869639922306887,-6.896468250410877,-7.134141528462573
4.654,-0.204347826086956,-6.873173913043479,-7.159956521739129
4.661996563573883,-0.22173165994322333,-6.849879575676081,-7.185771515015686
4.669993127147766,-0.23911549379949062,-6.826585238308683,-7.2115865082922435
4.67798969072165,-0.2564993276557599,-6.803290900941282,-7.237401501568803
4.685986254295533,-0.2738831615120272,-6.779996563573883,-7.26321649484536
4.693982817869416,-0.2912669953682945,-6.756702226206485,-7.289031488121917
4.701979381443299,-0.2,-6.7157051546391795,-7.275476288659797
4.709975945017182,-0.1978045055364648,-6.738,-7.161
4.717972508591065,-0.18891943489881702,-6.738,-7.161
4.725969072164949,-0.18003436426116823,-6.738,-7.161
4.733965635738832,-0.1711492936235204,-6.738,-7.161
4.741962199312715,-0.16226422298587262,-6.738,-7.161
4.749958762886598,-0.1533791523482248,-6.738,-7.161
4.757955326460481,-0.144494081710577,-6.738,-7.161
4.765951890034364,-0.13560901107292922,-6.738,-7.161
4.773948453608248,-0.1267239404352804,-6.738,-7.161
4.781945017182131,-0.11783886979763261,-6.738,-7.161
4.789941580756014,-0.10895379915998481,-6.738,-7.161
4.797938144329897,-0.10006872852233702,-6.738,-7.161
4.80593470790378,-0.004116399795275506,-6.542515975725669,-7.377887146304016
4.813931271477663,-0.021130364846090523,-6.5653146888937615,-7.3526214082035555
4.821927835051547,-0.038144329896907435,-6.588113402061856,-7.327355670103093
4.82992439862543,-0.05515829494772245,-6.610912115229948,-7.302089932002632
4.837920962199313,-0.07217225999853746,-6.63371082839804,-7.276824193902172
4.845917525773196,-0.08918622504935249,-6.656509541566132,-7.251558455801711
4.853914089347079,-0.10620019010016751,-6.679308254734225,-7.226292717701251
4.861910652920962,-0.12321415515098252,-6.702106967902316,-7.201026979600791
4.869907216494846,-0.14022812020179942,-6.724905681070411,-7.175761241500328
4.877903780068729,-0.15724208525261446,-6.747704394238503,-7.150495503399867
4.885900343642612,-0.17425605030342947,-6.770503107406595,-7.125229765299407
4.893896907216495,-0.19127001535424448,-6.793301820574687,-7.099964027198947
4.901893470790378,-0.09187753826929258,-6.828975945017179,-7.221339581380819
4.9098900343642615,-0.019181505779439764,-6.980910652920971,-7.16172883473914
4.9178865979381445,-0.10462690230731525,-6.728699926362297,-7.171317992145313
4.9258831615120275,-0.1141466208476521,-6.70956529209622,-7.192546964490264
4.9338797250859106,-0.12366633938798896,-6.6904306578301425,-7.213775936835215
4.941876288659794,-0.13318605792832583,-6.671296023564065,-7.235004909180167
4.949872852233677,-0.14270577646866267,-6.652161389297988,-7.256233881525118
4.9578694158075605,-0.1522254950090006,-6.633026755031909,-7.277462853870071
4.9658659793814435,-0.16174521354933746,-6.613892120765832,-7.298691826215022
4.9738625429553265,-0.1712649320896743,-6.594757486499755,-7.3199207985599735
4.9818591065292095,-0.18078465063001115,-6.5756228522336775,-7.341149770904925
4.9898556701030925,-0.19030436917034801,-6.5564882179676,-7.362378743249876
4.9978522336769755,-0.19982408771068488,-6.537353583701523,-7.383607715594827
5.005848797250859,-0.1,-6.605428925100695,-7.1675626501127
5.013845360824742,-0.1,-6.641886376233236,-7.165670989912426
5.021841924398625,-0.1,-6.678343827365778,-7.1637793297121535
5.029838487972508,-0.1,-6.714801278498319,-7.16188766951188
5.037835051546391,-0.1,-6.751258729630861,-7.159996009311606
5.0458316151202744,-0.1,-6.787716180763402,-7.1581043491113325
5.053828178694158,-0.1,-6.824173631895948,-7.15621268891106
5.061824742268041,-0.1,-6.86063108302849,-7.154321028710786
5.069821305841924,-0.1,-6.897088534161031,-7.1524293685105125
5.077817869415807,-0.1,-6.933545985293573,-7.150537708310239
5.08581443298969,-0.1,-6.970003436426114,-7.148646048109966
5.093810996563573,-0.1,-7.006460887558656,-7.146754387909692
5.101807560137457,-0.1,-6.9383264604810995,-6.924432989690721
5.10980412371134,-0.0918707044673542,-6.972899162371133,-6.924749248281787
5.117800687285223,-0.0835409507445594,-7.007634235395187,-6.911171749713632
5.125797250859106,-0.07521119702176461,-7.042369308419242,-6.897594251145476
5.133793814432989,-0.0668814432989698,-7.077104381443296,-6.88401675257732
5.141790378006873,-0.05855168957617409,-7.111839454467354,-6.870439254009164
5.149786941580756,-0.0502219358533793,-7.146574527491408,-6.856861755441009
5.157783505154639,-0.04189218213058451,-7.181309600515463,-6.8432842568728525
5.165780068728522,-0.03356242840778971,-7.216044673539517,-6.829706758304697
5.173776632302405,-0.02523267468499492,-7.2507797465635715,-6.816129259736542
5.181773195876288,-0.016902920962200127,-7.285514819587625,-6.802551761168386
5.189769759450172,-0.008573167239404406,-7.320249892611684,-6.788974262600229
5.197766323024055,-0.00024341351660961408,-7.354984965635738,-6.775396764032074
5.205762886597938,-0.2,-7.478099144549243,-6.487519083132266
5.213759450171821,-0.2,-7.460404620896395,-6.494409738977846
5.221756013745704,-0.2,-7.442710097243548,-6.501300394823426
5.229752577319587,-0.2,-7.4250155735907,-6.508191050669006
5.237749140893471,-0.2,-7.407321049937851,-6.515081706514587
5.245745704467354,-0.2,-7.389626526285004,-6.521972362360167
5.253742268041237,-0.2,-7.371932002632156,-6.5288630182057465
5.26173883161512,-0.2,-7.354237478979309,-6.535753674051327
5.269735395189003,-0.2,-7.336542955326461,-6.542644329896907
5.277731958762886,-0.2,-7.318848431673613,-6.549534985742487
5.28572852233677,-0.2,-7.301153908020765,-6.556425641588068
5.293725085910653,-0.2,-7.283459384367917,-6.563316297433648
5.301721649484536,-0.10601374570446608,-7.497695876288657,-6.459599656357394
5.309718213058419,-0.1726517754868269,-7.671621134020619,-6.167058705612829
5.317714776632302,-0.29345836956071875,-8.544468430422725,-5.458428642404665
5.325711340206185,-0.2741895416718439,-8.49282797168054,-5.515657061234624
5.333707903780069,-0.2549207137829669,-8.44118751293835,-5.572885480064588
5.341704467353952,-0.23565188589409197,-8.389547054196166,-5.630113898894547
5.349701030927835,-0.2163830580052171,-8.337906595453981,-5.6873423177245055
5.357697594501718,-0.19711423011634222,-8.286266136711797,-5.744570736554464
5.365694158075601,-0.17784540222746734,-8.234625677969612,-5.801799155384423
5.373690721649485,-0.15857657433859032,-8.182985219227422,-5.859027574214387
5.381687285223368,-0.13930774644971544,-8.131344760485238,-5.916255993044345
5.389683848797251,-0.12003891856084056,-8.079704301743053,-5.973484411874304
5.397680412371134,-0.10077009067196568,-8.028063843000869,-6.030712830704262
5.405676975945017,-0.2192439862543047,-6.851512027491417,-6.785532646048095
5.4136735395189,-0.11891179839633202,-8.038229629629628,-6.01005368461245
5.421670103092784,-0.14556701030927838,-8.055466666666666,-5.9777120274914095
5.429666666666667,-0.1722222222222218,-8.072703703703704,-5.945370370370371
5.43766323024055,-0.19887743413516523,-8.08994074074074,-5.913028713249333
5.445659793814433,-0.22553264604810863,-8.107177777777776,-5.880687056128295
5.453656357388316,-0.25218785796105203,-8.124414814814815,-5.848345399007257
5.461652920962199,-0.27884306987399543,-8.14165185185185,-5.8160037418862185
5.469649484536083,-0.3054982817869418,-8.158888888888889,-5.783662084765177
5.477646048109966,-0.3321534936998852,-8.176125925925927,-5.751320427644139
5.485642611683849,-0.3588087056128286,-8.193362962962963,-5.718978770523101
5.493639175257732,-0.385463917525772,-8.2106,-5.686637113402063
5.501635738831615,0.6914089347081211,-7.472941580756107,-6.550219931271416
5.509632302405498,-0.264049133581926,-7.516463332602179,-6.324946040798421
5.517628865979382,-0.21300723842947572,-7.575331651678004,-6.2978938363676225
5.525625429553265,-0.16196534327703116,-7.634199970753824,-6.270841631936826
5.533621993127148,-0.1109234481245866,-7.693068289829643,-6.243789427506031
5.541618556701031,-0.05988155297214201,-7.751936608905463,-6.216737223075236
5.549615120274914,-0.008839657819697422,-7.810804927981282,-6.18968501864444
5.557611683848797,0.04220223733274714,-7.869673247057102,-6.162632814213644
5.565608247422681,0.09324413248519736,-7.928541566132927,-6.135580609782846
5.573604810996564,0.14428602763764192,-7.987409885208747,-6.108528405352049
5.581601374570447,0.19532792279008648,-8.046278204284565,-6.081476200921254
5.58959793814433,0.24636981794253104,-8.105146523360386,-6.054423996490458
5.597594501718213,0.29741171309497566,-8.164014842436204,-6.027371792059663
5.605591065292096,-0.18178694158092815,-7.677030927835257,-6.2260068728520706
5.61358762886598,-0.22414541508410338,-8.014611412551998,-6.033563393018629
5.621584192439863,-0.2662325917887508,-7.994760294206306,-6.034545427141738
5.629580756013746,-0.3083197684933983,-7.974909175860613,-6.035527461264846
5.637577319587629,-0.35040694519804577,-7.955058057514922,-6.036509495387954
5.645573883161512,-0.3924941219026932,-7.9352069391692295,-6.037491529511063
5.6535704467353955,-0.4345812986073454,-7.915355820823535,-6.038473563634171
5.661567010309279,-0.47666847531199286,-7.895504702477844,-6.0394555977572795
5.669563573883162,-0.5187556520166403,-7.875653584132151,-6.040437631880388
5.677560137457045,-0.5608428287212878,-7.85580246578646,-6.041419666003497
5.685556701030928,-0.6029300054259352,-7.835951347440767,-6.0424017001266055
5.693553264604811,-0.6450171821305828,-7.816100229095075,-6.043383734249714
5.7015498281786945,-0.6871043588352348,-7.796249110749381,-6.044365768372822
5.7095463917525775,-0.7291915355398824,-7.776397992403689,-6.045347802495931
5.7175429553264605,-0.7712787122445297,-7.756546874057997,-6.046329836619039
5.7255395189003435,-0.3615120274914157,-7.840995418098518,-6.069507445589915
5.7335360824742265,-0.16159793814433324,-7.612426975945021,-6.222774914089344
5.7415326460481095,0.0005935645110855953,-7.373505779443931,-6.456601062168064
5.749529209621993,-0.2043581968870075,-7.74430123307055,-6.0464956943602175
5.757525773195876,-0.270212249848397,-7.76396337174045,-6.0388754396604
5.7655223367697594,-0.3360663028097865,-7.783625510410351,-6.031255184960582
5.7735189003436425,-0.401920355771176,-7.803287649080251,-6.023634930260764
5.7815154639175255,-0.4677744087325655,-7.822949787750152,-6.016014675560946
5.7895120274914085,-0.5336284616939551,-7.8426119264200524,-6.008394420861128
5.797508591065292,-0.5994825146553519,-7.862274065089955,-6.000774166161309
5.805505154639175,-0.6653365676167413,-7.881936203759856,-5.993153911461492
5.813501718213058,-0.7311906205781309,-7.9015983424297564,-5.985533656761674
5.821498281786941,-0.7970446735395202,-7.921260481099657,-5.977913402061856
5.829494845360824,-0.8628987265009098,-7.940922619769557,-5.970293147362038
5.837491408934707,-0.2491408934707281,-7.624257731958782,-6.141072164948386
5.845487972508591,0.17192815924268637,-7.992551449134407,-5.7623132334824625
5.853484536082474,0.08170278156000625,-7.933256175841274,-5.798674965959931
5.861481099656357,-0.008522596122673864,-7.873960902548142,-5.835036698437399
5.86947766323024,-0.09874797380535394,-7.81466562925501,-5.871398430914867
5.877474226804123,-0.18897335148803407,-7.755370355961877,-5.907760163392335
5.885470790378006,-0.27919872917071414,-7.696075082668745,-5.944121895869803
5.89346735395189,-0.36942410685340427,-7.636779809375605,-5.980483628347275
5.901463917525773,0.5182297496318313,-8.531612665684806,-5.469936671575861
5.909460481099656,1.084196653219782,-7.84285378753922,-5.864183295980875
5.917457044673539,1.089272732705812,-7.8610025100851635,-5.84380944270133
5.925453608247422,1.094348812191842,-7.879151232631107,-5.823435589421784
5.933450171821306,1.0994248916778728,-7.897299955177052,-5.8030617361422365
5.941446735395189,1.104500971163903,-7.9154486777229955,-5.7826878828626915
5.949443298969072,1.109577050649933,-7.933597400268939,-5.762314029583146
5.957439862542955,1.114653130135963,-7.951746122814882,-5.741940176303601
5.965436426116838,1.119729209621993,-7.969894845360825,-5.721566323024056
5.973432989690721,1.1248052891080231,-7.988043567906768,-5.70119246974451
5.981429553264605,1.1298813685940539,-8.006192290452713,-5.680818616464962
5.989426116838488,1.134957448080084,-8.024341012998656,-5.660444763185417
5.997422680412371,1.140033527566114,-8.0424897355446,-5.640070909905871
6.005419243986254,1.145109607052144,-8.060638458090542,-5.619697056626326
6.013415807560137,1.150185686538174,-8.078787180636485,-5.599323203346781
6.02141237113402,0.7022164948459038,-7.979711340206325,-5.699999999999856
6.029408934707904,-0.41426223749522456,-8.574610996563571,-5.255116914853
6.037405498281787,-0.279031462390225,-8.477052920962198,-5.3716890416189385
6.04540206185567,-0.14380068728522555,-8.379494845360826,-5.488261168384878
6.053398625429553,-0.008569912180226014,-8.281936769759453,-5.604833295150817
6.061395189003436,0.12666086292477358,-8.184378694158081,-5.7214054219167565
6.069391752577319,0.26189163802977306,-8.086820618556708,-5.837977548682696
6.077388316151203,0.33518671248568366,-8.139416953035516,-5.713452462772039
6.085384879725086,0.26505670103092693,-8.119745704467352,-5.661489690721651
6.093381443298969,0.610606107761136,-7.994073526551254,-5.756671270180899
6.101378006872852,0.612039454062115,-7.998977079686183,-5.751164202813979
6.109374570446735,0.613472800363094,-8.003880632821112,-5.74565713544706
6.117371134020618,0.6149061466640731,-8.00878418595604,-5.7401500680801405
6.125367697594502,0.6163394929650523,-8.013687739090969,-5.734643000713221
6.133364261168385,0.6177728392660313,-8.018591292225898,-5.729135933346301
6.141360824742268,0.6192061855670103,-8.023494845360824,-5.723628865979381
6.149357388316151,0.6206395318679894,-8.028398398495753,-5.718121798612462
6.157353951890034,0.6220728781689684,-8.033301951630682,-5.712614731245543
6.165350515463918,0.6235062244699476,-8.03820550476561,-5.707107663878623
6.173347079037801,0.6249395707709267,-8.043109057900539,-5.701600596511703
6.181343642611684,0.6263729170719057,-8.048012611035468,-5.696093529144783
6.189340206185567,0.6278062633728847,-8.052916164170396,-5.690586461777864
6.19733676975945,0.46725085910652775,-8.07270704467354,-5.613981529209621
6.205333333333333,-0.15766666666674722,-8.179666666666655,-5.597666666666514
6.213329896907217,0.15889515244571487,-7.7760232507128775,-6.198165387146302
6.2213264604811,0.21308463113256018,-7.812688345397384,-6.151632192732323
6.229323024054983,0.2672741098194055,-7.84935344008189,-6.105098998318344
6.237319587628866,0.32146358850625084,-7.886018534766396,-6.058565803904366
6.245316151202749,0.37565306719309616,-7.922683629450902,-6.012032609490387
6.253312714776632,0.4298425458799415,-7.959348724135408,-5.965499415076408
6.261309278350516,0.4840320245667928,-7.996013818819918,-5.9189662206624245
6.269305841924399,0.5382215032536382,-8.032678913504425,-5.872433026248446
6.277302405498282,0.5924109819404835,-8.069344008188931,-5.825899831834467
6.285298969072165,0.6466004606273288,-8.106009102873436,-5.779366637420488
6.293295532646048,0.7007899393141741,-8.142674197557943,-5.73283344300651
6.301292096219931,0.9029914089344047,-8.110525773196013,-5.526470790378333
6.309288659793815,0.7973865979387988,-7.433855670103458,-6.229525773195614
6.317285223367698,1.4397839533841226,-7.908765277155238,-5.889074256686089
6.325281786941581,1.2661194531600122,-7.93814395637233,-5.86830057522785
6.333278350515464,1.0924549529359018,-7.967522635589422,-5.84752689376961
6.341274914089347,0.9187904527117913,-7.996901314806514,-5.82675321231137
6.34927147766323,0.7451259524876809,-8.026279994023605,-5.805979530853131
6.357268041237114,0.571461452263551,-8.0556586732407,-5.785205849394889
6.365264604810997,0.39779695203944065,-8.085037352457793,-5.76443216793665
6.37326116838488,0.22413245181533026,-8.114416031674885,-5.74365848647841
6.381257731958763,0.05046795159121986,-8.143794710891976,-5.722884805020171
6.389254295532646,-0.12319654863289076,-8.173173390109069,-5.702111123561931
6.39725085910653,-0.29686104885702047,-8.202552069326163,-5.68133744210369
6.405247422680413,0.05051546391750564,-7.387793814433066,-6.402762886597898
6.413243986254296,-0.4,-7.861373248744384,-6.057518371662701
6.421240549828179,-0.4,-7.825344775499416,-6.084232166458969
6.429237113402062,-0.4,-7.7893163022544485,-6.110945961255238
6.437233676975945,-0.4,-7.753287829009481,-6.137659756051507
6.4452302405498285,-0.4,-7.717259355764509,-6.164373550847778
6.4532268041237115,-0.4,-7.681230882519541,-6.191087345644047
6.4612233676975945,-0.4,-7.645202409274574,-6.217801140440316
6.4692199312714775,-0.4,-7.609173936029606,-6.244514935236585
6.4772164948453606,-0.4,-7.573145462784638,-6.2712287300328535
6.485213058419244,-0.4,-7.537116989539671,-6.297942524829122
6.4932096219931275,-0.4,-7.501088516294699,-6.324656319625394
6.5012061855670105,-0.1,-7.316268041237081,-6.535659793814457
6.5092027491408935,-0.2975793965484683,-7.744319134473773,-6.192751935349874
6.5171993127147765,-0.2887919640496958,-7.720065820777161,-6.206372455722971
6.5251958762886595,-0.2800045315509233,-7.695812507080548,-6.219992976096069
6.5331924398625425,-0.2712170990521508,-7.671559193383937,-6.233613496469166
6.541189003436426,-0.2624296665533773,-7.6473058796873215,-6.247234016842265
6.549185567010309,-0.2536422340546048,-7.623052565990709,-6.260854537215363
6.557182130584192,-0.24485480155583228,-7.598799252294097,-6.27447505758846
6.565178694158075,-0.23606736905705977,-7.574545938597485,-6.288095577961558
6.573175257731958,-0.22727993655828724,-7.550292624900872,-6.301716098334655
6.581171821305841,-0.2184925040595147,-7.5260393112042605,-6.315336618707753
6.589168384879725,-0.20970507156074122,-7.501785997507645,-6.328957139080852
6.597164948453608,-0.20091763906196872,-7.477532683811034,-6.342577659453949
6.605161512027491,-0.2,-7.722035738831612,-6.220990378006876
6.613158075601374,-0.2,-7.679795047064097,-6.259243575377259
6.621154639175257,-0.2,-7.673276109367997,-6.25341999103541
6.62915120274914,-0.2,-7.666757171671897,-6.24759640669356
6.637147766323024,-0.2,-7.660238233975796,-6.24177282235171
6.645144329896907,-0.2,-7.653719296279695,-6.2359492380098605
6.65314089347079,-0.2,-7.647200358583595,-6.230125653668011
6.661137457044673,-0.2,-7.6406814208874945,-6.2243020693261615
6.669134020618556,-0.2,-7.634162483191394,-6.218478484984312
6.67713058419244,-0.2,-7.627643545495293,-6.212654900642462
6.685127147766323,-0.2,-7.621124607799193,-6.206831316300613
6.693123711340206,-0.2,-7.614605670103093,-6.201007731958763
6.701120274914089,-0.2,-7.5714707903780125,-6.237450171821299
6.709116838487972,-0.29769908860003,-7.746191095174063,-6.1908637382339755
6.717113402061855,-0.2890071716718964,-7.728024988794264,-6.197904190945764
6.725109965635739,-0.28031525474376173,-7.709858882414462,-6.204944643657553
6.733106529209622,-0.2716233378156281,-7.691692776034663,-6.211985096369341
6.741103092783505,-0.26293142088749444,-7.673526669654864,-6.219025549081129
6.749099656357388,-0.2542395039593608,-7.655360563275064,-6.226066001792917
6.757096219931271,-0.24554758703122712,-7.637194456895265,-6.233106454504706
6.765092783505154,-0.23685567010309347,-7.619028350515466,-6.240146907216494
6.773089347079038,-0.22816375317495885,-7.600862244135664,-6.247187359928283
6.781085910652921,-0.2194718362468252,-7.582696137755865,-6.254227812640071
6.789082474226804,-0.21077991931869156,-7.564530031376065,-6.26126826535186
6.797079037800687,-0.2020880023905579,-7.546363924996266,-6.268308718063648
6.80507560137457,-0.20378006872851928,-7.482900343642605,-6.3409381443298996
6.813072164948453,-0.29537253983130346,-7.669799203373946,-6.128848641049671
6.821068728522337,-0.28628553577007176,-7.657622617931897,-6.142297407060294
6.82906529209622,-0.27719853170884107,-7.645446032489847,-6.155746173070915
6.837061855670103,-0.26811152764761037,-7.633269447047798,-6.169194939081536
6.845058419243986,-0.2590245235863797,-7.6210928616057485,-6.182643705092158
6.853054982817869,-0.24993751952514903,-7.6089162761637,-6.196092471102779
6.861051546391752,-0.24085051546391834,-7.596739690721651,-6.209541237113401
6.869048109965636,-0.23176351140268664,-7.5845631052796,-6.222990003124023
6.877044673539519,-0.22267650734145594,-7.572386519837551,-6.236438769134645
6.885041237113402,-0.21358950328022527,-7.560209934395502,-6.249887535145266
6.893037800687285,-0.2045024992189946,-7.548033348953453,-6.263336301155888
6.901034364261168,-0.3,-7.542,-6.27
6.909030927835051,-0.2,-7.684,-6.263
6.917027491408935,-0.2,-7.684,-6.263
6.925024054982818,-0.2,-7.684,-6.263
6.933020618556701,-0.2,-7.684,-6.263
6.941017182130584,-0.2,-7.684,-6.263
6.949013745704467,-0.2,-7.684,-6.263
6.957010309278351,-0.2,-7.684,-6.263
6.965006872852234,-0.2,-7.684,-6.263
6.973003436426117,-0.2,-7.684,-6.263
6.981,-0.3,-7.616,-6.337
