accel_time_list,accel_x_list,accel_y_list,accel_z_list
0.0,-1.6,0.5,9.7
0.007996563573883161,-1.0005154639175258,0.8330469644902634,6.3029209621993125
0.015993127147766323,-1.8672998957488707,0.535893277732731,9.573080041700452
0.023989690721649484,-2.0020734391289237,0.6077725008687593,9.51917062434843
0.031986254295532646,-2.136846982508977,0.6796517240047878,9.46526120699641
0.03998281786941581,-2.2716205258890305,0.7515309471408163,9.411351789644387
0.04797938144329897,-2.4063940692690835,0.8234101702768446,9.357442372292367
0.05597594501718213,-2.541167612649137,0.8952893934128731,9.303532954940344
0.06397250859106529,-2.6759411560291904,0.9671686165489015,9.249623537588324
0.07196907216494845,-2.8107146994092433,1.0390478396849299,9.195714120236303
0.07996563573883161,-2.9454882427892963,1.1109270628209584,9.141804702884281
0.08796219931271478,-3.0802617861693498,1.1828062859569868,9.08789528553226
0.09595876288659794,-3.215035329549403,1.2546855090930151,9.033985868180238
0.1039553264604811,-1.286597938144331,-0.17542955326460674,9.315635738831615
0.11195189003436426,-1.8,0.8021687667048493,9.70216876670485
0.11994845360824742,-1.8,0.8110538373424971,9.711053837342497
0.12794501718213058,-1.8,0.8199389079801451,9.719938907980145
0.13594158075601376,-1.8,0.8288239786177931,9.728823978617793
0.1439381443298969,-1.8,0.837709049255441,9.737709049255441
0.15193470790378005,-1.8,0.846594119893089,9.74659411989309
0.15993127147766323,-1.8,0.855479190530737,9.755479190530737
0.1679278350515464,-1.8,0.8643642611683849,9.764364261168385
0.17592439862542955,-1.8,0.8732493318060328,9.773249331806033
0.1839209621993127,-1.8,0.8821344024436808,9.782134402443681
0.19191752577319587,-1.8,0.8910194730813288,9.79101947308133
0.19991408934707905,-1.8,0.8999045437189768,9.799904543718977
0.2079106529209622,-1.6,0.5,9.7
0.21590721649484534,-1.5913107511045657,0.5,9.7
0.22390378006872852,-1.582523318605793,0.5,9.7
0.2319003436426117,-1.57373588610702,0.5,9.7
0.23989690721649484,-1.5649484536082474,0.5,9.7
0.247893470790378,-1.5561610211094747,0.5,9.7
0.25589003436426117,-1.547373588610702,0.5,9.7
0.26388659793814434,-1.5385861561119294,0.5,9.7
0.2718831615120275,-1.5297987236131565,0.5,9.7
0.27987972508591064,-1.5210112911143838,0.5,9.7
0.2878762886597938,-1.5122238586156111,0.5,9.7
0.295872852233677,-1.5034364261168385,0.5,9.7
0.3038694158075601,-1.425796105383734,0.47420389461626594,9.7
0.3118659793814433,-1.479106529209622,0.42089347079037814,9.7
0.31986254295532646,-1.5,0.3010268368515791,9.60102683685158
0.32785910652920963,-1.5,0.3105465553919162,9.610546555391917
0.3358556701030928,-1.5,0.32006627393225334,9.620066273932252
0.3438522336769759,-1.5,0.32958599247259035,9.62958599247259
0.3518487972508591,-1.5,0.33910571101292747,9.639105711012927
0.3598453608247423,-1.5,0.3486254295532646,9.648625429553263
0.3678419243986254,-1.5,0.35814514809360165,9.6581451480936
0.3758384879725086,-1.5,0.36766486663393877,9.667664866633938
0.38383505154639175,-1.5,0.3771845851742759,9.677184585174276
0.3918316151202749,-1.5,0.386704303714613,9.686704303714611
0.3998281786941581,-1.5,0.3962240222549501,9.696224022254949
0.4078247422680412,-1.5,0.4,9.7
0.4158213058419244,-1.4924207712867505,0.49242077128675066,9.707579228713248
0.42381786941580757,-1.4835357006491026,0.4835357006491027,9.716464299350896
0.4318144329896907,-1.4746506300114548,0.4746506300114548,9.725349369988544
0.43981099656357386,-1.4657655593738068,0.4657655593738068,9.734234440626192
0.44780756013745704,-1.4568804887361588,0.45688048873615883,9.74311951126384
0.4558041237113402,-1.4479954180985108,0.44799541809851084,9.75200458190149
0.4638006872852234,-1.4391103474608629,0.4391103474608629,9.760889652539138
0.4717972508591065,-1.4302252768232149,0.430225276823215,9.769774723176786
0.4797938144329897,-1.421340206185567,0.421340206185567,9.778659793814434
0.48779037800687286,-1.412455135547919,0.41245513554791907,9.787544864452082
0.495786941580756,-1.4035700649102711,0.40357006491027114,9.79642993508973
0.5037835051546392,-1.3,0.21082474226803966,9.78917525773196
0.5117800687285223,-1.2062151276650777,0.1,9.887569744669845
0.5197766323024055,-1.214813583120866,0.1,9.870372833758267
0.5277731958762887,-1.2234120385766545,0.1,9.853175922846692
0.5357697594501718,-1.2320104940324428,0.1,9.835979011935114
0.543766323024055,-1.2406089494882313,0.1,9.818782101023537
0.5517628865979382,-1.2492074049440196,0.1,9.801585190111961
0.5597594501718213,-1.257805860399808,0.1,9.784388279200384
0.5677560137457045,-1.2664043158555962,0.1,9.767191368288808
0.5757525773195876,-1.2750027713113845,0.1,9.74999445737723
0.5837491408934707,-1.2836012267671728,0.1,9.732797546465653
0.591745704467354,-1.2921996822229613,0.1,9.715600635554077
0.5997422680412371,-1.2257731958762885,0.1,9.625773195876288
0.6077388316151202,-1.3,0.19711701935250503,9.8
0.6157353951890034,-1.3,0.1886995840115753,9.8
0.6237319587628866,-1.3,0.1802821486706457,9.8
0.6317285223367698,-1.3,0.17186471332971598,9.8
0.6397250859106529,-1.3,0.1634472779887864,9.8
0.647721649484536,-1.3,0.1550298426478568,9.8
0.6557182130584193,-1.3,0.14661240730692707,9.8
0.6637147766323024,-1.3,0.13819497196599745,9.8
0.6717113402061856,-1.3,0.12977753662506775,9.8
0.6797079037800687,-1.3,0.12136010128413814,9.8
0.6877044673539519,-1.3,0.11294266594320854,9.8
0.6957010309278351,-1.3,0.10452523060227882,9.8
0.7036975945017182,-0.9775200458190146,0.26743986254295615,9.922479954180986
0.7116941580756013,-0.9108820160366554,0.4673539518900339,9.989117983963345
0.7196907216494846,-1.3063402061855671,0.11056701030927864,10.380979381443298
0.7276872852233677,-1.3363273195876288,0.1605455326460481,10.291018041237114
0.7356838487972508,-1.3663144329896906,0.21052405498281757,10.201056701030929
0.743680412371134,-1.3963015463917527,0.2605025773195877,10.111095360824743
0.7516769759450171,-1.4262886597938143,0.3104810996563572,10.021134020618558
0.7596735395189004,-1.4562757731958764,0.3604596219931273,9.931172680412372
0.7676701030927835,-1.4862628865979381,0.4104381443298968,9.841211340206186
0.7756666666666666,-1.5162499999999999,0.46041666666666625,9.75125
0.7836632302405498,-1.5462371134020618,0.5103951890034364,9.661288659793815
0.791659793814433,-1.5762242268041236,0.5603737113402059,9.57132731958763
0.7996563573883162,-1.434364261168385,0.33498281786941553,9.433745704467354
0.8076529209621993,-1.8347079037800735,-0.13470790378007347,9.465292096219926
0.8156494845360824,-1.774215220664891,-0.14297463222518197,9.465620294219855
0.8236460481099657,-1.74726051198888,-0.18789914668520014,9.42968068265184
0.8316426116838488,-1.7203058033128695,-0.23282366114521766,9.393741071083825
0.8396391752577319,-1.6933510946368588,-0.27774817560523524,9.357801459515812
0.8476357388316151,-1.666396385960848,-0.32267269006525334,9.321861847947797
0.8556323024054983,-1.6394416772848375,-0.3675972045252709,9.285922236379783
0.8636288659793814,-1.612486968608827,-0.41252171898528844,9.24998262481177
0.8716254295532646,-1.585532259932816,-0.45744623344530666,9.214043013243755
0.8796219931271477,-1.5585775512568056,-0.5023707479053242,9.17810340167574
0.887618556701031,-1.5316228425807945,-0.5472952623653423,9.142163790107725
0.8956151202749141,-1.504668133904784,-0.5922197768253599,9.106224178539712
0.9036116838487972,-1.4098674521354928,-0.596710849288169,9.693421698576337
0.9116082474226804,-1.4588260046286554,-0.5803913317904481,9.660782663580896
0.9196048109965635,-1.5077845571218174,-0.5640718142927275,9.628143628585455
0.9276013745704468,-1.5567431096149802,-0.5477522967950066,9.595504593590013
0.9355979381443299,-1.6057016621081421,-0.5314327792972859,9.562865558594572
0.943594501718213,-1.654660214601304,-0.5151132617995653,9.530226523599131
0.9515910652920962,-1.7036187670944667,-0.4987937443018444,9.497587488603688
0.9595876288659794,-1.7525773195876286,-0.4824742268041238,9.464948453608248
0.9675841924398625,-1.8015358720807906,-0.4661547093064031,9.432309418612807
0.9755807560137457,-1.8504944245739532,-0.44983519180868226,9.399670383617364
0.9835773195876288,-1.8994529770671154,-0.4335156743109616,9.367031348621923
0.991573883161512,-1.9484115295602773,-0.41719615681324096,9.334392313626482
0.9995704467353952,-1.99737008205344,-0.40087663931552003,9.301753278631042
1.0075670103092784,-1.5337628865979405,-1.077061855670099,9.0770618556701
1.0155635738831614,-2.0654639175257876,-1.6127147766322834,9.134536082474211
1.0235601374570447,-2.0,-1.690891400654163,9.181782801308325
1.031556701030928,-2.0,-1.6812569867097253,9.16251397341945
1.039553264604811,-2.0,-1.671622572765288,9.143245145530576
1.0475498281786941,-2.0,-1.6619881588208505,9.1239763176417
1.0555463917525774,-2.0,-1.6523537448764127,9.104707489752824
1.0635429553264604,-2.0,-1.6427193309319754,9.08543866186395
1.0715395189003436,-2.0,-1.6330849169875379,9.066169833975076
1.0795360824742268,-2.0,-1.6234505030431001,9.0469010060862
1.08753264604811,-2.0,-1.6138160890986626,9.027632178197326
1.095529209621993,-2.0,-1.6041816751542253,9.00836335030845
1.1035257731958763,-1.9245704467353946,-2.0525773195876322,9.075429553264605
1.1115223367697595,-1.7477663230240454,-2.6955326460480906,9.147766323024046
1.1195189003436425,-1.3493699885452504,-1.7481099656357508,9.148949980908752
1.1275154639175258,-1.1954929949775313,-1.2819719799101248,8.890985989955063
1.135512027491409,-1.1852409903956296,-1.2409639615825183,8.87048198079126
1.143508591065292,-1.1749889858137283,-1.1999559432549132,8.849977971627457
1.1515051546391752,-1.1647369812318267,-1.1589479249273067,8.829473962463654
1.1595017182130585,-1.154484976649925,-1.1179399065997004,8.80896995329985
1.1674982817869415,-1.1442329720680238,-1.076931888272095,8.788465944136048
1.1754948453608247,-1.1339809674861223,-1.0359238699444888,8.767961934972243
1.183491408934708,-1.1237289629042206,-0.9949158516168823,8.74745792580844
1.191487972508591,-1.1134769583223194,-0.9539078332892771,8.726953916644637
1.1994845360824742,-1.1032249537404177,-0.9128998149616707,8.706449907480835
1.2074810996563574,-0.5683848797250697,-0.3457044673538797,10.351890034364265
1.2154776632302404,-1.1,-2.6857633775159555,10.185763377515954
1.2234742268041237,-1.1,-2.6681885125184097,10.168188512518409
1.2314707903780069,-1.1,-2.6506136475208644,10.150613647520863
1.2394673539518901,-1.1,-2.6330387825233186,10.133038782523318
1.2474639175257731,-1.1,-2.6154639175257737,10.115463917525773
1.2554604810996564,-1.1,-2.597889052528228,10.097889052528227
1.2634570446735396,-1.1,-2.5803141875306825,10.080314187530682
1.2714536082474226,-1.1,-2.562739322533137,10.062739322533137
1.2794501718213058,-1.1,-2.545164457535592,10.045164457535591
1.287446735395189,-1.1,-2.527589592538046,10.027589592538046
1.295443298969072,-1.1,-2.510014727540501,10.0100147275405
1.3034398625429553,-1.1439862542955361,-2.1460481099656237,8.334020618556696
1.3114364261168385,-1.6292280974023574,-2.912315707792928,7.946764955843772
1.3194329896907215,-1.6722203746812985,-2.783338875956105,8.015552599490077
1.3274295532646048,-1.7152126519602406,-2.654362044119279,8.084340243136385
1.335426116838488,-1.7582049292391826,-2.5253852122824525,8.153127886782691
1.3434226804123712,-1.8011972065181248,-2.396408380445626,8.221915530429
1.3514192439862542,-1.8441894837970656,-2.267431548608803,8.290703174075304
1.3594158075601375,-1.8871817610760078,-2.138454716771977,8.359490817721612
1.3674123711340207,-1.93017403835495,-2.0094778849351504,8.428278461367919
1.3754089347079037,-1.9731663156338908,-1.880501053098328,8.497066105014225
1.383405498281787,-2.016158592912833,-1.7515242212615014,8.565853748660532
1.3914020618556702,-2.059150870191775,-1.6225473894246751,8.63464139230684
1.3993986254295532,-2.21958762886596,-1.6993127147766003,8.73986254295532
1.4073951890034364,-3.6382211011186656,-2.645865321342399,7.65096146815822
1.4153917525773196,-3.765825838999781,-2.7989910067997372,7.821101118666374
1.4233883161512026,-3.893430576880893,-2.9521166922570714,7.9912407691745235
1.4313848797250859,-4.021035314762008,-3.1052423777144096,8.161380419682677
1.439381443298969,-4.148640052643123,-3.258368063171748,8.33152007019083
1.4473780068728521,-4.276244790524235,-3.4114937486290824,8.50165972069898
1.4553745704467353,-4.40384952840535,-3.5646194340864206,8.671799371207133
1.4633711340206186,-4.531454266286465,-3.7177451195437587,8.841939021715287
1.4713676975945016,-4.6590590041675775,-3.870870805001093,9.012078672223435
1.4793642611683848,-4.786663742048692,-4.0239964904584316,9.18221832273159
1.487360824742268,-4.914268479929808,-4.17712217591577,9.352357973239743
1.4953573883161513,-5.041873217810923,-4.330247861373108,9.522497623747897
1.5033539518900343,-4.606185567010286,-6.295189003436569,12.081443298969141
1.5113505154639175,-4.95397406052544,-2.9805453940804787,8.479181908879282
1.5193470790378008,-4.885186416879133,-3.1009237704615167,8.298614344307724
1.5273436426116838,-4.8163987732328275,-3.221302146842551,8.118046779736172
1.535340206185567,-4.74761112958652,-3.341680523223589,7.937479215164616
1.5433367697594502,-4.678823485940213,-3.462058899604627,7.756911650593059
1.5513333333333332,-4.610035842293907,-3.5824372759856615,7.576344086021507
1.5593298969072165,-4.5412481986476,-3.7028156523666995,7.3957765214499505
1.5673264604810997,-4.472460555001293,-3.8231940287477375,7.215208956878394
1.5753230240549827,-4.403672911354987,-3.943572405128772,7.034641392306842
1.583319587628866,-4.33488526770868,-4.06395078150981,6.854073827735284
1.5913161512027492,-4.266097624062373,-4.184329157890848,6.673506263163728
1.5993127147766324,-4.2,-4.221821305841896,6.421821305841896
1.6073092783505154,-5.198195876288648,-3.2,6.83092783505153
1.6153058419243986,-5.7962001816960935,-3.1265987281273446,8.007599636607813
1.6233024054982819,-5.78700872931232,-3.1909388948137614,8.02598254137536
1.6312989690721649,-5.7778172769285465,-3.2552790615001763,8.044365446142907
1.639295532646048,-5.768625824544772,-3.319619228186593,8.062748350910455
1.6472920962199313,-5.759434372160999,-3.3839593948730102,8.081131255678002
1.6552886597938143,-5.750242919777225,-3.448299561559425,8.09951416044555
1.6632852233676976,-5.741051467393452,-3.512639728245842,8.117897065213096
1.6712817869415808,-5.731860015009677,-3.5769798949322587,8.136279969980645
1.6792783505154638,-5.722668562625904,-3.6413200616186736,8.154662874748192
1.687274914089347,-5.71347711024213,-3.7056602283050903,8.17304577951574
1.6952714776632303,-5.704285657858356,-3.7700003949915075,8.191428684283288
1.7032680412371133,-4.545655375552286,-4.781885125184096,7.545655375552286
1.7112646048109965,-4.2,-4.498562949078413,7.301437050921587
1.7192611683848797,-4.2,-4.489475945017182,7.310524054982817
1.7272577319587628,-4.2,-4.480388940955952,7.319611059044049
1.735254295532646,-4.2,-4.47130193689472,7.328698063105279
1.7432508591065292,-4.2,-4.46221493283349,7.337785067166511
1.7512474226804124,-4.2,-4.4531279287722585,7.346872071227741
1.7592439862542955,-4.2,-4.444040924711028,7.355959075288972
1.7672405498281787,-4.2,-4.434953920649797,7.365046079350203
1.775237113402062,-4.2,-4.425866916588566,7.374133083411434
1.783233676975945,-4.2,-4.4167799125273355,7.383220087472665
1.7912302405498282,-4.2,-4.407692908466105,7.392307091533896
1.7992268041237114,-4.220446735395189,-4.440893470790378,7.4
1.8072233676975944,-4.6004855819512915,-4.699757209024354,7.4
1.8152199312714776,-4.61786941580756,-4.69106529209622,7.4
1.8232164948453609,-4.635253249663828,-4.682373375168086,7.4
1.8312130584192439,-4.652637083520095,-4.673681458239952,7.4
1.839209621993127,-4.670020917376363,-4.664989541311819,7.4
1.8472061855670103,-4.687404751232631,-4.656297624383685,7.4
1.8552027491408936,-4.704788585088899,-4.647605707455551,7.4
1.8631993127147766,-4.722172418945166,-4.6389137905274165,7.4
1.8711958762886598,-4.739556252801434,-4.630221873599282,7.4
1.879192439862543,-4.756940086657702,-4.621529956671148,7.4
1.887189003436426,-4.77432392051397,-4.612838039743015,7.4
1.8951855670103093,-4.791707754370237,-4.604146122814881,7.4
1.9031821305841925,-4.8545409916543925,-4.409081983308784,7.445459008345608
1.9111786941580755,-4.699801450935472,-4.3,7.5
1.9191752577319587,-4.690916380297824,-4.3,7.5
1.927171821305842,-4.682031309660176,-4.3,7.5
1.935168384879725,-4.673146239022528,-4.3,7.5
1.9431649484536082,-4.66426116838488,-4.3,7.5
1.9511615120274914,-4.655376097747232,-4.3,7.5
1.9591580756013744,-4.646491027109584,-4.3,7.5
1.9671546391752577,-4.637605956471936,-4.3,7.5
1.975151202749141,-4.628720885834287,-4.3,7.5
1.983147766323024,-4.61983581519664,-4.3,7.5
1.9911443298969072,-4.610950744558991,-4.3,7.5
1.9991408934707904,-4.602065673921343,-4.3,7.5
2.0071374570446734,-4.5,-4.486254295532671,7.5
2.015134020618557,-4.5,-4.4,7.5
2.02313058419244,-4.5,-4.4,7.5
2.031127147766323,-4.5,-4.4,7.5
2.0391237113402063,-4.5,-4.4,7.5
2.0471202749140893,-4.5,-4.4,7.5
2.0551168384879723,-4.5,-4.4,7.5
2.063113402061856,-4.5,-4.4,7.5
2.071109965635739,-4.5,-4.4,7.5
2.079106529209622,-4.5,-4.4,7.5
2.0871030927835053,-4.5,-4.4,7.5
2.0950996563573883,-4.5,-4.4,7.5
2.1030962199312713,-4.6,-4.4,7.5
2.1110927835051547,-4.6,-4.4,7.5
2.1190893470790377,-4.6,-4.4,7.5
2.1270859106529207,-4.6,-4.4,7.5
2.135082474226804,-4.6,-4.4,7.5
2.143079037800687,-4.6,-4.4,7.5
2.15107560137457,-4.6,-4.4,7.5
2.1590721649484537,-4.6,-4.4,7.5
2.1670687285223367,-4.6,-4.4,7.5
2.17506529209622,-4.6,-4.4,7.5
2.183061855670103,-4.6,-4.4,7.5
2.191058419243986,-4.6,-4.4,7.5
2.1990549828178696,-4.6,-4.4,7.5
2.2070515463917526,-4.6,-4.420257731958764,7.5
2.2150481099656356,-4.6,-4.460240549828179,7.5
2.223044673539519,-4.6,-4.5,7.5
2.231041237113402,-4.6,-4.5,7.5
2.239037800687285,-4.6,-4.5,7.5
2.2470343642611685,-4.6,-4.5,7.5
2.2550309278350515,-4.6,-4.5,7.5
2.2630274914089346,-4.6,-4.5,7.5
2.271024054982818,-4.6,-4.5,7.5
2.279020618556701,-4.6,-4.5,7.5
2.287017182130584,-4.6,-4.5,7.5
2.2950137457044675,-4.6,-4.5,7.5
2.3030103092783505,-4.6,-4.498969072164945,7.4010309278350555
2.3110068728522335,-4.6,-4.39885582630428,7.5
2.319003436426117,-4.6,-4.389768822243049,7.5
2.327,-4.6,-4.380681818181818,7.5
2.334996563573883,-4.6,-4.371594814120588,7.5
2.3429931271477664,-4.6,-4.362507810059356,7.5
2.3509896907216494,-4.6,-4.353420805998126,7.5
2.3589862542955324,-4.6,-4.344333801936895,7.5
2.366982817869416,-4.6,-4.335246797875664,7.5
2.374979381443299,-4.6,-4.326159793814433,7.5
2.382975945017182,-4.6,-4.317072789753203,7.5
2.3909725085910654,-4.6,-4.307985785691971,7.5
2.3989690721649484,-4.6,-4.348453608247417,7.5
2.4069656357388314,-4.6,-4.499312714776627,7.4
2.414962199312715,-4.6,-4.5,7.492349231524489
2.422958762886598,-4.6,-4.5,7.483561799025717
2.430955326460481,-4.6,-4.5,7.474774366526944
2.4389518900343643,-4.6,-4.5,7.465986934028171
2.4469484536082473,-4.6,-4.5,7.457199501529399
2.4549450171821308,-4.6,-4.5,7.448412069030626
2.4629415807560138,-4.6,-4.5,7.439624636531853
2.470938144329897,-4.6,-4.5,7.430837204033081
2.4789347079037802,-4.6,-4.5,7.422049771534308
2.4869312714776632,-4.6,-4.5,7.413262339035535
2.4949278350515462,-4.6,-4.5,7.4044749065367625
2.5029243986254297,-4.6,-4.4,7.5
2.5109209621993127,-4.594651128044225,-4.4,7.5
2.5189175257731957,-4.585959211116091,-4.4,7.5
2.526914089347079,-4.577267294187957,-4.4,7.5
2.534910652920962,-4.568575377259823,-4.4,7.5
2.542907216494845,-4.559883460331689,-4.4,7.5
2.5509037800687286,-4.551191543403555,-4.4,7.5
2.5589003436426117,-4.542499626475422,-4.4,7.5
2.5668969072164947,-4.533807709547288,-4.4,7.5
2.574893470790378,-4.525115792619154,-4.4,7.5
2.582890034364261,-4.516423875691021,-4.4,7.5
2.590886597938144,-4.507731958762887,-4.4,7.5
2.5988831615120276,-4.588316151202742,-4.311683848797258,7.5
2.6068797250859106,-4.6,-4.4,7.5
2.6148762886597936,-4.5,-4.4,7.5
2.622872852233677,-4.5,-4.4,7.5
2.63086941580756,-4.5,-4.4,7.5
2.638865979381443,-4.5,-4.4,7.5
2.6468625429553265,-4.5,-4.4,7.5
2.6548591065292095,-4.5,-4.4,7.5
2.6628556701030925,-4.5,-4.4,7.5
2.670852233676976,-4.5,-4.4,7.5
2.678848797250859,-4.5,-4.4,7.5
2.6868453608247425,-4.5,-4.4,7.5
2.6948419243986255,-4.5,-4.4,7.5
2.7028384879725085,-4.6,-4.4,7.40441309459215
2.710835051546392,-4.6,-4.4,7.4465002712968
2.718831615120275,-4.6,-4.4,7.4885874480014465
2.726828178694158,-4.6,-4.402504354375559,7.5
2.7348247422680414,-4.6,-4.413458551052112,7.5
2.7428213058419244,-4.6,-4.424412747728664,7.5
2.7508178694158074,-4.6,-4.4353669444052155,7.5
2.758814432989691,-4.6,-4.446321141081769,7.5
2.766810996563574,-4.6,-4.45727533775832,7.5
2.774807560137457,-4.6,-4.468229534434872,7.5
2.7828041237113403,-4.6,-4.4791837311114255,7.5
2.7908006872852233,-4.6,-4.490137927787977,7.5
2.7987972508591064,-4.6,-4.46013745704468,7.5
2.80679381443299,-4.6,-4.439690721649493,7.5
2.814790378006873,-4.6,-4.406095134744077,7.5
2.822786941580756,-4.6,-4.414512570085006,7.5
2.8307835051546393,-4.6,-4.422930005425936,7.5
2.8387800687285223,-4.6,-4.431347440766865,7.5
2.8467766323024053,-4.6,-4.4397648761077955,7.5
2.8547731958762887,-4.6,-4.448182311448726,7.5
2.8627697594501718,-4.6,-4.456599746789655,7.5
2.8707663230240548,-4.6,-4.465017182130584,7.5
2.878762886597938,-4.6,-4.473434617471514,7.5
2.8867594501718212,-4.6,-4.481852052812443,7.5
2.8947560137457042,-4.6,-4.490269488153373,7.5
2.9027525773195877,-4.6,-4.4986869234943025,7.5
2.9107491408934707,-4.699148703530147,-4.595743517650735,9.421282411746324
2.9187457044673537,-4.690061699468917,-4.550308497344582,9.64845751327709
2.926742268041237,-4.680974695407685,-4.5048734770384256,9.87563261480787
2.93473883161512,-4.671887691346455,-4.459438456732272,10.102807716338637
2.942735395189003,-4.662800687285224,-4.414003436426119,10.329982817869404
2.9507319587628866,-4.653713683223993,-4.368568416119963,10.557157919400183
2.9587285223367696,-4.644626679162762,-4.32313339581381,10.784333020930951
2.966725085910653,-4.635539675101531,-4.277698375507653,11.01150812246173
2.974721649484536,-4.6264526710403,-4.2322633552015,11.238683223992497
2.982718213058419,-4.617365666979069,-4.186828334895346,11.465858325523264
2.9907147766323026,-4.608278662917838,-4.141393314589191,11.693033427054043
2.9987113402061856,-4.659278350515447,-4.384536082474151,12.397938144329764
3.0067079037800686,-5.257961053837334,-7.49289805269181,17.4990836197021
3.014704467353952,-5.724427262313868,-10.424971363115741,21.630641466208544
3.022701030927835,-4.955817378497788,-12.132547864506634,7.62268041237113
3.030697594501718,-4.748114428526801,-12.755656714419596,7.259200249921903
3.0386941580756015,-4.540411478555803,-13.378765564332593,6.895720087472655
3.0466907216494845,-4.332708528584815,-14.001874414245554,6.532239925023426
3.0546872852233675,-4.125005578613828,-14.624983264158516,6.168759762574199
3.062683848797251,-3.9173026286428287,-15.248092114071513,5.80527960012495
3.070680412371134,-3.7095996786718413,-15.871200963984474,5.441799437675723
3.078676975945017,-3.5018967287008542,-16.494309813897438,5.0783192752264945
3.0866735395189004,-3.294193778729855,-17.117418663810433,4.714839112777247
3.0946701030927835,-3.086490828758868,-17.740527513723396,4.351358950328018
3.1026666666666665,0.7916666666666343,-11.67083333333347,9.162500000000048
3.11066323024055,3.2886949390815334,-6.192463292721023,6.085680256169942
3.118659793814433,3.152389878163073,-6.1015932521087155,5.913027179006559
3.126656357388316,3.0160848172446126,-6.010723211496408,5.740374101843176
3.1346529209621994,2.879779756326145,-5.919853170884097,5.567721024679783
3.1426494845360824,2.7434746954076847,-5.82898313027179,5.3950679475164005
3.1506460481099654,2.6071696344892246,-5.738113089659484,5.222414870353018
3.158642611683849,2.470864573570757,-5.647243049047171,5.049761793189625
3.166639175257732,2.334559512652296,-5.556373008434864,4.8771087160262425
3.174635738831615,2.1982544517338365,-5.465502967822558,4.704455638862859
3.1826323024054983,2.0619493908153683,-5.3746329272102455,4.531802561699466
3.1906288659793813,1.9256443298969081,-5.283762886597939,4.359149484536084
3.198625429553265,1.45601374570438,-5.325085910652953,3.449484536082284
3.206621993127148,0.5843032923179252,-3.0174407863134163,1.7790710564239003
3.214618556701031,0.5069171932158316,-3.1034253408712984,1.6758895909544422
3.2226151202749143,0.4295310941137336,-3.189409895429185,1.5727081254849782
3.2306116838487973,0.35214499501164,-3.2753944499870666,1.46952666001552
3.2386082474226803,0.27475889590954633,-3.3613790045449488,1.3663451945460618
3.2466048109965637,0.19737279680744835,-3.4473635591028353,1.2631637290765978
3.2546013745704467,0.11998669770535475,-3.533348113660717,1.1599822636071395
3.2625979381443297,0.04260059860326104,-3.6193326682185987,1.0568007981376812
3.270594501718213,-0.034785500498836885,-3.7053172227764852,0.9536193326682173
3.278591065292096,-0.11217159960093048,-3.7913017773343674,0.8504378671987591
3.286587628865979,-0.1895576987030242,-3.877286331892249,0.7472564017293009
3.2945841924398627,-0.2669437978051221,-3.9632708864501356,0.644074936259837
3.3025807560137457,-0.2,-3.925773195876291,-0.6790378006872847
3.3105773195876287,-0.2,-2.536752045913491,-0.8
3.318573883161512,-0.2,-2.446069366209658,-0.8
3.326570446735395,-0.2,-2.35538668650583,-0.8
3.334567010309278,-0.2,-2.264704006802002,-0.8
3.3425635738831616,-0.2,-2.174021327098169,-0.8
3.3505601374570446,-0.2,-2.083338647394341,-0.8
3.3585567010309276,-0.2,-1.9926559676905131,-0.8
3.366553264604811,-0.2,-1.9019732879866802,-0.8
3.374549828178694,-0.2,-1.8112906082828522,-0.8
3.382546391752577,-0.2,-1.7206079285790241,-0.8
3.3905429553264606,-0.2,-1.6299252488751912,-0.8
3.3985395189003436,-0.2,-1.5392425691713632,-0.8
3.4065360824742266,-0.16975945017182315,-1.3790378006872925,-0.7697594501718231
3.41453264604811,-0.11644902634593232,-1.1657961053837294,-0.7164490263459323
3.422529209621993,-2.391065292096114,1.1525773195872826,-1.9381443298968206
3.430525773195876,-3.1470883254388426,4.152744497074383,-2.846921147952068
3.4385223367697595,-3.082251323488437,4.584991176743757,-3.14949382372063
3.4465189003436425,-3.017414321538034,5.017237856413107,-3.452066499489175
3.4545154639175255,-2.9525773195876317,5.449484536082457,-3.7546391752577204
3.462512027491409,-2.8877403176372254,5.881731215751831,-4.057211851026282
3.470508591065292,-2.8229033156868226,6.313977895421181,-4.359784526794828
3.4785051546391754,-2.7580663137364168,6.746224575090555,-4.662357202563389
3.4865017182130584,-2.6932293117860144,7.178471254759906,-4.964929878331935
3.4944982817869414,-2.6283923098356117,7.610717934429255,-5.26750255410048
3.502494845360825,-9.015463917526402,10.205154639175163,4.8943298969077755
3.510491408934708,-12.595088774341349,5.985509736540724,8.5945160366552
3.518487972508591,-12.803332617411218,2.0205469644904035,9.335864117983938
3.5264845360824744,-13.0115764604811,-1.944415807560139,10.077212199312715
3.5344810996563574,-13.21982030355097,-5.909378579610459,10.818560280641453
3.5424776632302404,-13.428064146620839,-9.874341351660782,11.559908361970189
3.550474226804124,-13.63630798969072,-13.839304123711322,12.301256443298968
3.558470790378007,-13.84455183276059,-17.804266895761643,13.042604524627702
3.56646735395189,-14.052795675830462,-21.769229667811967,13.78395260595644
3.5744639175257733,-14.261039518900342,-25.734192439862507,14.525300687285217
3.5824604810996563,-14.469283361970213,-29.699155211912828,15.266648768613955
3.5904570446735393,-14.677527205040082,-33.66411798396315,16.007996849942693
3.5984536082474228,-14.885771048109962,-37.62908075601369,16.74934493127147
3.606450171821306,-8.001786941580768,-2.5019243986253787,4.732577319587653
3.614446735395189,-3.453303574591706,-21.242427463067283,-3.8166294682396322
3.6224432989690722,-3.1894994154532825,-20.599404825167376,-3.486874269316603
3.6304398625429553,-2.925695256314874,-19.956382187267508,-3.1571190703935925
3.6384364261168383,-2.6618910971764653,-19.313359549367636,-2.827363871470582
3.6464329896907217,-2.398086938038042,-18.67033691146773,-2.4976086725475524
3.6544295532646047,-2.1342827788996335,-18.027314273567857,-2.167853473624542
3.6624261168384877,-1.8704786197612249,-17.384291635667985,-1.8380982747015313
3.670422680412371,-1.6066744606228016,-16.74126899776808,-1.5083430757785021
3.678419243986254,-1.342870301484393,-16.09824635986821,-1.1785878768554912
3.686415807560137,-1.0790661423459844,-15.455223721968338,-0.8488326779324806
3.6944123711340207,-0.8152619832075612,-14.81220108406843,-0.5190774790094514
3.7024089347079037,-0.5514578240691526,-14.16917844616856,-0.18932228008644092
3.710405498281787,1.5352233676978382,-3.5378006872851206,3.5027491408935987
3.71840206185567,-0.42096219931271506,-7.915721649484537,1.6842783505154637
3.726398625429553,-0.4590410734740627,-7.944280805105548,1.655719194894453
3.7343951890034366,-0.49711994763541245,-7.972839960726559,1.6271600392734407
3.7423917525773196,-0.53519882179676,-8.00139911634757,1.59860088365243
3.7503883161512026,-0.5732776959581076,-8.02995827196858,1.5700417280314192
3.758384879725086,-0.6113565701194574,-8.058517427589592,1.5414825724104069
3.766381443298969,-0.649435444280805,-8.087076583210603,1.5129234167893961
3.774378006872852,-0.6875143184421527,-8.115635738831614,1.4843642611683854
3.7823745704467355,-0.7255931926035024,-8.144194894452626,1.455805105547373
3.7903711340206185,-0.76367206676485,-8.172754050073637,1.4272459499263623
3.7983676975945015,-0.7969358533791542,-8.175486827033232,1.4398339060709962
3.806364261168385,-0.7302978235967921,-7.642382588774336,2.306128293241703
3.814360824742268,-0.1360824742267991,-9.090206185566998,4.0
3.822357388316151,-0.29301385899324045,-9.49301385899324,4.048902987047317
3.8303539518900345,-0.28422642649446744,-9.484226426494468,4.110415014538728
3.8383505154639175,-0.27543899399569494,-9.475438993995695,4.171927042030135
3.8463470790378005,-0.26665156149692243,-9.466651561496922,4.233439069521543
3.854343642611684,-0.2578641289981494,-9.45786412899815,4.294951097012954
3.862340206185567,-0.24907669649937692,-9.449076696499377,4.356463124504362
3.87033676975945,-0.2402892640006044,-9.440289264000604,4.417975151995769
3.8783333333333334,-0.2315018315018314,-9.431501831501832,4.4794871794871804
3.8863298969072164,-0.22271439900305887,-9.422714399003059,4.540999206978588
3.8943264604810994,-0.21392696650428636,-9.413926966504286,4.602511234469996
3.902323024054983,-0.20513953400551335,-9.405139534005514,4.664023261961407
3.910319587628866,0.03195876288657825,-8.604123711340264,5.4917525773194695
3.918316151202749,0.3039953628948781,-9.268037096840976,6.3800231855256095
3.9263127147766324,0.31362977683931603,-9.190961785285472,6.3318511158034205
3.9343092783505154,0.32326419078375335,-9.113886473729973,6.283679046081233
3.9423058419243984,0.33289860472819066,-9.036811162174475,6.235506976359047
3.950302405498282,0.3425330186726286,-8.959735850618973,6.187334906636858
3.958298969072165,0.3521674326170659,-8.882660539063473,6.139162836914671
3.966295532646048,0.36180184656150327,-8.805585227507974,6.090990767192484
3.9742920962199313,0.37143626050594114,-8.728509915952472,6.042818697470294
3.9822886597938143,0.38107067445037845,-8.651434604396972,5.994646627748108
3.9902852233676978,0.3907050883948163,-8.57435929284147,5.946474558025919
3.9982817869415808,0.4,-8.476517754868286,5.8859106529209715
4.006278350515464,0.2860824742267938,-8.113917525773207,5.4860824742267935
4.014274914089347,-0.8028649754816785,-9.079945171628252,6.11575736514923
4.02227147766323,-0.8208347812656851,-8.954156531140205,6.2145912969612676
4.030268041237114,-0.8388045870496937,-8.828367890652144,6.3134252287733155
4.038264604810997,-0.8567743928337004,-8.702579250164098,6.412259160585352
4.04626116838488,-0.8747441986177071,-8.576790609676051,6.511093092397389
4.054257731958763,-0.8927140044017138,-8.451001969188004,6.6099270242094255
4.062254295532646,-0.9106838101857204,-8.325213328699958,6.708760956021463
4.070250859106529,-0.9286536159697272,-8.19942468821191,6.807594887833499
4.078247422680413,-0.9466234217537358,-8.07363604772385,6.906428819645547
4.086243986254296,-0.9645932275377425,-7.947847407235803,7.005262751457583
4.094240549828179,-0.9825630333217491,-7.822058766747756,7.104096683269621
4.102237113402062,-0.9051546391754537,-7.984536082473639,7.354123711339888
4.110233676975945,0.2,-6.4542569211166585,6.812475385150002
4.118230240549829,0.2,-6.157755125680516,6.893339511178041
4.126226804123712,0.2,-5.861253330244405,6.974203637206071
4.134223367697595,0.2,-5.564751534808295,7.055067763234101
4.142219931271478,0.2,-5.268249739372185,7.135931889262132
4.150216494845361,0.2,-4.971747943936075,7.216796015290162
4.158213058419244,0.2,-4.675246148499964,7.297660141318191
4.1662096219931275,0.2,-4.378744353063821,7.378524267346231
4.1742061855670105,0.2,-4.082242557627711,7.459388393374261
4.1822027491408935,0.2,-3.785740762191601,7.540252519402291
4.1901993127147765,0.2,-3.489238966755491,7.6211166454303205
4.1981958762886595,0.15103092783521066,-3.239175257731832,7.602061855670422
4.2061924398625425,0.5,-1.2499427262314868,7.851947308132832
4.214189003436426,0.2766786362407785,0.8291517046990269,8.888339318120389
4.2221855670103094,0.24073902467276515,0.8740762191590437,8.870369512336383
4.2301821305841925,0.20479941310475178,0.9190007336190603,8.852399706552376
4.2381786941580755,0.1688598015367384,0.963925248079077,8.834429900768368
4.2461752577319585,0.13292018996872507,1.0088497625390938,8.816460094984363
4.2541718213058415,0.0969805784007117,1.0537742769991105,8.798490289200355
4.262168384879725,0.06104096683269436,1.0986987914591322,8.780520483416346
4.270164948453608,0.02510135526468099,1.1436233059191487,8.76255067763234
4.278161512027491,-0.01083825630333235,1.1885478203791655,8.744580871848333
4.286158075601374,-0.04677786787134569,1.233472334839182,8.726611066064327
4.294154639175257,-0.08271747943935903,1.2783968492991988,8.70864126028032
4.30215120274914,-0.6890034364259643,-2.243642611683733,10.538487972508237
4.310147766323024,3.3426116838487707,-4.31380419682677,12.689273963588464
4.318144329896907,2.9427835051546216,-4.0245667909629175,12.051250274182905
4.32614089347079,2.5429553264604725,-3.735329385099065,11.413226584777348
4.334137457044673,2.1431271477663234,-3.4460919792352125,10.775202895371791
4.342134020618556,1.743298969072174,-3.1568545733713598,10.137179205966234
4.35013058419244,1.3434707903779808,-2.867617167507475,9.499155516560606
4.358127147766323,0.9436426116838317,-2.578379761643623,8.861131827155049
4.366123711340206,0.5438144329896821,-2.28914235577977,8.223108137749492
4.374120274914089,0.14398625429553302,-1.9999049499159174,7.585084448343935
4.382116838487972,-0.2558419243986161,-1.7106675440520647,6.9470607589383775
4.390113402061855,-0.6556701030927647,-1.4214301381882124,6.30903706953282
4.398109965635739,-1.0554982817869587,-1.1321927323243277,5.671013380127192
4.406106529209622,-0.42090492554411035,-2.3155784650630147,9.257789232531508
4.414103092783505,0.1,-0.7860121836925964,9.9
4.422099656357388,0.1,-0.7587511715089044,9.9
4.430096219931271,0.1,-0.7314901593252123,9.9
4.438092783505154,0.1,-0.7042291471415203,9.9
4.446089347079038,0.1,-0.6769681349578252,9.9
4.454085910652921,0.1,-0.6497071227741331,9.9
4.462082474226804,0.1,-0.6224461105904411,9.9
4.470079037800687,0.1,-0.595185098406749,9.9
4.47807560137457,0.1,-0.567924086223057,9.9
4.486072164948453,0.1,-0.5406630740393649,9.9
4.494068728522337,0.1,-0.5134020618556698,9.9
4.50206529209622,0.6,-0.7065292096219867,10.0
4.510061855670103,0.6,-0.7411512027491397,10.11769759450172
4.518058419243986,0.5926303150747315,-0.685260630149463,10.196315157537365
4.526054982817869,0.5733614871858569,-0.6467229743717137,10.186680743592929
4.534051546391752,0.5540926592969821,-0.6081853185939643,10.17704632964849
4.542048109965636,0.5348238314081053,-0.5696476628162107,10.167411915704053
4.550044673539519,0.5155550035192307,-0.5311100070384613,10.157777501759615
4.558041237113402,0.49628617563035604,-0.49257235126071197,10.148143087815177
4.566037800687285,0.47701734774148136,-0.4540346954829626,10.13850867387074
4.574034364261168,0.4577485198526067,-0.4154970397052133,10.128874259926302
4.582030927835051,0.438479691963732,-0.3769593839274639,10.119239845981866
4.590027491408935,0.4192108640748552,-0.3384217281497103,10.109605432037426
4.598024054982818,0.3975945017181908,-0.3,10.095189003436381
4.606020618556701,-0.10004482294935023,-0.5000896458987004,9.9
4.614017182130584,-0.11742865680561754,-0.5348573136112351,9.9
4.622013745704467,-0.13481249066188483,-0.5696249813237697,9.9
4.630010309278351,-0.1521963245181541,-0.6043926490363082,9.9
4.638006872852234,-0.1695801583744214,-0.6391603167488428,9.9
4.646003436426117,-0.1869639922306887,-0.6739279844613775,9.9
4.654,-0.204347826086956,-0.7086956521739121,9.9
4.661996563573883,-0.22173165994322333,-0.7434633198864466,9.9
4.669993127147766,-0.23911549379949062,-0.7782309875989812,9.9
4.67798969072165,-0.2564993276557599,-0.8129986553115198,9.9
4.685986254295533,-0.2738831615120272,-0.8477663230240544,9.9
4.693982817869416,-0.2912669953682945,-0.882533990736589,9.9
4.701979381443299,-0.2,-0.9,9.860412371134027
4.709975945017182,-0.1978045055364648,-0.8,9.8
4.717972508591065,-0.18891943489881702,-0.8,9.8
4.725969072164949,-0.18003436426116823,-0.8,9.8
4.733965635738832,-0.1711492936235204,-0.8,9.8
4.741962199312715,-0.16226422298587262,-0.8,9.8
4.749958762886598,-0.1533791523482248,-0.8,9.8
4.757955326460481,-0.144494081710577,-0.8,9.8
4.765951890034364,-0.13560901107292922,-0.8,9.8
4.773948453608248,-0.1267239404352804,-0.8,9.8
4.781945017182131,-0.11783886979763261,-0.8,9.8
4.789941580756014,-0.10895379915998481,-0.8,9.8
4.797938144329897,-0.10006872852233702,-0.8,9.8
4.80593470790378,-0.004116399795275506,-1.091767200409449,9.8
4.813931271477663,-0.021130364846090523,-1.057739270307819,9.8
4.821927835051547,-0.038144329896907435,-1.0237113402061853,9.8
4.82992439862543,-0.05515829494772245,-0.9896834101045552,9.8
4.837920962199313,-0.07217225999853746,-0.9556554800029251,9.8
4.845917525773196,-0.08918622504935249,-0.9216275499012951,9.8
4.853914089347079,-0.10620019010016751,-0.8875996197996651,9.8
4.861910652920962,-0.12321415515098252,-0.853571689698035,9.8
4.869907216494846,-0.14022812020179942,-0.8195437595964012,9.8
4.877903780068729,-0.15724208525261446,-0.7855158294947711,9.8
4.885900343642612,-0.17425605030342947,-0.7514878993931411,9.8
4.893896907216495,-0.19127001535424448,-0.717459969291511,9.8
4.901893470790378,-0.09187753826929258,-0.7837550765385852,9.908122461730708
4.9098900343642615,-0.019181505779439764,-0.6383630115588795,9.98081849422056
4.9178865979381445,-0.10462690230731525,-0.8138807069219458,9.8
4.9258831615120275,-0.1141466208476521,-0.8424398625429563,9.8
4.9338797250859106,-0.12366633938798896,-0.870999018163967,9.8
4.941876288659794,-0.13318605792832583,-0.8995581737849775,9.8
4.949872852233677,-0.14270577646866267,-0.9281173294059881,9.8
4.9578694158075605,-0.1522254950090006,-0.9566764850270018,9.8
4.9658659793814435,-0.16174521354933746,-0.9852356406480124,9.8
4.9738625429553265,-0.1712649320896743,-1.013794796269023,9.8
4.9818591065292095,-0.18078465063001115,-1.0423539518900335,9.8
4.9898556701030925,-0.19030436917034801,-1.070913107511044,9.8
4.9978522336769755,-0.19982408771068488,-1.0994722631320548,9.8
5.005848797250859,-0.1,-0.8940361379004522,9.705963862099548
5.013845360824742,-0.1,-0.8682407715330879,9.731759228466911
5.021841924398625,-0.1,-0.8424454051657235,9.757554594834275
5.029838487972508,-0.1,-0.8166500387983593,9.78334996120164
5.037835051546391,-0.1,-0.7908546724309949,9.809145327569004
5.0458316151202744,-0.1,-0.7650593060636306,9.83494069393637
5.053828178694158,-0.1,-0.7392639396962635,9.860736060303736
5.061824742268041,-0.1,-0.7134685733288991,9.8865314266711
5.069821305841924,-0.1,-0.6876732069615349,9.912326793038465
5.077817869415807,-0.1,-0.6618778405941705,9.938122159405829
5.08581443298969,-0.1,-0.6360824742268063,9.963917525773194
5.093810996563573,-0.1,-0.6102871078594418,9.989712892140558
5.101807560137457,-0.1,-0.49037800687285193,9.790378006872853
5.10980412371134,-0.0918707044673542,-0.46748281786941676,9.816258591065292
5.117800687285223,-0.0835409507445594,-0.4341638029782376,9.832918098510882
5.125797250859106,-0.07521119702176461,-0.4008447880870584,9.84957760595647
5.133793814432989,-0.0668814432989698,-0.3675257731958792,9.866237113402061
5.141790378006873,-0.05855168957617409,-0.33420675830469637,9.882896620847653
5.149786941580756,-0.0502219358533793,-0.3008877434135172,9.899556128293241
5.157783505154639,-0.04189218213058451,-0.26756872852233804,9.916215635738832
5.165780068728522,-0.03356242840778971,-0.23424971363115882,9.93287514318442
5.173776632302405,-0.02523267468499492,-0.20093069873997965,9.94953465063001
5.181773195876288,-0.016902920962200127,-0.16761168384880049,9.9661941580756
5.189769759450172,-0.008573167239404406,-0.1342926689576176,9.98285366552119
5.197766323024055,-0.00024341351660961408,-0.10097365406643843,9.99951317296678
5.205762886597938,-0.2,0.19624917745119483,9.898124588725597
5.213759450171821,-0.2,0.17923521240037998,9.88961760620019
5.221756013745704,-0.2,0.1622212473495651,9.881110623674783
5.229752577319587,-0.2,0.14520728229875024,9.872603641149375
5.237749140893471,-0.2,0.1281933172479335,9.864096658623968
5.245745704467354,-0.2,0.11117935219711865,9.85558967609856
5.253742268041237,-0.2,0.09416538714630379,9.847082693573153
5.26173883161512,-0.2,0.07715142209548893,9.838575711047746
5.269735395189003,-0.2,0.060137457044674075,9.830068728522338
5.277731958762886,-0.2,0.0431234919938592,9.82156174599693
5.28572852233677,-0.2,0.02610952694304247,9.813054763471522
5.293725085910653,-0.2,0.0090955618922276,9.804547780946114
5.301721649484536,-0.10601374570446608,0.23006872852233035,9.893986254295534
5.309718213058419,-0.1726517754868269,0.5632588774341343,9.827348224513173
5.317714776632302,-0.29345836956071875,1.673833478242875,10.0
5.325711340206185,-0.2741895416718439,1.5967581666873756,10.0
5.333707903780069,-0.2549207137829669,1.5196828551318675,10.0
5.341704467353952,-0.23565188589409197,1.442607543576368,10.0
5.349701030927835,-0.2163830580052171,1.3655322320208683,10.0
5.357697594501718,-0.19711423011634222,1.2884569204653689,10.0
5.365694158075601,-0.17784540222746734,1.2113816089098695,10.0
5.373690721649485,-0.15857657433859032,1.1343062973543612,10.0
5.381687285223368,-0.13930774644971544,1.0572309857988618,10.0
5.389683848797251,-0.12003891856084056,0.9801556742433623,10.0
5.397680412371134,-0.10077009067196568,0.9030803626878627,10.0
5.405676975945017,-0.2192439862543047,-0.4453608247422516,9.632302405498278
5.4136735395189,-0.11891179839633202,0.9252157311951094,9.993696067201222
5.421670103092784,-0.14556701030927838,0.9607560137457045,9.984810996563574
5.429666666666667,-0.1722222222222218,0.9962962962962958,9.975925925925926
5.43766323024055,-0.19887743413516523,1.031836578846887,9.967040855288278
5.445659793814433,-0.22553264604810863,1.0673768613974781,9.95815578465063
5.453656357388316,-0.25218785796105203,1.1029171439480694,9.949270714012982
5.461652920962199,-0.27884306987399543,1.1384574264986607,9.940385643375334
5.469649484536083,-0.3054982817869418,1.1739977090492557,9.931500572737686
5.477646048109966,-0.3321534936998852,1.209537991599847,9.922615502100038
5.485642611683849,-0.3588087056128286,1.2450782741504383,9.91373043146239
5.493639175257732,-0.385463917525772,1.2806185567010293,9.904845360824742
5.501635738831615,0.6914089347081211,0.14570446735406056,9.936426116838515
5.509632302405498,-0.264049133581926,0.341942677487753,9.817975433209037
5.517628865979382,-0.21300723842947572,0.4014915551656116,9.843496380785263
5.525625429553265,-0.16196534327703116,0.46104043284346363,9.869017328361485
5.533621993127148,-0.1109234481245866,0.5205893105213155,9.894538275937707
5.541618556701031,-0.05988155297214201,0.5801381881991676,9.92005922351393
5.549615120274914,-0.008839657819697422,0.6396870658770195,9.945580171090151
5.557611683848797,0.04220223733274714,0.6992359435548716,9.971101118666374
5.565608247422681,0.09324413248519736,0.7587848212327302,9.9966220662426
5.573604810996564,0.14428602763764192,0.8183336989105823,10.022143013818821
5.581601374570447,0.19532792279008648,0.8778825765884342,10.047663961395044
5.58959793814433,0.24636981794253104,0.937431454266286,10.073184908971266
5.597594501718213,0.29741171309497566,0.9969803319441382,10.098705856547488
5.605591065292096,-0.18178694158092815,0.5226804123713922,9.870446735395232
5.61358762886598,-0.22414541508410338,0.8919515283052989,9.991951528305298
5.621584192439863,-0.2662325917887508,0.8779224694037497,9.97792246940375
5.629580756013746,-0.3083197684933983,0.8638934105022006,9.9638934105022
5.637577319587629,-0.35040694519804577,0.8498643516006514,9.949864351600652
5.645573883161512,-0.3924941219026932,0.8358352926991023,9.935835292699103
5.6535704467353955,-0.4345812986073454,0.8218062337975516,9.921806233797552
5.661567010309279,-0.47666847531199286,0.8077771748960024,9.907777174896003
5.669563573883162,-0.5187556520166403,0.7937481159944533,9.893748115994454
5.677560137457045,-0.5608428287212878,0.7797190570929041,9.879719057092904
5.685556701030928,-0.6029300054259352,0.765689998191355,9.865689998191355
5.693553264604811,-0.6450171821305828,0.7516609392898057,9.851660939289806
5.7015498281786945,-0.6871043588352348,0.7376318803882551,9.837631880388255
5.7095463917525775,-0.7291915355398824,0.7236028214867058,9.823602821486707
5.7175429553264605,-0.7712787122445297,0.7095737625851568,9.809573762585158
5.7255395189003435,-0.3615120274914157,0.7486827033218876,9.887170675830472
5.7335360824742265,-0.16159793814433324,0.48213058419244437,9.820532646048111
5.7415326460481095,0.0005935645110855953,0.14851608872228605,9.8
5.749529209621993,-0.2043581968870075,0.7012451991105735,9.800622599555288
5.757525773195876,-0.270212249848397,0.7200606428138276,9.810030321406915
5.7655223367697594,-0.3360663028097865,0.7388760865170818,9.819438043258542
5.7735189003436425,-0.401920355771176,0.757691530220336,9.828845765110168
5.7815154639175255,-0.4677744087325655,0.7765069739235901,9.838253486961795
5.7895120274914085,-0.5336284616939551,0.7953224176268443,9.847661208813422
5.797508591065292,-0.5994825146553519,0.8141378613301006,9.85706893066505
5.805505154639175,-0.6653365676167413,0.8329533050333546,9.866476652516678
5.813501718213058,-0.7311906205781309,0.8517687487366088,9.875884374368304
5.821498281786941,-0.7970446735395202,0.870584192439863,9.885292096219931
5.829494845360824,-0.8628987265009098,0.8893996361431171,9.894699818071558
5.837491408934707,-0.2491408934707281,0.5508591065292718,9.774570446735364
5.845487972508591,0.12958568371911294,1.0718342734876452,9.790611424495882
5.853484536082474,-0.09673215327757628,0.9813071386889696,9.760435712896324
5.861481099656357,-0.32304999027426545,0.8907800038902939,9.730260001296765
5.86947766323024,-0.5493678272709548,0.8002528690916182,9.700084289697207
5.877474226804123,-0.775685664267644,0.7097257342929425,9.669908578097647
5.885470790378006,-1.0020035012643331,0.6191985994942668,9.639732866498088
5.89346735395189,-1.2283213382610476,0.528671464695581,9.609557154898527
5.901463917525773,-0.6128129602356156,1.6480117820323779,9.994403534609713
5.909460481099656,0.1,1.0120364559988055,9.8
5.917457044673539,0.1,1.0398505901688333,9.8
5.925453608247422,0.1,1.067664724338861,9.8
5.933450171821306,0.1,1.095478858508892,9.8
5.941446735395189,0.1,1.1232929926789197,9.8
5.949443298969072,0.1,1.1511071268489474,9.8
5.957439862542955,0.1,1.1789212610189754,9.8
5.965436426116838,0.1,1.2067353951890032,9.8
5.973432989690721,0.1,1.234549529359031,9.8
5.981429553264605,0.1,1.2623636635290618,9.8
5.989426116838488,0.1,1.2901777976990896,9.8
5.997422680412371,0.1,1.3179919318691176,9.8
6.005419243986254,0.1,1.3458060660391453,9.8
6.013415807560137,0.1,1.373620200209173,9.8
6.02141237113402,-0.3123711340201242,1.1525773195879254,9.758762886597987
6.029408934707904,-1.5518213058419215,1.6625276823214943,9.805353188239787
6.037405498281787,-1.3918900343642608,1.5381366933944252,9.823123329515083
6.04540206185567,-1.2319587628866004,1.4137457044673558,9.840893470790379
6.053398625429553,-1.07202749140894,1.2893547155402867,9.858663612065675
6.061395189003436,-0.9120962199312795,1.1649637266132173,9.876433753340969
6.069391752577319,-0.752164948453619,1.0405727376861482,9.894203894616265
6.077388316151203,-0.7,1.1796105383734379,9.85509736540664
6.085384879725086,-0.7692439862542961,1.1922680412371116,9.8
6.093381443298969,-0.4,1.1031900408480841,9.8
6.101378006872852,-0.4,1.1107339687479738,9.8
6.109374570446735,-0.4,1.1182778966478635,9.8
6.117371134020618,-0.4,1.1258218245477531,9.8
6.125367697594502,-0.4,1.1333657524476435,9.8
6.133364261168385,-0.4,1.1409096803475332,9.8
6.141360824742268,-0.4,1.1484536082474228,9.8
6.149357388316151,-0.4,1.1559975361473125,9.8
6.157353951890034,-0.4,1.1635414640472022,9.8
6.165350515463918,-0.4,1.1710853919470925,9.8
6.173347079037801,-0.4,1.1786293198469822,9.8
6.181343642611684,-0.4,1.1861732477468718,9.8
6.189340206185567,-0.4,1.1937171756467615,9.8
6.19733676975945,-0.567096219931273,1.2334192439862546,9.74987113402062
6.205333333333333,-1.2000000000000888,1.2000000000000888,9.766666666666548
6.213329896907217,-0.7663303355999099,0.5538714630401442,9.9
6.2213264604811,-0.7237954229728727,0.6219273232434037,9.9
6.229323024054983,-0.6812605103458356,0.6899831834466631,9.9
6.237319587628866,-0.6387255977187984,0.7580390436499226,9.9
6.245316151202749,-0.5961906850917613,0.826094903853182,9.9
6.253312714776632,-0.5536557724647242,0.8941507640564414,9.9
6.261309278350516,-0.5111208598376823,0.9622066242597085,9.9
6.269305841924399,-0.46858594721064517,1.030262484462968,9.9
6.277302405498282,-0.426051034583608,1.0983183446662272,9.9
6.285298969072165,-0.38351612195657087,1.1663742048694867,9.9
6.293295532646048,-0.34098120932953374,1.234430065072746,9.9
6.301292096219931,-0.15395189003465953,1.4022336769757384,9.75395189003466
6.309288659793815,-0.07577319587573639,0.42422680412426383,9.722164948453754
6.317285223367698,0.5208127894815429,1.1158374421036916,9.9
6.325281786941581,0.4338936202002063,1.133221275959959,9.9
6.333278350515464,0.3469744509188697,1.1506051098162262,9.9
6.341274914089347,0.2600552816375331,1.1679889436724935,9.9
6.34927147766323,0.17313611235619658,1.1853727775287608,9.9
6.357268041237114,0.0862169430748504,1.20275661138503,9.9
6.365264604810997,-0.0007022262064861895,1.2201404452412974,9.9
6.37326116838488,-0.08762139548782277,1.2375242790975647,9.9
6.381257731958763,-0.17454056476915936,1.254908112953832,9.9
6.389254295532646,-0.26145973405049583,1.2722919468100993,9.9
6.39725085910653,-0.34837890333184207,1.2896757806663683,9.9
6.405247422680413,0.05051546391750564,0.19793814432997747,9.77422680412374
6.413243986254296,-0.4,0.7711868887126634,9.894237377742533
6.421240549828179,-0.4,0.7272497262188004,9.88544994524376
6.429237113402062,-0.4,0.6833125637249373,9.876662512744987
6.437233676975945,-0.4,0.6393754012310744,9.867875080246215
6.4452302405498285,-0.4,0.5954382387372065,9.859087647747442
6.4532268041237115,-0.4,0.5515010762433434,9.85030021524867
6.4612233676975945,-0.4,0.5075639137494804,9.841512782749897
6.4692199312714775,-0.4,0.46362675125561736,9.832725350251124
6.4772164948453606,-0.4,0.4196895887617544,9.823937917752351
6.485213058419244,-0.4,0.37575242626789135,9.815150485253579
6.4932096219931275,-0.4,0.33181526377402343,9.806363052754806
6.5012061855670105,-0.1,0.051546391752538404,9.810309278350509
6.5092027491408935,-0.2975793965484683,0.592738189645405,9.897579396548469
6.5171993127147765,-0.2887919640496958,0.5663758921490875,9.888791964049696
6.5251958762886595,-0.2800045315509233,0.54001359465277,9.880004531550924
6.5331924398625425,-0.2712170990521508,0.5136512971564524,9.871217099052151
6.541189003436426,-0.2624296665533773,0.4872889996601319,9.862429666553378
6.549185567010309,-0.2536422340546048,0.4609267021638144,9.853642234054606
6.557182130584192,-0.24485480155583228,0.4345644046674968,9.844854801555833
6.565178694158075,-0.23606736905705977,0.4082021071711792,9.83606736905706
6.573175257731958,-0.22727993655828724,0.3818398096748617,9.827279936558288
6.581171821305841,-0.2184925040595147,0.3554775121785442,9.818492504059515
6.589168384879725,-0.20970507156074122,0.32911521468222366,9.809705071560742
6.597164948453608,-0.20091763906196872,0.30275291718590613,9.80091763906197
6.605161512027491,-0.2,0.5567697594501672,9.9
6.613158075601374,-0.2,0.5,9.894393396085462
6.621154639175257,-0.2,0.5,9.88570147915733
6.62915120274914,-0.2,0.5,9.877009562229196
6.637147766323024,-0.2,0.5,9.868317645301062
6.645144329896907,-0.2,0.5,9.859625728372928
6.65314089347079,-0.2,0.5,9.850933811444794
6.661137457044673,-0.2,0.5,9.84224189451666
6.669134020618556,-0.2,0.5,9.833549977588527
6.67713058419244,-0.2,0.5,9.824858060660391
6.685127147766323,-0.2,0.5,9.816166143732259
6.693123711340206,-0.2,0.5,9.807474226804125
6.701120274914089,-0.2,0.4439862542955409,9.8
6.709116838487972,-0.29769908860003,0.59539817720006,9.89769908860003
6.717113402061855,-0.2890071716718964,0.5780143433437928,9.889007171671897
6.725109965635739,-0.28031525474376173,0.5606305094875235,9.880315254743762
6.733106529209622,-0.2716233378156281,0.5432466756312562,9.87162333781563
6.741103092783505,-0.26293142088749444,0.5258628417749889,9.862931420887495
6.749099656357388,-0.2542395039593608,0.5084790079187216,9.854239503959361
6.757096219931271,-0.24554758703122712,0.49109517406245423,9.845547587031227
6.765092783505154,-0.23685567010309347,0.47371134020618694,9.836855670103095
6.773089347079038,-0.22816375317495885,0.4563275063499177,9.828163753174959
6.781085910652921,-0.2194718362468252,0.4389436724936504,9.819471836246827
6.789082474226804,-0.21077991931869156,0.4215598386373831,9.810779919318692
6.797079037800687,-0.2020880023905579,0.4041760047811158,9.802088002390558
6.80507560137457,-0.20378006872851928,0.3075601374570386,9.80378006872852
6.813072164948453,-0.29537253983130346,0.5907450796626069,9.8
6.821068728522337,-0.28628553577007176,0.5725710715401435,9.8
6.82906529209622,-0.27719853170884107,0.5543970634176821,9.8
6.837061855670103,-0.26811152764761037,0.5362230552952207,9.8
6.845058419243986,-0.2590245235863797,0.5180490471727593,9.8
6.853054982817869,-0.24993751952514903,0.49987503905029806,9.8
6.861051546391752,-0.24085051546391834,0.48170103092783667,9.8
6.869048109965636,-0.23176351140268664,0.4635270228053733,9.8
6.877044673539519,-0.22267650734145594,0.4453530146829119,9.8
6.885041237113402,-0.21358950328022527,0.42717900656045055,9.8
6.893037800687285,-0.2045024992189946,0.4090049984379892,9.8
6.901034364261168,-0.3,0.4,9.8
6.909030927835051,-0.2,0.5,9.9
6.917027491408935,-0.2,0.5,9.9
6.925024054982818,-0.2,0.5,9.9
6.933020618556701,-0.2,0.5,9.9
6.941017182130584,-0.2,0.5,9.9
6.949013745704467,-0.2,0.5,9.9
6.957010309278351,-0.2,0.5,9.9
6.965006872852234,-0.2,0.5,9.9
6.973003436426117,-0.2,0.5,9.9
6.981,-0.3,0.4,9.9
