accel_time_list,accel_x_list,accel_y_list,accel_z_list
0.0,2.7,-3.9,8.4
0.007995694294940797,3.198218130093803,-4.201781869906197,8.792872520375212
0.015991388589881594,3.191079117330463,-4.2089208826695375,8.764316469321852
0.02398708288482239,3.183940104567123,-4.216059895432878,8.735760418268493
0.03198277717976319,3.176801091803783,-4.223198908196217,8.707204367215132
0.039978471474703986,3.169662079040443,-4.230337920959557,8.678648316161771
0.04797416576964478,3.162523066277103,-4.237476933722897,8.650092265108412
0.055969860064585576,3.155384053513763,-4.244615946486237,8.621536214055052
0.06396555435952637,3.148245040750423,-4.251754959249577,8.592980163001693
0.07196124865446717,3.141106027987083,-4.258893972012917,8.564424111948332
0.07995694294940797,3.133967015223743,-4.266032984776257,8.535868060894972
0.08795263724434876,3.126828002460403,-4.273171997539597,8.507312009841613
0.09594833153928956,3.119688989697063,-4.280311010302937,8.478755958788252
0.10394402583423036,3.112549976933723,-4.287450023066277,8.450199907734891
0.11193972012917115,3.105410964170383,-4.294589035829617,8.421643856681532
0.11993541442411196,2.712917115177608,-3.622604951560813,8.303229278794403
0.12793110871905275,2.404065492040111,-3.8101637301002773,8.797967253979945
0.13592680301399354,2.420898532661039,-3.8522463316525974,8.789550733669481
0.14392249730893433,2.437731573281967,-3.8943289332049176,8.781134213359017
0.15191819160387515,2.454564613902895,-3.9364115347572373,8.772717693048552
0.15991388589881594,2.471397654523823,-3.9784941363095574,8.764301172738088
0.16790958019375674,2.488230695144751,-4.0205767378618775,8.755884652427625
0.17590527448869753,2.505063735765679,-4.062659339414197,8.747468132117161
0.18390096878363832,2.521896776386607,-4.104741940966517,8.739051611806696
0.1918966630785791,2.538729817007535,-4.1468245425188375,8.730635091496232
0.19989235737351993,2.555562857628463,-4.188907144071157,8.722218571185769
0.20788805166846072,2.572395898249391,-4.230989745623478,8.713802050875303
0.2158837459634015,2.589228938870319,-4.273072347175797,8.70538553056484
0.2238794402583423,3.043972012917115,-4.11205597416577,8.6
0.2318751345532831,2.608333931347925,-4.106250448510943,8.897916517163019
0.23987082884822392,2.6438703504365506,-4.132902762827412,8.889032412390863
0.2478665231431647,2.6794067695251766,-4.1595550771438825,8.880148307618706
0.2558622174381055,2.7149431886138022,-4.186207391460352,8.87126420284655
0.2638579117330463,2.750479607702428,-4.212859705776821,8.862380098074393
0.2718536060279871,2.786016026791054,-4.23951202009329,8.853495993302237
0.2798493003229279,2.8215524458796795,-4.266164334409759,8.84461188853008
0.28784499461786867,2.857088864968305,-4.292816648726229,8.835727783757925
0.29584068891280946,2.892625284056931,-4.319468963042699,8.826843678985767
0.3038363832077503,2.928161703145557,-4.346121277359168,8.817959574213612
0.3118320775026911,2.9636981222341827,-4.372773591675637,8.809075469441455
0.3198277717976319,2.9992345413228083,-4.399425905992107,8.800191364669299
0.3278234660925727,2.5529422317904555,-3.6294133476856834,8.552942231790455
0.33581916038751347,2.419680660208109,-3.4295209903121635,8.41968066020811
0.34381485468245426,2.408112922241017,-3.391887077758983,8.408112922241017
0.35181054897739505,2.4176316059254703,-3.3823683940745295,8.41763160592547
0.35980624327233585,2.4271502896099237,-3.372849710390076,8.427150289609925
0.36780193756727664,2.4366689732943767,-3.363331026705623,8.436668973294378
0.37579763186221743,2.44618765697883,-3.3538123430211697,8.44618765697883
0.3837933261571582,2.4557063406632835,-3.3442936593367163,8.455706340663284
0.39178902045209907,2.465225024347737,-3.334774975652263,8.465225024347736
0.39978471474703986,2.4747437080321903,-3.3252562919678095,8.474743708032191
0.40778040904198065,2.4842623917166438,-3.315737608283356,8.484262391716644
0.41577610333692144,2.493781075401097,-3.3062189245989027,8.493781075401097
0.42377179763186223,2.7885898815931123,-4.5315392895586735,9.168460710441325
0.431767491926803,3.0795245003978096,-4.363144100716058,8.008190199840875
0.4397631862217438,3.0360696400992184,-4.284925352178593,8.025572143960312
0.4477588805166846,2.9926147798006273,-4.206706603641129,8.04295408807975
0.4557545748116254,2.949159919502036,-4.128487855103665,8.060336032199185
0.4637502691065662,2.9057050592034446,-4.0502691065662,8.077717976318622
0.47174596340150704,2.862250198904853,-3.972050358028736,8.095099920438058
0.47974165769644783,2.818795338606262,-3.8938316094912713,8.112481864557495
0.4877373519913886,2.7753404783076707,-3.815612860953807,8.129863808676932
0.4957330462863294,2.7318856180090796,-3.737394112416343,8.147245752796367
0.5037287405812702,2.6884307577104885,-3.6591753638788793,8.164627696915804
0.511724434876211,2.644975897411897,-3.5809566153414143,8.18200964103524
0.5197201291711518,2.6015210371133053,-3.5027378668039493,8.199391585154677
0.5277158234660926,2.2,-3.111367061356298,8.688632938643702
0.5357115177610334,2.719038392536778,-4.0126922616911855,9.280961607463222
0.5437072120559742,2.7456907068532472,-4.030460471235498,9.254309293146754
0.551702906350915,2.772343021169717,-4.048228680779811,9.227656978830284
0.5596986006458557,2.798995335486186,-4.065996890324124,9.201004664513814
0.5676942949407966,2.8256476498026553,-4.083765099868437,9.174352350197346
0.5756899892357373,2.8522999641191245,-4.1015333094127495,9.147700035880876
0.5836856835306782,2.878952278435594,-4.119301518957062,9.121047721564407
0.5916813778256189,2.9056045927520633,-4.137069728501375,9.094395407247937
0.5996770721205598,2.9322569070685325,-4.154837938045689,9.067743092931467
0.6076727664155006,2.958909221385002,-4.172606147590002,9.041090778614999
0.6156684607104413,2.9855615357014713,-4.190374357134314,9.014438464298529
0.6236641550053822,2.700376749192671,-4.06679224973089,8.5
0.6316598493003229,2.7050105906455086,-4.289978818708983,8.305010590645509
0.6396555435952638,2.713608111392757,-4.272783777214486,8.313608111392757
0.6476512378902045,2.722205632140005,-4.25558873571999,8.322205632140005
0.6556469321851454,2.730803152887253,-4.238393694225493,8.330803152887254
0.6636426264800861,2.7394006736345013,-4.2211986527309975,8.339400673634502
0.6716383207750269,2.7479981943817493,-4.204003611236501,8.34799819438175
0.6796340150699677,2.7565957151289977,-4.186808569742005,8.356595715128998
0.6876297093649085,2.7651932358762457,-4.169613528247508,8.365193235876246
0.6956254036598494,2.773790756623494,-4.152418486753012,8.373790756623494
0.7036210979547901,2.782388277370742,-4.135223445258515,8.382388277370742
0.711616792249731,2.79098579811799,-4.118028403764019,8.39098579811799
0.7196124865446717,2.7995833188652384,-4.1008333622695226,8.399583318865238
0.7276081808396125,2.5921636167922513,-3.9382454251883767,8.707836383207749
0.7356038751345533,2.8960881094279185,-4.19804405471396,8.49804405471396
0.7435995694294941,2.876586416025624,-4.188293208012812,8.488293208012813
0.7515952637244349,2.8570847226233296,-4.178542361311665,8.478542361311664
0.7595909580193757,2.837583029221035,-4.1687915146105174,8.468791514610517
0.7675866523143164,2.81808133581874,-4.1590406679093705,8.45904066790937
0.7755823466092573,2.7985796424164455,-4.149289821208223,8.449289821208223
0.7835780409041981,2.779077949014151,-4.139538974507075,8.439538974507075
0.7915737351991389,2.7595762556118566,-4.129788127805928,8.429788127805928
0.7995694294940797,2.7400745622095615,-4.12003728110478,8.420037281104781
0.8075651237890205,2.7205728688072672,-4.110286434403633,8.410286434403634
0.8155608180839613,2.7010711754049725,-4.100535587702486,8.400535587702487
0.823556512378902,2.7016213670613567,-4.103242734122713,8.498378632938644
0.8315522066738429,2.7099502152852533,-4.119900430570506,8.490049784714747
0.8395479009687836,2.71827906350915,-4.136558127018299,8.48172093649085
0.8475435952637245,2.7266079117330464,-4.153215823466092,8.473392088266953
0.8555392895586653,2.734936759956943,-4.169873519913886,8.465063240043056
0.863534983853606,2.7432656081808395,-4.186531216361679,8.456734391819161
0.8715306781485469,2.7515944564047365,-4.203188912809472,8.448405543595264
0.8795263724434876,2.759923304628633,-4.2198466092572655,8.440076695371367
0.8875220667384285,2.7682521528525297,-4.2365043057050595,8.43174784714747
0.8955177610333692,2.7765810010764262,-4.253162002152853,8.423418998923575
0.9035134553283101,2.784909849300323,-4.269819698600646,8.415090150699678
0.9115091496232508,2.7932386975242194,-4.286477395048439,8.40676130247578
0.9195048439181916,2.87524219590958,-4.4504843918191614,8.47524219590958
0.9275005382131324,2.5,-4.113001076426264,8.586998923573734
0.9354962325080732,2.5,-4.128992465016146,8.571007534983853
0.9434919268030141,2.5,-4.1449838536060275,8.555016146393971
0.9514876210979548,2.5,-4.160975242195909,8.539024757804091
0.9594833153928957,2.5,-4.176966630785791,8.52303336921421
0.9674790096878364,2.5,-4.192958019375673,8.507041980624328
0.9754747039827772,2.5,-4.208949407965554,8.491050592034446
0.983470398277718,2.5,-4.224940796555436,8.475059203444564
0.9914660925726588,2.5,-4.240932185145318,8.459067814854683
0.9994617868675996,2.5,-4.256923573735199,8.4430764262648
1.0074574811625403,2.5,-4.27291496232508,8.42708503767492
1.0154531754574811,2.5,-4.288906350914962,8.411093649085037
1.023448869752422,2.6128248500692024,-4.487175149930798,8.306412425034601
1.0314445640473628,2.8,-4.155543595263718,8.4
1.0394402583423037,2.4104476666877734,-4.210447666687774,8.494776166656113
1.0474359526372443,2.4292610650288102,-4.22926106502881,8.485369467485596
1.0554316469321852,2.4480744633698475,-4.248074463369848,8.475962768315076
1.063427341227126,2.4668878617108847,-4.266887861710885,8.466556069144557
1.0714230355220669,2.485701260051922,-4.285701260051923,8.457149369974038
1.0794187298170075,2.5045146583929587,-4.304514658392959,8.447742670803521
1.0874144241119483,2.523328056733996,-4.323328056733996,8.438335971633002
1.0954101184068892,2.542141455075033,-4.3421414550750335,8.428929272462483
1.10340581270183,2.5609548534160704,-4.360954853416071,8.419522573291966
1.1114015069967709,2.5797682517571077,-4.379768251757108,8.410115874121447
1.1193972012917115,2.5985816500981445,-4.398581650098145,8.400709174950928
1.1273928955866523,2.7,-4.210118406889126,8.489881593110875
1.1353885898815932,2.7,-4.126114101184067,8.426114101184067
1.143384284176534,2.6,-4.4,8.4938864508294
1.1513799784714747,2.6,-4.4,8.473384670585963
1.1593756727664155,2.6,-4.4,8.452882890342524
1.1673713670613564,2.6,-4.4,8.432381110099087
1.1753670613562972,2.6,-4.4,8.41187932985565
1.1833627556512378,2.6,-4.4,8.391377549612212
1.1913584499461787,2.6,-4.4,8.370875769368773
1.1993541442411195,2.6,-4.4,8.350373989125336
1.2073498385360604,2.6,-4.4,8.329872208881897
1.2153455328310012,2.6,-4.4,8.30937042863846
1.2233412271259418,2.686824542518837,-4.4,8.386824542518838
1.2313369214208827,2.6036270885009594,-4.210881265502879,8.49637291149904
1.2393326157158235,2.612318060560678,-4.236954181682034,8.487681939439323
1.2473283100107644,2.621009032620396,-4.263027097861189,8.478990967379604
1.255324004305705,2.6297000046801142,-4.289100014040343,8.470299995319886
1.2633196986006459,2.6383909767398324,-4.315172930219497,8.461609023260168
1.2713153928955867,2.647081948799551,-4.341245846398652,8.452918051200449
1.2793110871905276,2.655772920859269,-4.367318762577807,8.444227079140731
1.2873067814854684,2.6644638929189877,-4.393391678756962,8.435536107081013
1.295302475780409,2.6731548649787054,-4.419464594936116,8.426845135021296
1.3032981700753499,2.681845837038424,-4.445537511115271,8.418154162961576
1.3112938643702907,2.690536809098142,-4.471610427294426,8.409463190901858
1.3192895586652316,2.6992277811578607,-4.497683343473581,8.40077221884214
1.3272852529601722,2.500600532547731,-4.2012010650954625,8.698798934904538
1.335280947255113,2.5174335731686592,-4.234867146337319,8.665132853662682
1.3432766415500539,2.5342666137895873,-4.268533227579175,8.631466772420826
1.3512723358449947,2.5510996544105153,-4.302199308821031,8.59780069117897
1.3592680301399354,2.567932695031443,-4.335865390062886,8.564134609937113
1.3672637244348762,2.584765735652371,-4.369531471304742,8.530468528695257
1.375259418729817,2.601598776273299,-4.403197552546598,8.496802447453401
1.383255113024758,2.6184318168942275,-4.436863633788454,8.463136366211545
1.3912508073196987,2.6352648575151556,-4.4705297150303105,8.429470284969689
1.3992465016146394,2.652097898136083,-4.504195796272166,8.395804203727835
1.4072421959095802,2.6689309387570113,-4.537861877514022,8.362138122485979
1.415237890204521,2.6857639793779393,-4.571527958755878,8.328472041244122
1.423233584499462,2.423358449946187,-4.358396124865467,7.9649623250807196
1.4312292787944025,1.7210605138765387,-4.59648991435391,8.4
1.4392249730893434,1.7732063462348484,-4.587798942294191,8.4
1.4472206673842842,1.8253521785931583,-4.579107970234474,8.4
1.455216361679225,1.877498010951468,-4.570416998174755,8.4
1.463212055974166,1.929643843309778,-4.5617260261150365,8.4
1.4712077502691066,1.9817896756680864,-4.553035054055319,8.4
1.4792034445640474,2.033935508026396,-4.5443440819956,8.4
1.4871991388589882,2.086081340384706,-4.5356531099358826,8.4
1.495194833153929,2.1382271727430155,-4.526962137876164,8.4
1.5031905274488697,2.190373005101324,-4.518271165816446,8.4
1.5111862217438106,2.2425188374596337,-4.509580193756728,8.4
1.5191819160387514,2.294664669817944,-4.500889221697009,8.4
1.5271776103336923,2.3,-4.4,8.442470996292307
1.5351733046286329,2.2,-4.53104720898047,8.4
1.5431689989235737,2.2039612486544673,-4.6,8.4
1.5511646932185146,2.2139558665231434,-4.6,8.4
1.5591603875134554,2.2239504843918194,-4.6,8.4
1.5671560818083963,2.2339451022604955,-4.6,8.4
1.575151776103337,2.243939720129171,-4.6,8.4
1.5831474703982777,2.253934337997847,-4.6,8.4
1.5911431646932186,2.263928955866523,-4.6,8.4
1.5991388589881594,2.2739235737351993,-4.6,8.4
1.6071345532831,2.283918191603875,-4.6,8.4
1.615130247578041,2.293912809472551,-4.6,8.4
1.6231259418729818,2.3,-4.6,8.4
1.6311216361679226,2.3,-4.605335037674919,8.5
1.6391173304628635,2.3,-4.6136638858988155,8.5
1.647113024757804,2.3,-4.6219927341227125,8.5
1.655108719052745,2.3,-4.6303215823466095,8.5
1.6631044133476858,2.3,-4.638650430570506,8.5
1.6711001076426266,2.3,-4.646979278794403,8.5
1.6790958019375672,2.3,-4.6553081270183,8.5
1.687091496232508,2.3,-4.663636975242196,8.5
1.695087190527449,2.3,-4.671965823466093,8.5
1.7030828848223898,2.3,-4.68029467168999,8.5
1.7110785791173306,2.3,-4.688623519913886,8.5
1.7190742734122713,2.3,-4.696952368137783,8.5
1.727069967707212,2.238600645855759,-4.538600645855759,8.4
1.735065662002153,2.2034837068206286,-4.6034837068206285,8.510451120461886
1.7430613562970938,2.2125697230648793,-4.612569723064879,8.537709169194638
1.7510570505920344,2.22165573930913,-4.62165573930913,8.564967217927391
1.7590527448869753,2.230741755553381,-4.630741755553381,8.592225266660144
1.7670484391819161,2.239827771797632,-4.6398277717976315,8.619483315392896
1.775044133476857,2.248913788041883,-4.648913788041883,8.64674136412565
1.7830398277717976,2.2579998042861336,-4.657999804286134,8.673999412858402
1.7910355220667384,2.2670858205303843,-4.667085820530384,8.701257461591155
1.7990312163616793,2.2761718367746355,-4.676171836774635,8.728515510323907
1.8070269106566201,2.2852578530188863,-4.685257853018887,8.75577355905666
1.815022604951561,2.294343869263137,-4.694343869263138,8.783031607789413
1.8230182992465016,2.5082346609257433,-4.595425188374587,11.427448869752478
1.8310139935414425,3.6299119182379025,-2.5886986816671866,14.06521522738058
1.8390096878363833,3.5181441485236755,-2.8896119078208744,13.850277208699374
1.8470053821313241,3.4063763788094485,-3.190525133974562,13.635339190018168
1.8550010764262648,3.2946086090952247,-3.491438360128242,13.42040117133697
1.8629967707212056,3.1828408393809977,-3.7923515862819297,13.205463152655764
1.8709924650161465,3.0710730696667707,-4.093264812435618,12.990525133974558
1.8789881593110873,2.9593052999525438,-4.394178038589305,12.775587115293352
1.8869838536060282,2.847537530238317,-4.695091264742993,12.560649096612147
1.8949795479009688,2.735769760524093,-4.996004490896674,12.345711077930947
1.9029752421959096,2.624001990809866,-5.296917717050361,12.13077305924974
1.9109709364908505,2.512234221095639,-5.597830943204048,11.915835040568536
1.9189666307857913,2.400466451381412,-5.8987441693577365,11.70089702188733
1.926962325080732,1.6833907427341284,-12.110613562970887,8.992809472551151
1.9349580193756728,3.7977720479635515,-3.574378551580842,10.589974215835982
1.9429537136706136,3.77917741006834,-3.360540215785913,10.506298345307531
1.9509494079655545,3.760582772173129,-3.1467018799909834,10.42262247477908
1.9589451022604951,3.741988134277918,-2.93286354419606,10.338946604250632
1.966940796555436,3.723393496382707,-2.7190252084011304,10.255270733722181
1.9749364908503768,3.7047988584874956,-2.505186872606201,10.17159486319373
1.9829321851453177,3.6862042205922845,-2.291348536811272,10.08791899266528
1.9909278794402585,3.6676095826970734,-2.0775102010163424,10.00424312213683
1.9989235737351991,3.6490149448018627,-1.8636718652214188,9.92056725160838
2.00691926803014,3.6304203069066507,-1.6498335294264834,9.836891381079928
2.0149149623250806,3.6118256690114405,-1.435995193631566,9.753215510551481
2.0229106566200215,3.1044671689989336,-1.9553283100106653,4.920613562971203
2.0309063509149623,4.02087808899984,-1.2164876440006387,1.1634633442502793
2.038902045209903,4.0549023200421415,-1.080390719831433,1.103920939926252
2.046897739504844,4.088926551084443,-0.9442937956622277,1.0443785356022246
2.054893433799785,4.122950782126744,-0.8081968714930222,0.9848361312781972
2.0628891280947257,4.156975013169046,-0.6720999473238167,0.9252937269541698
2.0708848223896665,4.190999244211348,-0.5360030231546112,0.8657513226301424
2.0788805166846074,4.225023475253649,-0.39990609898540574,0.806208918306115
2.086876210979548,4.259047706295949,-0.2638091748162079,0.7466665139820909
2.0948719052744886,4.29307193733825,-0.1277122506470023,0.6871241096580636
2.1028675995694295,4.327096168380551,0.008384673522203068,0.6275817053340362
2.1108632938643703,4.361120399422853,0.14448159769140867,0.5680393010100088
2.118858988159311,4.395144630465154,0.28057852186061405,0.5084968966859814
2.126854682454252,3.907265877287396,1.4309113742375348,3.314531754574791
2.134850376749193,3.6885063380621106,1.5172404929068346,2.9
2.1428460710441337,3.664638593898108,1.5530421091528384,2.9
2.1508417653390746,3.6407708497341056,1.588843725398842,2.9
2.158837459634015,3.6169031055701044,1.6246453416448439,2.9
2.166833153928956,3.593035361406102,1.6604469578908474,2.9
2.1748288482238967,3.5691676172420994,1.6962485741368512,2.9
2.1828245425188375,3.545299873078097,1.732050190382855,2.9
2.1908202368137784,3.5214321289140944,1.7678518066288587,2.9
2.198815931108719,3.3776103336921266,2.003982777179789,2.614424111948295
2.20681162540366,2.2847685683529204,-3.2326695371373457,2.8412809472548672
2.214807319698601,1.610655632474497,-4.797542982984559,1.6745894273214785
2.2228030139935417,1.6253266311808106,-4.518794007564602,1.777286418265673
2.230798708288482,1.639997629887123,-4.240045032144661,1.8799834092098615
2.238794402583423,1.6546686285934367,-3.9612960567247053,1.9826804001540559
2.246790096878364,1.66933962729975,-3.682547081304749,2.0853773910982505
2.2547857911733047,1.6840106260060637,-3.403798105884793,2.1880743820424446
2.2627814854682455,1.698681624712377,-3.125049130464837,2.2907713729866392
2.2707771797631864,1.7133526234186907,-2.8463001550448808,2.3934683639308334
2.2787728740581272,1.728023622125004,-2.5675511796249246,2.496165354875028
2.286768568353068,1.7426946208313174,-2.2888022042049685,2.598862345819222
2.2947642626480085,1.7573656195376302,-2.0100532287850275,2.701559336763411
2.3027599569429493,1.7720366182439435,-1.7313042533650713,2.8042563277076056
2.31075565123789,1.7867076169502571,-1.4525552779451152,2.9069533186517997
2.318751345532831,1.7248654467168956,0.227556512378982,0.6708288482237661
2.326747039827772,-5.160169030896632,-19.371662279252696,4.6996067313943914
2.3347427341227127,-5.1047533278623884,-18.35834656662653,1.0817529761587794
2.3427384284176536,-5.049337624828145,-17.345030854000363,-2.5361007790768317
2.3507341227125944,-4.993921921793901,-16.331715141374197,-6.153954534312443
2.3587298170075353,-4.938506218759658,-15.31839942874803,-9.771808289548055
2.3667255113024757,-4.883090515725417,-14.305083716121919,-13.389662044783464
2.3747212055974165,-4.827674812691174,-13.29176800349575,-17.007515800019075
2.3827168998923574,-4.772259109656931,-12.278452290869584,-20.62536955525469
2.390712594187298,-4.7168434066226865,-11.265136578243418,-24.2432233104903
2.398708288482239,-4.661427703588443,-10.251820865617251,-27.86107706572591
2.40670398277718,-4.6060120005542,-9.238505152991085,-31.478930820961526
2.4146996770721207,-4.550596297519956,-8.225189440364916,-35.09678457619714
2.4226953713670616,11.771689989239416,5.772981700756454,11.319052744898222
2.4306910656620024,0.33821313240047063,-6.580516684607765,7.412163616791529
2.438686759956943,0.503641707284622,-7.409990203311526,6.429552134105777
2.4466824542518837,0.6114488213737121,-7.2123438274815275,6.56431102671714
2.4546781485468245,0.7192559354628022,-7.0146974516515295,6.699069919328503
2.4626738428417654,0.8270630495518924,-6.817051075821531,6.833828811939865
2.4706695371367062,0.9348701636409824,-6.619404699991533,6.9685877045512274
2.478665231431647,1.0426772777300726,-6.421758324161534,7.103346597162591
2.486660925726588,1.1504843918191627,-6.224111948331535,7.238105489773953
2.4946566200215288,1.258291505908253,-6.026465572501537,7.372864382385316
2.5026523143164696,1.3660986199973428,-5.828819196671539,7.5076232749966785
2.51064800861141,1.473905734086427,-5.631172820841551,7.642382167608034
2.518643702906351,1.5817128481755174,-5.433526445011552,7.777141060219396
2.5266393972012917,0.5019573383713017,-3.1980426616286985,9.701304892247533
2.5346350914962326,0.5264339535598961,-3.173566046440104,9.717622635706597
2.5426307857911734,0.5509105687484905,-3.1490894312515096,9.73394037916566
2.5506264800861143,0.5753871839370849,-3.1246128160629154,9.750258122624723
2.558622174381055,0.5998637991256792,-3.1001362008743207,9.766575866083786
2.566617868675996,0.6243404143142736,-3.0756595856857265,9.78289360954285
2.574613562970937,0.6488170295028679,-3.0511829704971323,9.799211353001912
2.582609257265877,0.6732936446914609,-3.026706355308539,9.815529096460974
2.590604951560818,0.6977702598800553,-3.0022297401199447,9.831846839920036
2.598600645855759,0.7222468750686496,-2.9777531249313505,9.8481645833791
2.6065963401506997,0.7467234902572439,-2.9532765097427562,9.864482326838163
2.6145920344456406,0.7712001054458384,-2.9287998945541616,9.880800070297227
2.6225877287405814,0.7956767206344327,-2.9043232793655673,9.897117813756289
2.6305834230355223,-0.12922497308959546,-3.7,8.924973089343265
2.638579117330463,-0.25791173304632425,-2.809461786867573,9.990538213132428
2.646574811625404,-0.7,-2.517874058127021,10.268720398277715
2.6545705059203444,-0.7,-2.557852529601723,10.198758073196986
2.6625662002152852,-0.7,-2.597831001076427,10.128795748116254
2.670561894510226,-0.7,-2.6378094725511314,10.058833423035521
2.678557588805167,-0.7,-2.6777879440258356,9.988871097954789
2.6865532831001078,-0.7,-2.71776641550054,9.918908772874056
2.6945489773950486,-0.7,-2.7577448869752437,9.848946447793324
2.7025446716899895,-0.7,-2.797723358449948,9.778984122712592
2.7105403659849303,-0.7,-2.837701829924652,9.70902179763186
2.7185360602798707,-0.7,-2.877680301399354,9.63905947255113
2.7265317545748116,-0.9607104413348146,-10.897631862217285,3.9341227125942386
2.7345274488697524,-0.18319302022548653,-13.148096991671858,3.2961939833437173
2.7425231431646933,-0.040112174947597334,-13.207012633845107,3.414025267690214
2.750518837459634,0.10296867033029189,-13.265928276018355,3.531856552036711
2.758514531754575,0.24604951560818117,-13.324843918191604,3.649687836383208
2.766510226049516,0.3891303608860704,-13.383759560364853,3.767519120729705
2.7745059203444566,0.5322112061639597,-13.442675202538101,3.8853504050762018
2.7825016146393975,0.6752920514418488,-13.50159084471135,4.003181689422699
2.790497308934338,0.8183728967197299,-13.560506486884595,4.121012973769189
2.7984930032292787,0.9614537419976192,-13.619422129057844,4.238844258115686
2.8064886975242196,1.1045345872755084,-13.678337771231092,4.356675542462183
2.8144843918191604,1.2476154325533977,-13.737253413404341,4.47450682680868
2.8224800861141013,1.3906962778312868,-13.79616905557759,4.592338111155177
2.830475780409042,5.592765782308618,-3.78102323814348,2.1392325713923905
2.838471474703983,5.553571202431456,-4.220002532767683,1.8099981004242376
2.846467168998924,5.514376622554296,-4.658981827391888,1.4807636294560846
2.8544628632938647,5.475182042677134,-5.097961122016092,1.1515291584879315
2.862458557588805,5.435987462799975,-5.536940416640271,0.822294687519797
2.870454251883746,5.3967928829228144,-5.975919711264476,0.493060216551644
2.8784499461786868,5.357598303045653,-6.41489900588868,0.16382574558349106
2.8864456404736276,5.318403723168492,-6.853878300512884,-0.1654087253846619
2.8944413347685685,5.2792091432913315,-7.292857595137088,-0.49464319635281484
2.9024370290635093,5.24001456341417,-7.731836889761291,-0.8238776673209678
2.91043272335845,5.200819983537009,-8.170816184385496,-1.1531121382891207
2.918428417653391,5.161625403659848,-8.6097954790097,-1.4823466092572737
2.926424111948332,5.122430823782687,-9.048774773633903,-1.8115810802254266
2.9344198062432723,1.5603875134554666,-10.928310010764374,1.6290096878363867
2.942415500538213,5.367292588605831,-4.207146938829743,1.7945487647676384
2.950411194833154,5.3080652234581205,-4.5822535847652395,1.7846775372430201
2.958406889128095,5.24883785831041,-4.957360230700736,1.7748063097184017
2.9664025834230356,5.1896104931627,-5.332466876636233,1.7649350821937833
2.9743982777179765,5.13038312801499,-5.70757352257173,1.755063854669165
2.9823939720129173,5.0711557628672805,-6.082680168507226,1.7451926271445466
2.990389666307858,5.01192839771957,-6.4577868144427235,1.7353213996199284
2.998385360602799,4.95270103257186,-6.832893460378219,1.72545017209531
3.0063810548977394,4.8934736674241535,-7.208000106313696,1.7155789445706922
3.0143767491926803,4.834246302276443,-7.583106752249193,1.705707717046074
3.022372443487621,4.237926085396479,-8.530696088984577,0.6882669537136628
3.030368137782562,5.026331042477427,-7.089475863211061,-0.2579034528442439
3.038363832077503,4.595793657365224,-7.0279705224807465,-0.011882089922985173
3.0463595263724437,4.3603679420686925,-6.994338277438384,0.05470621950707707
3.0543552206673845,4.2876798121146855,-6.983954258873527,-0.028365929011788443
3.0623509149623254,4.214991682160678,-6.973570240308669,-0.11143807753065393
3.0703466092572658,4.142303552206675,-6.963186221743811,-0.19451022604951482
3.0783423035522066,4.069615422252667,-6.952802203178953,-0.2775823745683803
3.0863379978471475,3.9969272922986603,-6.942418184614095,-0.3606545230872459
3.0943336921420883,3.924239162344653,-6.932034166049236,-0.44372667160611134
3.102329386437029,3.8515510323906454,-6.921650147484378,-0.5267988201249769
3.11032508073197,3.778862902436638,-6.91126612891952,-0.6098709686438424
3.118320775026911,3.7061747724826306,-6.900882110354662,-0.6929431171627078
3.1263164693218517,4.898989991526006,-10.201346677965326,-0.6993266610173365
3.1343121636167925,4.873471818244279,-10.235370909007628,-0.6823145454961859
3.142307857911733,4.847953644962555,-10.269395140049927,-0.6653024299750361
3.150303552206674,4.822435471680828,-10.303419371092229,-0.6482903144538854
3.1582992465016146,4.796917298399102,-10.33744360213453,-0.6312781989327347
3.1662949407965555,4.771399125117377,-10.371467833176832,-0.6142660834115841
3.1742906350914963,4.74588095183565,-10.405492064219132,-0.5972539678904334
3.182286329386437,4.720362778553924,-10.439516295261434,-0.5802418523692827
3.190282023681378,4.694844605272198,-10.473540526303735,-0.563229736848132
3.198277717976319,4.669326431990472,-10.507564757346037,-0.5462176213269814
3.2062734122712597,4.643808258708746,-10.541588988388337,-0.5292055058058307
3.2142691065662,4.618290085427021,-10.575613219430638,-0.5121933902846809
3.222264800861141,4.310279870828846,-9.847039827771793,-0.473519913885897
3.230260495156082,3.881870233378375,-8.872805350067564,-0.22266220827703112
3.2382561894510227,3.8478460023360737,-8.82176900350411,-0.26519249707990805
3.2462518837459635,3.813821771293772,-8.770732656940659,-0.30772278588278495
3.2542475780409044,3.7797975402514705,-8.719696310377206,-0.3502530746856618
3.262243272335845,3.7457733092091687,-8.668659963813754,-0.3927833634885387
3.270238966630786,3.7117490781668674,-8.617623617250302,-0.4353136522914156
3.278234660925727,3.677724847124566,-8.566587270686849,-0.47784394109429257
3.2862303552206673,3.643700616082266,-8.5155509241234,-0.5203742298971671
3.294226049515608,3.6096763850399647,-8.464514577559948,-0.562904518700044
3.302221743810549,3.5756521539976633,-8.413478230996496,-0.6054348075029209
3.31021743810549,3.5416279229553616,-8.362441884433043,-0.6479650963057978
3.3182131324004307,3.50760369191306,-8.311405537869591,-0.6904953851086747
3.3262088266953715,2.302443716647964,-2.798444907587659,-0.2966676591164126
3.3342045209903124,2.3960103520142932,-2.738902503263631,-0.16907679270778184
3.3422002152852532,2.489576987380622,-2.6793600989396036,-0.0414859262991511
3.350195909580194,2.5831436227469515,-2.619817694615576,0.08610494010947961
3.3581916038751345,2.6767102581132756,-2.5602752902915515,0.21369580651810322
3.3661872981700753,2.770276893479605,-2.500732885967524,0.34128667292673404
3.374182992465016,2.863843528845934,-2.4411904816434964,0.46887753933536475
3.382178686759957,2.957410164212263,-2.381648077319469,0.5964684057439955
3.390174381054898,3.050976799578592,-2.3221056729954412,0.7240592721526262
3.3981700753498387,3.1445434349449215,-2.2625632686714137,0.8516501385612569
3.4061657696447796,3.238110070311251,-2.203020864347386,0.9792410049698876
3.4141614639397204,3.3316767056775802,-2.143478460023358,1.1068318713785184
3.4221571582346613,3.015715823466132,-0.3692680301394833,0.08998923573707673
3.4301528525296017,1.7409580193756617,1.1006996770721247,-0.8576426264800889
3.4381485468245425,-4.053828823190695,-2.769985230430268,-2.7526798007359883
3.4461442411194834,-5.699454276916896,-5.410423811550274,-2.0832728365083817
3.454139935414424,-7.3450797306430955,-8.050862392670279,-1.4138658722807746
3.462135629709365,-8.990705184369297,-10.691300973790284,-0.7444589080531681
3.470131324004306,-10.636330638095497,-13.331739554910289,-0.07505194382556102
3.4781270182992468,-12.281956091821698,-15.972178136030294,0.594355020402046
3.4861227125941876,-13.927581545547898,-18.6126167171503,1.2637619846296526
3.494118406889128,-15.573206999274007,-21.25305529827016,1.9331689488572228
3.502114101184069,-17.218832453000207,-23.893493879390164,2.6025759130848294
3.5101097954790097,-18.864457906726408,-26.53393246051017,3.271982877312436
3.5181054897739505,-20.510083360452604,-29.174371041630174,3.9413898415400435
3.5261011840688914,-3.1394187298169083,-1.3085468245426952,8.379763186221735
3.5340968783638322,-0.13349378938330342,-10.717141785900019,-3.8033320835500217
3.542092572658773,-0.39402764843193655,-10.555431114766385,-3.6146696338941147
3.550088266953714,-0.6545615074805696,-10.39372044363275,-3.426007184238208
3.558083961248655,-0.9150953665292028,-10.232009772499117,-3.2373447345823014
3.566079655543595,-1.1756292255778213,-10.07029910136549,-3.048682284926405
3.574075349838536,-1.4361630846264546,-9.908588430231855,-2.8600198352704984
3.582071044133477,-1.6966969436750876,-9.746877759098222,-2.6713573856145914
3.5900667384284177,-1.9572308027237209,-9.585167087964587,-2.482694935958685
3.5980624327233586,-2.2177646617723537,-9.423456416830954,-2.294032486302778
3.6060581270182994,-2.478298520820987,-9.261745745697318,-2.1053700366468715
3.6140538213132403,-2.73883237986962,-9.100035074563685,-1.9167075869909647
3.622049515608181,-0.6818442770002172,-11.463688554000434,1.5834947972729247
3.630045209903122,0.34405560772278004,-9.40860682958111,1.7870897556283338
3.6380409041980624,0.23347685683530675,-9.425618945102261,1.7615715823466094
3.646036598493003,0.1228981059478273,-9.44263106062341,1.7360534090648834
3.654032292787944,0.01231935506034787,-9.459643176144562,1.7105352357831571
3.662027987082885,-0.09825939582713161,-9.476655291665713,1.6850170625014311
3.6700236813778258,-0.2088381467146111,-9.493667407186864,1.6594988892197051
3.6780193756727666,-0.31941689760209047,-9.510679522708013,1.6339807159379791
3.6860150699677074,-0.42999564848956995,-9.527691638229165,1.608462542656253
3.6940107642626483,-0.5405743993770494,-9.544703753750316,1.582944369374527
3.702006458557589,-0.6511531502645288,-9.561715869271465,1.557426196092801
3.7100021528525295,-0.7617319011520022,-9.578727984792616,1.5319080228110764
3.7179978471474704,-0.8723106520394815,-9.595740100313765,1.5063898495293504
3.7259935414424112,0.45032292787943695,-9.950538213132393,1.750107642626479
3.733989235737352,-0.2088649683052269,-9.108864968305227,1.5867025475421597
3.741984930032293,-0.22663317784953996,-9.12663317784954,1.5600502332256903
3.749980624327234,-0.24440138739385298,-9.144401387393852,1.5333979189092206
3.7579763186221746,-0.262169596938166,-9.162169596938165,1.5067456045927512
3.7659720129171155,-0.279937806482479,-9.17993780648248,1.4800932902762816
3.7739677072120563,-0.29770601602679203,-9.197706016026792,1.4534409759598121
3.7819634015069967,-0.31547422557110405,-9.215474225571104,1.426788661643344
3.7899590958019376,-0.33324243511541707,-9.233242435115418,1.4001363473268744
3.7979547900968784,-0.3510106446597301,-9.25101064465973,1.373484033010405
3.8059504843918193,-0.3687788542040431,-9.268778854204044,1.3468317186939354
3.81394617868676,-0.3865470637483561,-9.286547063748356,1.3201794043774657
3.821941872981701,-0.5188374596340162,-9.609418729817008,1.1
3.829937567276642,-0.6787513455328364,-9.689375672766417,1.1
3.8379332615715827,0.004573559966956497,-10.067985080231304,1.0411620397026085
3.8459289558665235,0.01387087891456215,-10.002903847598065,1.1248379102310593
3.853924650161464,0.023168197862167287,-9.937822614964828,1.2085137807595054
3.8619203444564048,0.032465516809772936,-9.87274138233159,1.2921896512879565
3.8699160387513456,0.04176283575737859,-9.80766014969835,1.3758655218164073
3.8779117330462864,0.05106015470498424,-9.74257891706511,1.4595413923448581
3.8859074273412273,0.060357473652589894,-9.67749768443187,1.543217262873309
3.893903121636168,0.06965479260019555,-9.612416451798632,1.6268931334017598
3.901898815931109,0.0789521115478012,-9.547335219165392,1.7105690039302108
3.90989451022605,0.08824943049540686,-9.482253986532152,1.7942448744586614
3.9178902045209902,0.09754674944301199,-9.417172753898917,1.8779207449871078
3.925885898815931,-1.0828848223896412,-11.008719052744754,2.0714747039827355
3.933881593110872,-1.200616082266449,-11.024537938300163,2.091615326477796
3.941877287405813,-1.3026887753933538,-10.947983418454983,2.083109268717221
3.9498729817007536,-1.404761468520259,-10.871428898609805,2.0746032109566452
3.9578686759956945,-1.506834161647164,-10.794874378764627,2.0660971531960697
3.9658643702906353,-1.608906854774069,-10.718319858919447,2.057591095435494
3.973860064585576,-1.710979547900974,-10.641765339074269,2.049085037674919
3.981855758880517,-1.813052241027879,-10.56521081922909,2.0405789799143434
3.9898514531754574,-1.9151249341547785,-10.488656299383916,2.0320729221537683
3.9978471474703983,-2.0171976272816834,-10.412101779538737,2.023566864393193
4.00584284176534,-2.119270320408594,-10.335547259693554,2.015060806632617
4.01383853606028,-2.221343013535499,-10.258992739848374,2.0065547488720417
4.021834230355221,-1.949085037674211,-12.416899892357554,0.13326157158229107
4.029829924650161,0.3971133055646564,-11.007938409697195,1.8028866944353437
4.037825618945102,0.3693021949735578,-11.084418963822715,1.8306978050264422
4.045821313240043,0.3414910843824593,-11.160899517948238,1.8585089156175407
4.053817007534984,0.31367997379136076,-11.237380072073758,1.8863200262086393
4.061812701829925,0.28586886320026217,-11.31386062619928,1.914131136799738
4.0698083961248654,0.25805775260916364,-11.3903411803248,1.9419422473908365
4.077804090419806,0.2302466420180651,-11.46682173445032,1.969753357981935
4.085799784714747,0.20243553142696655,-11.543302288575841,1.9975644685730336
4.093795479009688,0.17462442083586802,-11.619782842701362,2.025375579164132
4.101791173304629,0.14681331024476946,-11.696263396826884,2.053186689755231
4.10978686759957,0.11900219965367093,-11.772743950952405,2.080997800346329
4.1177825618945105,0.09119108906257234,-11.849224505077926,2.108808910937428
4.125778256189451,0.06337997847147381,-11.925705059203446,2.1366200215285263
4.133773950484392,0.03556886788037528,-12.002185613328967,2.164431132119625
4.141769644779333,0.00775775728927669,-12.07866616745449,2.1922422427107233
4.149765339074274,2.8127556512378975,-6.584714747040116,2.851022604951591
4.157761033369215,2.8497993932870087,-9.9,3.0828652510030206
4.165756727664155,2.704423133379009,-9.9,2.7436539778843545
4.173752421959096,2.5590468734709932,-9.9,2.404442704765651
4.181748116254036,2.4136706135629775,-9.9,2.0652314316469473
4.189743810548977,2.268294353654962,-9.9,1.726020158528244
4.197739504843918,2.122918093746946,-9.9,1.3868088854095406
4.205735199138859,1.9775418338389303,-9.9,1.0475976122908373
4.2137308934338,1.8321655739309144,-9.9,0.7083863391721335
4.221726587728741,1.732292787944024,-9.649730893433814,0.5130247578040842
4.2297222820236815,2.0876569788302706,-6.895658414065403,1.7567994259059465
4.237717976318622,3.3,-4.436544671690031,4.481727664154985
4.245713670613563,2.68378960230413,-7.145893579262832,2.58378960230413
4.253709364908504,2.6081546562709055,-7.826608093561852,2.5081546562709054
4.261705059203445,2.5325197102376813,-8.507322607860871,2.432519710237681
4.269700753498386,2.4568847642044567,-9.18803712215989,2.3568847642044566
4.277696447793327,2.3812498181712325,-9.86875163645891,2.2812498181712324
4.285692142088267,2.305614872138008,-10.54946615075793,2.2056148721380078
4.293687836383208,2.2299799261047837,-11.230180665056949,2.1299799261047836
4.301683530678149,2.154344980071559,-11.910895179355968,2.054344980071559
4.309679224973089,2.078710034038343,-12.591609693654913,1.978710034038343
4.31767491926803,2.0030750880051187,-13.272324207953933,1.9030750880051186
4.325670613562971,3.3945497682388357,-7.010900463522328,7.410900463522329
4.333666307857912,3.378232024779773,-7.043535950440454,7.443535950440454
4.3416620021528525,3.36191428132071,-7.07617143735858,7.47617143735858
4.349657696447793,3.345596537861647,-7.108806924276706,7.508806924276707
4.357653390742734,3.329278794402584,-7.1414424111948325,7.541442411194832
4.365649085037675,3.312961050943521,-7.174077898112958,7.574077898112958
4.373644779332616,3.2966433074844583,-7.206713385031084,7.6067133850310835
4.381640473627557,3.280325564025395,-7.23934887194921,7.63934887194921
4.389636167922498,3.264007820566332,-7.271984358867336,7.671984358867336
4.397631862217438,3.2476900771072694,-7.304619845785462,7.704619845785461
4.405627556512379,3.2313723336482063,-7.337255332703588,7.737255332703588
4.41362325080732,3.215054590189143,-7.369890819621714,7.769890819621714
4.421618945102261,3.0143164693216926,-6.0383207750257455,7.242949407965078
4.429614639397202,2.2385360602797966,-1.5431646932176613,7.988051668461118
4.437610333692143,2.1657962530690207,-0.9717359490088278,8.242754683663723
4.4456060279870835,2.129860548372658,-0.8369770563974659,8.287674314534177
4.4536017222820234,2.0939248436762985,-0.7022181637861189,8.332593945404627
4.461597416576964,2.057989138979935,-0.5674592711747568,8.37751357627508
4.469593110871905,2.022053434283572,-0.4327003785633948,8.422433207145534
4.477588805166846,1.9861177295872088,-0.29794148595203285,8.467352838015989
4.485584499461787,1.9501820248908457,-0.16318259334067087,8.512272468886442
4.493580193756728,1.9142463201944824,-0.028423700729308887,8.557192099756897
4.5015758880516685,1.8783106154981193,0.10633519188205298,8.60211173062735
4.509571582346609,1.842374910801756,0.24109408449341507,8.647031361497804
4.51756727664155,1.8064392061053929,0.37585297710477694,8.691950992368259
4.525562970936491,1.6041980624327326,-8.297039827771847,7.763455328309985
4.533558665231432,1.8185347147470399,-5.4370694294940805,7.1111208288482235
4.541554359526373,1.8601789558665236,-5.520357911733047,7.136107373519914
4.549550053821314,1.901823196986007,-5.6036463939720145,7.161093918191604
4.5575457481162545,1.9434674381054906,-5.686934876210981,7.186080462863294
4.565541442411195,1.9851116792249741,-5.7702233584499485,7.211067007534984
4.573537136706136,2.0267559203444576,-5.853511840688916,7.236053552206674
4.581532831001077,2.0684001614639413,-5.9368003229278825,7.261040096878364
4.589528525296017,2.11004440258342,-6.02008880516684,7.286026641550052
4.597524219590958,2.1516886437029035,-6.103377287405808,7.311013186221742
4.605519913885899,2.193332884822387,-6.186665769644774,7.335999730893432
4.6135156081808395,2.2349771259418705,-6.269954251883742,7.360986275565122
4.62151130247578,2.276621367061354,-6.353242734122709,7.3859728202368125
4.629506996770721,2.4948331539289486,-3.9840688912810385,7.43896663078579
4.637502691065662,2.249730893433769,0.43950484391700173,9.475941872981808
4.645498385360603,2.213919962938236,-4.212080500333816,9.006959981469118
4.653494079655544,2.2341622269760606,-3.9388099358231816,9.01708111348803
4.661489773950485,2.2544044910138856,-3.6655393713125473,9.027202245506942
4.669485468245425,2.27464675505171,-3.392268806801913,9.037323377525855
4.677481162540366,2.294889019089535,-3.1189982422912785,9.047444509544768
4.685476856835307,2.31513128312736,-2.845727677780644,9.057565641563679
4.693472551130248,2.3353735471651844,-2.5724571132700094,9.067686773582592
4.701468245425189,2.355615811203009,-2.2991865487593754,9.077807905601505
4.70946393972013,2.375858075240834,-2.0259159842487406,9.087929037620416
4.7174596340150705,2.3961003392786586,-1.7526454197381063,9.098050169639329
4.725455328310011,2.1138320775028907,-3.2585037674913275,7.731700753498266
4.733451022604951,2.478964056722986,-2.191155754200395,7.612191697477409
4.741446716899892,2.452891140543831,-2.3041383909767337,7.751247250432903
4.749442411194833,2.4268182243646756,-2.417121027753072,7.890302803388396
4.757438105489774,2.400745308185521,-2.5301036645294106,8.02935835634389
4.765433799784715,2.3746723920063655,-2.643086301305749,8.168413909299383
4.7734294940796556,2.3485994758272106,-2.7560689380820875,8.307469462254877
4.781425188374596,2.3225265596480558,-2.869051574858426,8.446525015210371
4.789420882669537,2.2964536434689005,-2.9820342116347645,8.585580568165863
4.797416576964478,2.2703807272897456,-3.095016848411103,8.724636121121357
4.805412271259419,2.2443078111105907,-3.2079994851874414,8.86369167407685
4.81340796555436,2.2182348949314354,-3.32098212196378,9.002747227032344
4.821403659849301,1.7865446716899702,-4.28654467168997,9.020182992465045
4.8293993541442415,2.159741657696646,-3.8801937567275155,9.200322927879194
4.837395048439182,2.4415452159504625,-3.641836697669353,8.924927129570278
4.845390742734123,2.4864648468209167,-3.5789492144507165,8.95187890809255
4.853386437029064,2.531384477691371,-3.5160617312320803,8.978830686614822
4.861382131324005,2.5763041085618257,-3.453174248013444,9.005782465137095
4.869377825618946,2.62122373943228,-3.390286764794808,9.032734243659368
4.877373519913886,2.6661433703027293,-3.3273992815761786,9.059686022181637
4.8853692142088265,2.711063001173184,-3.2645117983575425,9.08663780070391
4.893364908503767,2.7559826320436382,-3.2016243151389063,9.113589579226183
4.901360602798708,2.800902262914093,-3.13873683192027,9.140541357748456
4.909356297093649,2.845821893784547,-3.0758493487016336,9.167493136270728
4.91735199138859,2.8907415246550014,-3.0129618654829975,9.194444914793001
4.925347685683531,1.4630785791173664,-3.0433799784713744,9.173842841765268
4.933343379978472,1.268415569985069,-3.713194902600784,9.436831139970138
4.9413390742734125,1.234025486996076,-3.9453279627764863,9.368050973992153
4.949334768568353,1.1996354040070831,-4.177461022952189,9.299270808014166
4.957330462863294,1.1652453210180904,-4.409594083127891,9.23049064203618
4.965326157158235,1.1308552380290975,-4.6417271433035925,9.161710476058195
4.973321851453176,1.0964651550401046,-4.873860203479294,9.09293031008021
4.981317545748117,1.0620750720511116,-5.105993263654996,9.024150144102222
4.9893132400430575,1.0276849890621187,-5.338126323830699,8.955369978124237
4.997308934337998,0.9932949060731258,-5.570259384006401,8.886589812146251
5.005304628632939,0.9589048230841329,-5.802392444182103,8.817809646168266
5.013300322927879,0.9245147400951439,-6.034525504357779,8.749029480190288
5.02129601722282,1.0020452099031134,-6.174488697524222,8.597954790096885
5.029291711517761,1.3,-5.0020452099032555,8.235414424111957
5.037287405812702,1.109970711192329,-4.390029288807671,8.485043933211507
5.045283100107643,1.1285653490875402,-4.37143465091246,8.457151976368689
5.053278794402583,1.1471599869827518,-4.352840013017249,8.429260019525872
5.061274488697524,1.165754624877963,-4.334245375122038,8.401368062683055
5.069270182992465,1.1843492627731744,-4.315650737226826,8.373476105840238
5.077265877287406,1.202943900668386,-4.2970560993316145,8.345584148997421
5.085261571582347,1.2215385385635973,-4.278461461436403,8.317692192154604
5.093257265877288,1.2401331764588086,-4.259866823541191,8.289800235311786
5.1012529601722285,1.2587278143540201,-4.24127218564598,8.261908278468969
5.109248654467169,1.2773224522492315,-4.222677547750768,8.234016321626152
5.11724434876211,1.2959170901444428,-4.204082909855558,8.206124364783335
5.125240043057051,1.120667384284189,-4.044671689989323,7.982669537136757
5.133235737351992,1.2109069798381753,-4.570914720431532,8.32544961962241
5.141231431646933,1.2378587583604477,-4.499043311038806,8.388337102841046
5.149227125941874,1.26481053688272,-4.42717190164608,8.45122458605968
5.1572228202368136,1.2917623154049893,-4.355300492253361,8.514112069278308
5.165218514531754,1.318714093927262,-4.283429082860635,8.576999552496945
5.173214208826695,1.3456658724495343,-4.211557673467908,8.63988703571558
5.181209903121636,1.3726176509718067,-4.139686264075182,8.702774518934216
5.189205597416577,1.399569429494079,-4.067814854682456,8.765662002152851
5.197201291711518,1.4265212080163514,-3.995943445289729,8.828549485371486
5.205196986006459,1.4534729865386238,-3.924072035897003,8.891436968590122
5.2131926803013995,1.4804247650608962,-3.8522006265042767,8.954324451808757
5.22118837459634,2.456512378902055,-2.962325080731963,9.243487621097945
5.229184068891281,1.8075349838535746,-4.588697524219638,8.474058127018303
5.237179763186222,1.5513951210072419,-4.927774216567291,8.520830662425467
5.245175457481163,1.4885076377886062,-4.9637099212636535,8.54778244094774
5.253171151776104,1.4256201545699707,-4.999645625960017,8.574734219470013
5.261166846071045,1.362732671351335,-5.03558133065638,8.601685997992286
5.269162540365985,1.2998451881326996,-5.071517035352743,8.628637776514557
5.277158234660926,1.2369577049140639,-5.107452740049107,8.65558955503683
5.285153928955867,1.1740702216954282,-5.14338844474547,8.682541333559103
5.293149623250808,1.1111827384767927,-5.1793241494418325,8.709493112081375
5.301145317545748,1.048295255258164,-5.215259854138192,8.736444890603645
5.309141011840689,0.9854077720395285,-5.251195558834555,8.763396669125918
5.31713670613563,0.9225202888208929,-5.2871312635309184,8.790348447648189
5.3251324004305705,2.793379978471486,-2.9079440258342166,7.510592034445622
5.333128094725511,2.3935952637244347,-3.3876856835306777,8.150247578040904
5.341123789020452,2.256258649853913,-3.6385142754626094,8.40206315034087
5.349119483315393,2.199146547747192,-3.8193692654672247,8.53532472192322
5.357115177610334,2.1420344456404714,-4.00022425547184,8.668586293505566
5.365110871905275,2.084922343533751,-4.181079245476456,8.801847865087915
5.3731065662002155,2.0278102414270305,-4.361934235481071,8.935109436670263
5.381102260495156,1.9706981393203098,-4.542789225485686,9.06837100825261
5.389097954790097,1.913586037213589,-4.723644215490301,9.201632579834959
5.397093649085038,1.8564739351068686,-4.904499205494917,9.334894151417306
5.405089343379979,1.799361833000148,-5.085354195499532,9.468155722999654
5.41308503767492,1.7422497308934273,-5.266209185504147,9.601417294582003
5.421080731969861,1.9565123789022827,-4.586975242195434,9.26770721205584
5.4290764262648015,3.7770904427089262,-3.245819114582148,9.070544854911477
5.437072120559741,3.717548038384905,-3.3649039232301905,8.993990335066306
5.445067814854682,3.658005634060877,-3.483988731878246,8.917435815221127
5.453063509149623,3.598463229736849,-3.603073540526302,8.840881295375949
5.461059203444564,3.538920825412821,-3.7221583491743577,8.764326775530769
5.469054897739505,3.479378421088793,-3.8412431578224138,8.68777225568559
5.477050592034446,3.4198360167647652,-3.9603279664704694,8.611217735840413
5.4850462863293865,3.360293612440737,-4.079412775118525,8.534663215995232
5.493041980624327,3.300751208116709,-4.198497583766581,8.458108696150054
5.501037674919268,3.241208803792681,-4.3175823924146375,8.381554176304876
5.509033369214209,3.1816663994686536,-4.4366672010626935,8.304999656459696
5.51702906350915,3.1221239951446256,-4.555752009710749,8.228445136614518
5.525024757804091,1.8014147316623081,-4.997170536675384,8.600353682915577
5.533020452099032,2.9000713445315043,-3.900047563021003,8.49983352942649
5.541016146393972,2.927963301374321,-3.918642200916214,8.434752296793251
5.549011840688913,2.9558552582171385,-3.9372368388114256,8.369671064160011
5.557007534983854,2.9837472150599558,-3.9558314767066367,8.304589831526771
5.565003229278795,3.0116391719027726,-3.9744261146018482,8.239508598893531
5.572998923573736,3.03953112874559,-3.99302075249706,8.174427366260291
5.580994617868676,3.0674230855884037,-4.011615390392269,8.109346133627058
5.588990312163617,3.095315042431221,-4.03021002828748,8.044264900993818
5.5969860064585575,3.1232069992740383,-4.048804666182692,7.979183668360578
5.604981700753498,3.151098956116855,-4.067399304077903,7.914102435727338
5.612977395048439,3.1789909129596725,-4.085993941973115,7.8490212030940985
5.62097308934338,2.805382131324081,-4.790581270182857,8.391926803013877
5.628968783638321,2.993615519057375,-4.831922404713124,8.7
5.636964477933262,2.9764204775628786,-4.917897612185606,8.7
5.644960172228203,2.9592254360683823,-5.003872819658088,8.7
5.652955866523143,2.942030394573886,-5.089848027130571,8.7
5.660951560818084,2.924835353079389,-5.175823234603053,8.7
5.668947255113025,2.907640311584893,-5.261798442075535,8.7
5.676942949407966,2.8904452700903964,-5.347773649548017,8.7
5.684938643702907,2.8732502285959,-5.4337488570204995,8.7
5.692934337997848,2.8560551871014033,-5.519724064492982,8.7
5.7009300322927885,2.838860145606907,-5.605699271965464,8.7
5.708925726587729,2.8216651041124106,-5.691674479437946,8.7
5.71692142088267,2.804470062617914,-5.777649686910428,8.7
5.72491711517761,1.4687298170075593,-5.8145855758880485,9.231270182992441
5.732912809472551,1.1089235737352134,-5.8545640473627545,9.591076426264786
5.740908503767492,0.7491173304628677,-5.89454251883746,9.950882669537132
5.748904198062433,0.4,-4.511975932212742,10.862275399519747
5.7568998923573735,0.4,-4.368463470508677,10.800770058789434
5.764895586652314,0.4,-4.224951008804611,10.73926471805912
5.772891280947255,0.4,-4.081438547100545,10.677759377328805
5.780886975242196,0.4,-3.937926085396479,10.616254036598491
5.788882669537137,0.4,-3.794413623692413,10.554748695868177
5.796878363832078,0.4,-3.6509011619883474,10.493243355137864
5.804874058127019,0.4,-3.507388700284281,10.43173801440755
5.8128697524219595,0.4,-3.3638762385802154,10.370232673677236
5.8208654467169,0.4,-3.2203637768761495,10.308727332946923
5.828861141011841,1.6,-4.130570505920705,9.093057050592071
5.836856835306782,1.6085400383769373,-4.225620115130812,9.065839846492251
5.844852529601723,1.6172310104366556,-4.251693031309967,9.031075958253378
5.852848223896664,1.6259219824963738,-4.277765947489121,8.996312070014504
5.860843918191604,1.634612954556091,-4.303838863668274,8.961548181775635
5.8688396124865445,1.6433039266158094,-4.329911779847428,8.926784293536763
5.876835306781485,1.6519948986755275,-4.3559846960265824,8.89202040529789
5.884831001076426,1.6606858707352459,-4.382057612205737,8.857256517059016
5.892826695371367,1.669376842794964,-4.408130528384892,8.822492628820143
5.900822389666308,1.6780678148546824,-4.434203444564047,8.78772874058127
5.908818083961249,1.6867587869144005,-4.460276360743202,8.752964852342396
5.91681377825619,1.6954497589741189,-4.486349276922357,8.718200964103524
5.92480947255113,1.8190527448869847,-3.6381054897739693,8.421420882669523
5.932805166846071,1.6220667384285399,-4.96620021528562,10.607750269107026
5.940800861141012,1.7181415375372378,-5.0820800060079545,10.700443087090385
5.948796555435953,1.736736175432449,-4.961214859689081,10.49590207024306
5.956792249730894,1.7553308133276602,-4.840349713370208,10.291361053395738
5.964787944025835,1.7739254512228715,-4.719484567051335,10.086820036548414
5.9727836383207755,1.7925200891180826,-4.598619420732462,9.882279019701091
5.980779332615716,1.811114727013294,-4.47775427441359,9.677738002853767
5.988775026910657,1.829709364908505,-4.356889128094717,9.473196986006444
5.996770721205598,1.8483040028037163,-4.236023981775844,9.26865596915912
6.004766415500538,1.8668986406989254,-4.115158835456985,9.064114952311819
6.012762109795479,1.8854932785941365,-3.994293689138112,8.859573935464496
6.02075780409042,3.5699138858987944,-3.1089881593110973,8.7
6.028753498385361,2.0299293302756602,-3.8970070669724337,9.753872794496187
6.036749192680301,2.116839050872843,-3.8883160949127156,9.910310291571117
6.044744886975242,2.2037487714700257,-3.8796251228529974,10.066747788646046
6.052740581270183,2.290658492067208,-3.870934150793279,10.223185285720975
6.060736275565124,2.3775682126643907,-3.8622431787335607,10.379622782795902
6.068731969860065,2.4644779332615734,-3.8535522066738426,10.536060279870831
6.076727664155006,2.551387653858756,-3.8448612346141244,10.69249777694576
6.0847233584499465,2.638297374455939,-3.836170262554406,10.84893527402069
6.092719052744887,2.725207095053121,-3.8274792904946877,11.005372771095619
6.100714747039828,2.812116815650304,-3.8187883184349696,11.161810268170548
6.108710441334769,2.8990265362474865,-3.810097346375251,11.318247765245475
6.11670613562971,2.9859362568446692,-3.801406374315533,11.474685262320405
6.124701829924651,2.2041980624328192,-3.4829924650161237,10.70215285252956
6.132697524219592,3.741831580690686,-3.1139604206342355,10.025594104496097
6.1406932185145315,2.5395813609659275,-4.5717275993100515,8.783036559586032
6.148688912809472,2.607014927308802,-4.523560766207998,8.7541364597248
6.156684607104413,2.6744484936516764,-4.475393933105945,8.725236359863567
6.164680301399354,2.741882059994551,-4.427227100003892,8.696336260002337
6.172675995694295,2.8093156263374253,-4.379060266901838,8.667436160141104
6.180671689989236,2.8767491926803,-4.330893433799785,8.638536060279872
6.188667384284177,2.9441827590231746,-4.282726600697732,8.60963596041864
6.1966630785791175,3.011616325366049,-4.234559767595679,8.580735860557407
6.204658772874058,3.0790498917089235,-4.186392934493626,8.551835760696175
6.212654467168999,3.146483458051798,-4.138226101391573,8.522935660834944
6.22065016146394,3.4475242195909828,-4.017491926803006,8.5
6.228645855758881,2.69430998761531,-3.87723995046124,7.525605055731106
6.236641550053822,2.6771149461208137,-3.808459784483254,7.602982742456339
6.2446372443487626,2.6599199046263173,-3.739679618505268,7.680360429181573
6.252632938643703,2.6427248631318205,-3.6708994525272822,7.7577381159068075
6.260628632938644,2.625529821637324,-3.6021192865492964,7.835115802632042
6.268624327233585,2.608334780142828,-3.533339120571311,7.912493489357276
6.276620021528526,2.5911397386483315,-3.464558954593325,7.989871176082509
6.284615715823466,2.573944697153837,-3.3957787886153468,8.067248862807736
6.292611410118407,2.55674965565934,-3.326998622637361,8.144626549532969
6.300607104413348,2.5395546141648437,-3.258218456659375,8.222004236258204
6.308602798708288,2.5223595726703474,-3.189438290681389,8.299381922983438
6.316598493003229,2.505164531175851,-3.1206581247034038,8.376759609708671
6.32459418729817,3.0202368137783115,-2.7477933261571925,8.971044133476825
6.332589881593111,4.63415592148959,-3.656520394842315,8.183851315759338
6.340585575888052,4.880831596546278,-3.716062799166343,8.166839200238186
6.348581270182993,5.127507271602965,-3.775605203490371,8.149827084717037
6.3565769644779335,5.374182946659652,-3.835147607814399,8.132814969195886
6.364572658772874,5.620858621716339,-3.8946900121384265,8.115802853674735
6.372568353067815,5.867534296773027,-3.9542324164624545,8.098790738153584
6.380564047362756,6.114209971829713,-4.013774820786482,8.081778622632433
6.388559741657697,6.360885646886401,-4.07331722511051,8.064766507111283
6.396555435952638,6.607561321943088,-4.132859629434538,8.047754391590132
6.404551130247579,6.854236996999775,-4.192402033758566,8.030742276068981
6.4125468245425195,7.100912672056463,-4.251944438082594,8.01373016054783
6.42054251883746,5.1404736275557354,-3.0659849300318487,7.537244348761943
6.4285382131324,3.3810984128438286,-3.5675972791608497,7.910800906946384
6.436533907427341,3.321556008519801,-3.4655245860339448,7.944825137988685
6.444529601722282,3.262013604195773,-3.3634518929070394,7.978849369030987
6.452525296017223,3.202471199871745,-3.2613791997801345,8.01287360007329
6.460520990312164,3.142928795547717,-3.1593065066532295,8.04689783111559
6.4685166846071045,3.083386391223689,-3.057233813526324,8.080922062157892
6.476512378902045,3.0238439868996614,-2.9551611203994193,8.114946293200195
6.484508073196986,2.9643015825756334,-2.853088427272514,8.148970524242495
6.492503767491927,2.9047591782516053,-2.751015734145609,8.182994755284797
6.500499461786868,2.8452167739275773,-2.648943041018704,8.2170189863271
6.508495156081809,2.7856743696035497,-2.546870347891799,8.251043217369402
6.51649085037675,2.7261319652795217,-2.4447976547648937,8.285067448411702
6.52448654467169,2.893110871905247,-2.6095801937567216,7.7
6.532482238966631,1.584724532733123,-2.3188276739406937,7.7
6.540477933261572,2.794604899684852,-4.8676293981091145,9.910790200630295
6.548473627556513,2.7849715330644416,-4.809829198386651,9.930056933871116
6.556469321851454,2.775338166444031,-4.752028998664187,9.949323667111939
6.564465016146394,2.7657047998236215,-4.6942287989417295,9.968590400352758
6.572460710441335,2.756071433203211,-4.636428599219266,9.987857133593579
6.5804564047362755,2.7464380665828,-4.578628399496802,10.0071238668344
6.588452099031216,2.7368046999623896,-4.520828199774337,10.02639060007522
6.596447793326157,2.727171333341979,-4.463028000051874,10.045657333316042
6.604443487621098,2.7175379667215687,-4.40522780032941,10.064924066556863
6.612439181916039,2.7079046001011577,-4.347427600606946,10.084190799797684
6.62043487621098,0.9064047362756873,-4.945694294940752,8.95209903121644
6.6284305705059205,1.3921594499809025,-4.6921594499809025,7.694772966653935
6.636426264800861,1.3663668877391577,-4.666366887739158,7.677577925159439
6.644421959095802,1.3405743254974132,-4.640574325497413,7.660382883664942
6.652417653390743,1.3147817632556684,-4.614781763255669,7.643187842170446
6.660413347685684,1.288989201013924,-4.588989201013924,7.62599280067595
6.668409041980625,1.2631966387721791,-4.56319663877218,7.608797759181453
6.676404736275566,1.2374040765304346,-4.537404076530435,7.591602717686956
6.6844004305705065,1.2116115142886899,-4.51161151428869,7.57440767619246
6.692396124865447,1.185818952046945,-4.485818952046945,7.557212634697963
6.700391819160388,1.1600263898052006,-4.460026389805201,7.540017593203467
6.708387513455328,1.1342338275634587,-4.4342338275634585,7.522822551708972
6.716383207750269,1.108441265321714,-4.408441265321715,7.505627510214476
6.72437890204521,0.7838536060279879,-4.229817007534985,8.329817007534984
6.732374596340151,0.7870770267202708,-5.806461486639864,8.906461486639865
6.7403702906350915,0.7435630441627693,-5.8282184779186155,8.928218477918616
6.748365984930032,0.7000490616052679,-5.849975469197366,8.949975469197366
6.756361679224973,0.6565350790477665,-5.8717324604761165,8.971732460476117
6.764357373519914,0.6130210964902651,-5.893489451754867,8.993489451754868
6.772353067814855,0.5695071139327638,-5.9152464430336185,9.015246443033618
6.780348762109796,0.5259931313752624,-5.937003434312369,9.03700343431237
6.788344456404737,0.48247914881776094,-5.9587604255911195,9.058760425591121
6.7963401506996775,0.43896516626025955,-5.98051741686987,9.08051741686987
6.804335844994618,0.39545118370275817,-6.002274408148621,9.102274408148622
6.812331539289559,0.35193720114525673,-6.024031399427372,9.124031399427372
6.8203272335845,0.30842321858775534,-6.0457883907061225,9.145788390706123
6.828322927879441,0.26490923603025396,-6.067545381984873,9.167545381984874
6.836318622174382,0.22139525347275257,-6.089302373263624,9.189302373263624
6.8443143164693225,0.1778812709152512,-6.111059364542375,9.211059364542376
6.8523100107642625,0.13436728835775458,-6.132816355821123,9.232816355821123
6.860305705059203,0.09085330580025319,-6.154573347099873,9.254573347099875
6.868301399354144,0.04733932324275181,-6.176330338378625,9.276330338378624
6.876297093649085,0.0038253406852504224,-6.198087329657375,9.298087329657376
6.884292787944026,0.5992492616819858,-3.5969970467279433,8.599249261681985
6.892288482238967,0.5787474814385476,-3.5149899257541906,8.578747481438548
6.900284176533908,0.5582457011951093,-3.4329828047804374,8.558245701195109
6.908279870828848,0.5377439209516711,-3.3509756838066846,8.537743920951671
6.916275565123789,0.5172421407082328,-3.2689685628329315,8.517242140708232
6.92427125941873,0.512712594187301,-3.3017007534984084,8.550850376749205
6.932266953713671,0.5926695371367112,-3.9413562970936895,8.870678148546846
6.940262648008612,0.9713588859669358,-4.002864111403307,8.788543554386775
6.948258342303553,0.8701475657778119,-4.012985243422219,8.748059026311125
6.9562540365984935,0.7689362455886881,-4.023106375441131,8.707574498235475
6.964249730893434,0.6677249253995643,-4.033227507460044,8.667089970159827
6.972245425188375,0.5665136052104405,-4.043348639478956,8.626605442084177
6.980241119483316,0.46530228502131654,-4.053469771497868,8.586120914008527
6.988236813778256,0.36409096483220393,-4.063590903516779,8.545636385932882
6.996232508073197,0.2628796446430801,-4.073712035535692,8.505151857857232
7.004228202368138,0.16166832445395618,-4.083833167554604,8.464667329781584
7.0122238966630785,0.06045700426483236,-4.093954299573516,8.424182801705934
7.020219590958019,-0.3606181762263629,-3.4696909118868184,8.278763647547274
7.02821528525296,-0.9905089297081859,-0.32083405673812837,6.903935321828314
7.036210979547901,-0.6380105790710121,-1.0946109239904613,7.050093174531532
7.044206673842842,-0.2855122284338383,-1.8683877912427944,7.196251027234751
7.052202368137783,0.06698612220333544,-2.642164658495127,7.3424088799379685
7.060198062432724,0.4194844728405094,-3.41594152574746,7.488566732641187
7.0681937567276645,0.7719828234776833,-4.189718392999793,7.634724585344405
7.076189451022605,1.124481174114857,-4.963495260252126,7.780882438047624
7.084185145317546,1.4769795247520308,-5.7372721275044585,7.927040290750842
7.092180839612487,1.829477875389205,-6.511048994756791,8.07319814345406
7.100176533907428,2.1819762260263786,-7.284825862009125,8.21935599615728
7.108172228202369,2.5344745766635524,-8.058602729261459,8.365513848860497
7.11616792249731,2.886972927300726,-8.83237959651379,8.511671701563715
7.12416361679225,3.447883028345765,-3.959382848941846,8.61939361320417
7.13215931108719,2.7800861141011652,-5.256189451022564,8.215931108719067
7.140155005382131,2.2849819082573575,-4.189987938838239,8.589987938838238
7.148150699677072,2.2560818083961256,-4.170721205597418,8.570721205597417
7.156146393972013,2.2271817085348937,-4.151454472356596,8.551454472356596
7.164142088266954,2.198281608673662,-4.132187739115775,8.532187739115775
7.172137782561895,2.16938150881243,-4.112921005874953,8.512921005874952
7.1801334768568355,2.1404814089511977,-4.093654272634132,8.493654272634132
7.188129171151776,2.1115813090899658,-4.074387539393311,8.47438753939331
7.196124865446717,2.082681209228734,-4.055120806152489,8.45512080615249
7.204120559741658,2.053781109367502,-4.035854072911668,8.435854072911669
7.212116254036599,2.02488100950627,-4.0165873396708465,8.416587339670848
7.22011194833154,1.5720129171150257,-3.544779332615959,8.6
7.2281076426264805,3.0803727834117,-4.14906804147075,8.386915188941133
7.236103336921421,3.029873661548916,-4.27531584612771,8.353249107699277
7.244099031216362,2.9793745396861318,-4.40156365078467,8.31958302645742
7.252094725511303,2.928875417823348,-4.52781145544163,8.285916945215565
7.260090419806244,2.878376295960564,-4.65405926009859,8.252250863973709
7.268086114101185,2.82787717409778,-4.78030706475555,8.218584782731854
7.276081808396125,2.777378052235002,-4.906554869412496,8.184918701490002
7.284077502691066,2.7268789303722176,-5.032802674069456,8.151252620248146
7.292073196986006,2.676379808509434,-5.1590504787264155,8.11758653900629
7.300068891280947,2.6258806866466498,-5.2852982833833755,8.083920457764433
7.308064585575888,2.575381564783866,-5.411546088040335,8.050254376522577
7.316060279870829,2.524882442921082,-5.537793892697295,8.016588295280721
7.32405597416577,2.183207750269141,-4.3248116254037114,8.45839612486543
7.332051668460711,2.704356632753452,-4.804356632753452,8.391286734493097
7.3400473627556515,2.7129541535007005,-4.8129541535007005,8.374091692998599
7.348043057050592,2.7215516742479484,-4.8215516742479485,8.356896651504103
7.356038751345533,2.730149194995197,-4.8301491949951965,8.339701610009607
7.364034445640474,2.7387467157424448,-4.838746715742445,8.32250656851511
7.372030139935415,2.747344236489693,-4.847344236489693,8.305311527020613
7.380025834230356,2.7559417572369416,-4.855941757236941,8.288116485526118
7.388021528525297,2.7645392779841895,-4.86453927798419,8.27092144403162
7.396017222820237,2.773136798731438,-4.873136798731438,8.253726402537124
7.404012917115178,2.781734319478686,-4.881734319478686,8.236531361042628
7.412008611410118,2.7903318402259334,-4.890331840225934,8.219336319548132
7.420004305705059,2.7989293609731813,-4.898929360973182,8.202141278053636
7.428,2.7,-5.0,8.3
