accel_time_list,accel_x_list,accel_y_list,accel_z_list
0.0,0.3,-4.0,8.9
0.00799401913875598,0.16626794258373204,-3.900299043062201,8.8997009569378
0.01598803827751196,0.30643875083603433,-3.8128775016720686,8.993561249163966
0.02398205741626794,0.31503447034007304,-3.830068940680146,8.984965529659927
0.03197607655502392,0.32363018984411174,-3.8472603796882234,8.976369810155889
0.039970095693779906,0.33222590934815044,-3.864451818696301,8.967774090651849
0.04796411483253588,0.34082162885218914,-3.8816432577043782,8.95917837114781
0.05595813397129186,0.3494173483562278,-3.8988346967124556,8.950582651643773
0.06395215311004784,0.3580130678602665,-3.916026135720533,8.941986932139734
0.07194617224880383,0.3666087873643052,-3.9332175747286104,8.933391212635694
0.07994019138755981,0.3752045068683439,-3.950409013736688,8.924795493131656
0.08793421052631578,0.3838002263723826,-3.9676004527447652,8.916199773627618
0.09592822966507177,0.3923959458764213,-3.9847918917528427,8.90760405412358
0.10392224880382775,0.031100478468898407,-4.092224880382775,8.9
0.11191626794258372,0.19798622430201382,-4.097986224302013,8.9
0.1199102870813397,0.1804169514695831,-4.080416951469583,8.9
0.1279043062200957,0.16284767863715235,-4.062847678637152,8.9
0.13589832535885166,0.14527840580472165,-4.045278405804721,8.9
0.14389234449760765,0.1277091329722909,-4.027709132972291,8.9
0.15188636363636362,0.11013986013986019,-4.01013986013986,8.9
0.15988038277511962,0.09257058730742942,-3.992570587307429,8.9
0.1678744019138756,0.07500131447499872,-3.9750013144749987,8.9
0.17586842105263156,0.057432041642568016,-3.957432041642568,8.9
0.18386244019138756,0.039862768810137256,-3.939862768810137,8.9
0.19185645933014353,0.02229349597770655,-3.9222934959777063,8.9
0.1998504784688995,0.0047242231452758465,-3.904724223145276,8.9
0.2078444976076555,0.19481658692185025,-3.997408293460925,8.997408293460925
0.21583851674641147,0.0027828595553053663,-4.002782859555305,8.9
0.22383253588516744,0.010620133220752396,-4.010620133220752,8.9
0.23182655502392344,0.018457406886199453,-4.018457406886199,8.9
0.2398205741626794,0.02629468055164648,-4.026294680551646,8.9
0.2478145933014354,0.03413195421709354,-4.034131954217093,8.9
0.2558086124401914,0.041969227882540566,-4.04196922788254,8.9
0.26380263157894734,0.049806501547987596,-4.049806501547987,8.9
0.2717966507177033,0.057643775213434625,-4.0576437752134344,8.9
0.27979066985645934,0.0654810488788817,-4.0654810488788815,8.9
0.2877846889952153,0.07331832254432874,-4.073318322544329,8.9
0.2957787081339713,0.08115559620977576,-4.081155596209776,8.9
0.30377272727272725,0.0889928698752228,-4.088992869875223,8.9
0.3117667464114832,0.09683014354066982,-4.09683014354067,8.9
0.31976076555023925,0.16478468899521523,-4.035215311004785,8.964784688995215
0.3277547846889952,0.1,-4.073584529505582,8.9
0.3357488038277512,0.1,-4.029173312068049,8.9
0.34374282296650716,0.09720120105458456,-3.9972012010545845,8.9
0.3517368421052631,0.08904403866809887,-3.9890440386680988,8.9
0.3597308612440191,0.0808868762816132,-3.980886876281613,8.9
0.3677248803827751,0.07272971389512745,-3.9727297138951276,8.9
0.3757188995215311,0.06457255150864177,-3.964572551508642,8.9
0.38371291866028706,0.05641538912215608,-3.956415389122156,8.9
0.39170693779904303,0.048258226735670394,-3.9482582267356703,8.9
0.399700956937799,0.04010106434918471,-3.9401010643491845,8.9
0.407694976076555,0.03194390196269897,-3.9319439019626987,8.9
0.415688995215311,0.023786739576213287,-3.9237867395762134,8.9
0.42368301435406697,0.0156295771897276,-3.9156295771897276,8.9
0.43167703349282294,0.007472414803241914,-3.907472414803242,8.9
0.4396710526315789,0.03355263157894525,-3.9335526315789453,8.9
0.4476650717703349,0.1,-4.0,8.9
0.4556590909090909,0.1,-4.0,8.9
0.4636531100478469,0.1,-4.0,8.9
0.47164712918660284,0.1,-4.0,8.9
0.4796411483253588,0.1,-4.0,8.9
0.4876351674641148,0.1,-4.0,8.9
0.4956291866028708,0.1,-4.0,8.9
0.5036232057416268,0.015580143540669375,-4.084419856459331,8.9
0.5116172248803827,0.1,-4.0,8.9
0.5196112440191387,0.1,-4.0,8.9
0.5276052631578947,0.1,-4.0,8.9
0.5355992822966507,0.1,-4.0,8.9
0.5435933014354066,0.1,-4.0,8.9
0.5515873205741626,0.1,-4.0,8.9
0.5595813397129187,0.1,-4.0,8.9
0.5675753588516746,0.1,-4.0,8.9
0.5755693779904306,0.1,-4.0,8.9
0.5835633971291866,0.1,-4.0,8.9
0.5915574162679426,0.1,-4.0,8.9
0.5995514354066985,0.1,-4.0,8.9
0.6075454545454545,0.051515151515150515,-4.05151515151515,8.9
0.6155394736842105,0.1,-4.0,8.9
0.6235334928229664,0.1,-4.0,8.9
0.6315275119617224,0.1,-4.0,8.9
0.6395215311004785,0.1,-4.0,8.9
0.6475155502392345,0.1,-4.0,8.9
0.6555095693779904,0.1,-4.0,8.9
0.6635035885167464,0.1,-4.0,8.9
0.6714976076555024,0.1,-4.0,8.9
0.6794916267942583,0.1,-4.0,8.9
0.6874856459330143,0.1,-4.0,8.9
0.6954796650717703,0.1,-4.0,8.9
0.7034736842105263,0.1,-4.0,8.9
0.7114677033492822,0.15879730317529323,-4.058797303175293,8.9
0.7194617224880382,0.14230462519936304,-4.042304625199363,8.9
0.7274557416267943,0.1,-4.0,8.9
0.7354497607655502,0.1,-4.0,8.9
0.7434437799043062,0.1,-4.0,8.9
0.7514377990430622,0.1,-4.0,8.9
0.7594318181818182,0.1,-4.0,8.9
0.7674258373205741,0.1,-4.0,8.9
0.7754198564593301,0.1,-4.0,8.9
0.7834138755980861,0.1,-4.0,8.9
0.791407894736842,0.1,-4.0,8.9
0.799401913875598,0.1,-4.0,8.9
0.807395933014354,0.1,-4.000430361972124,8.9
0.81538995215311,0.1,-4.009119513209902,8.9
0.823383971291866,0.1,-4.0178086644476805,8.9
0.831377990430622,0.1,-4.026497815685459,8.9
0.839372009569378,0.1,-4.035186966923237,8.9
0.8473660287081339,0.1,-4.043876118161015,8.9
0.8553600478468899,0.1,-4.0525652693987935,8.9
0.8633540669856459,0.1,-4.061254420636572,8.9
0.8713480861244018,0.1,-4.06994357187435,8.9
0.8793421052631578,0.1,-4.078632723112127,8.9
0.8873361244019138,0.1,-4.087321874349906,8.9
0.8953301435406698,0.1,-4.096011025587684,8.9
0.9033241626794258,0.1,-4.099675837320574,8.999675837320574
0.9113181818181818,0.1,-4.091681818181818,8.991681818181819
0.9193122009569378,0.1,-4.083687799043062,8.983687799043063
0.9273062200956937,0.1,-4.075693779904306,8.975693779904306
0.9353002392344497,0.1,-4.06769976076555,8.96769976076555
0.9432942583732057,0.1,-4.059705741626794,8.959705741626795
0.9512882775119617,0.1,-4.051711722488038,8.951711722488039
0.9592822966507176,0.1,-4.043717703349282,8.943717703349282
0.9672763157894736,0.1,-4.035723684210526,8.935723684210526
0.9752703349282296,0.1,-4.02772966507177,8.927729665071771
0.9832643540669856,0.1,-4.0197356459330145,8.919735645933015
0.9912583732057416,0.1,-4.011741626794258,8.911741626794258
0.9992523923444976,0.1,-4.0037476076555025,8.903747607655502
1.0072464114832536,0.025119617224880736,-3.9497607655502387,8.9
1.0152404306220095,0.10251733777753891,-3.997482662222461,9.002517337777538
1.0232344497607655,0.11149938175366919,-3.9885006182463307,9.01149938175367
1.0312284688995215,0.12048142572979947,-3.9795185742702004,9.0204814257298
1.0392224880382774,0.12946346970592976,-3.97053653029407,9.029463469705929
1.0472165071770334,0.13844551368206004,-3.9615544863179397,9.03844551368206
1.0552105263157894,0.14742755765819032,-3.95257244234181,9.04742755765819
1.0632045454545453,0.1564096016343206,-3.9435903983656795,9.05640960163432
1.0711985645933013,0.1653916456104509,-3.934608354389549,9.06539164561045
1.0791925837320573,0.17437368958658117,-3.925626310413419,9.074373689586581
1.0871866028708133,0.18335573356271145,-3.9166442664372885,9.083355733562712
1.0951806220095692,0.19233777753884174,-3.907662222461158,9.092337777538841
1.1031746411483252,0.08253588516747838,-3.9087320574162607,8.99126794258374
1.1111686602870814,-0.1,-4.028039364941279,8.843921270117441
1.1191626794258374,-0.1,-4.064375815571988,8.771248368856023
1.1271566985645933,-0.1,-4.115669856459332,8.692165071770333
1.1351507177033493,0.0,-4.405685914662123,8.505685914662122
1.1431447368421053,0.0,-4.416636625811104,8.516636625811103
1.1511387559808612,0.0,-4.427587336960084,8.527587336960083
1.1591327751196172,0.0,-4.438538048109065,8.538538048109064
1.1671267942583732,0.0,-4.449488759258045,8.549488759258045
1.1751208133971291,0.0,-4.460439470407026,8.560439470407026
1.1831148325358851,0.0,-4.471390181556007,8.571390181556007
1.191108851674641,0.0,-4.482340892704988,8.582340892704988
1.199102870813397,0.0,-4.493291603853969,8.593291603853968
1.207096889952153,0.05161483253588446,-4.5516148325358845,8.6
1.215090909090909,0.09991173874669038,-4.2,8.800088261253311
1.223084928229665,0.09215055511683021,-4.2,8.807849444883171
1.231078947368421,0.08438937148697004,-4.2,8.815610628513031
1.239072966507177,0.07662818785710987,-4.2,8.823371812142891
1.2470669856459329,0.0688670042272497,-4.2,8.831132995772752
1.2550610047846888,0.06110582059738954,-4.2,8.838894179402612
1.2630550239234448,0.05334463696752937,-4.2,8.846655363032472
1.2710490430622008,0.04558345333766921,-4.2,8.854416546662332
1.279043062200957,0.037822269707808824,-4.2,8.862177730292192
1.287037081339713,0.030061086077948662,-4.2,8.869938913922052
1.295031100478469,0.022299902448088493,-4.2,8.877700097551912
1.303025119617225,0.014538718818228324,-4.2,8.885461281181772
1.3110191387559809,0.006777535188368156,-4.2,8.893222464811632
1.3190131578947368,-0.09934210526315593,-4.1,8.899342105263157
1.3270071770334928,0.09609457528117826,-4.103905424718821,8.9
1.3350011961722488,0.08571273224383284,-4.114287267756167,8.9
1.3429952153110047,0.07533088920648742,-4.124669110793512,8.9
1.3509892344497607,0.064949046169142,-4.1350509538308575,8.9
1.3589832535885167,0.054567203131796575,-4.145432796868203,8.9
1.3669772727272727,0.044185360094451155,-4.1558146399055484,8.9
1.3749712918660286,0.03380351705710573,-4.166196482942894,8.9
1.3829653110047846,0.023421674019760308,-4.176578325980239,8.9
1.3909593301435406,0.013039830982414888,-4.186960169017585,8.9
1.3989533492822965,0.0026579879450694677,-4.19734201205493,8.9
1.4069473684210525,-0.08947368421049595,-4.2105263157895045,8.7
1.4149413875598085,-0.10844828463809411,-4.2,8.716896569276187
1.4229354066985644,-0.11695256031762175,-4.2,8.733905120635242
1.4309294258373204,-0.12545683599714938,-4.2,8.750913671994299
1.4389234449760764,-0.133961111676677,-4.2,8.767922223353354
1.4469174641148324,-0.14246538735620468,-4.2,8.784930774712409
1.4549114832535885,-0.15096966303573256,-4.2,8.801939326071466
1.4629055023923445,-0.15947393871526017,-4.2,8.81894787743052
1.4708995215311005,-0.16797821439478783,-4.2,8.835956428789576
1.4788935406698565,-0.17648249007431546,-4.2,8.85296498014863
1.4868875598086124,-0.1849867657538431,-4.2,8.869973531507686
1.4948815789473684,-0.19349104143337076,-4.2,8.886982082866743
1.5028755980861244,-0.1,-4.407296650717703,8.607296650717702
1.5108696172248803,-0.1,-4.473913476874003,8.673913476874002
1.5188636363636363,-0.1,-4.5,8.578409090909092
1.5268576555023923,-0.09633633909949713,-4.589009017298491,8.71465464360201
1.5348516746411482,-0.08608759661391255,-4.558262789841737,8.75564961354435
1.5428456937799042,-0.07583885412832798,-4.527516562384983,8.796644583486687
1.5508397129186602,-0.06559011164274342,-4.49677033492823,8.837639553429026
1.5588337320574162,-0.05534136915715884,-4.466024107471476,8.878634523371364
1.5668277511961721,-0.04509262667157427,-4.435277880014723,8.919629493313703
1.574821770334928,-0.0348438841859897,-4.404531652557969,8.96062446325604
1.582815789473684,-0.024595141700405138,-4.373785425101215,9.001619433198378
1.59080980861244,-0.014346399214820574,-4.343039197644462,9.042614403140718
1.598803827751196,-0.004097656729235996,-4.312292970187708,9.083609373083055
1.606797846889952,0.04043062200960179,-4.220215311004801,8.830322966507202
1.614791866028708,-0.6241327751196164,-4.148265550239232,8.375867224880384
1.6227858851674641,-0.6574411881977672,-4.2148823763955345,8.342558811802233
1.63077990430622,-0.6907496012759171,-4.281499202551834,8.309250398724084
1.638773923444976,-0.7240580143540669,-4.348116028708134,8.275941985645932
1.646767942583732,-0.7573664274322167,-4.414732854864433,8.242633572567783
1.654761961722488,-0.7906748405103666,-4.481349681020733,8.209325159489634
1.662755980861244,-0.8239832535885165,-4.547966507177033,8.176016746411483
1.67075,-0.8572916666666663,-4.614583333333333,8.142708333333333
1.678744019138756,-0.8906000797448161,-4.681200159489633,8.109399920255184
1.686738038277512,-0.5757177033492845,-5.1,8.099043062200954
1.6947320574162679,-0.2,-4.5983659835695585,8.604902049291324
1.7027260765550238,-0.2,-4.590824456080166,8.627526631759501
1.7107200956937798,-0.2,-4.583282928590774,8.650151214227678
1.7187141148325358,-0.2,-4.575741401101381,8.672775796695856
1.7267081339712917,-0.2,-4.568199873611989,8.695400379164033
1.7347021531100477,-0.2,-4.5606583461225965,8.71802496163221
1.7426961722488037,-0.2,-4.553116818633204,8.740649544100387
1.7506901913875597,-0.2,-4.545575291143812,8.763274126568565
1.7586842105263156,-0.2,-4.538033763654419,8.785898709036742
1.7666782296650716,-0.2,-4.530492236165027,8.808523291504919
1.7746722488038276,-0.2,-4.522950708675634,8.831147873973098
1.7826662679425835,-0.2,-4.515409181186242,8.853772456441275
1.7906602870813395,-0.2,-4.50786765369685,8.876397038909452
1.7986543062200957,-0.2,-4.500326126207457,8.89902162137763
1.8066483253588517,-0.4986493221690591,-4.4013506778309415,8.699324661084528
1.8146423444976076,-0.48199511562998415,-4.418004884370016,8.690997557814992
1.8226363636363636,-0.4653409090909092,-4.434659090909091,8.682670454545454
1.8306303827751196,-0.44868670255183424,-4.4513132974481655,8.674343351275917
1.8386244019138756,-0.4320324960127593,-4.467967503987241,8.666016248006379
1.8466184210526315,-0.41537828947368427,-4.484621710526316,8.657689144736842
1.8546124401913875,-0.39872408293460937,-4.50127591706539,8.649362041467304
1.8626064593301435,-0.38206987639553436,-4.517930123604465,8.641034938197766
1.8706004784688994,-0.3654156698564594,-4.534584330143541,8.63270783492823
1.8785944976076554,-0.34876146331738445,-4.551238536682615,8.624380731658691
1.8865885167464114,-0.3321072567783095,-4.56789274322169,8.616053628389155
1.8945825358851673,-0.31545305023923453,-4.584546949760766,8.607726525119617
1.9025765550239233,-0.2423444976076603,-4.6,8.62882775119617
1.9105705741626793,-0.006134654818866284,-4.553067327409433,8.8407980177717
1.9185645933014353,0.1846889952152984,-4.5,9.112918660287065
1.9265586124401912,0.08631302907618775,-5.004562323641271,8.627373941847624
1.9345526315789472,0.05556680161943396,-5.014811066126855,8.688866396761131
1.9425466507177032,0.02482057416268016,-5.02505980861244,8.750358851674639
1.9505406698564591,-0.0059256532940736295,-5.035308551098025,8.811851306588148
1.958534688995215,-0.03667188075082742,-5.045557293583609,8.873343761501655
1.9665287081339713,-0.06741810820758207,-5.055806036069193,8.934836216415164
1.9745227272727273,-0.09816433566433588,-5.066054778554778,8.996328671328671
1.9825167464114832,-0.12891056312108967,-5.076303521040363,9.057821126242178
1.9905107655502392,-0.15965679057784346,-5.086552263525948,9.119313581155687
1.9985047846889952,-0.19040301803459728,-5.096801006011532,9.180806036069194
2.006498803827751,-0.5002392344497614,-3.5,7.4503588516746415
2.014492822966507,-0.38405782347551704,-3.5239132647867244,7.435508500458106
2.022486842105263,-0.36704927211646177,-3.5494260918253073,7.580081187010075
2.030480861244019,-0.35004072075740644,-3.5749389188638903,7.724653873562045
2.038474880382775,-0.3330321693983512,-3.600451745902473,7.869226560114015
2.046468899521531,-0.3160236180392959,-3.625964572941056,8.013799246665984
2.054462918660287,-0.29901506668024064,-3.651477399979639,8.158371933217955
2.062456937799043,-0.28200651532118537,-3.676990227018222,8.302944619769924
2.070450956937799,-0.26499796396213005,-3.702503054056805,8.447517306321895
2.078444976076555,-0.24798941260307478,-3.728015881095388,8.592089992873865
2.086438995215311,-0.2309808612440195,-3.7535287081339708,8.736662679425834
2.094433014354067,-0.21397230988496424,-3.7790415351725537,8.881235365977805
2.102427033492823,-0.27864832535885664,-5.113516746411434,11.791088516746298
2.1104210526315788,-0.010918253079506017,-3.9181970884658432,12.256326987681977
2.1184150717703347,-0.03643108011808893,-3.9607184668634816,12.154275679527645
2.1264090909090907,-0.061943907156671855,-4.0032398452611195,12.052224371373313
2.1344031100478467,-0.08745673419525476,-4.045761223658758,11.950173063218982
2.1423971291866026,-0.1129695612338377,-4.088282602056396,11.84812175506465
2.1503911483253586,-0.1384823882724206,-4.130803980454035,11.746070446910318
2.1583851674641146,-0.16399521531100353,-4.173325358851673,11.644019138755986
2.1663791866028705,-0.18950804234958643,-4.215846737249311,11.541967830601655
2.1743732057416265,-0.21502086938816936,-4.258368115646949,11.439916522447323
2.1823672248803825,-0.2405336964267523,-4.300889494044587,11.337865214292991
2.1903612440191385,-0.2660465234653352,-4.343410872442226,11.23581390613866
2.1983552631578944,-0.2915593505039181,-4.385932250839864,11.133762597984328
2.2063492822966504,-0.38915470494417537,-6.183094098883506,11.4566188197767
2.2143433014354064,-0.8750712613254662,-5.797507126132547,7.934900234144347
2.2223373205741628,-0.7900285045301851,-5.789002850453018,8.053960093657741
2.2303313397129187,-0.7049857477349086,-5.780498574773491,8.173019953171128
2.2383253588516747,-0.6199429909396323,-5.771994299093963,8.292079812684515
2.2463193779904307,-0.5349002341443558,-5.763490023414436,8.411139672197903
2.2543133971291867,-0.44985747734907944,-5.754985747734908,8.53019953171129
2.2623074162679426,-0.36481472055380304,-5.746481472055381,8.649259391224676
2.2703014354066986,-0.27977196375852664,-5.737977196375852,8.768319250738063
2.2782954545454546,-0.19472920696325025,-5.729472920696325,8.88737911025145
2.2862894736842105,-0.10968645016797385,-5.720968645016797,9.006438969764837
2.2942834928229665,-0.02464369337269745,-5.71246436933727,9.125498829278225
2.3022775119617225,0.06039906342257895,-5.703960093657742,9.244558688791612
2.3102715311004784,2.072188995215291,-1.837081339712945,6.2927033492823625
2.3182655502392344,3.83590147890387,-1.3,4.717950739451935
2.3262595693779904,3.890406154849934,-1.3,4.745203077424967
2.3342535885167464,3.9449108307959975,-1.3,4.772455415397999
2.3422476076555023,3.999415506742061,-1.3,4.799707753371031
2.3502416267942583,4.053920182688125,-1.3,4.826960091344063
2.3582356459330143,4.108424858634188,-1.3,4.854212429317094
2.3662296650717702,4.162929534580252,-1.3,4.881464767290126
2.374223684210526,4.217434210526316,-1.3,4.9087171052631575
2.382217703349282,4.2719388864723795,-1.3,4.93596944323619
2.390211722488038,4.326443562418444,-1.3,4.963221781209222
2.398205741626794,4.380948238364507,-1.3,4.990474119182253
2.40619976076555,3.46991626794249,0.4799043062199888,4.730083732057509
2.414193779904306,4.16659978391727,1.219979935175181,4.046720172866183
2.422187799043062,4.2525569789576565,1.245767093687297,3.977954416833874
2.430181818181818,4.3385141739980435,1.2715542521994132,3.9091886608015645
2.438175837320574,4.4244713690384305,1.297341410711529,3.8404229047692553
2.44616985645933,4.5104285640788175,1.3231285692236452,3.7716571487369457
2.454163875598086,4.596385759119204,1.3489157277357613,3.702891392704636
2.462157894736842,4.682342954159591,1.3747028862478774,3.634125636672327
2.470151913875598,4.768300149199978,1.4004900447599935,3.5653598806400173
2.478145933014354,4.854257344240365,1.4262772032721094,3.496594124607708
2.48613995215311,4.940214539280751,1.4520643617842255,3.4278283685753985
2.4941339712918658,5.026171734321138,1.4778515202963416,3.359062612543089
2.5021279904306217,5.0812001594896365,1.5187998405103633,3.168401116427457
2.5101220095693777,2.3633971291866303,-0.21220095693778987,2.1742822966508877
2.5181160287081337,1.9815696022727178,-0.4764503588516707,-1.3286688845693766
2.5261100478468896,2.2188920454545356,-0.5763755980861203,-1.366140849282295
2.5341040669856456,2.4562144886363533,-0.6763008373205697,-1.4036128139952138
2.5420980861244016,2.693536931818171,-0.7762260765550193,-1.4410847787081322
2.5500921052631575,2.9308593749999883,-0.8761513157894687,-1.478556743421051
2.558086124401914,3.1681818181818193,-0.9760765550239239,-1.5160287081339716
2.56608014354067,3.405504261363637,-1.0760017942583735,-1.55350067284689
2.574074162679426,3.6428267045454548,-1.175927033492823,-1.5909726375598088
2.582068181818182,-20.73977272727255,-9.960227272727154,23.541477272726198
2.590062200956938,-13.678389154704778,-5.297049441786175,-18.49374003189891
2.598056220095694,-9.455059578579284,-3.085804655870449,-37.37080074530725
2.60605023923445,-7.986927217519295,-3.2549089068825943,-33.765805576002876
2.6140442583732058,-6.518794856459305,-3.4240131578947395,-30.16081040669851
2.6220382775119617,-5.050662495399315,-3.593117408906885,-26.555815237394135
2.6300322966507177,-3.5825301343393257,-3.7622216599190303,-22.95082006808976
2.6380263157894737,-2.114397773279336,-3.931325910931176,-19.34582489878539
2.6460203349282296,-0.6462654122193463,-4.100430161943321,-15.740829729481018
2.6540143540669856,0.8218669488406434,-4.269534412955466,-12.135834560176647
2.6620083732057416,2.289999309900633,-4.438638663967612,-8.530839390872273
2.6700023923444975,3.7581316709606227,-4.607742914979758,-4.9258442215679
2.6779964114832535,5.226264032020612,-4.776847165991903,-1.320849052263526
2.6859904306220095,6.694396393080602,-4.945951417004048,2.284146117040841
2.6939844497607655,8.162528754140592,-5.115055668016193,5.889141286345215
2.7019784688995214,0.10968899521534115,-4.196889952153411,7.693540669856439
2.7099724880382774,-0.16309210526315518,-3.884742822966509,7.636220095693781
2.7179665071770334,-0.426894736842102,-3.668904306220098,7.572267942583733
2.7259605263157893,-0.6906973684210488,-3.453065789473687,7.508315789473685
2.7339545454545453,-0.9544999999999956,-3.237227272727276,7.444363636363637
2.7419485645933013,-1.2183026315789423,-3.021388755980865,7.38041148325359
2.7499425837320572,-1.482105263157889,-2.805550239234454,7.316459330143543
2.757936602870813,-1.7459078947368358,-2.589711722488043,7.252507177033495
2.765930622009569,-2.0097105263157826,-2.3738732057416323,7.188555023923447
2.773924641148325,-2.273513157894729,-2.158034688995221,7.1246028708133995
2.781918660287081,-2.537315789473676,-1.94219617224881,7.060650717703352
2.789912679425837,-2.8011184210526228,-1.7263576555023992,6.996698564593304
2.797906698564593,-3.0649210526315698,-1.510519138755988,6.932746411483256
2.805900717703349,-2.9016985645933864,-4.720574162679265,7.654473684210393
2.813894736842105,-0.47894736842099195,-3.442105263158016,8.568421052631487
2.821888755980861,-0.46182860009260834,-3.565409399598697,8.650895199876523
2.829882775119617,-0.42314786232443424,-3.733025929927452,8.702469516900754
2.837876794258373,-0.3844671245562601,-3.9006424602562064,8.754043833924987
2.845870813397129,-0.34578638678808593,-4.068258990584961,8.805618150949218
2.853864832535885,-0.3071056490199118,-4.235875520913716,8.857192467973451
2.861858851674641,-0.2684249112517376,-4.403492051242471,8.908766784997683
2.869852870813397,-0.22974417348356346,-4.571108581571226,8.960341102021916
2.8778468899521528,0.07703349282290023,-5.808133971291602,8.4459330143542
2.8858409090909087,-0.6736363636363552,-5.457954545454556,8.163181818181823
2.8938349282296647,-0.7895002658160567,-5.2,8.202624933545986
2.901828947368421,-0.7598927875243664,-5.2,8.210026803118907
2.909822966507177,-0.7302853092326776,-5.2,8.21742867269183
2.917816985645933,-0.7006778309409889,-5.2,8.224830542264753
2.925811004784689,-0.6710703526493,-5.2,8.232232411837675
2.933805023923445,-0.6414628743576114,-5.2,8.239634281410597
2.941799043062201,-0.6118553960659225,-5.2,8.247036150983519
2.949793062200957,-0.5822479177742339,-5.2,8.254438020556442
2.957787081339713,-0.552640439482545,-5.2,8.261839890129364
2.965781100478469,-0.5230329611908564,-5.2,8.269241759702286
2.973775119617225,-0.4934254828991676,-5.2,8.276643629275208
2.981769138755981,-0.46381800460747885,-5.2,8.284045498848132
2.989763157894737,-0.43421052631579005,-5.2,8.291447368421053
2.9977571770334928,-0.4046030480241013,-5.2,8.298849237993975
3.0057511961722487,0.19463919539107533,-5.405360804608925,8.394639195391076
3.0137452153110047,0.17016770823161825,-5.429832291768382,8.370167708231618
3.0217392344497607,0.14569622107216115,-5.454303778927839,8.345696221072162
3.0297332535885166,0.12122473391270407,-5.478775266087296,8.321224733912704
3.0377272727272726,0.09675324675324698,-5.503246753246754,8.296753246753248
3.0457212918660286,0.07228175959378988,-5.527718240406211,8.27228175959379
3.0537153110047845,0.04781027243433281,-5.5521897275656675,8.247810272434332
3.0617093301435405,0.023338785274875706,-5.576661214725124,8.223338785274876
3.0697033492822965,-0.0011327018845813663,-5.601132701884581,8.198867298115418
3.0776973684210525,-0.025604189044038467,-5.625604189044038,8.17439581095596
3.0856913875598084,-0.05007567620349557,-5.650075676203496,8.149924323796505
3.0936854066985644,-0.07454716336295264,-5.674547163362953,8.125452836637047
3.1016794258373204,-0.09901865052240971,-5.69901865052241,8.100981349477589
3.1096734449760763,-0.7653110047847144,-4.965311004784715,8.1
3.1176674641148323,-0.10426449315678189,-5.004264493156782,8.295735506843219
3.1256614832535883,-0.11355986424835857,-5.013559864248358,8.286440135751642
3.1336555023923442,-0.12285523533993524,-5.022855235339935,8.277144764660065
3.1416495215311,-0.1321506064315119,-5.032150606431512,8.267849393568488
3.149643540669856,-0.1414459775230886,-5.041445977523089,8.258554022476911
3.157637559808612,-0.15074134861466526,-5.0507413486146655,8.249258651385334
3.165631578947368,-0.16003671970624195,-5.0600367197062415,8.239963280293757
3.173625598086124,-0.16933209079781864,-5.069332090797818,8.23066790920218
3.18161961722488,-0.17862746188939532,-5.078627461889395,8.221372538110604
3.189613636363636,-0.18792283298097198,-5.087922832980972,8.212077167019027
3.197607655502392,-0.19721820407254867,-5.097218204072548,8.20278179592745
3.205601674641148,-0.2266945773524643,-5.193221690590143,8.253389154704928
3.213595693779904,-0.2945353815159914,-5.0,8.402732309242005
3.22158971291866,-0.27770586753966303,-5.0,8.41114706623017
3.229583732057416,-0.2608763535633347,-5.0,8.419561823218332
3.237577751196172,-0.2440468395870064,-5.0,8.427976580206497
3.2455717703349283,-0.22721732561067715,-5.0,8.436391337194662
3.2535657894736842,-0.21038781163434883,-5.0,8.444806094182825
3.26155980861244,-0.19355829765802052,-5.0,8.45322085117099
3.269553827751196,-0.1767287836816922,-5.0,8.461635608159154
3.277547846889952,-0.15989926970536386,-5.0,8.470050365147317
3.285541866028708,-0.14306975572903555,-5.0,8.478465122135482
3.293535885167464,-0.12624024175270723,-5.0,8.486879879123647
3.30152990430622,-0.10941072777637892,-5.0,8.49529463611181
3.309523923444976,0.2761961722488017,-5.3285885167464055,8.4
3.317517942583732,-0.2,-5.206845367551109,8.193154632448891
3.325511961722488,-0.2,-5.218957517761345,8.181042482238654
3.333505980861244,-0.2,-5.231069667971582,8.168930332028419
3.3415,-0.2,-5.243181818181818,8.156818181818181
3.349494019138756,-0.2,-5.2552939683920545,8.144706031607946
3.357488038277512,-0.2,-5.267406118602291,8.132593881397709
3.365482057416268,-0.2,-5.279518268812527,8.120481731187473
3.373476076555024,-0.2,-5.291630419022763,8.108369580977236
3.3814700956937798,-0.2,-5.145619019138765,8.161752392344495
3.3894641148325357,-0.09381180223285412,-4.909282296650719,8.3
3.3974581339712917,0.012775119617224592,-5.069162679425837,8.3
3.4054521531100477,-0.045215311004759784,-5.05478468899524,8.3
3.4134461722488036,-0.10809366548782989,-5.0,8.308093665487831
3.4214401913875596,-0.11678281672560811,-5.0,8.316782816725608
3.4294342105263156,-0.12547196796338633,-5.0,8.325471967963386
3.4374282296650716,-0.13416111920116455,-5.0,8.334161119201164
3.4454222488038275,-0.14285027043894277,-5.0,8.342850270438943
3.4534162679425835,-0.151539421676721,-5.0,8.351539421676721
3.4614102870813395,-0.1602285729144992,-5.0,8.3602285729145
3.4694043062200954,-0.16891772415227746,-5.0,8.368917724152277
3.4773983253588514,-0.17760687539005565,-5.0,8.377606875390056
3.4853923444976074,-0.1862960266278339,-5.0,8.386296026627834
3.4933863636363633,-0.1949851778656121,-5.0,8.394985177865612
3.5013803827751193,0.0,-5.1,8.4
3.5093744019138753,0.0024993704356580785,-5.102499370435658,8.3
3.5173684210526313,0.01091412742382228,-5.110914127423822,8.3
3.5253624401913872,0.01932888441198648,-5.119328884411987,8.3
3.533356459330143,0.027743641400150683,-5.1277436414001505,8.3
3.541350478468899,0.03615839838831488,-5.136158398388314,8.3
3.549344497607655,0.04457315537647909,-5.144573155376479,8.3
3.557338516746411,0.052987912364643286,-5.152987912364643,8.3
3.565332535885167,0.06140266935280749,-5.161402669352808,8.3
3.573326555023923,0.0698174263409717,-5.1698174263409715,8.3
3.581320574162679,0.0782321833291359,-5.178232183329136,8.3
3.5893145933014354,0.08664694031730057,-5.186646940317301,8.3
3.5973086124401914,0.09506169730546477,-5.195061697305465,8.3
3.6053026315789474,-0.11279239766081775,-5.0,8.3
3.6132966507177033,-0.15720361509835143,-5.0,8.3
3.6212906698564593,-0.17093301435406547,-5.029066985645934,8.270933014354066
3.6292846889952153,0.0,-4.9,8.4
3.6372787081339713,0.0,-4.9,8.4
3.645272727272727,0.0,-4.9,8.4
3.653266746411483,0.0,-4.9,8.4
3.661260765550239,0.0,-4.9,8.4
3.669254784688995,0.0,-4.9,8.4
3.677248803827751,0.0,-4.9,8.4
3.685242822966507,0.0,-4.9,8.4
3.693236842105263,0.0,-4.9,8.4
3.701230861244019,0.0,-4.9,8.4
3.709224880382775,-0.1,-4.901801294680552,8.4
3.717218899521531,-0.1,-4.913557205178722,8.4
3.725212918660287,-0.1,-4.925313115676893,8.4
3.733206937799043,-0.1,-4.937069026175063,8.4
3.741200956937799,-0.1,-4.948824936673234,8.4
3.749194976076555,-0.1,-4.960580847171404,8.4
3.757188995215311,-0.1,-4.9723367576695745,8.4
3.7651830143540668,-0.1,-4.9840926681677455,8.4
3.7731770334928227,-0.1,-4.995848578665916,8.4
3.7811710526315787,-0.05299043062201043,-5.0,8.352990430622011
3.7891650717703347,0.02165071770334709,-4.978349282296653,8.321650717703347
3.7971590909090907,0.09204545454547423,-4.9,8.4
3.8051531100478466,0.0,-4.994794838335508,8.3
3.8131471291866026,0.0,-4.986720071528684,8.3
3.8211411483253586,0.0,-4.97864530472186,8.3
3.8291351674641145,0.0,-4.970570537915036,8.3
3.8371291866028705,0.0,-4.962495771108212,8.3
3.8451232057416265,0.0,-4.954421004301388,8.3
3.8531172248803824,0.0,-4.946346237494564,8.3
3.8611112440191384,0.0,-4.938271470687739,8.3
3.8691052631578944,0.0,-4.930196703880915,8.3
3.8770992822966504,0.0,-4.922121937074091,8.3
3.8850933014354063,0.0,-4.914047170267267,8.3
3.8930873205741623,0.0,-4.905972403460442,8.3
3.9010813397129183,0.054066985645911454,-5.0,8.4
3.9090753588516742,0.1,-4.985849282296652,8.407075358851674
3.91706937799043,0.1,-4.96986124401914,8.41506937799043
3.9250633971291866,0.1,-4.953873205741627,8.423063397129187
3.9330574162679426,0.1,-4.937885167464115,8.431057416267944
3.9410514354066986,0.1,-4.921897129186603,8.439051435406698
3.9490454545454545,0.1,-4.905909090909091,8.447045454545455
3.9570394736842105,0.1,-4.889921052631578,8.455039473684211
3.9650334928229665,0.1,-4.8739330143540665,8.463033492822966
3.9730275119617224,0.1,-4.8579449760765545,8.471027511961722
3.9810215311004784,0.1,-4.841956937799043,8.479021531100479
3.9890155502392344,0.1,-4.825968899521531,8.487015550239235
3.9970095693779903,0.1,-4.809980861244019,8.495009569377991
4.005003588516746,0.1,-4.920071770334923,8.5
4.012997607655502,0.0,-4.85011961722488,8.4
4.020991626794258,0.006657363104731203,-4.906657363104731,8.306657363104732
4.028985645933014,0.015539606592238258,-4.9155396065922385,8.315539606592239
4.03697966507177,0.024421850079744324,-4.924421850079745,8.324421850079744
4.044973684210526,0.03330409356725138,-4.933304093567251,8.333304093567252
4.052967703349282,0.042186337054757446,-4.942186337054758,8.342186337054757
4.060961722488038,0.0510685805422645,-4.951068580542264,8.351068580542265
4.068955741626794,0.05995082402977057,-4.959950824029771,8.35995082402977
4.07694976076555,0.06883306751727762,-4.968833067517278,8.368833067517278
4.084943779904306,0.0777153110047837,-4.977715311004784,8.377715311004785
4.092937799043062,0.08659755449229074,-4.986597554492291,8.38659755449229
4.100931818181818,0.0954797979797978,-4.995479797979798,8.395479797979798
4.108925837320574,0.1,-4.9,8.4
4.11691985645933,0.1,-4.9,8.406651524111608
4.124913875598086,0.1,-4.9,8.415633568087737
4.132907894736842,0.1,-4.9,8.424615612063867
4.140901913875598,0.1,-4.9,8.433597656039998
4.148895933014354,0.1,-4.9,8.442579700016129
4.15688995215311,0.1,-4.9,8.451561743992258
4.164883971291866,0.1,-4.9,8.460543787968389
4.172877990430622,0.1,-4.9,8.46952583194452
4.180872009569378,0.1,-4.9,8.47850787592065
4.188866028708134,0.1,-4.9,8.48748991989678
4.19686004784689,0.1,-4.9,8.49647196387291
4.204854066985646,0.1,-4.9,8.5
4.212848086124402,0.13164540138224343,-4.9,8.468354598617756
4.2208421052631575,0.10789473684212982,-4.9,8.4
4.228836124401914,0.0,-4.9,8.4
4.2368301435406694,0.0,-4.9,8.4
4.244824162679426,0.0,-4.9,8.4
4.252818181818181,0.0,-4.9,8.4
4.260812200956938,0.0,-4.9,8.4
4.268806220095693,0.0,-4.9,8.4
4.27680023923445,0.0,-4.9,8.4
4.284794258373205,0.0,-4.9,8.4
4.292788277511962,0.0,-4.9,8.4
4.300782296650717,0.0,-4.9,8.4
4.308776315789474,0.0,-4.9,8.4
4.316770334928229,0.1,-4.8491866028708195,8.4
4.324764354066986,0.09175078772318795,-4.808249212276812,8.408249212276813
4.332758373205741,0.08200198389543739,-4.817998016104562,8.417998016104564
4.3407523923444975,0.07225318006768576,-4.827746819932314,8.427746819932315
4.348746411483253,0.06250437623993521,-4.837495623760065,8.437495623760064
4.356740430622009,0.052755572412183566,-4.847244427587817,8.447244427587817
4.364734449760765,0.04300676858443302,-4.856993231415567,8.456993231415566
4.372728468899521,0.03325796475668137,-4.866742035243319,8.46674203524332
4.380722488038277,0.023509160928930822,-4.876490839071069,8.476490839071069
4.388716507177033,0.01376035710117919,-4.886239642898821,8.486239642898822
4.396710526315789,0.004011553273428628,-4.895988446726571,8.495988446726571
4.404704545454545,0.3556818181817667,-5.789772727272367,8.388636363636467
4.412698564593301,0.18161753356999755,-4.89387251119,8.21225497762
4.420692583732057,0.15583037505788008,-4.8852767916859605,8.229446416628079
4.428686602870813,0.13004321654576545,-4.876681072181922,8.246637855636155
4.436680622009569,0.10425605803364799,-4.868085352677883,8.263829294644234
4.4446746411483256,0.07846889952153051,-4.859489633173844,8.281020733652312
4.452668660287081,0.05268174100941589,-4.850893913669806,8.298212172660389
4.4606626794258375,0.026894582497298425,-4.842298194165767,8.315403611668467
4.468656698564593,0.0011074239851838197,-4.833702474661728,8.332595050676543
4.476650717703349,-0.024679734526933672,-4.825106755157689,8.349786489684622
4.484644736842105,-0.05046689303904828,-4.816511035653651,8.366977928692698
4.492638755980861,-0.07625405155116577,-4.807915316149611,8.384169367700778
4.500632775119617,-0.1,-4.894916267942546,8.4
4.508626794258373,0.11492822966507865,-4.985071770334922,8.4
4.516620813397129,0.10617671801882277,-5.1,8.306176718018824
4.524614832535885,0.11496135443503858,-5.1,8.31496135443504
4.532608851674641,0.12374599085125343,-5.1,8.323745990851254
4.540602870813397,0.13253062726746925,-5.1,8.33253062726747
4.548596889952153,0.14131526368368408,-5.1,8.341315263683684
4.556590909090909,0.15009990009989993,-5.1,8.3500999000999
4.564584928229665,0.15888453651611475,-5.1,8.358884536516115
4.572578947368421,0.16766917293233058,-5.1,8.367669172932331
4.580572966507177,0.17645380934854543,-5.1,8.376453809348545
4.588566985645933,0.18523844576476123,-5.1,8.385238445764761
4.5965610047846885,0.19402308218097608,-5.1,8.394023082180976
4.604555023923445,0.15491134252744604,-5.084970447509148,8.4
4.6125490430622005,0.01384041654940285,-5.037946805516468,8.4
4.620543062200957,0.02715311004784248,-4.827153110047843,8.427153110047843
4.628537081339712,0.22387937547217224,-4.929849219340215,8.3
4.636531100478469,0.2659531604129952,-4.982441450516244,8.3
4.644525119617224,0.3080269453538135,-5.035033681692267,8.3
4.652519138755981,0.3501007302946364,-5.087625912868296,8.3
4.660513157894736,0.39217451523545466,-5.140218144044319,8.3
4.668507177033493,0.4342483001762776,-5.192810375220348,8.3
4.676501196172248,0.4763220851170959,-5.24540260639637,8.3
4.684495215311005,0.5183958700579188,-5.297994837572399,8.3
4.69248923444976,0.5604696549987371,-5.350587068748422,8.3
4.700483253588517,0.6,-5.3275119617225295,8.324162679425823
4.708477272727272,-0.07386363636362175,-4.791287878787874,8.4
4.7164712918660285,0.1256288786773409,-5.025628878677341,8.293592780330666
4.724465311004784,0.15728836041498656,-5.0572883604149865,8.285677909896254
4.7324593301435405,0.18894784215263571,-5.088947842152636,8.277763039461842
4.740453349282296,0.22060732389028137,-5.120607323890281,8.26984816902743
4.748447368421052,0.2522668056279306,-5.152266805627931,8.261933298593018
4.756441387559808,0.28392628736557624,-5.183926287365576,8.254018428158606
4.764435406698564,0.31558576910322533,-5.2155857691032255,8.246103557724194
4.77242942583732,0.347245250840871,-5.247245250840871,8.238188687289782
4.780423444976076,0.3789047325785202,-5.27890473257852,8.23027381685537
4.788417464114833,0.4105642143161694,-5.3105642143161695,8.222358946420957
4.796411483253588,0.44222369605381506,-5.342223696053815,8.214444075986545
4.804405502392345,0.47388317779146416,-5.373883177791464,8.206529205552133
4.8123995215311,0.5116626794258349,-5.365011961722495,8.211662679425835
4.820393540669857,0.5782795055821357,-5.165161483253592,8.278279505582136
4.828387559808612,0.5049254151421431,-5.036616943428095,8.331691528285953
4.8363815789473685,0.36385448916408425,-4.942569659442723,8.378715170278639
4.844375598086124,0.10723998992696883,-5.004826659951313,8.3
4.8523696172248805,0.1493137748677918,-5.0328758499118615,8.3
4.860363636363636,0.19138755980861005,-5.060925039872407,8.3
4.868357655502392,0.23346134474943303,-5.088974229832956,8.3
4.876351674641148,0.2755351296902513,-5.117023419793501,8.3
4.884345693779904,0.31760891463107427,-5.14507260975405,8.3
4.89233971291866,0.3596826995718926,-5.173121799714595,8.3
4.900333732057416,0.4667464114831946,-5.166626794258403,8.3
4.908327751196172,0.3014276894582492,-4.9,8.4
4.916321770334928,0.31002340896228836,-4.9,8.4
4.924315789473684,0.31861912846632656,-4.9,8.4
4.93230980861244,0.32721484797036576,-4.9,8.4
4.940303827751196,0.33581056747440396,-4.9,8.4
4.948297846889952,0.3444062869784431,-4.9,8.4
4.956291866028708,0.3530020064824813,-4.9,8.4
4.964285885167464,0.36159772598652046,-4.9,8.4
4.97227990430622,0.37019344549055866,-4.9,8.4
4.980273923444976,0.37878916499459786,-4.9,8.4
4.9882679425837315,0.38738488449863606,-4.9,8.4
4.996261961722488,0.3959806040026752,-4.9,8.4
5.0042559808612435,0.4,-4.985119617224871,8.4
5.01225,0.1075000000000003,-5.0,8.3025
5.020244019138755,0.13414673046251877,-5.0,8.311382243487508
5.028238038277512,0.1607934609250402,-5.0,8.320264486975015
5.036232057416267,0.18744019138755869,-5.0,8.32914673046252
5.044226076555024,0.2140869218500801,-5.0,8.338028973950028
5.052220095693779,0.24073365231259855,-5.0,8.346911217437533
5.060214114832536,0.26738038277512,-5.0,8.35579346092504
5.068208133971291,0.2940271132376384,-5.0,8.364675704412546
5.076202153110048,0.3206738437001599,-5.0,8.373557947900053
5.084196172248803,0.34732057416267836,-5.0,8.382440191387559
5.09219019138756,0.3739673046251998,-5.0,8.391322434875066
5.100184210526315,0.40921052631576965,-4.990789473684231,8.4
5.1081782296650715,0.3178229665071801,-5.1,8.3
5.116172248803828,0.39211840790788144,-5.092118407907881,8.30788159209212
5.1241662679425835,0.3833337714916666,-5.083333771491667,8.316666228508334
5.13216028708134,0.37454913507545073,-5.074549135075451,8.32545086492455
5.140154306220095,0.3657644986592359,-5.065764498659235,8.334235501340764
5.148148325358852,0.3569798622430201,-5.05697986224302,8.34302013775698
5.156142344497607,0.34819522582680523,-5.048195225826805,8.351804774173194
5.164136363636364,0.3394105894105894,-5.039410589410589,8.36058941058941
5.172130382775119,0.3306259529943746,-5.030625952994375,8.369374047005627
5.180124401913876,0.32184131657815873,-5.021841316578159,8.378158683421841
5.188118421052631,0.3130566801619439,-5.013056680161943,8.386943319838057
5.196112440191388,0.304272043745728,-5.004272043745728,8.395727956254273
5.204106459330143,0.3,-5.0,8.4
5.2121004784689,0.2,-5.1,8.2
5.220094497607655,0.2,-5.1,8.2
5.2280885167464115,0.2,-5.1,8.2
5.236082535885167,0.2,-5.1,8.2
5.2440765550239234,0.2,-5.1,8.2
5.252070574162679,0.2,-5.1,8.2
5.260064593301435,0.2,-5.1,8.2
5.268058612440191,0.2,-5.1,8.2
5.276052631578947,0.2,-5.1,8.2
5.284046650717703,0.2,-5.1,8.2
5.292040669856459,0.2,-5.1,8.2
5.300034688995215,0.2,-5.1,8.2
5.308028708133971,0.1019138755980918,-5.0,8.301913875598093
5.316022727272727,0.32643540669856186,-4.973564593301438,8.473564593301438
5.324016746411483,0.36850919163938484,-4.931490808360615,8.431490808360616
5.332010765550239,0.40072070449829345,-4.899279295501707,8.4
5.340004784688995,0.4035859443329731,-4.8964140556670275,8.4
5.347998803827751,0.4064511841676525,-4.8935488158323475,8.4
5.355992822966507,0.40931642400233226,-4.890683575997668,8.4
5.3639868421052626,0.41218166383701166,-4.887818336162988,8.4
5.371980861244019,0.4150469036716914,-4.884953096328309,8.4
5.3799748803827745,0.4179121435063708,-4.882087856493629,8.4
5.387968899521531,0.4207773833410505,-4.87922261665895,8.4
5.395962918660286,0.4236426231757299,-4.87635737682427,8.4
5.403956937799043,0.4265078630104096,-4.873492136989591,8.4
5.411950956937798,0.429373102845089,-4.870626897154911,8.4
5.419944976076555,0.43223834267976874,-4.867761657320232,8.4
5.42793899521531,0.43510358251444814,-4.864896417485552,8.4
5.435933014354067,0.4379688223491279,-4.862031177650873,8.4
5.443927033492822,0.4408340621838073,-4.859165937816193,8.4
5.451921052631579,0.44369930201848695,-4.8563006979815135,8.4
5.459915071770335,0.4465645418531667,-4.8534354581468335,8.4
5.467909090909091,0.4494297816878461,-4.850570218312154,8.4
5.475903110047847,0.4522950215225258,-4.847704978477474,8.4
5.4838971291866025,0.4551602613572052,-4.844839738642795,8.4
5.491891148325359,0.45802550119188495,-4.841974498808115,8.4
5.4998851674641145,0.46089074102656435,-4.839109258973436,8.4
5.507879186602871,0.46375598086124403,-4.836244019138756,8.4
5.515873205741626,0.4666212206959235,-4.833378779304077,8.4
5.523867224880383,0.46948646053060317,-4.830513539469397,8.4
5.531861244019138,0.47235170036528257,-4.827648299634717,8.4
5.539855263157895,0.4752169401999623,-4.824783059800038,8.4
5.54784928229665,0.4780821800346417,-4.821917819965358,8.4
5.555843301435407,0.48094741986932144,-4.819052580130679,8.4
5.563837320574162,0.4838126597040008,-4.816187340295999,8.4
5.571831339712919,0.4866778995386805,-4.81332210046132,8.4
5.579825358851674,0.4895431393733599,-4.81045686062664,8.4
5.587819377990431,0.49240837920803965,-4.8075916207919605,8.4
5.595813397129186,0.49527361904271905,-4.80472638095728,8.4
5.6038074162679425,0.4981388588773988,-4.801861141122601,8.4
5.611801435406698,-0.1,-4.779784688995295,8.480143540669804
5.6197954545454545,0.11590909090909042,-4.876818181818182,8.476818181818182
5.62778947368421,0.27578947368419865,-4.844842105263161,8.444842105263161
5.635783492822966,0.43566985645932466,-4.812866028708135,8.412866028708136
5.643777511961722,-0.022248803827810484,-4.833253588516569,8.52224880382781
5.651771531100478,0.06817132544279213,-4.8863657349114415,8.486365734911441
5.659765550239234,0.13829430034415702,-4.8723411399311685,8.472341139931169
5.66775956937799,0.2084172752455297,-4.8583165449508945,8.458316544950895
5.675753588516746,0.27854025014689454,-4.844291949970621,8.444291949970621
5.683747607655502,0.34866322504826724,-4.8302673549903465,8.430267354990347
5.691741626794258,0.4187861999496321,-4.8162427600100735,8.416242760010073
5.699735645933014,0.48890917485100477,-4.802218165029799,8.4022181650298
5.70772966507177,0.02011238455545737,-4.916089907644366,8.487932569266725
5.715723684210526,0.11306609547123123,-4.9904528763769855,8.43216034271726
5.723717703349282,0.20601980638699477,-5.064815845109596,8.376388116167803
5.731711722488038,0.2989735173027686,-5.139178813842215,8.320615889618338
5.739705741626794,0.39192722821853215,-5.213541782574826,8.26484366306888
5.74769976076555,0.484880939134306,-5.287904751307445,8.209071436519416
5.7556937799043055,0.14354066985647626,-4.956459330143524,8.421770334928238
5.763687799043062,0.2,-5.0,8.301917953458027
5.7716818181818175,0.2,-5.0,8.311002066115703
5.779675837320574,0.2,-5.0,8.32008617877338
5.787669856459329,0.2,-5.0,8.329170291431057
5.795663875598086,0.2,-5.0,8.338254404088735
5.803657894736842,0.2,-5.0,8.347338516746413
5.811651913875598,0.2,-5.0,8.35642262940409
5.819645933014354,0.2,-5.0,8.365506742061767
5.82763995215311,0.2,-5.0,8.374590854719443
5.835633971291866,0.2,-5.0,8.383674967377122
5.843627990430622,0.2,-5.0,8.392759080034798
5.851622009569378,0.2,-5.0,8.431100478468908
5.859616028708134,0.11919856459333039,-4.9,8.4
5.86761004784689,0.11102905485056476,-4.911029054850565,8.4
5.8756040669856455,0.12261458983426843,-4.922614589834269,8.4
5.883598086124402,0.1342001248179734,-4.934200124817973,8.4
5.8915921052631575,0.14578565980167707,-4.945785659801677,8.4
5.899586124401914,0.15737119478538203,-4.957371194785382,8.4
5.907580143540669,0.16895672976908568,-4.9689567297690855,8.4
5.915574162679426,0.18054226475279064,-4.980542264752791,8.4
5.923568181818181,0.1921277997364943,-4.992127799736494,8.4
5.931562200956938,0.2,-5.0,8.3
5.939556220095693,0.2,-5.007535885167464,8.307535885167464
5.94755023923445,0.2,-5.0167244129131605,8.316724412913162
5.955544258373205,0.2,-5.0259129406588565,8.325912940658858
5.963538277511962,0.2,-5.035101468404553,8.335101468404554
5.971532296650717,0.2,-5.044289996150249,8.34428999615025
5.979526315789474,0.2,-5.053478523895947,8.353478523895948
5.987520334928229,0.2,-5.062667051641643,8.362667051641644
5.9955143540669855,0.2,-5.07185557938734,8.37185557938734
6.003508373205741,0.2,-5.081044107133036,8.381044107133036
6.0115023923444975,0.2,-5.090232634878733,8.390232634878734
6.019496411483253,0.2,-5.099421162624429,8.39942116262443
6.027490430622009,0.07547846889953413,-4.8490430622009315,8.3
6.035484449760765,0.037053998632942765,-5.027790498974707,8.309263499658236
6.043478468899521,0.08273410799726495,-5.062050580997949,8.320683526999316
6.051472488038277,0.12841421736158207,-5.096310663021186,8.332103554340396
6.059466507177033,0.17409432672590425,-5.1305707450444284,8.343523581681477
6.067460526315789,0.21977443609022135,-5.164830827067666,8.354943609022556
6.075454545454545,0.2654545454545435,-5.199090909090907,8.366363636363637
6.083448564593301,0.31113465481886066,-5.233350991114145,8.377783663704715
6.091442583732057,0.3568147641831828,-5.267611073137387,8.389203691045797
6.099436602870813,0.4,-5.270893141945836,8.4
6.107430622009569,0.17153110047846923,-5.1,8.22846889952153
6.115424641148325,0.22395045531717736,-5.1,8.207983485105725
6.123418660287081,0.24973761382929482,-5.1,8.216579204609765
6.131412679425837,0.27552477234140943,-5.1,8.225174924113803
6.139406698564593,0.3013119308535269,-5.1,8.233770643617842
6.147400717703349,0.32709908936564436,-5.1,8.242366363121882
6.155394736842105,0.35288624787775896,-5.1,8.25096208262592
6.163388755980861,0.37867340638987645,-5.1,8.25955780212996
6.171382775119617,0.40446056490199106,-5.1,8.268153521633998
6.179376794258373,0.43024772341410855,-5.1,8.276749241138036
6.187370813397129,0.4560348819262231,-5.1,8.285344960642075
6.195364832535885,0.4818220404383406,-5.1,8.293940680146115
6.203358851674641,0.4583732057416282,-5.086124401913875,8.313875598086124
6.211352870813397,0.3173022797635767,-5.039100759921192,8.360899240078808
6.219346889952153,0.1326555023923572,-4.797966507177072,8.467344497607643
6.227340909090909,0.1940736478711154,-5.1881472957422305,8.302963176064443
6.235334928229665,0.1738356247350256,-5.147671249470052,8.313082187632489
6.243328947368421,0.15359760159893357,-5.107195203197867,8.323201199200534
6.251322966507177,0.1333595784628438,-5.0667191569256875,8.333320210768578
6.259316985645933,0.11312155532675176,-5.026243110653503,8.343439222336624
6.2673110047846885,0.09288353219066198,-4.985767064381324,8.35355823390467
6.275305023923445,0.07264550905456996,-4.94529101810914,8.363677245472715
6.2832990430622,0.05240748591848016,-4.90481497183696,8.37379625704076
6.291293062200957,0.032169462782388136,-4.864338925564776,8.383915268608806
6.299287081339712,0.011931439646298364,-4.823862879292596,8.394034280176852
6.307281100478469,0.13124401913874376,-4.8,8.4
6.315275119617224,0.2984820004556854,-5.095446001367056,8.301517999544314
6.323269138755981,0.28896531100478484,-5.066895933014354,8.311034688995216
6.331263157894736,0.2794486215538854,-5.038345864661656,8.320551378446115
6.339257177033493,0.26993193210298483,-5.009795796308954,8.330068067897015
6.347251196172248,0.2604152426520854,-4.981245727956256,8.339584757347914
6.355245215311005,0.2508985532011848,-4.952695659603554,8.349101446798816
6.36323923444976,0.24138186375028536,-4.924145591250856,8.358618136249715
6.3712332535885166,0.23186517429938483,-4.895595522898154,8.368134825700615
6.379227272727272,0.22234848484848535,-4.867045454545456,8.377651515151515
6.3872212918660285,0.21283179539758484,-4.838495386192754,8.387168204602416
6.395215311004784,0.20331510594668534,-4.8099453178400555,8.396684894053315
6.40320933014354,0.2,-5.00064080656186,8.299786397812714
6.411203349282296,0.2,-5.025112293721315,8.291629235426228
6.419197368421052,0.2,-5.0495837808807735,8.283472073039743
6.427191387559808,0.2,-5.074055268040229,8.275314910653258
6.435185406698564,0.2,-5.098526755199687,8.26715774826677
6.44317942583732,0.2,-5.1229982423591425,8.259000585880285
6.451173444976076,0.2,-5.147469729518601,8.2508434234938
6.459167464114832,0.2,-5.171941216678056,8.242686261107314
6.467161483253588,0.2,-5.196412703837515,8.234529098720829
6.475155502392344,0.2,-5.22088419099697,8.226371936334344
6.4831495215311,0.2,-5.245355678156428,8.218214773947857
6.4911435406698565,0.2,-5.269827165315887,8.210057611561371
6.499137559808612,0.2,-5.294298652475342,8.201900449174886
6.5071315789473685,0.29780701754385314,-4.804385964912293,8.397807017543853
6.515125598086124,0.16457336523126612,-5.0708532695374675,8.264573365231266
6.52311961722488,0.10980861244019124,-5.190191387559809,8.20980861244019
6.531113636363636,0.1288419913419902,-5.17115800865801,8.228841991341989
6.539107655502392,0.14787537024379127,-5.152124629756209,8.24787537024379
6.547101674641148,0.16690874914559023,-5.1330912508544095,8.266908749145589
6.555095693779904,0.1859421280473913,-5.114057871952609,8.285942128047392
6.56308971291866,0.20497550694919023,-5.0950244930508095,8.30497550694919
6.571083732057416,0.2240088858509913,-5.075991114149009,8.324008885850992
6.579077751196172,0.24304226475279025,-5.0569577352472095,8.34304226475279
6.587071770334928,0.26207564365459135,-5.037924356345409,8.362075643654592
6.595065789473684,0.28110902255639025,-5.0188909774436095,8.381109022556391
6.60305980861244,0.3,-5.0,8.397009569377984
6.611053827751196,0.2,-5.0029765619582545,8.302976561958255
6.619047846889952,0.2,-5.014562096941959,8.31456209694196
6.627041866028708,0.2,-5.026147631925663,8.326147631925664
6.635035885167464,0.2,-5.037733166909368,8.337733166909368
6.6430299043062195,0.2,-5.049318701893072,8.349318701893072
6.651023923444976,0.2,-5.060904236876777,8.360904236876777
6.6590179425837315,0.2,-5.0724897718604804,8.372489771860481
6.667011961722488,0.2,-5.084075306844185,8.384075306844187
6.675005980861243,0.2,-5.095660841827889,8.395660841827889
6.683,0.2,-4.9,8.3
