accel_time_list,accel_x_list,accel_y_list,accel_z_list
0.0,0.5,0.4,9.6
0.007993254637436763,1.4625843170320405,0.27171339235525577,10.28129215851602
0.015986509274873526,1.362668634064081,0.4632184513771782,10.231334317032042
0.02397976391231029,1.2627529510961213,0.6547235103991007,10.181376475548062
0.03197301854974705,1.1628372681281618,0.846228569421023,10.131418634064081
0.039966273187183814,1.0629215851602023,1.0377336284429455,10.081460792580101
0.04795952782462058,0.9630059021922427,1.229238687464868,10.03150295109612
0.05595278246205734,0.8630902192242832,1.4207437464867905,9.981545109612142
0.0639460370994941,0.7631745362563237,1.612248805508713,9.931587268128162
0.07193929173693087,0.6632588532883642,1.803753864530635,9.881629426644182
0.07993254637436763,0.5633431703204047,1.9952589235525575,9.831671585160201
0.08792580101180439,0.4634274873524451,2.18676398257448,9.781713743676223
0.09591905564924116,0.3635118043844856,2.3782690415964027,9.731755902192242
0.10391231028667793,0.691231028667793,0.6657672849915526,9.782462057335586
0.11190556492411469,0.5984251044798006,1.994487865679302,9.6992125522399
0.11989881956155145,0.584523792066867,1.9458332722340346,9.692261896033433
0.1278920741989882,0.5706224796539335,1.8971786787887674,9.685311239826966
0.13588532883642498,0.5567211672410001,1.8485240853435,9.6783605836205
0.14387858347386173,0.5428198548280665,1.799869491898233,9.671409927414032
0.1518718381112985,0.528918542415133,1.7512148984529656,9.664459271207566
0.15986509274873525,0.5150172300021996,1.7025603050076985,9.657508615001099
0.16785834738617203,0.5011159175892661,1.6539057115624312,9.650557958794632
0.17585160202360878,0.4872146051763326,1.605251118117164,9.643607302588165
0.18384485666104555,0.47331329276339906,1.5565965246718967,9.636656646381699
0.19183811129848233,0.45941198035046554,1.5079419312266293,9.629705990175232
0.19983136593591908,0.4455106679375321,1.4592873377813622,9.622755333968765
0.20782462057335585,0.43160935552459856,1.4106327443360949,9.615804677762299
0.2158178752107926,0.4177080431116651,1.3619781508908277,9.608854021555832
0.22381112984822937,0.4038067306987315,1.3133235574455604,9.601903365349365
0.23180438448566612,0.6601461495222036,1.6402192242833054,9.7
0.2397976391231029,0.7939835717782734,0.9,9.5
0.24779089376053964,0.7767937768590546,0.9,9.5
0.2557841483979764,0.7596039819398357,0.9,9.5
0.2637774030354132,0.7424141870206168,0.9,9.5
0.27177065767284997,0.7252243921013979,0.9,9.5
0.2797639123102867,0.7080345971821792,0.9,9.5
0.28775716694772346,0.6908448022629603,0.9,9.5
0.29575042158516024,0.6736550073437414,0.9,9.5
0.303743676222597,0.6564652124245225,0.9,9.5
0.31173693086003373,0.6392754175053038,0.9,9.5
0.3197301854974705,0.6220856225860849,0.9,9.5
0.3277234401349073,0.6048958276668661,0.9,9.5
0.33571669477234406,0.6,1.228330522765596,9.7
0.34370994940978083,0.6479282100698631,1.052071789930137,9.7
0.35170320404721755,0.70093760539629,1.0037504215851605,9.7
0.35969645868465433,0.7115952782462057,1.0463811129848233,9.7
0.3676897133220911,0.7222529510961215,1.0890118043844859,9.7
0.3756829679595279,0.7329106239460372,1.1316424957841487,9.7
0.38367622259696466,0.7435682967959529,1.1742731871838115,9.7
0.3916694772344014,0.7542259696458685,1.216903878583474,9.7
0.39966273187183815,0.7648836424957842,1.2595345699831368,9.7
0.4076559865092749,0.7755413153456999,1.3021652613827996,9.7
0.4156492411467117,0.7861989881956156,1.3447959527824624,9.7
0.4236424957841484,0.7968566610455313,1.3874266441821248,9.7
0.4316357504215852,0.6682124789207399,1.2364249578414799,9.73178752107926
0.43962900505902197,0.6,1.1,9.8
0.44762225969645875,0.6,1.1,9.8
0.4556155143338955,0.6,1.1,9.8
0.46360876897133224,0.6,1.1,9.8
0.471602023608769,0.6,1.1,9.8
0.4795952782462058,0.6,1.1,9.8
0.48758853288364257,0.6,1.1,9.8
0.4955817875210793,0.6,1.1,9.8
0.5035750421585161,0.6,1.1,9.8
0.5115682967959528,0.6,1.1,9.8
0.5195615514333896,0.6,1.1,9.8
0.5275548060708264,0.6722596964586818,1.0554806070826364,9.772259696458683
0.5355480607082631,0.5961848809588569,1.1,9.7
0.5435413153456999,0.5875899834992474,1.1,9.7
0.5515345699831367,0.578995086039638,1.1,9.7
0.5595278246205734,0.5704001885800286,1.1,9.7
0.5675210792580102,0.5618052911204191,1.1,9.7
0.5755143338954469,0.5532103936608097,1.1,9.7
0.5835075885328838,0.5446154962012003,1.1,9.7
0.5915008431703205,0.5360205987415909,1.1,9.7
0.5994940978077572,0.5274257012819815,1.1,9.7
0.607487352445194,0.518830803822372,1.1,9.7
0.6154806070826307,0.5102359063627626,1.1,9.7
0.6234738617200675,0.5016410089031532,1.1,9.7
0.6314671163575043,0.6,1.1984556669921007,9.6984556669921
0.639460370994941,0.6,1.1900417147421674,9.690041714742167
0.6474536256323778,0.6,1.1816277624922338,9.681627762492234
0.6554468802698146,0.6,1.1732138102423004,9.6732138102423
0.6634401349072513,0.6,1.164799857992367,9.664799857992367
0.6714333895446881,0.6,1.1563859057424335,9.656385905742432
0.6794266441821248,0.6,1.1479719534925001,9.6479719534925
0.6874198988195617,0.6,1.1395580012425668,9.639558001242566
0.6954131534569984,0.6,1.1311440489926332,9.631144048992633
0.7034064080944351,0.6,1.1227300967426999,9.6227300967427
0.7113996627318719,0.6,1.1143161444927665,9.614316144492767
0.7193929173693087,0.6,1.1059021922428331,9.605902192242832
0.7273861720067455,0.6806913996627244,1.1806913996627244,9.7
0.7353794266441822,0.6,1.2594856661045557,9.7
0.7433726812816189,0.5544808479884361,1.3,9.654480847988436
0.7513659359190558,0.5009758291174821,1.299024170882518,9.6
0.7593591905564925,0.5222911748173132,1.2777088251826867,9.6
0.7673524451939293,0.5436065205171449,1.2563934794828553,9.6
0.775345699831366,0.5649218662169762,1.235078133783024,9.6
0.7833389544688028,0.5862372119168073,1.2137627880831927,9.6
0.7913322091062396,0.607552557616639,1.192447442383361,9.6
0.7993254637436763,0.6288679033164701,1.17113209668353,9.6
0.807318718381113,0.6501832490163014,1.1498167509836985,9.6
0.8153119730185499,0.671498594716133,1.128501405283867,9.6
0.8233052276559866,0.6928139404159643,1.1071860595840357,9.6
0.8312984822934234,0.6,1.3,9.7
0.8392917369308601,0.6,1.2925594521113672,9.7
0.8472849915682968,0.6,1.2844030698282685,9.7
0.8552782462057337,0.6,1.2762466875451697,9.7
0.8632715008431704,0.6,1.2680903052620711,9.7
0.8712647554806072,0.6,1.2599339229789723,9.7
0.8792580101180439,0.6,1.2517775406958735,9.7
0.8872512647554807,0.6,1.2436211584127748,9.7
0.8952445193929175,0.6,1.235464776129676,9.7
0.9032377740303542,0.6,1.2273083938465774,9.7
0.911231028667791,0.6,1.2191520115634786,9.7
0.9192242833052278,0.6,1.2109956292803798,9.7
0.9272175379426645,0.6,1.202839246997281,9.7
0.9352107925801013,0.6,1.289460370994937,9.7
0.943204047217538,0.6069708395702673,1.1930291604297325,9.706970839570268
0.9511973018549748,0.6159520245561513,1.1840479754438487,9.71595202455615
0.9591905564924116,0.6249332095420355,1.1750667904579646,9.724933209542035
0.9671838111298483,0.6339143945279193,1.1660856054720805,9.733914394527918
0.9751770657672851,0.6428955795138034,1.1571044204861964,9.742895579513803
0.9831703204047219,0.6518767644996873,1.1481232355003126,9.751876764499688
0.9911635750421586,0.6608579494855713,1.1391420505144287,9.76085794948557
0.9991568296795954,0.6698391344714554,1.1301608655285447,9.769839134471455
1.0071500843170322,0.6788203194573394,1.1211796805426606,9.77882031945734
1.0151433389544688,0.6878015044432233,1.1121984955567767,9.787801504443223
1.0231365935919057,0.6967826894291074,1.1032173105708927,9.796782689429108
1.0311298482293425,0.6,1.2,9.7
1.0391231028667791,0.6075777690072118,1.192422230992788,9.7
1.047116357504216,0.6160812313874637,1.1839187686125363,9.7
1.0551096121416528,0.6245846937677157,1.1754153062322843,9.7
1.0631028667790894,0.6330881561479674,1.1669118438520325,9.7
1.0710961214165262,0.6415916185282193,1.1584083814717805,9.7
1.079089376053963,0.6500950809084713,1.1499049190915287,9.7
1.0870826306913999,0.6585985432887232,1.1414014567112767,9.7
1.0950758853288365,0.667102005668975,1.132897994331025,9.7
1.1030691399662733,0.6756054680492269,1.124394531950773,9.7
1.1110623946037101,0.684108930429479,1.115891069570521,9.7
1.1190556492411468,0.6926123928097306,1.1073876071902693,9.7
1.1270489038785836,0.6975548060708208,1.1024451939291793,9.602445193929178
1.1350421585160204,0.4992973580663266,1.3510539629005103,9.7
1.143035413153457,0.7,1.7997529314875094,9.7
1.1510286677908939,0.7,1.7439860386681827,9.7
1.1590219224283307,0.7,1.688219145848856,9.7
1.1670151770657675,0.7,1.6324522530295291,9.7
1.1750084317032041,0.7,1.5766853602102042,9.7
1.183001686340641,0.7,1.5209184673908775,9.7
1.1909949409780778,0.7,1.4651515745715507,9.7
1.1989881956155144,0.7,1.4093846817522255,9.7
1.2069814502529512,0.7,1.3536177889328989,9.7
1.214974704890388,0.7,1.2978508961135722,9.7
1.2229679595278247,0.7,1.242084003294247,9.7
1.2309612141652615,0.5038785834738597,1.0038785834738597,9.60193929173693
1.2389544688026983,0.5030147640843861,1.3939704718312278,9.696985235915614
1.246947723440135,0.5111711463674846,1.3776577072650307,9.688828853632515
1.2549409780775718,0.5193275286505834,1.361344942698833,9.680672471349416
1.2629342327150086,0.5274839109336822,1.3450321781326355,9.672516089066317
1.2709274873524454,0.535640293216781,1.328719413566438,9.664359706783218
1.278920741989882,0.5437966754998796,1.3124066490002406,9.65620332450012
1.2869139966273189,0.5519530577829784,1.296093884434043,9.648046942217022
1.2949072512647557,0.5601094400660772,1.2797811198678455,9.639890559933923
1.3029005059021923,0.5682658223491758,1.2634683553016484,9.631734177650824
1.3108937605396291,0.5764222046322746,1.2471555907354508,9.623577795367725
1.318887015177066,0.5845785869153733,1.2308428261692532,9.615421413084626
1.3268802698145026,0.5927349691984719,1.214530061603056,9.607265030801528
1.3348735244519394,0.6436762225969667,1.2,9.556323777403033
1.3428667790893762,0.6,1.2062225969645874,9.7
1.350860033726813,0.6,1.232866779089377,9.7
1.3588532883642497,0.6,1.2595109612141655,9.7
1.3668465430016865,0.6,1.286155143338955,9.7
1.3748397976391233,0.6,1.3127993254637444,9.7
1.38283305227656,0.6,1.3394435075885331,9.7
1.3908263069139968,0.6,1.3660876897133225,9.7
1.3988195615514336,0.6,1.3927318718381119,9.7
1.4068128161888702,0.7,1.2,9.7
1.414806070826307,0.6932706285980111,1.2,9.7
1.4227993254637439,0.6863798918416001,1.2,9.7
1.4307925801011805,0.6794891550851891,1.2,9.7
1.4387858347386173,0.6725984183287781,1.2,9.7
1.4467790893760542,0.665707681572367,1.2,9.7
1.454772344013491,0.658816944815956,1.2,9.7
1.4627655986509276,0.6519262080595452,1.2,9.7
1.4707588532883644,0.6450354713031341,1.2,9.7
1.4787521079258013,0.6381447345467229,1.2,9.7
1.4867453625632379,0.6312539977903121,1.2,9.7
1.4947386172006747,0.624363261033901,1.2,9.7
1.5027318718381115,0.61747252427749,1.2,9.7
1.5107251264755481,0.6105817875210791,1.2,9.7
1.518718381112985,0.603691050764668,1.2,9.7
1.5267116357504218,0.6618605958403646,1.2,9.7
1.5347048903878586,0.7475407532321559,1.2475407532321559,9.652459246767844
1.5426981450252952,0.8,1.3,9.684907251264764
1.550691399662732,0.7908435718300808,1.2908435718300808,9.70915642816992
1.558684654300169,0.7813277924997989,1.281327792499799,9.7186722075002
1.5666779089376055,0.7718120131695172,1.2718120131695172,9.728187986830482
1.5746711635750423,0.7622962338392353,1.2622962338392352,9.737703766160765
1.5826644182124792,0.7527804545089534,1.2527804545089534,9.747219545491047
1.5906576728499158,0.7432646751786717,1.2432646751786716,9.756735324821328
1.5986509274873526,0.7337488958483898,1.2337488958483898,9.76625110415161
1.6066441821247894,0.7242331165181077,1.2242331165181077,9.775766883481893
1.614637436762226,0.7147173371878262,1.2147173371878262,9.785282662812174
1.6226306913996629,0.7052015578575441,1.2052015578575441,9.794798442142456
1.6306239460370997,0.762394603709974,1.162394603709974,9.6
1.6386172006745365,0.8,1.3,9.5
1.6466104553119731,0.8,1.3,9.5
1.65460370994941,0.8,1.3,9.5
1.6625969645868468,0.8,1.3,9.5
1.6705902192242834,0.8,1.3,9.5
1.6785834738617202,0.8,1.3,9.5
1.686576728499157,0.8,1.3,9.5
1.6945699831365937,0.8,1.3,9.5
1.7025632377740305,0.8,1.3,9.5
1.7105564924114673,0.8,1.3,9.5
1.718549747048904,0.8,1.3,9.5
1.7265430016863408,0.8771500843170347,1.3,9.5
1.7345362563237776,0.7,1.2,9.59072512647555
1.7425295109612144,0.7083661232902382,1.208366123290238,9.608366123290239
1.750522765598651,0.7172475173318344,1.2172475173318344,9.617247517331833
1.7585160202360879,0.7261289113734309,1.2261289113734308,9.62612891137343
1.7665092748735247,0.7350103054150274,1.2350103054150274,9.635010305415028
1.7745025295109613,0.7438916994566236,1.2438916994566236,9.643891699456622
1.7824957841483982,0.7527730934982202,1.2527730934982202,9.652773093498219
1.790489038785835,0.7616544875398167,1.2616544875398166,9.661654487539817
1.7984822934232716,0.770535881581413,1.270535881581413,9.670535881581412
1.8064755480607084,0.7794172756230094,1.2794172756230093,9.679417275623008
1.8144688026981453,0.7882986696646059,1.288298669664606,9.688298669664606
1.822462057335582,0.7971800637062024,1.2971800637062023,9.697180063706202
1.8304553119730187,0.9455311973018624,1.3,9.845531197301863
1.8384485666104555,1.1068601772451654,1.2862796455096692,10.013720354490331
1.8464418212478924,1.1153636396254174,1.2692727207491654,10.030727279250835
1.854435075885329,1.1238671020056692,1.2522657959886618,10.047734204011338
1.8624283305227658,1.132370564385921,1.235258871228158,10.064741128771843
1.8704215851602026,1.140874026766173,1.218251946467654,10.081748053532346
1.8784148397976392,1.1493774891464248,1.2012450217071506,10.098754978292849
1.886408094435076,1.1578809515266766,1.1842380969466468,10.115761903053352
1.894401349072513,1.1663844139069286,1.1672311721861428,10.132768827813857
1.9023946037099495,1.1748878762871804,1.1502242474256394,10.14977575257436
1.9103878583473863,1.1833913386674324,1.1332173226651354,10.166782677334863
1.9183811129848232,1.1918948010476842,1.1162103979046316,10.183789602095368
1.92637436762226,1.1975042158515996,1.1012478920742004,10.2
1.9343676222596966,1.1442158516020222,1.1278920741989888,10.2
1.9423608768971334,1.0909274873524435,1.1545362563237782,10.2
1.9503541315345703,1.0376391231028645,1.1811804384485676,10.2
1.9583473861720069,0.10421585160206247,2.3821247892075625,11.456829679595186
1.9663406408094437,1.2582762436762216,1.4748287310286647,10.008344751264756
1.9743338954468805,1.1958289418212462,1.2874868254637384,10.020834211635751
1.9823271500843171,1.1333816399662724,1.1001449198988174,10.033323672006745
1.990320404721754,1.070934338111297,0.9128030143338912,10.04581313237774
1.9983136593591908,1.0084870362563216,0.7254611087689651,10.058302592748735
2.0063069139966276,0.9460397344013463,0.5381192032040389,10.07079205311973
2.0143001686340645,0.8835924325463709,0.3507772976391126,10.083281513490725
2.022293423271501,0.8211451306913989,0.16343539207419688,10.09577097386172
2.0302866779089377,0.671332209106234,0.728667790893766,9.742917369308604
2.0382799325463745,0.2709949409780863,1.5849915682968105,9.644013490725104
2.0462731871838113,0.45106082591474334,1.7124671555747257,9.234350366681046
2.054266441821248,0.5161222008706247,1.6009333699360722,9.150700027452055
2.062259696458685,0.5811835758265059,1.4893995842974184,9.067049688223065
2.070252951096122,0.6462449507823873,1.3778657986587648,8.983399348994075
2.0782462057335582,0.7113063257382649,1.2663320130201172,8.899749009765088
2.086239460370995,0.7763677006941463,1.1547982273814636,8.816098670536098
2.094232715008432,0.8414290756500276,1.04326444174281,8.732448331307108
2.1022259696458687,0.9064904506059088,0.9317306561041563,8.648797992078118
2.1102192242833056,0.9715518255617901,0.8201968704655026,8.565147652849127
2.1182124789207424,1.0366132005176714,0.7086630848268489,8.481497313620137
2.1262057335581788,1.1137155705452582,0.53142214727371,8.33142214727371
2.1341989881956156,1.351989881956157,-0.34801011804384296,7.451989881956157
2.1421922428330524,2.3988419106442618,0.5011580893557381,7.599536764257705
2.1501854974704893,2.3506897742741604,0.5493102257258394,7.580275909709664
2.158178752107926,2.3025376379040594,0.5974623620959407,7.561015055161623
2.166172006745363,2.254385501533958,0.6456144984660419,7.541754200613583
2.1741652613827998,2.2062333651638566,0.6937666348361432,7.522493346065542
2.182158516020236,2.158081228793758,0.7419187712062418,7.503232491517503
2.190151770657673,2.109929092423657,0.7900709075763431,7.483971636969462
2.19814502529511,2.0617769560535555,0.8382230439464444,7.464710782421422
2.2061382799325466,2.013624819683454,0.8863751803165457,7.445449927873382
2.2141315345699835,1.965472683313353,0.934527316686647,7.426189073325341
2.2221247892074203,1.9173205469432517,0.9826794530567483,7.406928218777301
2.2301180438448567,0.2295109612141709,0.5236087689713367,9.776391231028663
2.2381112984822935,0.7321647288541753,0.8678352711458247,9.362474483003462
2.2461045531197303,0.7742344901038428,0.8257655098961572,9.313393094878851
2.254097807757167,0.8163042513535105,0.7836957486464895,9.264311706754238
2.262091062394604,0.858374012603178,0.741625987396822,9.215230318629626
2.270084317032041,0.9004437738528456,0.6995562261471544,9.166148930505013
2.2780775716694777,0.9425135351025132,0.6574864648974867,9.1170675423804
2.286070826306914,0.9845832963521784,0.6154167036478215,9.067986154255792
2.294064080944351,1.026653057601846,0.573346942398154,9.018904766131179
2.3020573355817877,1.0687228188515137,0.5312771811484864,8.969823378006566
2.3100505902192245,1.1107925801011813,0.4892074198988188,8.920741989881956
2.3180438448566614,1.1528623413508488,0.4471376586491512,8.871660601757343
2.326037099494098,1.1949321026005164,0.4050678973994836,8.82257921363273
2.334030354131535,1.237001863850184,0.362998136149816,8.773497825508118
2.3420236087689714,1.2790716250998493,0.3209283749001508,8.724416437383509
2.3500168634064083,1.9491568296795918,-0.24915682967959177,3.418802698144895
2.358010118043845,1.8859797639123097,-0.21402023608769027,1.1233119730185313
2.366003372681282,1.869993254637436,-0.230006745362564,0.5797706576728248
2.3739966273187187,1.8540067453625624,-0.2459932546374377,0.036229342327118275
2.3819898819561556,1.8380202360876885,-0.2619797639123114,-0.5073119730185884
2.389983136593592,1.8220337268128157,-0.27796627318718425,-1.0508532883642645
2.397976391231029,1.806047217537942,-0.29395278246205797,-1.5943946037099712
2.4059696458684656,1.941989881956164,-0.08701517706575407,-2.012984822934246
2.4139629005059025,5.017465670922631,10.400271019031512,10.618054384485674
2.4219561551433393,4.332329559142331,9.572398217296984,10.767927908937615
2.429949409780776,3.647193447362032,8.744525415562457,10.917801433389554
2.437942664418213,2.962057335581733,7.916652613827928,11.067674957841495
2.4459359190556493,2.2769212238014718,7.0887798120934455,11.217548482293427
2.453929173693086,1.5917851120211726,6.260907010358918,11.367422006745368
2.461922428330523,0.9066490002408738,5.43303420862439,11.517295531197309
2.46991568296796,0.22151288846057415,4.605161406889861,11.667169055649248
2.4779089376053967,-0.4636232233197246,3.7772886051553334,11.81704258010119
2.4859021922428335,-1.1487593351000243,2.9494158034208056,11.96691610455313
2.49389544688027,-1.8338954468802848,2.121543001686323,12.116789629005062
2.5018887015177067,-2.5190315586605845,1.293670199951796,12.266663153457001
2.5098819561551435,-3.2041676704408832,0.4657973982172674,12.416536677908942
2.5178752107925804,-3.889303782221182,-0.3620754035172613,12.566410202360883
2.525868465430017,-2.5893760539617636,-1.447386172006952,8.70505902192005
2.533861720067454,-2.4,-5.6,8.111943464126147
2.541854974704891,-2.4,-5.6,8.136664870221312
2.5498482293423272,-2.4,-5.6,8.161386276316476
2.557841483979764,-2.4,-5.6,8.186107682411642
2.565834738617201,-2.4,-5.6,8.210829088506808
2.5738279932546377,-2.4,-5.6,8.235550494601974
2.5818212478920746,-2.4,-5.6,8.260271900697138
2.5898145025295114,-2.4,-5.6,8.284993306792304
2.597807757166948,-2.4,-5.6,8.309714712887468
2.6058010118043846,-2.4,-5.6,8.334436118982634
2.6137942664418214,-2.4,-5.6,8.3591575250778
2.6217875210792583,-2.4,-5.6,8.383878931172966
2.629780775716695,-1.3390387858347594,-2.1411467116352916,9.073271500843317
2.637774030354132,-1.7094363316709138,-0.21887266334182787,9.97924007032399
2.6457672849915688,-1.7519536435721736,-0.30390728714434745,9.885701984141217
2.653760539629005,-1.7944709554734313,-0.38894191094686237,9.792163897958451
2.661753794266442,-1.8369882673746911,-0.47397653474938195,9.69862581177568
2.669747048903879,-1.8795055792759507,-0.5590111585519015,9.605087725592908
2.6777403035413156,-1.9220228911772106,-0.6440457823544212,9.511549639410138
2.6857335581787525,-1.9645402030784704,-0.7290804061569407,9.418011553227366
2.6937268128161893,-2.0070575149797305,-0.8141150299594604,9.324473467044594
2.701720067453626,-2.04957482688099,-0.8991496537619801,9.230935380861823
2.7097133220910625,-2.0920921387822475,-0.9841842775644949,9.137397294679056
2.7177065767284994,-2.1346094506835076,-1.0692189013670144,9.043859208496285
2.725699831365936,-2.1771267625847672,-1.154253525169534,8.950321122313513
2.733693086003373,-3.06534569983135,-1.46534569983135,8.9693086003373
2.74168634064081,-3.187221706425147,-1.0616651192754407,9.976669761449118
2.7496795952782467,-3.1692593364533788,-1.0077780093601363,10.084443981279728
2.757672849915683,-3.1512969664816115,-0.9538908994448347,10.19221820111033
2.76566610455312,-3.1333345965098434,-0.9000037895295302,10.29999242094094
2.7736593591905567,-3.115372226538075,-0.8461166796142257,10.407766640771548
2.7816526138279936,-3.097409856566307,-0.7922295696989212,10.515540860602158
2.7896458684654304,-3.079447486594539,-0.7383424597836167,10.623315080432766
2.797639123102867,-3.061485116622771,-0.6844553498683121,10.731089300263376
2.805632377740304,-3.0435227466510026,-0.6305682399530077,10.838863520093984
2.8136256323777404,-3.0255603766792354,-0.5766811300377062,10.946637739924588
2.8216188870151773,-3.0075980067074672,-0.5227940201224017,11.054411959755196
2.829612141652614,-1.5612141652613987,-0.2060708263069926,10.7
2.837605396290051,-1.7059631875426076,-0.811926375085215,10.082110437372178
2.8455986509274878,-1.7144666499228594,-0.828933299845719,10.056600050231422
2.8535919055649246,-1.7229701123031114,-0.8459402246062228,10.031089663090667
2.861585160202361,-1.7314735746833627,-0.8629471493667256,10.005579275949911
2.869578414839798,-1.7399770370636147,-0.8799540741272295,9.980068888809155
2.8775716694772346,-1.7484804994438667,-0.8969609988877333,9.9545585016684
2.8855649241146715,-1.7569839618241185,-0.9139679236482371,9.929048114527644
2.8935581787521083,-1.7654874242043705,-0.930974848408741,9.903537727386889
2.901551433389545,-1.7739908865846223,-0.9479817731692448,9.878027340246133
2.909544688026982,-1.7824943489648744,-0.9649886979297486,9.852516953105377
2.9175379426644183,-1.7909978113451257,-0.9819956226902515,9.827006565964624
2.925531197301855,-1.7995012737253777,-0.9990025474507553,9.801496178823868
2.933524451939292,-0.3,-0.5,8.998360804366353
2.941517706576729,-0.3,-0.5,8.989765906906744
2.9495109612141657,-0.3,-0.5,8.981171009447134
2.9575042158516025,-0.3,-0.5,8.972576111987523
2.965497470489039,-0.3,-0.5,8.963981214527916
2.9734907251264757,-0.3,-0.5,8.955386317068307
2.9814839797639126,-0.3,-0.5,8.946791419608696
2.9894772344013494,-0.3,-0.5,8.938196522149086
2.997470489038786,-0.3,-0.5,8.929601624689477
3.005463743676223,-0.3,-0.5,8.921006727229868
3.01345699831366,-0.3,-0.5,8.912411829770258
3.0214502529510963,-0.3,-0.5,8.903816932310649
3.029443507588533,-0.2868772037406086,-0.7,8.839368388778174
3.03743676222597,-0.21421125249118372,-0.7,9.057366242526449
3.0454300168634068,-0.1415453012417564,-0.46618120496702553,9.45072819254946
3.0534232715008436,-0.1,-0.27261382799324996,9.718257448004499
3.0614165261382804,-0.1,-0.20866779089375548,9.760888139404162
3.0694097807757172,-0.1,-0.144721753794261,9.803518830803826
3.0774030354131536,-0.1,-0.08077571669477004,9.846149522203486
3.0853962900505905,-0.1,-0.016829679595275537,9.888780213603148
3.0933895446880273,-0.1,0.04711635750421894,9.931410905002812
3.101382799325464,-0.1,0.11106239460371342,9.974041596402476
3.109376053962901,-0.1,0.1750084317032079,10.016672287802137
3.117369308600338,-0.1,0.23895446880270238,10.059302979201801
3.125362563237774,-0.06374367622257884,0.4450252951096846,10.063743676222579
3.133355817875211,-0.1949876215421038,0.1075185676868443,9.512530946144741
3.141349072512648,-0.17798069678159997,0.13302895482760008,9.555048258046
3.1493423271500847,-0.16097377202109614,0.15853934196835584,9.59756556994726
3.1573355817875215,-0.14396684726059228,0.1840497291091116,9.64008288184852
3.1653288364249583,-0.12695992250008845,0.20956011624986737,9.68260019374978
3.173322091062395,-0.10995299773958461,0.23507050339062313,9.725117505651038
3.1813153456998315,-0.09294607297908171,0.26058089053137745,9.767634817552295
3.1893086003372684,-0.07593914821857788,0.28609127767213327,9.810152129453556
3.197301854974705,-0.05893222345807403,0.311601664812889,9.852669441354815
3.205295109612142,-0.041925298697570196,0.3371120519536448,9.895186753256075
3.213288364249579,-0.024918373937066335,0.3626224390944005,9.937704065157334
3.2212816188870157,-0.007911449176562502,0.3881328262351563,9.980221377058594
3.229274873524452,0.9274873524452021,0.5,9.708768971332196
3.237268128161889,1.082827046131811,0.2828270461318108,9.357067615329527
3.2452613827993257,1.0609277183580113,0.26092771835801126,9.302319295895028
3.2532546374367626,1.0390283905842117,0.23902839058421171,9.24757097646053
3.2612478920741994,1.0171290628104122,0.21712906281041217,9.192822657026031
3.2692411467116362,0.9952297350366127,0.19522973503661262,9.138074337591531
3.277234401349073,0.9733304072628132,0.17333040726281307,9.083326018157033
3.2852276559865095,0.9514310794890148,0.15143107948901474,9.028577698722538
3.2932209106239463,0.9295317517152153,0.1295317517152152,8.973829379288038
3.301214165261383,0.9076324239414157,0.10763242394141564,8.91908105985354
3.30920741989882,0.5103709949409903,0.4207419898819806,9.51037099494099
3.3172006745362568,0.6054873225984574,0.6164619677953721,9.6
3.3251939291736936,0.6125609992687554,0.6376829978062664,9.6
3.33318718381113,0.6196346759390531,0.6589040278171594,9.6
3.341180438448567,0.6267083526093512,0.6801250578280537,9.6
3.3491736930860037,0.6337820292796493,0.7013460878389479,9.6
3.3571669477234405,0.6408557059499473,0.7225671178498422,9.6
3.3651602023608773,0.6479293826202455,0.7437881478607364,9.6
3.373153456998314,0.6550030592905435,0.7650091778716306,9.6
3.381146711635751,0.6620767359608416,0.786230207882525,9.6
3.3891399662731874,0.6691504126311393,0.807451237893418,9.6
3.397133220910624,0.6762240893014374,0.8286722679043121,9.6
3.405126475548061,0.6832977659717354,0.8498932979152065,9.6
3.413119730185498,0.6903714426420335,0.8711143279261007,9.6
3.4211129848229347,0.6974451193123317,0.8923353579369949,9.6
3.4291062394603715,0.8,0.7617047370841555,9.438295262915846
3.437099494097808,0.8,0.6163728345853137,9.583627165414686
3.4450927487352447,0.8080599417445962,0.5838801165108077,9.608059941744596
3.4530860033726816,0.8171431856507745,0.5657136286984512,9.617143185650773
3.4610792580101184,0.8262264295569527,0.5475471408860947,9.626226429556953
3.4690725126475552,0.8353096734631309,0.5293806530737382,9.63530967346313
3.477065767284992,0.8443929173693092,0.5112141652613817,9.64439291736931
3.485059021922429,0.8534761612754874,0.49304767744902517,9.653476161275487
3.4930522765598653,0.8625594051816652,0.4748811896366697,9.662559405181664
3.501045531197302,0.8716426490878435,0.4567147018243132,9.671642649087843
3.509038785834739,0.8807258929940217,0.43854821401195665,9.68072589299402
3.5170320404721758,0.8898091369001999,0.4203817261996001,9.6898091369002
3.5250252951096126,0.8988923808063782,0.40221523838724366,9.698892380806377
3.5330185497470494,0.7037099494099028,0.5018549747049514,10.098145025295048
3.5410118043844863,0.9154105590867834,0.6231158386301751,9.853599688675558
3.5490050590219226,0.9329781516965336,0.6494672275448005,9.68670755888293
3.5569983136593595,0.9505457443062849,0.6758186164594273,9.519815429090293
3.5649915682967963,0.9681133369160362,0.7021700053740542,9.352923299297657
3.572984822934233,0.9856809295257875,0.728521394288681,9.18603116950502
3.58097807757167,1.0032485221355387,0.754872783203308,9.019139039712384
3.588971332209107,1.0208161147452899,0.7812241721179347,8.852246909919746
3.596964586846543,1.0383837073550402,0.8075755610325601,8.685354780127119
3.60495784148398,1.0559512999647915,0.8339269499471871,8.518462650334481
3.612951096121417,1.0735188925745427,0.8602783388618138,8.351570520541845
3.6209443507588537,1.0910864851842939,0.8866297277764408,8.184678390749209
3.6289376053962905,0.5859190556491418,0.11247892074187626,9.721922428330778
3.6369308600337273,0.6287240022484935,1.8861720067454808,10.571275997751506
3.644924114671164,0.7159175049911821,2.084082495008818,10.476123742513227
3.6529173693086006,0.7342928030082773,2.0657071969917227,10.448560795487584
3.6609106239460374,0.7526681010253734,2.0473318989746265,10.42099784846194
3.668903878583474,0.7710433990424695,2.0289566009575304,10.393434901436295
3.676897133220911,0.7894186970595657,2.0105813029404342,10.36587195441065
3.684890387858348,0.8077939950766618,1.992206004923338,10.338309007385007
3.6928836424957847,0.8261692930937579,1.973830706906242,10.310746060359362
3.700876897133221,0.844544591110853,1.955455408889147,10.28318311333372
3.708870151770658,0.8629198891279491,1.9370801108720508,10.255620166308075
3.7168634064080948,0.8812951871450453,1.9187048128549546,10.228057219282432
3.7248566610455316,0.8996704851621414,1.9003295148378585,10.200494272256787
3.7328499156829684,0.5059039862222401,0.8078719816296535,9.901967995407414
3.7408431703204053,0.5314143733629958,0.8418858311506611,9.910471457787665
3.748836424957842,0.5569247605037516,0.8758996806716688,9.918974920167917
3.7568296795952785,0.5824351476445059,0.9099135301926745,9.927478382548168
3.7648229342327153,0.6079455347852617,0.9439273797136822,9.93598184492842
3.772816188870152,0.6334559219260174,0.9779412292346898,9.944485307308673
3.780809443507589,0.6589663090667732,1.0119550787556975,9.952988769688925
3.788802698145026,0.6844766962075289,1.0459689282767053,9.961492232069176
3.7967959527824626,0.7099870833482848,1.079982777797713,9.969995694449429
3.804789207419899,0.7354974704890391,1.1139966273187187,9.97849915682968
3.812782462057336,0.7610078576297948,1.1480104768397263,9.987002619209932
3.8207757166947727,0.7865182447705505,1.182024326360734,9.995506081590184
3.8287689713322095,1.1,1.0846176405894823,9.792308820294743
3.8367622259696463,1.1,1.0151110785248147,9.757555539262407
3.844755480607083,1.1,0.945604516460147,9.722802258230073
3.85274873524452,1.0249578414840033,0.8249578414840033,9.550084317031994
3.8607419898819564,1.1082028426885093,0.9164056853770184,9.416405685377018
3.868735244519393,1.1196217778848476,0.9392435557696951,9.439243555769695
3.87672849915683,1.131040713081186,0.9620814261623718,9.462081426162372
3.884721753794267,1.1424596482775242,0.9849192965550485,9.484919296555049
3.8927150084317037,1.1538785834738625,1.0077571669477252,9.507757166947725
3.9007082630691405,1.165297518670201,1.030595037340402,9.530595037340401
3.9087015177065774,1.1767164538665393,1.0534329077330786,9.553432907733079
3.9166947723440138,1.188135389062877,1.0762707781257541,9.576270778125753
3.9246880269814506,1.1995543242592153,1.099108648518431,9.599108648518431
3.9326812816188874,0.905423489093185,0.8,9.498192170302271
3.9406745362563242,0.9312081814720136,0.8,9.489597272842662
3.948667790893761,0.9569928738508421,0.8,9.481002375383053
3.956661045531198,0.9827775662296705,0.8,9.472407477923444
3.9646543001686343,1.0085622586084977,0.8,9.463812580463834
3.972647554806071,1.034346950987326,0.8,9.455217683004225
3.980640809443508,1.0601316433661545,0.8,9.446622785544616
3.988634064080945,1.085916335744983,0.8,9.438027888085006
3.9966273187183816,1.1117010281238116,0.8,9.429432990625397
4.004620573355818,1.1374857205026385,0.8,9.420838093165788
4.012613827993255,1.1632704128814686,0.8,9.412243195706177
4.020607082630692,1.1890551052602956,0.8,9.40364829824657
4.028600337268129,0.8,1.7200674536258316,9.860033726812917
4.036593591905565,0.823729974704892,1.7920900084317029,9.892090008431703
4.044586846543002,0.8487088954468807,1.7837637015177066,9.883763701517706
4.052580101180439,0.8736878161888721,1.7754373946037094,9.87543739460371
4.060573355817875,0.8986667369308607,1.7671110876897131,9.867111087689713
4.068566610455313,0.9236456576728522,1.758784780775716,9.858784780775716
4.076559865092749,0.9486245784148409,1.7504584738617197,9.85045847386172
4.084553119730186,0.9736034991568324,1.7421321669477225,9.842132166947723
4.092546374367623,0.9985824198988211,1.7338058600337263,9.833805860033728
4.100539629005059,1.0235613406408097,1.72547955311973,9.825479553119731
4.108532883642496,1.0485402613828012,1.7171532462057328,9.817153246205734
4.116526138279933,1.07351918212479,1.7088269392917366,9.808826939291738
4.12451939291737,1.0984981028667815,1.7005006323777394,9.80050063237774
4.132512647554806,1.1015126475548063,0.7015126475548061,9.701512647554805
4.140505902192244,1.1095059021922435,0.7095059021922434,9.709505902192243
4.14849915682968,1.11749915682968,0.7174991568296799,9.71749915682968
4.1564924114671165,1.1254924114671163,0.7254924114671163,9.725492411467116
4.164485666104554,1.1334856661045536,0.7334856661045536,9.733485666104553
4.17247892074199,1.14147892074199,0.7414789207419901,9.74147892074199
4.180472175379427,1.1494721753794273,0.7494721753794273,9.749472175379427
4.188465430016864,1.1574654300168639,0.7574654300168637,9.757465430016865
4.196458684654301,1.1654586846543011,0.7654586846543011,9.765458684654302
4.204451939291737,1.1734519392917375,0.7734519392917375,9.773451939291737
4.212445193929174,1.181445193929174,0.7814451939291739,9.781445193929175
4.220438448566611,1.1894384485666112,0.7894384485666113,9.789438448566612
4.2284317032040475,1.1974317032040476,0.7974317032040477,9.797431703204047
4.236424957841485,1.0311359803771372,0.9311359803771371,9.668864019622863
4.244418212478921,1.1209106239460618,0.9372681281618146,9.6
4.2524114671163575,1.3893892801640046,0.7106107198359953,9.6
4.260404721753795,1.373716231855304,0.7262837681446959,9.6
4.268397976391231,1.3580431835466054,0.7419568164533945,9.6
4.2763912310286685,1.342370135237905,0.757629864762095,9.6
4.284384485666105,1.326697086929206,0.7733029130707938,9.6
4.292377740303542,1.3110240386205056,0.7889759613794943,9.6
4.3003709949409785,1.2953509903118068,0.8046490096881931,9.6
4.308364249578415,1.2796779420031081,0.8203220579968918,9.6
4.316357504215852,1.2640048936944077,0.8359951063055924,9.6
4.324350758853289,1.2483318453857088,0.851668154614291,9.6
4.332344013490726,1.2326587970770084,0.8673412029229915,9.6
4.340337268128162,1.2169857487683096,0.8830142512316903,9.6
4.3483305227655995,1.2013127004596091,0.8986872995403908,9.6
4.356323777403036,1.3,1.0,9.596921447899916
4.364317032040472,1.3,1.0,9.57833248362681
4.3723102866779096,1.3,1.0,9.559743519353699
4.380303541315346,1.3,1.0,9.54115455508059
4.388296795952783,1.3,1.0,9.522565590807481
4.39629005059022,1.3,1.0,9.503976626534373
4.404283305227657,1.4,1.0989481104691334,9.698948110469132
4.412276559865093,1.4,1.0923962624056611,9.69239626240566
4.42026981450253,1.4,1.0858444143421886,9.685844414342188
4.428263069139967,1.4,1.0792925662787154,9.679292566278715
4.436256323777403,1.4,1.072740718215243,9.672740718215243
4.444249578414841,1.4,1.0661888701517699,9.66618887015177
4.452242833052277,1.4,1.0596370220882976,9.659637022088297
4.460236087689713,1.4,1.053085174024825,9.653085174024824
4.468229342327151,1.4,1.046533325961352,9.646533325961352
4.476222596964587,1.4,1.0399814778978795,9.639981477897878
4.484215851602024,1.4,1.0334296298344063,9.633429629834406
4.492209106239461,1.4,1.026877781770934,9.626877781770933
4.500202360876898,1.4,1.0203259337074608,9.620325933707461
4.508195615514334,1.4,1.0137740856439885,9.613774085643987
4.516188870151771,1.4,1.007222237580516,9.607222237580515
4.524182124789208,1.4,1.000670389517043,9.600670389517042
4.532175379426644,0.9912310286677809,0.9912310286677809,9.70876897133222
4.540168634064082,1.2112361610088729,0.7,9.688763838991127
4.548161888701518,1.228612801525039,0.7,9.67138719847496
4.556155143338955,1.245989442041207,0.7,9.654010557958792
4.564148397976392,1.2633660825573731,0.7,9.636633917442627
4.572141652613828,1.2807427230735393,0.7,9.61925727692646
4.580134907251265,1.2981193635897073,0.7,9.601880636410293
4.588128161888702,1.3154960041058734,0.7,9.584503995894126
4.596121416526139,1.3328726446220416,0.7,9.567127355377957
4.604114671163575,1.3502492851382075,0.7,9.549750714861792
4.612107925801013,1.3676259256543757,0.7,9.532374074345624
4.620101180438449,1.3850025661705418,0.7,9.514997433829459
4.6280944350758855,1.2,0.7004292503449334,9.700429250344932
4.636087689713323,1.2,0.7367622259696479,9.736762225969647
4.644080944350759,1.2,0.7730952015943584,9.773095201594359
4.652074198988196,1.2,0.8,9.8
4.660067453625633,1.2,1.09579800873201,9.695798008732009
4.66806070826307,1.2,1.0848483448451096,9.68484834484511
4.6760539629005065,1.2,1.0738986809582105,9.67389868095821
4.684047217537943,1.2,1.0629490170713114,9.66294901707131
4.69204047217538,1.2,1.0519993531844112,9.65199935318441
4.7000337268128165,1.2,1.041049689297512,9.641049689297512
4.708026981450254,1.2,1.0301000254106116,9.630100025410611
4.71602023608769,1.2,1.0191503615237125,9.619150361523712
4.7240134907251266,1.2,1.0082006976368134,9.608200697636812
4.732006745362564,1.159865092748731,0.9598650927487311,9.559865092748732
4.74,1.1,0.8,9.7
