accel_time_list,accel_x_list,accel_y_list,accel_z_list
0.0,0.0,0.2,9.8
0.007999000499750126,-0.1666333499916709,0.08341662502082281,9.516683325004164
0.01599800099950025,-0.24563913695326253,0.1293108880342438,9.469573908697825
0.023997001499250378,-0.2978065315168503,0.2771185059644091,9.434795645655432
0.0319960019990005,-0.3499739260804381,0.42492612389457446,9.400017382613042
0.039995002498750626,-0.4021413206440258,0.5727337418247397,9.36523911957065
0.047994002998500755,-0.4543087152076136,0.7205413597549052,9.330460856528257
0.055993003498250885,-0.5064761097712014,0.8683489776850706,9.295682593485866
0.063992003998001,-0.5586435043347892,1.0161565956152359,9.260904330443473
0.07199100449775113,-0.6108108988983769,1.1639642135454014,9.226126067401081
0.07999000499750125,-0.6629782934619647,1.3117718314755666,9.19134780435869
0.08798900549725139,-0.7151456880255525,1.4595794494057321,9.156569541316298
0.09598800599700151,-0.7673130825891403,1.6073870673358974,9.121791278273907
0.10398700649675163,0.15584707646176316,0.29480259870065495,9.498700649675163
0.11198600699650177,-0.2,0.5164066318489108,9.906562652739565
0.11998500749625189,-0.2,0.5603571840453401,9.924142873618136
0.127984007996002,-0.2,0.6043077362417693,9.941723094496709
0.13598300849575215,-0.2,0.6482582884381987,9.95930331537528
0.14398200899550226,-0.2,0.6922088406346277,9.976883536253851
0.1519810094952524,-0.2,0.736159392831057,9.994463757132422
0.1599800099950025,-0.2,0.7801099450274862,10.012043978010995
0.16797901049475264,-0.2,0.8240604972239156,10.029624198889566
0.17597801099450278,-0.2,0.8680110494203448,10.047204419768137
0.18397701149425288,-0.2,0.911961601616774,10.064784640646709
0.19197601199400302,-0.2,0.9559121538132034,10.082364861525281
0.19997501249375316,-0.2,0.9998627060096327,10.099945082403853
0.20797401299350327,-0.2974012993503275,0.6077961019490175,9.705197401299344
0.2159730134932534,0.051651257704480744,0.3621626686656676,9.286186073629853
0.22397201399300354,-0.02611680270975672,0.4621501749125443,9.263966627797213
0.23197101449275365,-0.10388486312399389,0.5621376811594208,9.241747181964573
0.23997001499250378,-0.18165292353823134,0.6621251874062974,9.219527736131933
0.2479690154922539,-0.2594209839524686,0.7621126936531738,9.197308290299295
0.255968015992004,-0.33718904436670605,0.8621001999000506,9.175088844466655
0.26396701649175414,-0.4149571047809433,0.9620877061469268,9.152869398634015
0.2719660169915043,-0.49272516519518095,1.062075212393804,9.130649952801377
0.2799650174912544,-0.5704932256094182,1.1620627186406802,9.108430506968737
0.2879640179910045,-1.0546765078998954,2.4755391535001743,8.56978433859993
0.2959630184907547,-0.8700841886748917,2.7831930188751803,8.446722792449927
0.3039620189905048,-0.8314051834842077,2.824627559637902,8.368594816515794
0.3119610194902549,-0.882031768925664,2.7031237545784066,8.317968231074337
0.319960019990005,-0.9326583543671204,2.581619949518911,8.26734164563288
0.32795902048975517,-0.9832849398085771,2.460116144459415,8.216715060191424
0.3359580209895053,-1.0339115252500335,2.3386123393999196,8.166088474749968
0.3439570214892554,-1.08453811069149,2.2171085343404244,8.115461889308511
0.35195602198900555,-1.1351646961329467,2.0956047292809283,8.064835303867055
0.35995502248875566,-1.185791281574403,1.974100924221433,8.014208718425598
0.36795402298850577,-1.2364178670158594,1.8525971191619377,7.963582132984141
0.37595302348825593,-1.2870444524573161,1.7310933141024414,7.912955547542684
0.38395202398800604,-1.8,-2.2414747171868616,7.295120621507428
0.39195102448775615,-1.8,-2.3538573688362434,7.281899133078089
0.3999500249875063,-1.8,-2.466240020485626,7.26867764464875
0.4079490254872564,-1.8,-2.578622672135008,7.25545615621941
0.41594802598700653,-1.8,-2.691005323784389,7.242234667790072
0.4239470264867567,-1.8,-2.803387975433772,7.229013179360733
0.4319460269865068,-1.8,-2.9157706270831536,7.215791690931393
0.4399450274862569,-1.8,-3.0281532787325354,7.202570202502055
0.4479440279860071,-1.8,-3.1405359303819176,7.1893487140727155
0.4559430284857572,-1.8,-3.2529185820312994,7.176127225643376
0.4639420289855073,-1.8,-3.3653012336806807,7.162905737214038
0.4719410294852574,-1.8,-3.4776838853300625,7.149684248784698
0.47994002998500757,-1.8,-3.590066536979445,7.136462760355359
0.4879390304847577,-1.8,-3.702449188628827,7.12324127192602
0.4959380309845078,-1.8,-3.8148318402782087,7.110019783496681
0.503937031484258,-1.8594452773613086,-3.5125937031484114,6.553148425787103
0.511936031984008,-1.6123576509617537,-3.6514902123406396,6.079403915063744
0.5199350324837582,-1.6634151009601585,-3.864229587333994,5.9943081650664025
0.5279340329835083,-1.7144725509585634,-4.0769689623273475,5.909212415069061
0.5359330334832584,-1.7655300009569685,-4.289708337320701,5.824116665071719
0.5439320339830086,-1.816587450955374,-4.5024477123140585,5.739020915074376
0.5519310344827587,-1.867644900953779,-4.715187087307412,5.653925165077035
0.5599300349825088,-1.918702350952184,-4.927926462300766,5.568829415079693
0.5679290354822589,-1.969759800950589,-5.1406658372941205,5.483733665082351
0.575928035982009,-2.020817250948994,-5.353405212287474,5.3986379150850095
0.5839270364817591,-2.071874700947399,-5.566144587280828,5.313542165087668
0.5919260369815094,-2.122932150945805,-5.778883962274185,5.228446415090326
0.5999250374812595,-2.1739896009442097,-5.991623337267539,5.143350665092984
0.6079240379810096,-3.065817091454318,-8.462018990504797,5.20759620189904
0.6159230384807597,-3.286537981009496,-11.551917791104458,3.1211581709145344
0.6239220389805098,-3.3333592240024568,-11.533203879987715,3.0917378660067563
0.6319210394802599,-3.3719086240012524,-11.340456879993736,3.197748716003445
0.63992003998001,-3.4104580240000484,-11.147709879999757,3.303759566000133
0.6479190404797602,-3.4490074239988444,-10.954962880005777,3.4097704159968227
0.6559180409795103,-3.4875568239976404,-10.762215880011798,3.515781265993511
0.6639170414792605,-3.526106223996436,-10.56946888001782,3.621792115990199
0.6719160419790106,-3.5646556239952316,-10.37672188002384,3.727802965986887
0.6799150424787607,-3.6032050239940276,-10.183974880029862,3.833813815983575
0.6879140429785108,-3.6417544239928232,-9.991227880035883,3.9398246659802636
0.695913043478261,-3.6803038239916197,-9.798480880041902,4.045835515976953
0.7039120439780111,-4.1573613193403345,-8.585277361319331,5.114722638680669
0.7119110444777612,-4.397331334332838,-8.105337331334326,5.594662668665674
0.7199100449775113,-5.216644220262751,-6.150067339211749,5.641475872233378
0.7279090454772614,-5.243759476194107,-6.06872157141768,5.871955547649907
0.7359080459770115,-5.270874732125463,-5.987375803623611,6.1024352230664345
0.7439070464767618,-5.29798998805682,-5.9060300358295414,6.332914898482966
0.7519060469765119,-5.325105243988176,-5.8246842680354725,6.563394573899495
0.759905047476262,-5.352220499919532,-5.7433385002414035,6.793874249316023
0.7679040479760121,-5.379335755850889,-5.6619927324473345,7.0243539247325515
0.7759030484757622,-5.304847576211891,-6.2660669665167585,7.6757621189405425
0.7839020489755123,-4.495203224833864,-6.343170976495224,7.4232515973418245
0.7919010494752624,-4.481981736404525,-6.4621643723592745,7.2117077824724
0.7999000499750126,-4.468760247975186,-6.581157768223328,7.0001639676029725
0.8078990504747627,-4.455538759545846,-6.700151164087379,6.788620152733548
0.8158980509745128,-4.442317271116508,-6.81914455995143,6.577076337864124
0.823897051474263,-4.429095782687169,-6.938137955815481,6.3655325229947
0.8318960519740131,-4.415874294257829,-7.057131351679533,6.153988708125275
0.8398950524737632,-4.402652805828491,-7.176124747543584,5.942444893255851
0.8478940529735134,-4.3894313173991515,-7.295118143407636,5.730901078386424
0.8558930534732635,-4.376209828969812,-7.414111539271688,5.519357263516999
0.8638920539730136,-4.362988340540474,-7.533104935135739,5.3078134486475745
0.8718910544727637,-4.349766852111134,-7.65209833099979,5.09626963377815
0.8798900549725138,-4.336545363681795,-7.771091726863841,4.884725818908726
0.8878890554722639,-4.3233238752524565,-7.890085122727893,4.673182004039301
0.8958880559720142,-4.310102386823117,-8.009078518591945,4.461638189169874
0.9038870564717643,-4.3,-7.974196235215717,4.111294352823577
0.9118860569715144,-1.8190404797598574,-11.221439280360213,5.880959520240142
0.9198850574712645,-5.742115459124367,-14.642929097249123,6.0867751517499675
0.9278840579710146,-5.391597459697114,-14.157596482657542,6.068799869728057
0.9358830584707647,-5.041079460269862,-13.672263868065961,6.050824587706146
0.9438820589705148,-4.690561460842609,-13.186931253474382,6.032849305684236
0.951881059470265,-4.340043461415352,-12.701598638882794,6.014874023662325
0.9598800599700151,-3.9895254619880993,-12.216266024291214,5.996898741640416
0.9678790604697652,-3.639007462560847,-11.730933409699634,5.978923459618505
0.9758780609695153,-3.2884894631335944,-11.245600795108054,5.9609481775965945
0.9838770614692655,-2.937971463706342,-10.760268180516473,5.942972895574685
0.9918760619690156,-2.5874534642790894,-10.274935565924892,5.924997613552774
0.9998750624687658,-2.236935464851832,-9.789602951333304,5.907022331530864
1.007874062968516,-2.1,-8.485928464339217,4.785928464339218
1.015873063468266,-3.35614032064428,-5.247162051158324,5.84953557703907
1.023872063968016,-3.5124426292600863,-5.100053995990507,5.9874493787589
1.0318710644677662,-3.6687449378758927,-4.952945940822689,6.125363180478729
1.0398700649675163,-3.825047246491699,-4.805837885654872,6.263276982198558
1.0478690654672664,-3.9813495551075055,-4.6587298304870535,6.401190783918387
1.0558680659670165,-4.1376518637233115,-4.511621775319236,6.539104585638216
1.0638670664667667,-4.293954172339118,-4.364513720151418,6.6770183873580455
1.0718660669665168,-4.450256480954925,-4.2174056649836,6.814932189077874
1.079865067466267,-4.606558789570736,-4.070297609815778,6.952845990797708
1.0878640679660172,-4.762861098186542,-3.9231895546479607,7.090759792517536
1.0958630684657673,-4.919163406802348,-3.776081499480143,7.228673594237366
1.1038620689655174,-5.571724137931047,-2.199655172413779,8.285862068965523
1.1118610694652675,-6.12916041979013,-1.5277861069464924,8.5
1.1198600699650176,-6.3236554136724745,-1.3788513789082488,8.4684594484367
1.1278590704647677,-6.351238174016441,-1.4707939133881351,8.431682434644745
1.1358580709645179,-6.378820934360406,-1.5627364478680215,8.39490542085279
1.143857071464268,-6.406403694704372,-1.6546789823479078,8.358128407060837
1.151856071964018,-6.433986455048338,-1.746621516827794,8.321351393268882
1.1598550724637682,-6.461569215392304,-1.8385640513076804,8.284574379476927
1.1678540729635183,-6.48915197573627,-1.9305065857875667,8.247797365684972
1.1758530734632684,-6.5167347360802355,-2.022449120267453,8.21102035189302
1.1838520739630187,-6.544317496424203,-2.114391654747342,8.174243338101062
1.1918510744627688,-6.571900256768168,-2.206334189227228,8.137466324309107
1.199850074962519,-6.599483017112134,-2.2982767237071147,8.100689310517154
1.207849075462269,-5.960369815092371,-3.969815092453814,7.060369815092372
1.2158480759620192,-5.840286378549854,-4.017061034700042,6.982938965299958
1.2238470764617693,-5.779424418225669,-4.034450166221237,6.965549833778763
1.2318460769615194,-5.718562457901483,-4.051839297742434,6.948160702257566
1.2398450774612695,-5.657700497577298,-4.06922842926363,6.93077157073637
1.2478440779610196,-5.596838537253112,-4.086617560784825,6.913382439215175
1.2558430784607697,-5.535976576928927,-4.104006692306021,6.895993307693979
1.2638420789605198,-5.475114616604741,-4.121395823827217,6.878604176172783
1.27184107946027,-5.4142526562805555,-4.138784955348413,6.861215044651587
1.27984007996002,-5.35339069595637,-4.156174086869608,6.843825913130392
1.2878390804597704,-5.292528735632183,-4.173563218390806,6.826436781609194
1.2958380809595205,-5.231666775307997,-4.190952349912001,6.809047650087999
1.3038370814592706,-4.9,-4.5,7.0
1.3118360819590207,-4.9,-4.5,7.0
1.3198350824587708,-4.9,-4.5,7.0
1.327834082958521,-4.914959187073131,-4.477561219390305,7.007479593536565
1.335833083458271,-4.935469444764798,-4.446795832852804,7.017734722382398
1.3438320839580211,-4.955979702456465,-4.416030446315304,7.027989851228232
1.3518310844577712,-4.976489960148132,-4.385265059777803,7.038244980074065
1.3598300849575213,-4.9970002178397985,-4.354499673240302,7.048500108919899
1.3678290854572714,-5.0175104755314655,-4.323734286702802,7.058755237765732
1.3758280859570216,-5.038020733223132,-4.2929689001653015,7.069010366611566
1.3838270864567719,-5.058530990914799,-4.2622035136278,7.0792654954574
1.391826086956522,-5.079041248606466,-4.2314381270903,7.089520624303233
1.399825087456272,-5.099551506298133,-4.2006727405527995,7.099775753149067
1.4078240879560222,-5.3,-3.9,7.3
1.4158230884557723,-5.3,-3.9,7.3
1.4238220889555224,-5.3,-3.9,7.3
1.4318210894552725,-5.3,-3.9,7.3
1.4398200899550226,-5.3,-3.9,7.3
1.4478190904547728,-5.3,-3.9,7.3
1.4558180909545229,-5.3,-3.9,7.3
1.463817091454273,-5.3,-3.9,7.3
1.471816091954023,-5.3,-3.9,7.3
1.4798150924537732,-5.3,-3.9,7.3
1.4878140929535235,-5.3,-3.9,7.3
1.4958130934532736,-5.3,-3.9,7.3
1.5038120939530237,-5.342356599478042,-3.942356599478042,7.257643400521958
1.5118110944527738,-5.3,-4.0,7.2
1.519810094952524,-5.292081284938925,-3.9920812849389256,7.2
1.527809095452274,-5.282780121567123,-3.982780121567123,7.2
1.5358080959520242,-5.27347895819532,-3.9734789581953205,7.2
1.5438070964517743,-5.264177794823518,-3.964177794823518,7.2
1.5518060969515244,-5.254876631451716,-3.954876631451716,7.2
1.5598050974512745,-5.245575468079913,-3.9455754680799133,7.2
1.5678040979510246,-5.236274304708111,-3.936274304708111,7.2
1.5758030984507747,-5.226973141336308,-3.9269731413363083,7.2
1.5838020989505248,-5.217671977964506,-3.9176719779645057,7.2
1.5918010994502751,-5.208370814592703,-3.908370814592703,7.2
1.5998000999500253,-5.2,-3.9,7.2
1.6077991004497754,-5.203957396301849,-3.8960426036981506,7.2
1.6157981009495255,-5.212289688489089,-3.887710311510911,7.2
1.6237971014492756,-5.220621980676329,-3.879378019323671,7.2
1.6317961019490257,-5.228954272863568,-3.8710457271364316,7.2
1.6397951024487758,-5.237286565050808,-3.8627134349491916,7.2
1.647794102948526,-5.245618857238048,-3.854381142761952,7.2
1.655793103448276,-5.253951149425287,-3.8460488505747126,7.2
1.6637921039480261,-5.262283441612527,-3.8377165583874726,7.2
1.6717911044477762,-5.270615733799767,-3.829384266200233,7.2
1.6797901049475263,-5.278948025987006,-3.821051974012993,7.2
1.6877891054472764,-5.287280318174246,-3.8127196818257536,7.2
1.6957881059470268,-5.295612610361486,-3.8043873896385136,7.2
1.7037871064467769,-5.4,-3.9,7.2
1.711786106946527,-5.4,-3.907143270470028,7.1928567295299715
1.719785107446277,-5.4,-3.915563270996081,7.184436729003919
1.7277841079460272,-5.4,-3.923983271522134,7.176016728477866
1.7357831084457773,-5.4,-3.9324032720481865,7.167596727951813
1.7437821089455274,-5.4,-3.940823272574239,7.159176727425761
1.7517811094452775,-5.4,-3.949243273100292,7.150756726899708
1.7597801099450276,-5.4,-3.957663273626345,7.142336726373655
1.7677791104447778,-5.4,-3.9660832741523975,7.133916725847603
1.7757781109445279,-5.4,-3.97450327467845,7.1254967253215495
1.783777111444278,-5.4,-3.982923275204503,7.1170767247954965
1.7917761119440283,-5.4,-3.9913432757305563,7.108656724269443
1.7997751124437784,-5.4,-3.999763276256609,7.100236723743391
1.8077741129435285,-5.3,-3.9,7.2
1.8157731134432786,-5.3,-3.9,7.2
1.8237721139430287,-5.3,-3.9,7.2
1.8317711144427788,-5.3,-3.9,7.2
1.839770114942529,-5.3,-3.9,7.2
1.847769115442279,-5.3,-3.9,7.2
1.8557681159420292,-5.3,-3.9,7.2
1.8637671164417793,-5.3,-3.9,7.2
1.8717661169415294,-5.3,-3.9,7.2
1.8797651174412795,-5.3,-3.9,7.2
1.8877641179410296,-5.3,-3.9,7.2
1.89576311844078,-5.3,-3.9,7.2
1.90376211894053,-5.3,-3.9881059470265066,7.2
1.9117611194402802,-5.3,-4.0,7.2
1.9197601199400303,-5.3,-4.0,7.2
1.9277591204397804,-5.3,-4.0,7.2
1.9357581209395305,-5.3,-4.0,7.2
1.9437571214392806,-5.3,-4.0,7.2
1.9517561219390307,-5.3,-4.0,7.2
1.9597551224387808,-5.3,-4.0,7.2
1.967754122938531,-5.3,-4.0,7.2
1.975753123438281,-5.3,-4.0,7.2
1.9837521239380311,-5.3,-4.0,7.2
1.9917511244377812,-5.3,-4.0,7.2
1.9997501249375316,-5.3,-4.0,7.2
2.0077491254372815,-5.4,-3.9037491254372814,7.196250874562718
2.015748125937032,-5.4,-3.9117481259370317,7.188251874062968
2.0237471264367817,-5.4,-3.9197471264367816,7.1802528735632185
2.031746126936532,-5.4,-3.927746126936532,7.172253873063468
2.039745127436282,-5.4,-3.935745127436282,7.164254872563718
2.047744127936032,-5.4,-3.943744127936032,7.1562558720639675
2.0557431284357826,-5.4,-3.9517431284357825,7.148256871564217
2.0637421289355324,-5.4,-3.9597421289355323,7.140257871064468
2.0717411294352828,-5.4,-3.9677411294352827,7.132258870564717
2.0797401299350327,-5.4,-3.9757401299350326,7.124259870064967
2.087739130434783,-5.4,-3.983739130434783,7.116260869565217
2.095738130934533,-5.4,-3.991738130934533,7.108261869065467
2.103737131434283,-5.4,-3.999737131434283,7.100262868565716
2.111736131934033,-5.3,-3.9,7.103006738389047
2.1197351324337834,-5.3,-3.9,7.111796848828333
2.1277341329335333,-5.3,-3.9,7.1205869592676185
2.1357331334332836,-5.3,-3.9,7.129377069706905
2.1437321339330335,-5.3,-3.9,7.138167180146191
2.151731134432784,-5.3,-3.9,7.146957290585477
2.159730134932534,-5.3,-3.9,7.155747401024763
2.167729135432284,-5.3,-3.9,7.164537511464048
2.1757281359320344,-5.3,-3.9,7.173327621903335
2.1837271364317843,-5.3,-3.9,7.18211773234262
2.1917261369315346,-5.3,-3.9,7.190907842781906
2.1997251374312845,-5.3,-3.9,7.199697953221191
2.207724137931035,-5.4,-3.9,7.2
2.2157231384307847,-5.4,-3.9,7.192501807348753
2.223722138930535,-5.4,-3.9,7.184735787446082
2.231721139430285,-5.4,-3.9,7.1769697675434125
2.2397201399300353,-5.4,-3.9,7.169203747640743
2.247719140429785,-5.4,-3.9,7.161437727738073
2.2557181409295355,-5.4,-3.9,7.153671707835403
2.263717141429286,-5.4,-3.9,7.145905687932732
2.2717161419290357,-5.4,-3.9,7.138139668030062
2.279715142428786,-5.4,-3.9,7.130373648127392
2.287714142928536,-5.4,-3.9,7.122607628224722
2.2957131434282863,-5.4,-3.9,7.114841608322052
2.303712143928036,-5.4,-3.9,7.107075588419382
2.3117111444277865,-5.4,-3.9711144427786604,7.1
2.3197101449275364,-5.4,-3.902060415575345,7.2
2.3277091454272867,-5.4,-3.911697765575044,7.2
2.3357081459270366,-5.4,-3.9213351155747427,7.2
2.343707146426787,-5.4,-3.930972465574442,7.2
2.351706146926537,-5.4,-3.940609815574141,7.2
2.359705147426287,-5.4,-3.95024716557384,7.2
2.3677041479260375,-5.4,-3.959884515573539,7.2
2.3757031484257873,-5.4,-3.969521865573238,7.2
2.3837021489255377,-5.4,-3.979159215572937,7.2
2.3917011494252876,-5.4,-3.9887965655726356,7.2
2.399700149925038,-5.4,-3.998433915572335,7.2
2.4076991504247878,-5.4,-3.9,7.1
2.415698150924538,-5.4,-3.9,7.1
2.423697151424288,-5.4,-3.9,7.1
2.4316961519240383,-5.4,-3.9,7.1
2.439695152423788,-5.4,-3.9,7.1
2.4476941529235385,-5.4,-3.9,7.1
2.4556931534232884,-5.4,-3.9,7.1
2.4636921539230388,-5.4,-3.9,7.1
2.471691154422789,-5.4,-3.9,7.1
2.479690154922539,-5.4,-3.9,7.1
2.4876891554222893,-5.4,-3.9,7.1
2.495688155922039,-5.4,-3.9,7.1
2.5036871564217895,-5.465642178910526,-3.9,7.134357821089473
2.5116861569215394,-5.394014571661538,-3.9,7.194014571661538
2.5196851574212897,-5.385594571135485,-3.9,7.185594571135485
2.5276841579210396,-5.377174570609432,-3.9,7.177174570609432
2.53568315842079,-5.368754570083379,-3.9,7.168754570083379
2.54368215892054,-5.360334569557327,-3.9,7.160334569557326
2.55168115942029,-5.3519145690312735,-3.9,7.151914569031273
2.55968015992004,-5.343494568505221,-3.9,7.143494568505221
2.5676791604197904,-5.335074567979168,-3.9,7.135074567979168
2.5756781609195407,-5.326654567453115,-3.9,7.126654567453115
2.5836771614192906,-5.318234566927062,-3.9,7.118234566927062
2.591676161919041,-5.309814566401009,-3.9,7.109814566401009
2.599675162418791,-5.301394565874957,-3.9,7.101394565874957
2.607674162918541,-5.458427036481762,-4.0,7.1
2.615673163418291,-5.461056971514243,-4.0,7.061056971514243
2.6236721639180414,-5.4,-4.0,7.0
2.6316711644177913,-5.4,-4.0,7.0
2.6396701649175416,-5.4,-4.0,7.0
2.6476691654172915,-5.4,-4.0,7.0
2.655668165917042,-5.4,-4.0,7.0
2.663667166416792,-5.4,-4.0,7.0
2.671666166916542,-5.4,-4.0,7.0
2.6796651674162923,-5.4,-4.0,7.0
2.6876641679160422,-5.4,-4.0,7.0
2.6956631684157926,-5.4,-4.0,7.0
2.7036621689155425,-5.4,-4.0,7.0
2.711661169415293,-5.4,-3.998174539104074,7.101825460895926
2.7196601699150427,-5.4,-3.9893844286647884,7.110615571335211
2.727659170414793,-5.4,-3.9805943182255024,7.119405681774498
2.735658170914543,-5.4,-3.971804207786217,7.128195792213783
2.743657171414293,-5.4,-3.9630140973469303,7.136985902653069
2.751656171914043,-5.4,-3.9542239869076448,7.145776013092355
2.7596551724137934,-5.4,-3.9454338764683587,7.154566123531641
2.7676541729135438,-5.4,-3.9366437660290727,7.163356233970927
2.7756531734132937,-5.4,-3.927853655589787,7.172146344410213
2.783652173913044,-5.4,-3.919063545150501,7.1809364548494985
2.791651174412794,-5.4,-3.9102734347112156,7.189726565288784
2.799650174912544,-5.4,-3.9014833242719296,7.1985166757280705
2.807649175412294,-5.4,-4.0,7.1
2.8156481759120444,-5.4,-4.0,7.1
2.8236471764117943,-5.4,-4.0,7.1
2.8316461769115446,-5.4,-4.0,7.1
2.8396451774112945,-5.4,-4.0,7.1
2.847644177911045,-5.4,-4.0,7.1
2.8556431784107947,-5.4,-4.0,7.1
2.863642178910545,-5.4,-4.0,7.1
2.8716411794102954,-5.4,-4.0,7.1
2.8796401799100453,-5.4,-4.0,7.1
2.8876391804097956,-5.4,-4.0,7.1
2.8956381809095455,-5.4,-4.0,7.1
2.903637181409296,-5.4,-4.0,7.1
2.9116361819090457,-5.4,-4.0,7.1
2.919635182408796,-5.408483536009774,-4.0,7.091516463990226
2.927634182908546,-5.417371314342829,-4.0,7.082628685657171
2.9356331834082963,-5.426259092675885,-4.0,7.073740907324115
2.943632183908046,-5.43514687100894,-4.0,7.06485312899106
2.9516311844077965,-5.444034649341996,-4.0,7.055965350658004
2.9596301849075464,-5.452922427675052,-4.0,7.047077572324948
2.9676291854072967,-5.461810206008108,-4.0,7.038189793991892
2.975628185907047,-5.470697984341164,-4.0,7.029302015658836
2.983627186406797,-5.479585762674219,-4.0,7.020414237325781
2.9916261869065472,-5.488473541007275,-4.0,7.011526458992725
2.999625187406297,-5.497361319340331,-4.0,7.002638680659669
3.0076241879060475,-5.5,-3.971098825587204,7.0
3.0156231884057974,-5.5,-3.9211050724637673,7.0
3.0236221889055477,-5.5044718381549975,-4.0044718381549975,7.0
3.0316211894052976,-5.514347147413948,-4.014347147413948,7.0
3.039620189905048,-5.524222456672899,-4.024222456672899,7.0
3.047619190404798,-5.534097765931849,-4.034097765931849,7.0
3.055618190904548,-5.5439730751908,-4.0439730751908,7.0
3.063617191404298,-5.553848384449751,-4.053848384449751,7.0
3.0716161919040483,-5.563723693708702,-4.063723693708702,7.0
3.0796151924037987,-5.5735990029676525,-4.0735990029676525,7.0
3.0876141929035485,-5.583474312226603,-4.083474312226603,7.0
3.095613193403299,-5.593349621485554,-4.093349621485554,7.0
3.1036121939030488,-5.538780609695137,-4.0,6.961219390304863
3.111611194402799,-5.494388805597201,-4.0,7.0
3.119610194902549,-5.486389805097451,-4.0,7.0
3.1276091954022993,-5.478390804597701,-4.0,7.0
3.135608195902049,-5.470391804097951,-4.0,7.0
3.1436071964017995,-5.462392803598201,-4.0,7.0
3.1516061969015494,-5.4543938030984505,-4.0,7.0
3.1596051974012997,-5.4463948025987,-4.0,7.0
3.1676041979010496,-5.438395802098951,-4.0,7.0
3.1756031984008,-5.4303968015992,-4.0,7.0
3.1836021989005503,-5.42239780109945,-4.0,7.0
3.1916011994003,-5.4143988005997,-4.0,7.0
3.1996001999000505,-5.406399800099949,-4.0,7.0
3.2075992003998004,-5.479960019990013,-4.0,7.0
3.2155982008995507,-5.6,-4.2,6.895055697957472
3.2235972013993006,-5.6,-4.2,6.88645462215129
3.231596201899051,-5.6,-4.2,6.877853546345107
3.239595202398801,-5.6,-4.2,6.869252470538924
3.247594202898551,-5.6,-4.2,6.8606513947327405
3.255593203398301,-5.6,-4.2,6.852050318926558
3.2635922038980514,-5.6,-4.2,6.843449243120375
3.2715912043978013,-5.6,-4.2,6.834848167314192
3.2795902048975516,-5.6,-4.2,6.826247091508009
3.287589205397302,-5.6,-4.2,6.8176460157018255
3.295588205897052,-5.6,-4.2,6.809044939895643
3.303587206396802,-5.6,-4.2,6.80044386408946
3.311586206896552,-5.6,-4.1,6.9
3.3195852073963024,-5.6,-4.1,6.9
3.3275842078960522,-5.6,-4.1,6.9
3.3355832083958026,-5.6,-4.1,6.9
3.3435822088955525,-5.6,-4.1,6.9
3.351581209395303,-5.6,-4.1,6.9
3.3595802098950527,-5.6,-4.1,6.9
3.367579210394803,-5.6,-4.1,6.9
3.375578210894553,-5.6,-4.1,6.9
3.3835772113943032,-5.6,-4.1,6.9
3.3915762118940536,-5.6,-4.1,6.9
3.3995752123938034,-5.6,-4.1,6.9
3.4075742128935538,-5.526953190071625,-4.026953190071625,6.973046809928375
3.4155732133933037,-5.5,-4.0,7.0
3.423572213893054,-5.5,-4.005575870601286,6.994424129398714
3.431571214392804,-5.5,-4.015330749259517,6.984669250740483
3.439570214892554,-5.5,-4.025085627917749,6.974914372082251
3.447569215392304,-5.5,-4.03484050657598,6.96515949342402
3.4555682158920544,-5.5,-4.044595385234213,6.955404614765787
3.4635672163918043,-5.5,-4.054350263892444,6.945649736107556
3.4715662168915546,-5.5,-4.064105142550677,6.935894857449323
3.4795652173913045,-5.5,-4.073860021208908,6.926139978791092
3.487564217891055,-5.5,-4.08361489986714,6.91638510013286
3.495563218390805,-5.5,-4.093369778525372,6.906630221474628
3.503562218890555,-5.5,-4.2,6.8437781109444975
3.5115612193903054,-5.5,-4.2,6.8
3.5195602198900553,-5.5,-4.2,6.8
3.5275592203898056,-5.5,-4.2,6.8
3.5355582208895555,-5.5,-4.2,6.8
3.543557221389306,-5.5,-4.2,6.8
3.5515562218890557,-5.5,-4.2,6.8
3.559555222388806,-5.5,-4.2,6.8
3.567554222888556,-5.5,-4.2,6.8
3.5755532233883063,-5.5,-4.2,6.8
3.5835522238880566,-5.5,-4.2,6.8
3.5915512243878065,-5.5,-4.2,6.8
3.599550224887557,-5.5,-4.2,6.8
3.6075492253873067,-5.529015492253866,-4.1,6.9
3.615548225887057,-5.507117636833757,-4.1,6.9
3.623547226386807,-5.515812202594355,-4.1,6.9
3.6315462268865573,-5.524506768354954,-4.1,6.9
3.639545227386307,-5.533201334115551,-4.1,6.9
3.6475442278860575,-5.541895899876149,-4.1,6.9
3.6555432283858074,-5.550590465636747,-4.1,6.9
3.6635422288855577,-5.559285031397345,-4.1,6.9
3.6715412293853076,-5.567979597157943,-4.1,6.9
3.679540229885058,-5.576674162918541,-4.1,6.9
3.6875392303848082,-5.585368728679139,-4.1,6.9
3.695538230884558,-5.594063294439737,-4.1,6.9
3.7035372313843085,-5.6,-4.153723138430843,6.846276861569157
3.7115362318840583,-5.6,-4.2053749824117075,6.7946250175882925
3.7195352323838087,-5.6,-4.213141002314377,6.786858997685623
3.7275342328835586,-5.6,-4.220907022217047,6.779092977782953
3.735533233383309,-5.6,-4.228673042119717,6.771326957880283
3.743532233883059,-5.6,-4.236439062022387,6.763560937977613
3.751531234382809,-5.6,-4.244205081925057,6.755794918074943
3.759530234882559,-5.6,-4.251971101827727,6.748028898172273
3.7675292353823093,-5.6,-4.259737121730398,6.740262878269602
3.775528235882059,-5.6,-4.267503141633067,6.732496858366933
3.7835272363818095,-5.6,-4.275269161535737,6.724730838464263
3.79152623688156,-5.6,-4.283035181438407,6.716964818561593
3.7995252373813098,-5.6,-4.290801201341077,6.709198798658923
3.80752423788106,-5.6,-4.298567221243747,6.701432778756253
3.81552323838081,-5.601750848713574,-4.201750848713575,6.8
3.8235222388805603,-5.610945102161563,-4.210945102161563,6.8
3.83152123938031,-5.620139355609552,-4.220139355609552,6.8
3.8395202398800605,-5.62933360905754,-4.229333609057541,6.8
3.8475192403798104,-5.638527862505529,-4.23852786250553,6.8
3.8555182408795607,-5.647722115953518,-4.247722115953518,6.8
3.8635172413793106,-5.6569163694015066,-4.256916369401506,6.8
3.871516241879061,-5.666110622849495,-4.266110622849496,6.8
3.879515242378811,-5.675304876297484,-4.275304876297484,6.8
3.887514242878561,-5.684499129745473,-4.284499129745472,6.8
3.8955132433783115,-5.6936933831934615,-4.293693383193461,6.8
3.9035122438780614,-5.6,-4.2,6.8
3.9115112443778117,-5.6,-4.2,6.8
3.9195102448775616,-5.591561522609481,-4.2,6.8
3.927509245377312,-5.582573881598526,-4.2,6.8
3.935508245877062,-5.573586240587571,-4.2,6.8
3.943507246376812,-5.564598599576615,-4.2,6.8
3.951506246876562,-5.55561095856566,-4.2,6.8
3.9595052473763124,-5.5466233175547055,-4.2,6.8
3.9675042478760623,-5.537635676543751,-4.2,6.8
3.9755032483758126,-5.528648035532795,-4.2,6.8
3.9835022488755625,-5.51966039452184,-4.2,6.8
3.991501249375313,-5.510672753510884,-4.2,6.8
3.999500249875063,-5.5016851124999295,-4.2,6.8
4.0074992503748135,-5.578560719640189,-4.2,6.9
4.015498250874563,-5.605849203058045,-4.105849203058045,6.788301593883908
4.023497251374313,-5.61435877805778,-4.11435877805778,6.77128244388444
4.031496251874064,-5.622868353057514,-4.122868353057514,6.7542632938849705
4.039495252373814,-5.6313779280572485,-4.1313779280572485,6.737244143885502
4.047494252873563,-5.639887503056983,-4.139887503056983,6.720224993886035
4.055493253373314,-5.648397078056717,-4.148397078056717,6.7032058438865665
4.063492253873064,-5.656906653056451,-4.156906653056451,6.686186693887097
4.071491254372814,-5.665416228056185,-4.165416228056185,6.669167543887629
4.079490254872564,-5.673925803055919,-4.173925803055919,6.652148393888162
4.087489255372314,-5.682435378055653,-4.182435378055653,6.635129243888693
4.095488255872064,-5.6909449530553875,-4.1909449530553875,6.618110093889224
4.103487256371815,-5.6994545280551225,-4.1994545280551225,6.601090943889756
4.111486256871565,-5.7,-4.303831051507214,6.6
4.1194852573713145,-5.7,-4.3126211619465,6.6
4.127484257871065,-5.7,-4.321411272385786,6.6
4.135483258370815,-5.7,-4.330201382825072,6.6
4.1434822588705655,-5.7,-4.338991493264358,6.6
4.151481259370315,-5.7,-4.347781603703643,6.6
4.159480259870065,-5.7,-4.356571714142929,6.6
4.167479260369816,-5.7,-4.365361824582215,6.6
4.175478260869566,-5.7,-4.3741519350215015,6.6
4.183477261369315,-5.7,-4.382942045460787,6.6
4.191476261869066,-5.7,-4.391732155900073,6.6
4.199475262368816,-5.7,-4.39773684586278,6.6
4.207474262868566,-5.7,-4.35964636729254,6.6
4.215473263368317,-5.7,-4.3215558887223,6.6
4.223472263868066,-5.700621399826403,-4.2,6.6
4.2314712643678165,-5.711146400483969,-4.2,6.6
4.239470264867567,-5.721671401141536,-4.2,6.6
4.247469265367317,-5.732196401799102,-4.2,6.6
4.255468265867067,-5.742721402456667,-4.2,6.6
4.263467266366817,-5.7532464031142325,-4.2,6.6
4.271466266866567,-5.763771403771798,-4.2,6.6
4.279465267366318,-5.774296404429365,-4.2,6.6
4.287464267866067,-5.78482140508693,-4.2,6.6
4.295463268365817,-5.795346405744496,-4.2,6.6
4.303462268865568,-5.8,-4.2791104447776,6.5208895552224
4.311461269365318,-5.9,-4.3,6.599509287909235
4.319460269865068,-5.9,-4.3,6.590999712909501
4.327459270364818,-5.9,-4.3,6.582490137909768
4.335458270864568,-5.9,-4.3,6.573980562910034
4.3434572713643185,-5.9,-4.3,6.5654709879103
4.351456271864069,-5.9,-4.3,6.556961412910565
4.359455272363818,-5.9,-4.3,6.548451837910831
4.367454272863569,-5.9,-4.3,6.539942262911097
4.375453273363319,-5.9,-4.3,6.531432687911363
4.383452273863069,-5.9,-4.3,6.522923112911629
4.391451274362819,-5.9,-4.3,6.514413537911895
4.399450274862569,-5.9,-4.3,6.505903962912161
4.407449275362319,-5.9,-4.251014492753617,6.5
4.41544827586207,-5.9,-4.3,6.4
4.42344727636182,-5.9,-4.3,6.4
4.4314462768615694,-5.9,-4.3,6.4
4.43944527736132,-5.9,-4.3,6.4
4.44744427786107,-5.9,-4.3,6.4
4.45544327836082,-5.9,-4.3,6.4
4.46344227886057,-5.9,-4.3,6.4
4.47144127936032,-5.9,-4.3,6.4
4.4794402798600705,-5.9,-4.3,6.4
4.487439280359821,-5.9,-4.3,6.4
4.49543828085957,-5.9,-4.3,6.4
4.503437281359321,-6.007288022655342,-4.485423954689316,6.4
4.511436281859071,-6.1,-4.4,6.299504225160146
4.519435282358821,-6.1,-4.4,6.290414451864976
4.527434282858572,-6.1,-4.4,6.281324678569805
4.535433283358321,-6.1,-4.4,6.272234905274635
4.543432283858071,-6.1,-4.4,6.263145131979464
4.551431284357822,-6.1,-4.4,6.254055358684294
4.559430284857572,-6.1,-4.4,6.244965585389123
4.5674292853573215,-6.1,-4.4,6.235875812093953
4.575428285857072,-6.1,-4.4,6.226786038798783
4.583427286356822,-6.1,-4.4,6.217696265503611
4.5914262868565725,-6.1,-4.4,6.208606492208441
4.599425287356322,-6.114176245210724,-4.414176245210725,6.2
4.607424287856072,-6.2,-4.4095952023987905,6.2
4.615423288355823,-6.1070585586327715,-4.5,6.2
4.623422288855573,-6.115848669072058,-4.5,6.2
4.631421289355323,-6.124638779511344,-4.5,6.2
4.639420289855073,-6.133428889950629,-4.5,6.2
4.647419290354823,-6.1422190003899155,-4.5,6.2
4.655418290854573,-6.151009110829201,-4.5,6.2
4.663417291354324,-6.159799221268488,-4.5,6.2
4.671416291854073,-6.168589331707772,-4.5,6.2
4.6794152923538235,-6.177379442147059,-4.5,6.2
4.687414292853574,-6.186169552586345,-4.5,6.2
4.695413293353324,-6.194959663025631,-4.5,6.2
4.703412293853074,-6.120614692653667,-4.341229385307333,6.2
4.711411294352824,-6.102679215947582,-4.4053584318951655,6.302679215947582
4.719410294852574,-6.111566994280638,-4.423133988561277,6.311566994280638
4.727409295352325,-6.1204547726136935,-4.440909545227389,6.320454772613694
4.735408295852075,-6.12934255094675,-4.4586851018935,6.32934255094675
4.743407296351824,-6.138230329279804,-4.47646065855961,6.338230329279805
4.751406296851575,-6.147118107612861,-4.494236215225722,6.347118107612861
4.759405297351325,-6.156005885945916,-4.512011771891833,6.356005885945916
4.767404297851075,-6.1648936642789725,-4.529787328557945,6.364893664278973
4.775403298350825,-6.173781442612027,-4.547562885224054,6.373781442612027
4.783402298850575,-6.182669220945083,-4.565338441890166,6.3826692209450835
4.791401299350325,-6.191556999278139,-4.583113998556278,6.391556999278139
4.799400299850076,-6.2,-4.61334332833585,6.38665667166415
4.807399300349825,-6.0984790213588855,-4.603041957282228,6.0
4.8153983008495755,-6.089784455598287,-4.620431088803425,6.0
4.823397301349326,-6.081089889837689,-4.637820220324621,6.0
4.831396301849076,-6.072395324077091,-4.6552093518458175,6.0
4.8393953023488265,-6.063700758316493,-4.672598483367014,6.0
4.847394302848576,-6.055006192555895,-4.689987614888208,6.0
4.855393303348326,-6.046311626795297,-4.707376746409405,6.0
4.863392303848077,-6.037617061034699,-4.724765877930602,6.0
4.871391304347827,-6.0289224952741005,-4.742155009451798,6.0
4.879390304847576,-6.020227929513504,-4.759544140972992,6.0
4.887389305347327,-6.011533363752905,-4.776933272494189,6.0
4.895388305847077,-6.0028387979923075,-4.794322404015386,6.0
4.903387306346827,-5.932658670664654,-4.867341329335346,5.730634682658614
4.911386306846577,-6.0,-5.1,5.5
4.919385307346327,-6.0,-5.1,5.502773613193404
4.9273843078460775,-6.0,-5.1,5.512074776565207
4.935383308345828,-6.0,-5.1,5.521375939937009
4.943382308845578,-6.0,-5.1,5.530677103308812
4.951381309345328,-6.0,-5.1,5.539978266680613
4.959380309845078,-6.0,-5.1,5.549279430052416
4.967379310344828,-6.0,-5.1,5.558580593424218
4.975378310844579,-6.0,-5.1,5.567881756796021
4.983377311344328,-6.0,-5.1,5.577182920167823
4.991376311844078,-6.0,-5.1,5.5864840835396254
4.999375312343829,-6.0,-5.1,5.595785246911428
5.007374312843579,-6.168715642178948,-5.1,5.568715642178947
5.0153733133433285,-6.2929185407296355,-5.0,5.607081459270364
5.023372313843079,-6.284030762396579,-5.0,5.61596923760342
5.031371314342829,-6.275142984063524,-5.0,5.624857015936477
5.0393703148425795,-6.2662552057304675,-5.0,5.633744794269532
5.04736931534233,-6.257367427397412,-5.0,5.642632572602588
5.055368315842079,-6.248479649064357,-5.0,5.651520350935643
5.06336731634183,-6.239591870731301,-5.0,5.660408129268699
5.07136631684158,-6.230704092398245,-5.0,5.6692959076017555
5.07936531734133,-6.2218163140651885,-5.0,5.678183685934811
5.08736431784108,-6.212928535732134,-5.0,5.687071464267866
5.09536331834083,-6.204040757399079,-5.0,5.695959242600922
5.10336231884058,-6.2545289855072514,-5.0,5.645471014492748
5.111361319340331,-6.4,-4.998470427707494,5.6
5.11936031984008,-6.4,-4.98948278669654,5.6
5.12735932033983,-6.4,-4.980495145685584,5.6
5.135358320839581,-6.4,-4.971507504674629,5.6
5.143357321339331,-6.4,-4.962519863663673,5.6
5.151356321839081,-6.4,-4.953532222652718,5.6
5.159355322338831,-6.4,-4.944544581641764,5.6
5.167354322838581,-6.4,-4.935556940630808,5.6
5.1753533233383315,-6.4,-4.926569299619852,5.6
5.183352323838082,-6.4,-4.917581658608897,5.6
5.191351324337831,-6.4,-4.908594017597943,5.6
5.199350324837582,-6.3883225054139405,-4.9,5.588322505413941
5.207349325337332,-6.4,-5.101450887459496,5.3
5.215348325837082,-6.4,-5.110051963265679,5.3
5.223347326336833,-6.4,-5.118653039071862,5.3
5.231346326836582,-6.4,-5.127254114878045,5.3
5.239345327336332,-6.4,-5.135855190684228,5.3
5.247344327836083,-6.4,-5.144456266490411,5.3
5.255343328335833,-6.4,-5.153057342296594,5.3
5.2633423288355825,-6.4,-5.1616584181027765,5.3
5.271341329335333,-6.4,-5.17025949390896,5.3
5.279340329835083,-6.4,-5.178860569715143,5.3
5.2873393303348335,-6.4,-5.187461645521326,5.3
5.295338330834583,-6.4,-5.196062721327508,5.3
5.303337331334333,-6.385140762951849,-5.5,5.085140762951848
5.311336331834084,-6.3168165917041845,-5.5,4.983183408295815
5.319335332333834,-6.4,-5.492546667842548,4.9
5.327334332833584,-6.4,-5.483136079019312,4.9
5.335333333333334,-6.4,-5.4737254901960775,4.9
5.343332333833084,-6.4,-5.464314901372842,4.9
5.351331334332834,-6.4,-5.454904312549607,4.9
5.359330334832585,-6.4,-5.445493723726371,4.9
5.367329335332334,-6.4,-5.436083134903136,4.9
5.3753283358320845,-6.4,-5.4266725460799,4.9
5.383327336331835,-6.4,-5.417261957256665,4.9
5.391326336831585,-6.4,-5.4078513684334295,4.9
5.399325337331335,-6.426506746626699,-5.479520239880095,4.873493253373302
5.407324337831085,-6.6,-5.5996474588792555,4.799647458879256
5.415323338330835,-6.6,-5.590952893118657,4.790952893118657
5.423322338830586,-6.6,-5.582258327358059,4.7822583273580594
5.431321339330336,-6.6,-5.573563761597461,4.773563761597461
5.439320339830085,-6.6,-5.564869195836863,4.764869195836863
5.447319340329836,-6.6,-5.556174630076265,4.7561746300762655
5.455318340829586,-6.6,-5.547480064315667,4.747480064315667
5.463317341329336,-6.6,-5.538785498555069,4.738785498555069
5.471316341829086,-6.6,-5.530090932794471,4.730090932794472
5.479315342328836,-6.6,-5.521396367033874,4.721396367033874
5.487314342828586,-6.6,-5.512701801273275,4.712701801273275
5.495313343328337,-6.6,-5.5040072355126775,4.704007235512678
5.503312343828086,-6.6,-5.615617191404306,4.8
5.5113113443278365,-6.597431839635737,-5.5,4.7
5.519310344827587,-6.588544061302681,-5.5,4.7
5.527309345327337,-6.5796562829696255,-5.5,4.7
5.5353083458270875,-6.570768504636569,-5.5,4.7
5.543307346326837,-6.561880726303515,-5.5,4.7
5.551306346826587,-6.552992947970458,-5.5,4.7
5.559305347326338,-6.544105169637403,-5.5,4.7
5.567304347826088,-6.5352173913043465,-5.5,4.7
5.575303348325837,-6.526329612971292,-5.5,4.7
5.583302348825588,-6.517441834638236,-5.5,4.7
5.591301349325338,-6.50855405630518,-5.5,4.7
5.599300349825088,-6.489988339163727,-5.510011660836273,4.7
5.607299350324838,-6.3,-5.6,4.7
5.615298350824588,-6.3,-5.6,4.7
5.6232973513243385,-6.3,-5.6,4.7
5.631296351824089,-6.3,-5.6,4.7
5.639295352323839,-6.3,-5.6,4.7
5.647294352823589,-6.3,-5.6,4.7
5.655293353323339,-6.3,-5.6,4.7
5.663292353823089,-6.3,-5.6,4.7
5.67129135432284,-6.3,-5.6,4.7
5.679290354822589,-6.3,-5.6,4.7
5.687289355322339,-6.3,-5.6,4.7
5.69528835582209,-6.3,-5.6,4.7
5.70328735632184,-6.326795977011501,-5.6535919540230015,4.673204022988499
5.7112863568215895,-6.376789730134935,-5.75357946026987,4.623210269865065
5.71928535732134,-6.4,-5.802753442555831,4.497246557444169
5.72728435782109,-6.4,-5.81239079255553,4.48760920744447
5.7352833583208405,-6.4,-5.822028142555229,4.47797185744477
5.743282358820591,-6.4,-5.831665492554929,4.468334507445071
5.75128135932034,-6.4,-5.841302842554628,4.458697157445373
5.759280359820091,-6.4,-5.850940192554327,4.449059807445674
5.767279360319841,-6.4,-5.860577542554026,4.439422457445975
5.775278360819591,-6.4,-5.870214892553725,4.429785107446276
5.783277361319341,-6.4,-5.879852242553423,4.4201477574465775
5.791276361819091,-6.4,-5.889489592553122,4.410510407446878
5.799275362318841,-6.4,-5.899126942552821,4.400873057447179
5.807274362818592,-6.30138517697673,-5.9,4.4
5.815273363318341,-6.310079742737327,-5.9,4.4
5.823272363818091,-6.318774308497925,-5.9,4.4
5.831271364317842,-6.327468874258524,-5.9,4.4
5.839270364817592,-6.336163440019122,-5.9,4.4
5.847269365317342,-6.34485800577972,-5.9,4.4
5.855268365817092,-6.353552571540318,-5.9,4.4
5.863267366316842,-6.3622471373009155,-5.9,4.4
5.8712663668165925,-6.370941703061514,-5.9,4.4
5.879265367316343,-6.379636268822113,-5.9,4.4
5.887264367816092,-6.3883308345827094,-5.9,4.4
5.895263368315843,-6.397025400343308,-5.9,4.4
5.903262368815593,-6.4,-5.913118440779665,4.1
5.911261369315343,-6.393409084931218,-6.006590915068782,4.1
5.919260369815093,-6.384989084405166,-6.015010915594834,4.1
5.927259370314843,-6.376569083879113,-6.023430916120887,4.1
5.935258370814593,-6.36814908335306,-6.03185091664694,4.1
5.943257371314344,-6.359729082827007,-6.040270917172993,4.1
5.951256371814094,-6.351309082300954,-6.048690917699046,4.1
5.9592553723138435,-6.342889081774902,-6.057110918225098,4.1
5.967254372813594,-6.334469081248849,-6.0655309187511515,4.1
5.975253373313344,-6.326049080722796,-6.073950919277204,4.1
5.9832523738130945,-6.317629080196743,-6.082370919803257,4.1
5.991251374312844,-6.309209079670691,-6.090790920329309,4.1
5.999250374812594,-6.3007890791446375,-6.099210920855362,4.1
6.007249375312345,-6.3,-6.275062468765515,4.0
6.015248375812095,-6.3,-6.207629869275889,4.007629869275889
6.023247376311844,-6.3,-6.2160498698019415,4.016049869801941
6.031246376811595,-6.3,-6.224469870327995,4.024469870327994
6.039245377311345,-6.3,-6.232889870854048,4.0328898708540475
6.047244377811095,-6.3,-6.241309871380101,4.041309871380101
6.055243378310846,-6.3,-6.249729871906154,4.049729871906154
6.063242378810595,-6.3,-6.258149872432205,4.058149872432205
6.0712413793103455,-6.3,-6.266569872958258,4.066569872958258
6.079240379810096,-6.3,-6.274989873484311,4.074989873484311
6.087239380309846,-6.3,-6.283409874010364,4.083409874010364
6.095238380809596,-6.3,-6.2918298745364165,4.091829874536416
6.103237381309346,-6.3,-6.323738130934613,4.092087289688462
6.111236381809096,-6.234545227386295,-6.469090454772591,3.869090454772591
6.119235382308847,-6.134557721139416,-6.269115442278833,3.6691154422788332
6.127234382808596,-6.0,-6.30290179585532,3.7
6.135233383308346,-6.0,-6.313290108192658,3.7
6.143232383808097,-6.0,-6.323678420529996,3.7
6.151231384307847,-6.0,-6.334066732867334,3.7
6.159230384807597,-6.0,-6.344455045204672,3.7
6.167229385307347,-6.0,-6.354843357542009,3.7
6.175228385807097,-6.0,-6.365231669879347,3.7
6.183227386306847,-6.0,-6.375619982216685,3.7
6.191226386806598,-6.0,-6.386008294554023,3.7
6.199225387306347,-6.0,-6.3963966068913605,3.7
6.2072243878060975,-6.087073130101623,-6.574146260203245,3.7870731301016227
6.215223388305848,-6.297384249051944,-6.497384249051944,3.502615750948056
6.223222388805598,-6.287973660228708,-6.487973660228708,3.512026339771292
6.231221389305348,-6.278563071405474,-6.478563071405474,3.5214369285945266
6.239220389805098,-6.269152482582237,-6.4691524825822375,3.5308475174177625
6.247219390304848,-6.259741893759002,-6.459741893759002,3.540258106240998
6.255218390804599,-6.2503313049357665,-6.450331304935767,3.5496686950642338
6.263217391304349,-6.240920716112531,-6.440920716112531,3.559079283887469
6.271216391804098,-6.2315101272892965,-6.431510127289297,3.568489872710704
6.279215392303849,-6.22209953846606,-6.42209953846606,3.5779004615339396
6.287214392803599,-6.212688949642825,-6.412688949642825,3.5873110503571755
6.295213393303349,-6.203278360819589,-6.40327836081959,3.596721639180411
6.303212393803099,-6.547492920206572,-7.008112610361502,3.8606196901549295
6.311211394302849,-6.00496942539966,-5.917392988898813,3.4
6.3192103948025995,-6.022944707421572,-5.980306475975501,3.4
6.32720939530235,-6.040919989443482,-6.04321996305219,3.4
6.335208395802099,-6.058895271465391,-6.106133450128871,3.4
6.34320739630185,-6.076870553487303,-6.169046937205559,3.4
6.3512063968016,-6.094845835509213,-6.2319604242822475,3.4
6.35920539730135,-6.112821117531125,-6.294873911358936,3.4
6.367204397801101,-6.130796399553035,-6.357787398435624,3.4
6.37520339830085,-6.148771681574944,-6.420700885512305,3.4
6.3832023988006,-6.1667469635968555,-6.483614372588994,3.4
6.391201399300351,-6.184722245618766,-6.546527859665682,3.4
6.399200399800101,-6.139980009994953,-6.780059970015141,3.339980009994953
6.4071994002998505,-5.802364946558979,-6.504729893117958,3.4023649465589787
6.415198400799601,-5.810966022365162,-6.521932044730324,3.410966022365162
6.423197401299351,-5.819567098171345,-6.53913419634269,3.419567098171345
6.4311964017991015,-5.828168173977528,-6.556336347955057,3.4281681739775283
6.439195402298851,-5.8367692497837105,-6.57353849956742,3.43676924978371
6.447194402798601,-5.845370325589894,-6.590740651179787,3.4453703255898933
6.455193403298352,-5.853971401396077,-6.607942802792153,3.4539714013960765
6.463192403798102,-5.86257247720226,-6.62514495440452,3.4625724772022597
6.471191404297852,-5.871173553008443,-6.642347106016886,3.471173553008443
6.479190404797602,-5.8797746288146255,-6.6595492576292505,3.479774628814625
6.487189405297352,-5.888375704620809,-6.676751409241617,3.4883757046208084
6.495188405797102,-5.896976780426992,-6.693953560853983,3.4969767804269916
6.503187406296853,-6.015275695485617,-6.9305513909712335,3.4423621522571914
6.511186406796602,-6.0,-6.381359320339792,3.118640679660208
6.519185407296352,-6.0,-6.316710249526402,3.208355124763201
6.527184407796103,-6.0,-6.335312576270007,3.2176562881350037
6.535183408295853,-6.0,-6.353914903013613,3.2269574515068062
6.5431824087956025,-6.0,-6.372517229757216,3.236258614878608
6.551181409295353,-6.0,-6.391119556500821,3.245559778250411
6.559180409795103,-6.0,-6.409721883244426,3.2548609416222134
6.5671794102948535,-6.0,-6.428324209988032,3.264162104994016
6.575178410794604,-6.0,-6.446926536731637,3.2734632683658185
6.583177411294353,-6.0,-6.465528863475241,3.28276443173762
6.591176411794104,-6.0,-6.484131190218846,3.2920655951094226
6.599175412293854,-6.0,-6.617541229385423,3.241229385307289
6.607174412793604,-5.8,-6.616511744127907,3.1
6.615173413293354,-5.80747230551391,-6.6,3.1
6.623172413793104,-5.81580459770115,-6.6,3.1
6.631171414292854,-5.82413688988839,-6.6,3.1
6.639170414792605,-5.83246918207563,-6.6,3.1
6.647169415292354,-5.840801474262869,-6.6,3.1
6.6551684157921045,-5.849133766450109,-6.6,3.1
6.663167416291855,-5.857466058637349,-6.6,3.1
6.671166416791605,-5.865798350824589,-6.6,3.1
6.6791654172913555,-5.874130643011829,-6.6,3.1
6.687164417791105,-5.882462935199068,-6.6,3.1
6.695163418290855,-5.890795227386308,-6.6,3.1
6.703162418790606,-5.899127519573548,-6.6,3.1
6.711161419290356,-5.499814460585798,-6.2998144605857975,3.0
6.719160419790105,-5.49062020713781,-6.29062020713781,3.0
6.727159420289856,-5.481425953689821,-6.281425953689821,3.0
6.735158420789606,-5.472231700241832,-6.272231700241832,3.0
6.743157421289356,-5.463037446793844,-6.263037446793843,3.0
6.751156421789106,-5.453843193345856,-6.253843193345856,3.0
6.759155422288856,-5.444648939897867,-6.244648939897867,3.0
6.7671544227886065,-5.435454686449878,-6.235454686449878,3.0
6.775153423288357,-5.4262604330018895,-6.226260433001889,3.0
6.783152423788107,-5.4170661795539,-6.2170661795539,3.0
6.791151424287857,-5.407871926105912,-6.207871926105912,3.0
6.799150424787607,-5.457521239380349,-6.315042478760698,2.942478760619651
6.807149425287357,-5.4106321839080325,-6.221264367816065,2.7212643678160653
6.8151484257871076,-5.182448548453041,-5.888299032302028,2.5941495161510137
6.823147426286857,-5.1551792285675315,-5.8701194857116885,2.585059742855844
6.831146426786607,-5.127909908682019,-5.851939939121347,2.5759699695606733
6.839145427286358,-5.100640588796507,-5.833760392531005,2.5668801962655023
6.847144427786108,-5.073371268910995,-5.815580845940663,2.5577904229703314
6.855143428285857,-5.046101949025485,-5.797401299350324,2.548700649675162
6.863142428785608,-5.018832629139973,-5.779221752759982,2.539610876379991
6.871141429285358,-4.9915633092544605,-5.76104220616964,2.53052110308482
6.879140429785108,-4.964293989368948,-5.742862659579298,2.521431329789649
6.887139430284859,-4.937024669483435,-5.724683112988957,2.512341556494478
6.895138430784608,-4.909755349597926,-5.7065035663986174,2.5032517831993086
6.9031374312843585,-4.47182317931939,-4.872168461223856,2.200345281904466
6.911136431784109,-3.881809095452098,-3.7499750124932696,1.681809095452098
6.919135432283859,-3.493958314960165,-2.6395831496016533,1.2577082047211572
6.927134432783609,-3.4845477261369306,-2.5454772613693066,1.1918340829585148
6.935133433283359,-3.475137137313695,-2.4513713731369497,1.1259599611958648
6.943132433783109,-3.4657265484904594,-2.357265484904593,1.060085839433215
6.95113143428286,-3.4563159596672235,-2.263159596672236,0.9942117176705652
6.959130434782609,-3.446905370843989,-2.1690537084398898,0.9283375959079228
6.967129435282359,-3.437494782020753,-2.074947820207533,0.8624634741452729
6.97512843578211,-3.4280841931975177,-1.980841931975176,0.7965893523826231
6.98312743628186,-3.418673604374282,-1.8867360437428191,0.7307152306199732
6.99112643678161,-3.409263015551046,-1.7926301555104622,0.6648411088573235
6.99912543728136,-3.3749125437279757,-1.4867566216877934,0.43693153423184206
7.00712443778111,-4.458142507693545,-2.22012625266315,-1.5664562455614168
7.0151234382808605,-4.677062521370923,-2.295906257397627,-1.4401562376706218
7.023122438780611,-4.895982535048301,-2.371686262132104,-1.3138562297798269
7.03112143928036,-5.114902548725654,-2.4474662668665728,-1.1875562218890459
7.039120439780111,-5.333822562403032,-2.5232462716010495,-1.0612562139982509
7.047119440279861,-5.55274257608041,-2.5990262763355267,-0.9349562061074557
7.055118440779611,-5.7716625897577885,-2.674806281070004,-0.8086561982166607
7.063117441279361,-5.990582603435142,-2.7505862858044723,-0.6823561903258797
7.071116441779111,-6.20950261711252,-2.8263662905389495,-0.5560561824350847
7.079115442278861,-6.428422630789898,-2.9021462952734263,-0.4297561745442897
7.087114442778612,-6.647342644467276,-2.9779263000079035,-0.3034561666534945
7.095113443278362,-6.866262658144654,-3.0537063047423803,-0.17715615876269952
7.1031124437781115,-6.171064467766655,-10.439230384807411,0.6839580209889027
7.111111444277862,-8.267168613495471,-11.558734918255166,-10.872590627762952
7.119110444777612,-8.592402699749055,-11.673006353965885,-9.457382847037895
7.1271094452773625,-8.917636786002639,-11.787277789676603,-8.04217506631284
7.135108445777112,-9.242870872256187,-11.90154922538731,-6.626967285587941
7.143107446276862,-9.568104958509771,-12.015820661098028,-5.2117595048628855
7.151106446776613,-9.893339044763355,-12.130092096808747,-3.7965517241378306
7.159105447276363,-10.21857313101694,-12.244363532519465,-2.3813439434127748
7.167104447776113,-10.543807217270524,-12.358634968230184,-0.9661361626877198
7.175103448275863,-10.869041303524073,-12.472906403940891,0.44907161803717877
7.183102448775613,-11.194275389777657,-12.58717783965161,1.8642793987622355
7.191101449275363,-11.51950947603124,-12.701449275362329,3.2794871794872904
7.199100449775114,-14.716191904050447,-7.132683658166115,-0.5620689655215294
7.207099450274863,-28.93028031438785,-2.224260596974339,-24.326459497523302
7.215098450774613,-13.939968387899055,-5.617350627012021,-0.28467277988912065
7.223097451274364,-13.502813709424325,-4.287284264844224,-0.17305881942748735
7.231096451774114,-13.065659030949595,-2.9572179026764274,-0.061444858965854054
7.2390954522738635,-12.628504352474913,-1.6271515405087777,0.050169101495766866
7.247094452773614,-12.191349674000183,-0.29708517834098114,0.1617830619574001
7.255093453273364,-11.754194995525452,1.0329811838268155,0.27339702241903346
7.2630924537731145,-11.317040317050722,2.363047545994612,0.38501098288066665
7.271091454272865,-10.879885638575992,3.6931139081624087,0.49662494334229995
7.279090454772614,-10.442730960101311,5.023180270330058,0.6082389038039209
7.287089455272365,-10.005576281626581,6.3532466324978545,0.7198528642655542
7.295088455772115,-9.568421603151851,7.683312994665651,0.8314668247271875
7.303087456271865,-2.668698983843249,-1.7697318007759373,-4.851091121111833
7.311086456771615,-6.10010883447165,-6.045622744183458,-4.93200122161141
7.319085457271365,-5.904577711144419,-5.743438280859556,-4.60315342328834
7.327084457771115,-5.709046587817188,-5.441253817535654,-4.274305624965271
7.335083458270866,-5.5135154644899576,-5.1390693542117525,-3.945457826642201
7.343082458770615,-5.317984341162749,-4.836884890887884,-3.616610028319168
7.3510814592703655,-5.122453217835518,-4.534700427563982,-3.287762229996098
7.359080459770116,-4.926922094508287,-4.23251596424008,-2.9589144316730285
7.367079460269866,-4.731390971181057,-3.930331500916178,-2.630066633349959
7.3750784607696165,-4.535859847853827,-3.6281470375922766,-2.3012188350268894
7.383077461269366,-4.340328724526617,-3.325962574268408,-1.9723710367038563
7.391076461769116,-4.144797601199386,-3.023778110944506,-1.6435232383807863
7.399075462268867,-5.418865567216642,2.17264492753587,-2.1028298350824963
7.407074462768617,-7.404003374656822,-0.7000800674931364,-2.406565534437188
7.415073463268366,-7.834057164965932,-0.7086811432993186,-3.111853750544128
7.423072463768117,-8.26411095527509,-0.7172822191055017,-3.817141966651147
7.431071464267867,-8.694164745584247,-0.7258832949116849,-4.522430182758166
7.439070464767617,-9.124218535893405,-0.7344843707178681,-5.227718398865184
7.447069465267367,-9.554272326202515,-0.7430854465240503,-5.933006614972124
7.455068465767117,-9.984326116511673,-0.7516865223302335,-6.638294831079142
7.4630674662668675,-10.41437990682083,-0.7602875981364167,-7.343583047186161
7.471066466766618,-10.844433697129988,-0.7688886739425997,-8.04887126329318
7.479065467266368,-11.274487487439146,-0.7774897497487829,-8.754159479400197
7.487064467766118,-11.704541277748255,-0.7860908255549651,-9.459447695507139
7.495063468265868,-12.134595068057415,-0.7946919013611483,-10.164735911614157
7.503062468765618,-10.356421789097933,-5.5280859570231975,-6.537731134422674
7.5110614692653686,-4.064294775689064,6.74282089724374,-13.395409987314226
7.519060469765118,-3.993973892174784,7.024104431300863,-14.371112246074869
7.527059470264868,-3.9236530086604953,7.305387965358017,-15.346814504835622
7.535058470764619,-3.853332125146207,7.586671499415171,-16.322516763596376
7.543057471264369,-3.7830112416319186,7.867955033472325,-17.298219022357127
7.551056471764118,-3.712690358117638,8.149238567529448,-18.273921281117772
7.559055472263869,-3.6423694746033495,8.430522101586602,-19.249623539878524
7.567054472763619,-3.572048591089061,8.711805635643756,-20.225325798639275
7.575053473263369,-3.5017277075747724,8.993089169700909,-21.20102805740003
7.58305247376312,-3.431406824060484,9.274372703758063,-22.17673031616078
7.591051474262869,-3.3610859405462032,9.555656237815187,-23.152432574921427
7.5990504747626195,-4.689905047476135,7.049525237380671,-16.04447776111874
7.60704947526237,-3.1968603933325745,4.2459564335478,-13.4729782167739
7.61504847576212,-1.738219125731074,3.1166857747595413,-12.90834288737977
7.62304747626187,-1.0611944027985944,2.7441654172913563,-12.636906546726633
7.63104647676162,-0.8412218890554604,2.814156671664172,-12.536919040479754
7.63904547726137,-0.6212493753123265,2.884147926036987,-12.436931534232874
7.647044477761121,-0.4012768615691926,2.9541391804098023,-12.336944027985997
7.65504347826087,-0.18130434782608318,3.02413043478261,-12.236956521739128
7.66304247876062,0.03866816591705091,3.094121689155425,-12.136969015492248
7.671041479260371,0.2586406796601848,3.1641129435282407,-12.03698150924537
7.679040479760121,0.47861319340331865,3.234104197901056,-11.93699400299849
7.687039480259871,0.6985857071464525,3.304095452273871,-11.837006496751611
7.695038480759621,0.918558220889562,3.3740867066466786,-11.737018990504744
7.703037481259371,-3.0074962518742083,5.278500749625159,-6.920509745127058
7.7110364817591215,-4.086504525515016,5.708905547226361,-3.759513576545049
7.719035482258872,-4.050953412182793,5.46893553223385,-3.6528602365483778
7.727034482758621,-4.015402298850573,5.228965517241367,-3.5462068965517184
7.735033483258372,-3.979851185518349,4.988995502248857,-3.4395535565550475
7.743032483758122,-3.944300072186125,4.749025487256346,-3.332900216558376
7.751031484257872,-3.9087489588539017,4.509055472263836,-3.2262468765617047
7.759030484757622,-3.873197845521682,4.269085457271352,-3.1195935365650453
7.767029485257372,-3.837646732189458,4.029115442278842,-3.0129401965683744
7.775028485757122,-3.8020956188572343,3.7891454272863316,-2.906286856571703
7.783027486256873,-3.766544505525011,3.5491754122938213,-2.7996335165750317
7.791026486756623,-3.730993392192787,3.309205397301311,-2.6929801765783603
7.7990254872563725,-4.058920539730385,1.6130434782598349,-2.8563718140931322
7.807024487756123,-7.497912899220491,4.793738697661475,-6.5125226046770495
7.815023488255873,-7.489666506952708,4.768999520858124,-6.562000958283753
7.8230224887556234,-7.481420114684924,4.744260344054772,-6.611479311890456
7.831021489255373,-7.473173722417141,4.719521167251424,-6.660957665497153
7.839020489755123,-7.464927330149357,4.694781990448072,-6.710436019103856
7.8470194902548736,-7.456680937881574,4.670042813644721,-6.759914372710559
7.855018490754624,-7.4484345456137895,4.645303636841369,-6.809392726317261
7.863017491254373,-7.440188153346007,4.62056446003802,-6.858871079923959
7.871016491754124,-7.431941761078224,4.595825283234669,-6.908349433530661
7.879015492253874,-7.4236953688104395,4.571086106431317,-6.957827787137364
7.887014492753624,-7.415448976542656,4.546346929627966,-7.007306140744067
7.895013493253375,-7.407202584274872,4.521607752824615,-7.0567844943507705
7.903012493753124,-6.893753123437967,4.398750624687593,-6.593753123437966
7.911011494252874,-6.8,3.282120051085559,-4.7754150702426434
7.919010494752625,-6.8,3.2110178244211114,-4.677649508579028
7.927009495252375,-6.8,3.139915597756664,-4.5798839469154125
7.9350084957521245,-6.8,3.068813371092224,-4.482118385251808
7.943007496251875,-6.8,2.9977111444277766,-4.384352823588193
7.951006496751625,-6.8,2.926608917763329,-4.286587261924578
7.9590054972513755,-6.8,2.8555066910988818,-4.188821700260963
7.967004497751125,-6.8,2.7844044644344423,-4.0910561385973585
7.975003498250875,-6.8,2.7133022377699945,-3.993290576933743
7.983002498750626,-6.8,2.6422000111055475,-3.8955250152701275
7.991001499250376,-6.8,2.5710977844410996,-3.7977594536065125
7.999000499750126,-6.8003998001012915,2.499825087455685,-3.6997751124430236
8.006999500249876,-7.800049975012344,3.685557221389775,-2.8
8.014998500749627,-7.44550906364992,4.572604606787679,-6.5537413111636695
8.022997501249376,-7.20385756488842,4.7785569240695835,-8.791082306947812
8.030996501749126,-7.011476540210903,4.5355493139506144,-8.973338014537038
8.038995502248877,-6.819095515533344,4.292541703831592,-9.155593722126305
8.046994502748626,-6.626714490855827,4.049534093712624,-9.337849429715533
8.054993503248376,-6.434333466178311,3.8065264835936556,-9.520105137304759
8.062992503748127,-6.241952441500751,3.563518873474633,-9.702360844894026
8.070991504247877,-6.049571416823234,3.320511263355664,-9.884616552483251
8.078990504747628,-5.857190392145675,3.0775036532366418,-10.066872260072518
8.086989505247377,-5.664809367468158,2.8344960431176736,-10.249127967661746
8.094988505747127,-5.472428342790642,2.591488432998705,-10.431383675250972
8.102987506246878,-3.595627186407043,-0.6471889055473847,-11.292503748126359
8.110986506746627,-4.102140878713178,-1.1050733108022264,-12.373167229944345
8.118985507246379,-3.8377671333824184,-1.1118521247850663,-12.203696880373345
8.126984507746128,-3.5733933880517172,-1.1186309387679048,-12.034226530802384
8.134983508245877,-3.3090196427210157,-1.1254097527507432,-11.86475618123142
8.142982508745629,-3.044645897390256,-1.1321885667335831,-11.69528583166042
8.150981509245378,-2.780272152059555,-1.1389673807164218,-11.525815482089458
8.158980509745128,-2.5158984067288532,-1.1457461946992602,-11.356345132518497
8.166979510244879,-2.2515246613980935,-1.1525250086821002,-11.186874782947497
8.174978510744628,-1.9871509160673924,-1.1593038226649386,-11.017404433376534
8.18297751124438,-1.7227771707366326,-1.1660826366477786,-10.847934083805534
8.190976511744129,-1.4584034254059315,-1.1728614506306172,-10.678463734234573
8.198975512243878,-1.1940296800752304,-1.1796402646134556,-10.50899338466361
8.20697451274363,-0.9296559347444702,-1.1864190785962956,-10.33952303509261
8.214973513243379,-0.665282189413769,-1.193197892579134,-10.170052685521647
8.22297251374313,-0.4009084440830093,-1.199976706561974,-10.000582335950646
8.23097151424288,-1.4157721139430433,-2.494742628685652,-8.615772113943043
8.238970514742629,-1.479764117941038,-2.4734119606863207,-8.679764117941037
8.24696951524238,-1.5437561219390468,-2.452081292686984,-8.743756121939047
8.25496851574213,-1.6077481259370414,-2.430750624687653,-8.80774812593704
8.26296751624188,-1.671740129935036,-2.409419956688321,-8.871740129935036
8.27096651674163,-1.735732133933045,-2.388089288688985,-8.935732133933044
8.27896551724138,-1.7997241379310394,-2.3667586206896534,-8.99972413793104
8.286964517741131,-1.8637161419290482,-2.3454279526903172,-9.063716141929048
8.29496351824088,-1.9277081459270429,-2.3240972846909855,-9.127708145927043
8.30296251874063,-1.9917001499250375,-2.302766616691654,-9.191700149925037
8.310961519240381,-2.797113943028592,-2.1,-10.691341829085776
8.31896051974013,-2.7834273339520688,-1.8917136669760344,-10.133709335808275
8.326959520239882,-2.764382094666947,-1.8821910473334735,-10.057528378667788
8.334958520739631,-2.74533685538183,-1.872668427690915,-9.98134742152732
8.34295752123938,-2.726291616096712,-1.863145808048356,-9.905166464386848
8.350956521739132,-2.707246376811591,-1.8536231884057954,-9.828985507246363
8.358955522238881,-2.688201137526473,-1.8441005687632366,-9.752804550105893
8.36695452273863,-2.669155898241356,-1.834577949120678,-9.676623592965424
8.374953523238382,-2.650110658956234,-1.825055329478117,-9.600442635824937
8.382952523738131,-2.631065419671117,-1.8155327098355585,-9.524261678684468
8.390951524237883,-2.6120201803859953,-1.8060100901929976,-9.448080721543981
8.398950524737632,-2.6,-1.8327836081959092,-9.334432783608182
8.406949525237382,-2.5512618690654607,-1.8512618690654605,-9.24873813093454
8.414948525737133,-2.4933162632167054,-1.7866325264334109,-9.293316263216706
8.422947526236882,-2.484328622205751,-1.7686572444115016,-9.284328622205752
8.430946526736633,-2.4753409811947944,-1.7506819623895886,-9.275340981194795
8.438945527236383,-2.4663533401838396,-1.7327066803676794,-9.26635334018384
8.446944527736132,-2.457365699172885,-1.7147313983457704,-9.257365699172885
8.454943528235884,-2.4483780581619285,-1.6967561163238571,-9.24837805816193
8.462942528735633,-2.4393904171509737,-1.6787808343019481,-9.239390417150974
8.470941529235382,-2.4304027761400193,-1.660805552280039,-9.23040277614002
8.478940529735134,-2.4214151351290627,-1.642830270258126,-9.221415135129062
8.486939530234883,-2.4124274941181083,-1.6248549882362167,-9.212427494118108
8.494938530734634,-2.4034398531071517,-1.6068797062143036,-9.20343985310715
8.502937531234384,-2.4,-1.5562496529512906,-9.2
8.510936531734133,-2.473413293353328,-1.2797601199400155,-9.2
8.518935532233884,-2.4919354276350187,-1.2,-9.20806457236498
8.526934532733634,-2.482634264263217,-1.2,-9.217365735736783
8.534933533233385,-2.4733331008914132,-1.2,-9.226666899108587
8.542932533733135,-2.4640319375196116,-1.2,-9.235968062480389
8.550931534232884,-2.45473077414781,-1.2,-9.24526922585219
8.558930534732635,-2.445429610776006,-1.2,-9.254570389223995
8.566929535232385,-2.4361284474042044,-1.2,-9.263871552595795
8.574928535732134,-2.4268272840324028,-1.2,-9.273172715967597
8.582927536231885,-2.4175261206605994,-1.2,-9.2824738793394
8.590926536731635,-2.4082249572887977,-1.2,-9.291775042711203
8.598925537231386,-2.4,-1.2,-9.43883058470786
8.606924537731135,-2.3691820756288164,-1.3616358487423672,-9.830817924371184
8.614923538230885,-2.3,-1.5066556609335784,-9.893344339066422
8.622922538730636,-2.3,-1.5156433019445348,-9.884356698055466
8.630921539230386,-2.3,-1.5246309429554892,-9.87536905704451
8.638920539730137,-2.3,-1.5336185839664456,-9.866381416033555
8.646919540229886,-2.3,-1.5426062249774,-9.8573937750226
8.654918540729636,-2.3,-1.5515938659883544,-9.848406134011647
8.662917541229387,-2.3,-1.5605815069993108,-9.83941849300069
8.670916541729136,-2.3,-1.5695691480102651,-9.830430851989735
8.678915542228886,-2.3,-1.5785567890212195,-9.821443210978781
8.686914542728637,-2.3,-1.587544430032176,-9.812455569967824
8.694913543228386,-2.3,-1.5965320710431303,-9.80346792895687
8.702912543728138,-2.236248542395433,-1.8637514576045673,-9.5
8.710911544227887,-2.2,-1.9,-9.492647293374588
8.718910544727636,-2.2,-1.9,-9.484137718374855
8.726909545227388,-2.2,-1.9,-9.47562814337512
8.734908545727137,-2.2,-1.9,-9.467118568375387
8.742907546226888,-2.2,-1.9,-9.458608993375652
8.750906546726638,-2.2,-1.9,-9.450099418375919
8.758905547226387,-2.2,-1.9,-9.441589843376184
8.766904547726138,-2.2,-1.9,-9.433080268376449
8.774903548225888,-2.2,-1.9,-9.424570693376715
8.782902548725637,-2.2,-1.9,-9.416061118376982
8.790901549225389,-2.2,-1.9,-9.407551543377247
8.798900549725138,-2.2,-1.8930726944220153,-9.406927305577986
8.80689955022489,-2.2,-1.8315419213470057,-9.468458078652995
8.814898550724639,-2.2,-1.9,-9.447463768115957
8.822897551224388,-2.2,-1.8927190725624838,-9.507280927437517
8.83089655172414,-2.2,-1.8828437633035318,-9.517156236696469
8.838895552223889,-2.2,-1.8729684540445817,-9.527031545955419
8.84689455272364,-2.2,-1.8630931447856296,-9.53690685521437
8.85489355322339,-2.2,-1.8532178355266795,-9.54678216447332
8.862892553723139,-2.2,-1.8433425262677297,-9.55665747373227
8.87089155422289,-2.2,-1.8334672170087774,-9.566532782991223
8.87889055472264,-2.2,-1.8235919077498275,-9.576408092250173
8.886889555222389,-2.2,-1.8137165984908774,-9.586283401509123
8.89488855572214,-2.2,-1.8038412892319253,-9.596158710768075
8.90288755622189,-2.3,-1.7778110944527472,-9.577811094452747
8.91088655672164,-2.305369842551253,-1.6946301574487468,-9.505369842551254
8.91888555722139,-2.314159952990538,-1.6858400470094617,-9.514159952990537
8.92688455772114,-2.3229500634298232,-1.6770499365701765,-9.522950063429823
8.934883558220891,-2.3317401738691106,-1.6682598261308894,-9.53174017386911
8.94288255872064,-2.3405302843083957,-1.6594697156916043,-9.540530284308396
8.950881559220392,-2.3493203947476826,-1.6506796052523172,-9.549320394747683
8.958880559720141,-2.3581105051869677,-1.641889494813032,-9.558110505186967
8.96687956021989,-2.366900615626253,-1.633099384373747,-9.566900615626253
8.974878560719642,-2.37569072606554,-1.6243092739344598,-9.57569072606554
8.982877561219391,-2.3844808365048253,-1.6155191634951747,-9.584480836504826
8.99087656171914,-2.3932709469441105,-1.6067290530558895,-9.593270946944111
8.998875562218892,-2.4,-1.5062218890554335,-9.6
9.006874562718641,-2.392912821939545,-1.5,-9.5
9.014873563218393,-2.38466642967176,-1.5,-9.5
9.022872563718142,-2.3764200374039772,-1.5,-9.5
9.030871564217891,-2.3681736451361943,-1.5,-9.5
9.038870564717643,-2.359927252868409,-1.5,-9.5
9.046869565217392,-2.3516808606006263,-1.5,-9.5
9.054868565717143,-2.3434344683328416,-1.5,-9.5
9.062867566216893,-2.3351880760650587,-1.5,-9.5
9.070866566716642,-2.3269416837972754,-1.5,-9.5
9.078865567216393,-2.3186952915294907,-1.5,-9.5
9.086864567716143,-2.310448899261708,-1.5,-9.5
9.094863568215892,-2.302202506993925,-1.5,-9.5
9.102862568715643,-2.299101490921205,-1.7,-9.5
9.110861569215393,-2.290769198733966,-1.7,-9.5
9.118860569715144,-2.282436906546725,-1.7,-9.5
9.126859570214894,-2.2741046143594863,-1.7,-9.5
9.134858570714643,-2.265772322172247,-1.7,-9.5
9.142857571214394,-2.2574400299850064,-1.7,-9.5
9.150856571714144,-2.2491077377977673,-1.7,-9.5
9.158855572213895,-2.2407754456105264,-1.7,-9.5
9.166854572713644,-2.2324431534232874,-1.7,-9.5
9.174853573213394,-2.2241108612360487,-1.7,-9.5
9.182852573713145,-2.215778569048808,-1.7,-9.5
9.190851574212894,-2.207446276861569,-1.7,-9.5
9.198850574712644,-2.2,-1.7042528735632174,-9.5
9.206849575212395,-2.2,-1.7442478760619744,-9.5
9.214848575712145,-2.2,-1.7842428785607225,-9.5
9.222847576211896,-2.2,-1.7988847681422417,-9.5
9.230846576711645,-2.2,-1.788359767484677,-9.5
9.238845577211395,-2.2,-1.777834766827112,-9.5
9.246844577711146,-2.2,-1.7673097661695445,-9.5
9.254843578210895,-2.2,-1.7567847655119795,-9.5
9.262842578710647,-2.2,-1.7462597648544123,-9.5
9.270841579210396,-2.2,-1.7357347641968472,-9.5
9.278840579710145,-2.2,-1.7252097635392822,-9.5
9.286839580209897,-2.2,-1.7146847628817148,-9.5
9.294838580709646,-2.2,-1.7041597622241498,-9.5
9.302837581209396,-2.2,-1.7,-9.5
9.310836581709147,-2.2,-1.6947428459683178,-9.4
9.318835582208896,-2.2,-1.6860482802077206,-9.4
9.326834582708647,-2.2,-1.6773537144471216,-9.4
9.334833583208397,-2.2,-1.6686591486865243,-9.4
9.342832583708146,-2.2,-1.6599645829259273,-9.4
9.350831584207898,-2.2,-1.6512700171653283,-9.4
9.358830584707647,-2.2,-1.642575451404731,-9.4
9.366829585207398,-2.2,-1.633880885644132,-9.4
9.374828585707148,-2.2,-1.6251863198835348,-9.4
9.382827586206897,-2.2,-1.6164917541229376,-9.4
9.390826586706648,-2.2,-1.6077971883623385,-9.4
9.398825587206398,-2.2,-1.6,-9.4
9.406824587706147,-2.2310773184836155,-1.6,-9.4
9.414823588205898,-2.206543357534717,-1.6,-9.406543357534717
9.422822588705648,-2.2155309985456713,-1.6,-9.415530998545671
9.430821589205399,-2.224518639556628,-1.6,-9.424518639556627
9.438820589705148,-2.2335062805675823,-1.6,-9.433506280567583
9.446819590204898,-2.2424939215785367,-1.6,-9.442493921578537
9.45481859070465,-2.2514815625894933,-1.6,-9.451481562589494
9.462817591204399,-2.260469203600448,-1.6,-9.460469203600448
9.47081659170415,-2.2694568446114043,-1.6,-9.469456844611404
9.4788155922039,-2.278444485622359,-1.6,-9.47844448562236
9.486814592703649,-2.2874321266333135,-1.6,-9.487432126633314
9.4948135932034,-2.29641976764427,-1.6,-9.49641976764427
9.50281259370315,-2.3,-1.6,-9.5
9.510811594202899,-2.3,-1.6083102065988286,-9.5
9.51881059470265,-2.3,-1.6168197815985639,-9.5
9.5268095952024,-2.3,-1.6253293565982974,-9.5
9.53480859570215,-2.3,-1.6338389315980328,-9.5
9.5428075962019,-2.3,-1.6423485065977663,-9.5
9.55080659670165,-2.3,-1.6508580815974998,-9.5
9.5588055972014,-2.3,-1.659367656597235,-9.5
9.56680459770115,-2.3,-1.6678772315969685,-9.5
9.574803598200901,-2.3,-1.676386806596704,-9.5
9.58280259870065,-2.3,-1.6848963815964375,-9.5
9.5908015992004,-2.3,-1.693405956596171,-9.5
9.598800599700152,-2.2099700149924297,-1.7,-9.40997001499243
9.606799600199901,-2.2,-1.7,-9.4
9.61479860069965,-2.2,-1.7,-9.4
9.622797601199402,-2.2,-1.7,-9.4
9.630796601699151,-2.2,-1.7,-9.4
9.638795602198902,-2.2,-1.7,-9.4
9.646794602698652,-2.2,-1.7,-9.4
9.654793603198401,-2.2,-1.7,-9.4
9.662792603698152,-2.2,-1.7,-9.4
9.670791604197902,-2.2,-1.7,-9.4
9.678790604697653,-2.2,-1.7,-9.4
9.686789605197403,-2.2,-1.7,-9.4
9.694788605697152,-2.2,-1.7,-9.4
9.702787606196903,-2.2,-1.7,-9.4
9.710786606696653,-2.253184518851699,-1.646815481148301,-9.4468154811483
9.718785607196402,-2.2954933247661877,-1.6045066752338122,-9.404506675233813
9.726784607696153,-2.285970705123627,-1.6140292948763733,-9.414029294876373
9.734783608195903,-2.276448085481068,-1.623551914518932,-9.423551914518931
9.742782608695654,-2.266925465838507,-1.6330745341614932,-9.433074534161493
9.750781609195403,-2.257402846195948,-1.642597153804052,-9.442597153804051
9.758780609695153,-2.2478802265533893,-1.6521197734466109,-9.452119773446611
9.766779610194904,-2.238357606910828,-1.661642393089172,-9.461642393089171
9.774778610694653,-2.2288349872682693,-1.6711650127317308,-9.471165012731731
9.782777611194405,-2.219312367625708,-1.6806876323742919,-9.480687632374291
9.790776611694154,-2.2097897479831494,-1.6902102520168507,-9.490210252016851
9.798775612193904,-2.2002671283405904,-1.6997328716594096,-9.49973287165941
9.806774612693655,-2.2,-1.6,-9.5
9.814773613193404,-2.2,-1.6,-9.5
9.822772613693154,-2.2,-1.6,-9.5
9.830771614192905,-2.2,-1.6,-9.5
9.838770614692654,-2.2,-1.6,-9.5
9.846769615192406,-2.2,-1.6,-9.5
9.854768615692155,-2.2,-1.6,-9.5
9.862767616191904,-2.2,-1.6,-9.5
9.870766616691656,-2.2,-1.6,-9.5
9.878765617191405,-2.2,-1.6,-9.5
9.886764617691156,-2.2,-1.6,-9.5
9.894763618190906,-2.2,-1.6,-9.5
9.902762618690655,-2.2,-1.6,-9.5
9.910761619190406,-2.2,-1.7,-9.4
9.918760619690156,-2.2,-1.7,-9.4
9.926759620189905,-2.2,-1.7,-9.4
9.934758620689657,-2.2,-1.7,-9.4
9.942757621189406,-2.2,-1.7,-9.4
9.950756621689157,-2.2,-1.7,-9.4
9.958755622188907,-2.2,-1.7,-9.4
9.966754622688656,-2.2,-1.7,-9.4
9.974753623188407,-2.2,-1.7,-9.4
9.982752623688157,-2.2,-1.7,-9.4
9.990751624187908,-2.2,-1.7,-9.4
9.998750624687657,-2.2,-1.7,-9.475062468765715
10.006749625187407,-2.2,-1.7,-9.5
10.014748625687158,-2.2,-1.7,-9.5
10.022747626186908,-2.2,-1.7,-9.5
10.030746626686657,-2.2,-1.7,-9.5
10.038745627186408,-2.2,-1.7,-9.5
10.046744627686158,-2.2,-1.7,-9.5
10.054743628185909,-2.2,-1.7,-9.5
10.062742628685658,-2.2,-1.7,-9.5
10.070741629185408,-2.2,-1.7,-9.5
10.078740629685159,-2.2,-1.7,-9.5
10.086739630184908,-2.2,-1.7,-9.5
10.09473863068466,-2.2,-1.7,-9.5
10.102737631184409,-2.2,-1.6131184407795434,-9.413118440779543
10.110736631684158,-2.2,-1.6938315788342386,-9.5
10.11873563218391,-2.2,-1.6852305030280545,-9.5
10.12673463268366,-2.2,-1.6766294272218722,-9.5
10.134733633183409,-2.2,-1.6680283514156902,-9.5
10.14273263368316,-2.2,-1.659427275609506,-9.5
10.15073163418291,-2.2,-1.6508261998033238,-9.5
10.15873063468266,-2.2,-1.6422251239971397,-9.5
10.16672963518241,-2.2,-1.6336240481909576,-9.5
10.17472863568216,-2.2,-1.6250229723847753,-9.5
10.18272763618191,-2.2,-1.6164218965785913,-9.5
10.19072663668166,-2.2,-1.6078208207724092,-9.5
10.198725637181411,-2.2,-1.6,-9.463718140929439
10.20672463768116,-2.2038006506950625,-1.7,-9.496199349304938
10.21472363818091,-2.2119628961029703,-1.7,-9.48803710389703
10.222722638680661,-2.2201251415108794,-1.7,-9.47987485848912
10.23072163918041,-2.228287386918787,-1.7,-9.471712613081213
10.23872063968016,-2.2364496323266945,-1.7,-9.463550367673305
10.246719640179911,-2.2446118777346036,-1.7,-9.455388122265397
10.25471864067966,-2.2527741231425114,-1.7,-9.44722587685749
10.262717641179412,-2.2609363685504205,-1.7,-9.43906363144958
10.270716641679162,-2.2690986139583282,-1.7,-9.430901386041672
10.278715642178911,-2.2772608593662356,-1.7,-9.422739140633764
10.286714642678662,-2.285423104774145,-1.7,-9.414576895225855
10.294713643178412,-2.2935853501820525,-1.7,-9.406414649817949
10.302712643678163,-2.3,-1.7,-9.485632183908107
10.310711644177912,-2.2524029651840634,-1.7,-9.5
10.318710644677662,-2.2,-1.7,-9.5
10.326709645177413,-2.2,-1.7,-9.5
10.334708645677162,-2.2,-1.7,-9.5
10.342707646176914,-2.2,-1.7,-9.5
10.350706646676663,-2.2,-1.7,-9.5
10.358705647176413,-2.2,-1.7,-9.5
10.366704647676164,-2.2,-1.7,-9.5
10.374703648175913,-2.2,-1.7,-9.5
10.382702648675663,-2.2,-1.7,-9.5
10.390701649175414,-2.2,-1.7,-9.5
10.398700649675163,-2.2,-1.7,-9.5
10.406699650174914,-2.2,-1.601847445842299,-9.5
10.414698650674664,-2.2,-1.6105420116028963,-9.5
10.422697651174413,-2.2,-1.6192365773634934,-9.5
10.430696651674165,-2.2,-1.6279311431240926,-9.5
10.438695652173914,-2.2,-1.6366257088846896,-9.5
10.446694652673665,-2.2,-1.6453202746452888,-9.5
10.454693653173415,-2.2,-1.6540148404058859,-9.5
10.462692653673164,-2.2,-1.662709406166483,-9.5
10.470691654172915,-2.2,-1.6714039719270821,-9.5
10.478690654672665,-2.2,-1.6800985376876794,-9.5
10.486689655172414,-2.2,-1.6887931034482766,-9.5
10.494688655672165,-2.2,-1.6974876692088756,-9.5
10.502687656171915,-2.2,-1.699276151397985,-9.4
10.510686656671666,-2.2,-1.6908561508719309,-9.4
10.518685657171416,-2.2,-1.682436150345879,-9.4
10.526684657671165,-2.2,-1.6740161498198267,-9.4
10.534683658170916,-2.2,-1.6655961492937728,-9.4
10.542682658670666,-2.2,-1.6571761487677206,-9.4
10.550681659170417,-2.2,-1.6487561482416666,-9.4
10.558680659670166,-2.2,-1.6403361477156144,-9.4
10.566679660169916,-2.2,-1.6319161471895622,-9.4
10.574678660669667,-2.2,-1.6234961466635083,-9.4
10.582677661169416,-2.2,-1.615076146137456,-9.4
10.590676661669166,-2.2,-1.606656145611404,-9.4
10.598675662168917,-2.2,-1.6837831084458506,-9.48378310844585
10.606674662668667,-2.2950793024540355,-1.7,-9.495079302454036
10.614673663168418,-2.2866593019279815,-1.7,-9.48665930192798
10.622672663668167,-2.2782393014019293,-1.7,-9.47823930140193
10.630671664167917,-2.269819300875877,-1.7,-9.469819300875876
10.638670664667668,-2.261399300349823,-1.7,-9.461399300349823
10.646669665167417,-2.252979299823771,-1.7,-9.452979299823772
10.654668665667169,-2.244559299297717,-1.7,-9.444559299297717
10.662667666166918,-2.236139298771665,-1.7,-9.436139298771666
10.670666666666667,-2.2277192982456127,-1.7,-9.427719298245613
10.678665667166419,-2.2192992977195587,-1.7,-9.41929929771956
10.686664667666168,-2.2108792971935065,-1.7,-9.410879297193507
10.694663668165918,-2.2024592966674548,-1.7,-9.402459296667455
10.702662668665669,-2.2,-1.7,-9.5
10.710661669165418,-2.2,-1.7,-9.43383308345823
10.71866066966517,-2.2087053064376923,-1.7,-9.408705306437692
10.726659670164919,-2.2177950797328623,-1.7,-9.417795079732862
10.734658670664668,-2.2268848530280323,-1.7,-9.426884853028032
10.74265767116442,-2.235974626323204,-1.7,-9.435974626323205
10.750656671664169,-2.2450643996183737,-1.7,-9.445064399618374
10.75865567216392,-2.254154172913546,-1.7,-9.454154172913546
10.76665467266367,-2.2632439462087155,-1.7,-9.463243946208715
10.774653673163419,-2.2723337195038855,-1.7,-9.472333719503887
10.78265267366317,-2.2814234927990573,-1.7,-9.481423492799058
10.79065167416292,-2.2905132660942273,-1.7,-9.490513266094228
10.79865067466267,-2.2996030393893974,-1.7,-9.499603039389397
10.80664967516242,-2.2,-1.697210868250084,-9.497210868250084
10.81464867566217,-2.2,-1.688790867724032,-9.488790867724031
10.822647676161921,-2.2,-1.6803708671979778,-9.480370867197978
10.83064667666167,-2.2,-1.6719508666719258,-9.471950866671925
10.83864567716142,-2.2,-1.6635308661458736,-9.463530866145874
10.846644677661171,-2.2,-1.6551108656198197,-9.45511086561982
10.85464367816092,-2.2,-1.6466908650937675,-9.446690865093768
10.862642678660672,-2.2,-1.6382708645677135,-9.438270864567714
10.870641679160421,-2.2,-1.6298508640416614,-9.429850864041661
10.87864067966017,-2.2,-1.6214308635156092,-9.42143086351561
10.886639680159922,-2.2,-1.6130108629895552,-9.413010862989555
10.894638680659671,-2.2,-1.604590862463503,-9.404590862463504
10.90263768115942,-2.2181159420289784,-1.7,-9.41811594202898
10.910636681659172,-2.2982771772008723,-1.6017228227991278,-9.401722822799128
10.918635682158921,-2.28985717667482,-1.61014282332518,-9.410142823325181
10.926634682658673,-2.281437176148766,-1.618562823851234,-9.418562823851234
10.934633683158422,-2.273017175622714,-1.6269828243772861,-9.426982824377287
10.942632683658172,-2.264597175096662,-1.635402824903338,-9.435402824903338
10.950631684157923,-2.256177174570608,-1.6438228254293923,-9.443822825429393
10.958630684657672,-2.2477571740445557,-1.6522428259554442,-9.452242825955445
10.966629685157423,-2.2393371735185017,-1.6606628264814984,-9.460662826481498
10.974628685657173,-2.2309171729924495,-1.6690828270075504,-9.46908282700755
10.982627686156922,-2.2224971724663973,-1.6775028275336026,-9.477502827533602
10.990626686656674,-2.2140771719403434,-1.6859228280596565,-9.485922828059657
10.998625687156423,-2.205657171414291,-1.6943428285857087,-9.494342828585708
11.006624687656172,-2.2,-1.7,-9.431234382808627
11.014623688155924,-2.2,-1.7,-9.49375145760453
11.022622688655673,-2.2,-1.7,-9.484863679271475
11.030621689155424,-2.2,-1.7,-9.475975900938417
11.038620689655174,-2.2,-1.7,-9.467088122605363
11.046619690154923,-2.2,-1.7,-9.458200344272308
11.054618690654674,-2.2,-1.7,-9.449312565939252
11.062617691154424,-2.2,-1.7,-9.440424787606196
11.070616691654175,-2.2,-1.7,-9.43153700927314
11.078615692153924,-2.2,-1.7,-9.422649230940085
11.086614692653674,-2.2,-1.7,-9.41376145260703
11.094613693153425,-2.2,-1.7,-9.404873674273972
11.102612693653175,-2.2,-1.7,-9.4
11.110611694152924,-2.2,-1.7,-9.4
11.118610694652675,-2.2,-1.7,-9.5
11.126609695152425,-2.2,-1.7,-9.5
11.134608695652176,-2.2,-1.7,-9.5
11.142607696151925,-2.2,-1.7,-9.5
11.150606696651675,-2.2,-1.7,-9.5
11.158605697151426,-2.2,-1.7,-9.5
11.166604697651175,-2.2,-1.7,-9.5
11.174603698150927,-2.2,-1.7,-9.5
11.182602698650676,-2.2,-1.7,-9.5
11.190601699150426,-2.2,-1.7,-9.5
11.198600699650177,-2.2,-1.7,-9.5
11.206599700149926,-2.2,-1.7,-9.4599700149926
11.214598700649676,-2.2081706458598656,-1.6918293541401344,-9.5
11.222597701149427,-2.2167717216660496,-1.6832282783339503,-9.5
11.230596701649176,-2.225372797472232,-1.6746272025277682,-9.5
11.238595702148928,-2.233973873278416,-1.6660261267215841,-9.5
11.246594702648677,-2.2425749490845983,-1.6574250509154018,-9.5
11.254593703148426,-2.25117602489078,-1.6488239751092197,-9.5
11.262592703648178,-2.2597771006969642,-1.6402228993030357,-9.5
11.270591704147927,-2.2683781765031465,-1.6316218234968534,-9.5
11.278590704647678,-2.2769792523093306,-1.6230207476906693,-9.5
11.286589705147428,-2.285580328115513,-1.6144196718844872,-9.5
11.294588705647177,-2.2941814039216952,-1.605818596078305,-9.5
11.302587706146928,-2.213743128435746,-1.6,-9.5
11.310586706646678,-2.2,-1.6049319426308375,-9.5
11.318585707146427,-2.2,-1.6135330184370196,-9.5
11.326584707646179,-2.2,-1.6221340942432037,-9.5
11.334583708145928,-2.2,-1.630735170049386,-9.5
11.34258270864568,-2.2,-1.63933624585557,-9.5
11.350581709145429,-2.2,-1.647937321661752,-9.5
11.358580709645178,-2.2,-1.6565383974679344,-9.5
11.36657971014493,-2.2,-1.6651394732741185,-9.5
11.374578710644679,-2.2,-1.6737405490803006,-9.5
11.38257771114443,-2.2,-1.6823416248864846,-9.5
11.39057671164418,-2.2,-1.690942700692667,-9.5
11.398575712143929,-2.2,-1.699543776498849,-9.5
11.40657471264368,-2.2,-1.7,-9.5
11.41457371314343,-2.2,-1.7,-9.5
11.422572713643179,-2.2,-1.7,-9.5
11.43057171414293,-2.2,-1.7,-9.5
11.43857071464268,-2.2,-1.7,-9.5
11.44656971514243,-2.2,-1.7,-9.5
11.45456871564218,-2.2,-1.7,-9.5
11.46256771614193,-2.2,-1.7,-9.5
11.470566716641681,-2.2,-1.7,-9.5
11.47856571714143,-2.2,-1.7,-9.5
11.486564717641182,-2.2,-1.7,-9.5
11.494563718140931,-2.2,-1.7,-9.5
11.50256271864068,-2.2,-1.7,-9.5
11.510561719140432,-2.2,-1.7,-9.5
11.518560719640181,-2.2,-1.7,-9.471964017990961
11.52655972013993,-2.2,-1.7,-9.406863852024605
11.534558720639682,-2.2,-1.7,-9.416739161283557
11.542557721139431,-2.2,-1.7,-9.426614470542507
11.550556721639182,-2.2,-1.7,-9.436489779801459
11.558555722138932,-2.2,-1.7,-9.446365089060409
11.566554722638681,-2.2,-1.7,-9.456240398319359
11.574553723138433,-2.2,-1.7,-9.466115707578311
11.582552723638182,-2.2,-1.7,-9.475991016837261
11.590551724137933,-2.2,-1.7,-9.485866326096213
11.598550724637683,-2.2,-1.7,-9.495741635355163
11.606549725137432,-2.2,-1.7,-9.445027486256746
11.614548725637183,-2.2,-1.7,-9.4
11.622547726136933,-2.2,-1.7,-9.4
11.630546726636682,-2.2,-1.7,-9.4
11.638545727136433,-2.2,-1.7,-9.4
11.646544727636183,-2.2,-1.7,-9.4
11.654543728135934,-2.2,-1.7,-9.4
11.662542728635684,-2.2,-1.7,-9.4
11.670541729135433,-2.2,-1.7,-9.4
11.678540729635184,-2.2,-1.7,-9.4
11.686539730134934,-2.2,-1.7,-9.4
11.694538730634685,-2.2,-1.7,-9.4
11.702537731134434,-2.2,-1.7,-9.5
11.710536731634184,-2.2,-1.7,-9.5
11.718535732133935,-2.2,-1.7,-9.5
11.726534732633684,-2.2,-1.7,-9.5
11.734533733133434,-2.2,-1.7,-9.5
11.742532733633185,-2.2,-1.7,-9.5
11.750531734132935,-2.2,-1.7,-9.5
11.758530734632686,-2.2,-1.7,-9.5
11.766529735132435,-2.2,-1.7,-9.5
11.774528735632185,-2.2,-1.7,-9.5
11.782527736131936,-2.2,-1.7,-9.5
11.790526736631685,-2.2,-1.7,-9.5
11.798525737131436,-2.2,-1.7,-9.5
11.806524737631186,-2.2,-1.7,-9.5
11.814523738130935,-2.2,-1.7,-9.5
11.822522738630687,-2.2,-1.7,-9.5
11.830521739130436,-2.2,-1.7,-9.5
11.838520739630185,-2.2,-1.7,-9.5
11.846519740129937,-2.2,-1.7,-9.5
11.854518740629686,-2.2,-1.7,-9.5
11.862517741129437,-2.2,-1.7,-9.5
11.870516741629187,-2.2,-1.7,-9.5
11.878515742128936,-2.2,-1.7,-9.5
11.886514742628687,-2.2,-1.7,-9.5
11.894513743128437,-2.2,-1.7,-9.5
11.902512743628188,-2.2,-1.7,-9.5
11.910511744127938,-2.2,-1.7,-9.4
11.918510744627687,-2.2,-1.7,-9.4
11.926509745127438,-2.2,-1.7,-9.4
11.934508745627188,-2.2,-1.7,-9.4
11.942507746126937,-2.2,-1.7,-9.4
11.950506746626688,-2.2,-1.7,-9.4
11.958505747126438,-2.2,-1.7,-9.4
11.966504747626189,-2.2,-1.7,-9.4
11.974503748125938,-2.2,-1.7,-9.4
11.982502748625688,-2.2,-1.7,-9.4
11.990501749125439,-2.2,-1.7,-9.4
11.998500749625189,-2.2,-1.7,-9.4
12.00649975012494,-2.2,-1.67501249375301,-9.42498750624699
12.01449875062469,-2.2,-1.7,-9.5
12.022497751124439,-2.2,-1.7,-9.5
12.03049675162419,-2.2,-1.7,-9.5
12.03849575212394,-2.2,-1.7,-9.5
12.046494752623689,-2.2,-1.7,-9.5
12.05449375312344,-2.2,-1.7,-9.5
12.06249275362319,-2.2,-1.7,-9.5
12.07049175412294,-2.2,-1.7,-9.5
12.07849075462269,-2.2,-1.7,-9.5
12.08648975512244,-2.2,-1.7,-9.5
12.09448875562219,-2.2,-1.7,-9.5
12.10248775612194,-2.2,-1.7,-9.5
12.110486756621691,-2.2,-1.7,-9.4
12.11848575712144,-2.2,-1.7,-9.4
12.12648475762119,-2.2,-1.7,-9.4
12.134483758120941,-2.2,-1.7,-9.4
12.142482758620691,-2.2,-1.7,-9.4
12.15048175912044,-2.2,-1.7,-9.4
12.158480759620192,-2.2,-1.7,-9.4
12.166479760119941,-2.2,-1.7,-9.4
12.174478760619692,-2.2,-1.7,-9.4
12.182477761119442,-2.2,-1.7,-9.4
12.190476761619191,-2.2,-1.7,-9.4
12.198475762118942,-2.2,-1.7,-9.4
12.206474762618692,-2.2,-1.6372896884890973,-9.5
12.214473763118443,-2.2,-1.7,-9.49946768188939
12.222472763618192,-2.2,-1.7,-9.490480040878436
12.230471764117942,-2.2,-1.7,-9.481492399867482
12.238470764617693,-2.2,-1.7,-9.472504758856525
12.246469765117443,-2.2,-1.7,-9.463517117845571
12.254468765617192,-2.2,-1.7,-9.454529476834617
12.262467766116943,-2.2,-1.7,-9.44554183582366
12.270466766616693,-2.2,-1.7,-9.436554194812706
12.278465767116444,-2.2,-1.7,-9.42756655380175
12.286464767616193,-2.2,-1.7,-9.418578912790796
12.294463768115943,-2.2,-1.7,-9.40959127177984
12.302462768615694,-2.2,-1.7,-9.400603630768884
12.310461769115443,-2.2,-1.7,-9.495096957015996
12.318460769615195,-2.2,-1.7,-9.486306846576708
12.326459770114944,-2.2,-1.7,-9.477516736137423
12.334458770614694,-2.2,-1.7,-9.468726625698139
12.342457771114445,-2.2,-1.7,-9.459936515258851
12.350456771614194,-2.2,-1.7,-9.451146404819566
12.358455772113944,-2.2,-1.7,-9.442356294380282
12.366454772613695,-2.2,-1.7,-9.433566183940995
12.374453773113444,-2.2,-1.7,-9.42477607350171
12.382452773613196,-2.2,-1.7,-9.415985963062424
12.390451774112945,-2.2,-1.7,-9.407195852623138
12.398450774612694,-2.2,-1.7,-9.4
12.406449775112446,-2.2,-1.6975254796843982,-9.502474520315602
12.414448775612195,-2.2,-1.6894456811998029,-9.510554318800198
12.422447776111946,-2.2,-1.6813658827152058,-9.518634117284794
12.430446776611696,-2.2,-1.6732860842306103,-9.52671391576939
12.438445777111445,-2.2,-1.665206285746015,-9.534793714253984
12.446444777611196,-2.2,-1.6571264872614178,-9.542873512738582
12.454443778110946,-2.2,-1.6490466887768225,-9.550953311223177
12.462442778610695,-2.2,-1.640966890292227,-9.559033109707773
12.470441779110446,-2.2,-1.63288709180763,-9.56711290819237
12.478440779610196,-2.2,-1.6248072933230344,-9.575192706676965
12.486439780109947,-2.2,-1.6167274948384374,-9.583272505161563
12.494438780609697,-2.2,-1.608647696353842,-9.591352303646158
12.502437781109446,-2.2,-1.6005678978692466,-9.599432102130754
12.510436781609197,-2.3,-1.6004963427377246,-9.699503657262275
12.518435782108947,-2.3,-1.6095861160328941,-9.690413883967105
12.526434782608698,-2.3,-1.618675889328066,-9.681324110671934
12.534433783108447,-2.3,-1.6277656626232355,-9.672234337376764
12.542432783608197,-2.3,-1.6368554359184053,-9.663144564081595
12.550431784107948,-2.3,-1.6459452092135771,-9.654054790786422
12.558430784607697,-2.3,-1.6550349825087467,-9.644965017491252
12.566429785107447,-2.3,-1.6641247558039165,-9.635875244196082
12.574428785607198,-2.3,-1.6732145290990883,-9.626785470900911
12.582427786106948,-2.3,-1.6823043023942579,-9.617695697605742
12.590426786606699,-2.3,-1.6913940756894297,-9.60860592431057
12.598425787106448,-2.3053223388305937,-1.6946776611694059,-9.6
12.606424787606198,-2.4,-1.6,-9.6
12.614423788105949,-2.4,-1.5416019263095564,-9.42480577892867
12.622422788605698,-2.4120804303730536,-1.4959731898756488,-9.304026810124352
12.63042178910545,-2.4403121968427635,-1.4865626010524122,-9.313437398947588
12.638420789605199,-2.468543963312467,-1.4771520122291777,-9.322847987770823
12.646419790104948,-2.4967757297821707,-1.467741423405943,-9.332258576594057
12.6544187906047,-2.525007496251881,-1.4583308345827064,-9.341669165417294
12.662417791104449,-2.5532392627215845,-1.4489202457594719,-9.351079754240528
12.670416791604199,-2.581471029191288,-1.4395096569362373,-9.360490343063763
12.67841579210395,-2.609702795660998,-1.4300990681130006,-9.369900931886999
12.6864147926037,-2.6379345621307015,-1.420688479289766,-9.379311520710234
12.69441379310345,-2.6661663286004114,-1.4112778904665295,-9.388722109533472
12.7024127936032,-2.694398095070115,-1.401867301643295,-9.398132698356706
12.71041179410295,-3.7117691154423795,-1.3,-9.82941029485254
12.7184107946027,-3.8959044007408274,-1.265125672457881,-9.78256283622894
12.72640979510245,-3.9994208777964095,-1.227483317164942,-9.763741658582472
12.734408795602201,-4.102937354852015,-1.1898409618719947,-9.744920480935997
12.74240779610195,-4.206453831907597,-1.1521986065790557,-9.726099303289528
12.7504067966017,-4.309970308963179,-1.1145562512861167,-9.70727812564306
12.758405797101451,-4.413486786018784,-1.0769138959931694,-9.688456947996585
12.7664047976012,-4.517003263074367,-1.0392715407002304,-9.669635770350116
12.77440379810095,-4.620519740129948,-1.0016291854072916,-9.650814592703645
12.782402798600701,-4.724036217185554,-0.9639868301143442,-9.631993415057172
12.79040179910045,-4.827552694241136,-0.9263444748214051,-9.613172237410703
12.798400799600202,-6.100399800100937,0.18035982009084262,-9.539980009994952
12.806399800099951,-7.4,1.0400799600191215,-9.699950024988048
12.814398800599701,-7.450327645166189,0.4503276451661883,-10.07124134561932
12.822397801099452,-7.513241132242883,0.5132411322428829,-10.035290781575496
12.830396801599202,-7.5761546193195635,0.5761546193195637,-9.999340217531678
12.838395802098953,-7.639068106396258,0.6390681063962583,-9.963389653487852
12.846394802598702,-7.701981593472939,0.7019815934729391,-9.927439089444034
12.854393803098452,-7.7648950805496195,0.7648950805496197,-9.891488525400217
12.862392803598203,-7.827808567626314,0.8278085676263145,-9.855537961356392
12.870391804097952,-7.890722054702995,0.8907220547029953,-9.819587397312574
12.878390804597702,-7.953635541779676,0.9536355417796759,-9.783636833268757
12.886389805097453,-8.016549028856371,1.0165490288563706,-9.74768626922493
12.894388805597202,-8.07946251593305,1.0794625159330513,-9.711735705181113
12.902387806096954,-10.81634182908629,3.007196401802021,-5.267316341827416
12.910386806596703,-11.19781109445275,4.961859070464833,-4.28083958020989
12.918385807096453,-11.069827086456757,5.289818090954561,-4.256842578710642
12.926384807596204,-10.941843078460737,5.617777111444362,-4.232845577211388
12.934383808095953,-10.813859070464746,5.9457361319340905,-4.20884857571214
12.942382808595704,-10.685875062468725,6.273695152423892,-4.184851574212886
12.950381809095454,-10.557891054472734,6.60165417291362,-4.160854572713638
12.958380809595203,-10.429907046476742,6.929613193403348,-4.136857571214389
12.966379810094955,-10.301923038480723,7.25757221389315,-4.112860569715135
12.974378810594704,-10.17393903048473,7.585531234382878,-4.088863568215887
12.982377811094453,-10.045955022488739,7.913490254872606,-4.064866566716638
12.990376811594205,-9.917971014492718,8.241449275362408,-4.040869565217385
12.998375812093954,-9.789987006496727,8.569408295852135,-4.016872563718136
13.006374812593705,-8.116791604196223,8.562518740629434,-2.970914542727545
13.014373813093455,-6.849175412293638,9.06721639180424,-2.302948525737031
13.022372813593204,-6.205395986217426,7.195585102185743,-0.9980378231936634
13.030371814092955,-6.321170993450666,7.1008600962676365,-0.9559378205633942
13.038370814592705,-6.436946000683881,7.006135090349552,-0.9138378179331341
13.046369815092456,-6.552721007917121,6.911410084431446,-0.8717378153028649
13.054368815592206,-6.668496015150336,6.816685078513361,-0.829637812672605
13.062367816091955,-6.784271022383551,6.721960072595277,-0.787537810042345
13.070366816591706,-6.900046029616792,6.62723506667717,-0.7454378074120758
13.078365817091456,-7.0158210368500065,6.532510060759085,-0.7033378047818157
13.086364817591205,-7.131596044083222,6.437785054841001,-0.6612378021515558
13.094363818090956,-7.2473710513164615,6.3430600489228945,-0.6191377995212866
13.102362818590706,-7.39115442278838,2.157671164417703,1.4302348825587834
13.110361819090457,-5.721471082640513,1.4865805733496793,1.9053677706601282
13.118360819590206,-5.794189269001873,1.4411317068738299,1.923547317250468
13.126359820089956,-5.866907455363232,1.3956828403979804,1.9417268638408078
13.134358820589707,-5.939625641724607,1.3502339739221207,1.9599064104311517
13.142357821089456,-6.0123438280859665,1.3047851074462713,1.9780859570214915
13.150356821589208,-6.085062014447342,1.2593362409704116,1.9962655036118353
13.158355822088957,-6.157780200808701,1.2138873744945622,2.014445050202175
13.166354822588707,-6.23049838717006,1.1684385080187125,2.032624596792515
13.174353823088458,-6.303216573531436,1.1229896415428529,2.0508041433828588
13.182352823588207,-6.375934759892795,1.0775407750670034,2.068983689973199
13.190351824087957,-6.448652946254154,1.0320919085911537,2.0871632365635384
13.198350824587708,-6.029835082458415,0.5592203898047639,2.335082458770793
13.206349825087457,-5.6197901049489,1.4699650174914833,3.4052973513223908
13.214348825587209,-6.4,1.4323952059057847,2.2097512647184994
13.222347826086958,-6.4,1.2499618611746555,2.1115179252478913
13.230346826586707,-6.4,1.067528516443526,2.013284585777283
13.238345827086459,-6.4,0.8850951717123564,1.9150512463066534
13.246344827586208,-6.4,0.7026618269812271,1.8168179068360453
13.25434382808596,-6.4,0.5202284822500574,1.7185845673654154
13.262342828585709,-6.4,0.3377951375189281,1.6203512278948073
13.270341829085458,-6.4,0.15536179278779882,1.5221178884241993
13.27834082958521,-6.4,-0.027071551943371075,1.4238845489535694
13.286339830084959,-6.4,-0.20950489667450034,1.3256512094829613
13.294338830584708,-6.4,-0.3919382414056296,1.2274178700123533
13.30233783108446,-6.4,-0.5743715861367993,1.1291845305417234
13.310336831584209,-6.4,-0.7568049308679288,1.0309511910711153
13.31833583208396,-6.4,-0.9392382755990982,0.9327178516004855
13.32633483258371,-8.517191404298265,-0.8330334832581342,5.749325337330802
13.334333833083459,-8.994436115275672,-0.6290225257741784,4.929624076850448
13.34233283358321,-8.861119440279818,-0.7919651285468876,4.84074629351988
13.35033183408296,-8.727802765283995,-0.9549077313195606,4.751868510189331
13.358330834582711,-8.594486090288143,-1.1178503340922696,4.662990726858762
13.36632983508246,-8.46116941529232,-1.2807929368649429,4.574112943528213
13.37432883558221,-8.327852740296496,-1.4437355396376157,4.485235160197664
13.382327836081961,-8.163938030984244,-1.598360819590193,4.493433283359003
13.39032683658171,-7.284047976011786,-1.558365817091445,6.773148425787642
13.39832583708146,-6.40415792103933,-1.5183708145926968,9.052863568216281
13.406324837581211,-6.1050974512731715,-2.34267866066748,13.856046976514227
13.41432383808096,-5.583484394166535,-1.475161850892716,14.716645086547636
13.422322838580712,-5.456227568034128,-1.338815251465137,14.73482463313798
13.430321839080461,-5.328970741901749,-1.2024686520375885,14.753004179728322
13.43832083958021,-5.20171391576937,-1.06612205261004,14.771183726318661
13.446319840079962,-5.074457089636963,-0.9297754531824611,14.789363272909005
13.454318840579711,-4.947200263504585,-0.7934288537549126,14.807542819499345
13.462317841079463,-4.819943437372178,-0.6570822543273337,14.825722366089689
13.470316841579212,-4.692686611239799,-0.5207356548997852,14.843901912680028
13.478315842078961,-4.565429785107421,-0.3843890554722367,14.86208145927037
13.486314842578713,-4.438172958975014,-0.2480424560446577,14.880261005860712
13.494313843078462,-4.310916132842635,-0.11169585661710912,14.898440552451053
13.502312843578212,3.006608124509176,-4.393391875490824,11.32510792222934
13.510311844077963,3.029462411651322,-4.370537588348678,11.066092667951683
13.518310844577712,3.0523166987934633,-4.347683301206537,10.807077413674081
13.526309845077463,3.0751709859356096,-4.324829014064391,10.548062159396425
13.534308845577213,3.098025273077751,-4.301974726922249,10.289046905118825
13.542307846076962,3.1208795602198918,-4.279120439780108,10.030031650841224
13.550306846576714,3.143733847362038,-4.256266152637962,9.771016396563567
13.558305847076463,3.1665881345041793,-4.23341186549582,9.512001142285968
13.566304847576214,3.1894424216463255,-4.210557578353674,9.25298588800831
13.574303848075964,3.212296708788467,-4.187703291211533,8.99397063373071
13.582302848575713,3.2351509959306077,-4.164849004069392,8.73495537945311
13.590301849075464,3.258005283072754,-4.141994716927245,8.475940125175452
13.598300849575214,3.2808595702148953,-4.119140429785104,8.216924870897852
13.606299850074963,1.415217391302888,-4.61994002998541,8.51994002998541
13.614298850574714,-2.992528735636113,-1.970114942528553,8.16724137930678
13.622297851074464,-4.423180515005646,-1.6183285550207018,7.081671444979298
13.630296851574215,-4.338980509745108,-1.3095952023987274,7.390404797601272
13.638295852073965,-4.254780504484588,-1.000861849776821,7.699138150223179
13.646294852573714,-4.170580499224068,-0.6921284971549149,8.007871502845084
13.654293853073465,-4.086380493963529,-0.3833951445329402,8.316604855467059
13.662292853573215,-4.002180488703009,-0.07466179191103395,8.625338208088966
13.670291854072966,-3.9179804834424705,0.23407156071094093,8.93407156071094
13.678290854572715,-6.01914171119574,4.699005625392429,5.110440933379494
13.686289855072465,-6.545571658615152,4.6716586151368755,5.39758454106281
13.694288855572216,-7.07200160603468,4.644311604881316,5.684728148746189
13.702287856071965,-7.598431553454092,4.616964594625761,5.971871756429505
13.710286856571715,-8.124861500873504,4.589617584370208,6.259015364112821
13.718285857071466,-8.651291448293033,4.562270574114648,6.5461589717962
13.726284857571216,-9.177721395712444,4.534923563859094,6.833302579479516
13.734283858070967,-9.704151343131972,4.507576553603534,7.120446187162894
13.742282858570716,-10.230581290551385,4.4802295433479795,7.40758979484621
13.750281859070466,-10.757011237970797,4.452882533092426,7.6947334025295255
13.758280859570217,-11.283441185390325,4.425535522836866,7.981877010212905
13.766279860069966,-11.809871132809736,4.398188512581312,8.26902061789622
13.774278860569718,-12.336301080229266,4.370841502325752,8.5561642255796
13.782277861069467,-12.862731027648676,4.3434944920701986,8.843307833262916
13.790276861569216,-13.389160975068087,4.316147481814644,9.130451440946231
13.798275862068968,-13.606403940886633,4.463793103448392,9.83817733990186
13.806274862568717,-13.37786106946521,4.863743128435883,11.152298850575043
13.814273863068466,-12.796316448517178,4.857783467816615,11.842953242479949
13.822272863568218,-12.032366962585886,4.642080083553662,12.21144652392916
13.830271864067967,-11.268417476654763,4.426376699290756,12.579939805378292
13.838270864567718,-10.50446799072347,4.210673315027803,12.948433086827503
13.846269865067468,-9.740518504792348,3.994969930764898,13.316926368276633
13.854268865567217,-8.976569018861223,3.779266546501993,13.685419649725763
13.862267866066968,-8.212619532929931,3.5635631622390394,14.053912931174974
13.870266866566718,-7.448670046998808,3.347859777976134,14.422406212624104
13.87826586706647,-6.6847205610675156,3.132156393713181,14.790899494073315
13.886264867566219,-5.920771075136393,2.9164530094502754,15.159392775522445
13.894263868065968,-5.15682158920527,2.7007496251873704,15.527886056971575
13.90226286856572,0.5712143928058033,1.3211394302843327,9.476211894050419
13.910261869065469,-2.397619372132104,4.697321793648618,9.695536322747694
13.918260869565218,-2.3249011857707447,4.615513833992088,9.559189723320145
13.92625987006497,-2.2521829994093694,4.533705874335541,9.422843123892568
13.934258870564719,-2.17946481304801,4.451897914679011,9.286496524465019
13.94225787106447,-2.106746626686635,4.370089955022464,9.15014992503744
13.95025687156422,-2.0340284403252755,4.288281995365935,9.01380332560989
13.958255872063969,-1.9613102539639162,4.206474035709406,8.877456726182343
13.96625487256372,-1.888592067602541,4.124666076052859,8.741110126754764
13.97425387306347,-1.8158738812411817,4.04285811639633,8.604763527327215
13.98225287356322,-1.7431556948798064,3.9610501567397822,8.468416927899636
13.99025187406297,-1.670437508518447,3.879242197083253,8.332070328472089
13.99825087456272,-1.7254372813600103,4.979110444784095,7.974212893551981
14.00624987506247,-1.447511244377657,5.237556221888285,9.619960019990552
14.01424887556222,-0.7080316984364995,2.2374812593703313,8.297322767187834
14.02224787606197,-0.7365995573641763,2.370797934366156,8.287800147545274
14.030246876561721,-0.7651674162918592,2.50411460936201,8.278277527902715
14.03824587706147,-0.793735275219536,2.637431284357835,8.268754908260155
14.046244877561222,-0.822303134147219,2.770747959353689,8.259232288617595
14.054243878060971,-0.8508709930748958,2.904064634349514,8.249709668975035
14.06224287856072,-0.8794388520025724,3.0373813093453386,8.240187049332476
14.070241879060472,-0.9080067109302555,3.1706979843411927,8.230664429689915
14.078240879560221,-0.9365745698579322,3.3040146593370174,8.221141810047355
14.086239880059972,-0.9651424287856153,3.437331334332871,8.211619190404795
14.094238880559722,-0.993710287713292,3.5706480093286963,8.202096570762235
14.102237881059471,-2.2475762118942995,4.669351038766543,10.427814664096964
14.110236881559223,-1.7331461928609944,4.710861590481326,9.78300583750674
14.118235882058972,-1.6310312928641921,4.57470839048559,9.604304762512337
14.126234882558721,-1.5289163928673903,4.438555190489853,9.425603687517933
14.134233883058473,-1.4268014928705655,4.302401990494087,9.24690261252349
14.142232883558222,-1.3246865928737634,4.166248790498352,9.068201537529086
14.150231884057973,-1.2225716928769388,4.030095590502585,8.889500462534643
14.158230884557723,-1.1204567928801366,3.893942390506849,8.71079938754024
14.166229885057472,-1.0183418928833348,3.757789190511113,8.532098312545836
14.174228885557223,-0.9162269928865099,3.6216359905153466,8.353397237551393
14.182227886056973,-0.8141120928897079,3.485482790519611,8.17469616255699
14.190226886556724,-0.7119971928928832,3.3493295905238445,7.995995087562545
14.198225887056473,-0.6098822928960812,3.2131763905281083,7.8172940125681425
14.206224887556223,-0.7757405081243414,3.1218931075002927,7.917160338749561
14.214223888055974,-0.9703107905507181,3.035417426421903,8.046873860367146
14.222222888555724,-1.1648810729770518,2.9489417453435327,8.176587381984701
14.230221889055473,-1.3594513554033851,2.862466064265162,8.306300903602256
14.238220889555224,-1.3889555222388081,3.2441779110447673,8.733133433283577
14.246219890054974,-1.3565444550452173,4.108900095406956,8.943455544954784
14.254218890554725,-1.4116345441737064,4.484487274435058,8.892243637217529
14.262217891054474,-1.4405465941728006,4.445937874436265,8.872968937218133
14.270216891554224,-1.469458644171895,4.407388474437473,8.853694237218736
14.278215892053975,-1.4983706941709958,4.3688390744386725,8.834419537219336
14.286214892553724,-1.52728274417009,4.3302896744398796,8.81514483721994
14.294213893053476,-1.5561947941691907,4.291740274441079,8.79587013722054
14.302212893553225,-1.5851068441682852,4.253190874442287,8.776595437221143
14.310211894052975,-1.6140188941673794,4.214641474443494,8.757320737221747
14.318210894552726,-1.6429309441664801,4.176092074444693,8.738046037222347
14.326209895052475,-1.6718429941655744,4.137542674445901,8.71877133722295
14.334208895552226,-1.6791104447773262,4.120889555222673,8.710444777611336
14.342207896051976,-1.1172556578853794,3.215098700649707,8.697843042764326
14.350206896551725,-1.2315270935960838,3.3150862068965736,8.68355911330049
14.358205897051477,-1.3457985293068135,3.415073713143462,8.669275183836648
14.366204897551226,-1.460069965017518,3.5150612193903283,8.65499125437281
14.374203898050975,-1.5743414007282224,3.6150487256371946,8.640707324908972
14.382202898550727,-1.688612836438952,3.715036231884083,8.62642339544513
14.390201899050476,-1.8028842721496565,3.8150237381309493,8.612139465981292
14.398200899550227,-1.7598950524735144,3.8599700149924328,8.7200899550227
14.406199900049977,-1.7900049975011862,3.740079960018979,9.810044977510676
14.414198900549726,-1.6929557948298561,2.4056630775521586,8.985911589659713
14.422197901049477,-1.6838660215346843,2.5420096769797347,8.967732043069368
14.430196901549227,-1.6747762482395145,2.6783562764072806,8.94955249647903
14.438195902048978,-1.665686474944343,2.8147028758348567,8.931372949888686
14.446194902548728,-1.6565967016491732,2.9510494752624026,8.913193403298347
14.454193903048477,-1.6475069283540034,3.0873960746899485,8.895013856708008
14.462192903548228,-1.6384171550588318,3.223742674117524,8.876834310117664
14.470191904047978,-1.629327381763662,3.3600892735450705,8.858654763527325
14.478190904547727,-1.6202376084684924,3.496435872972616,8.840475216936985
14.486189905047478,-1.6111478351733206,3.632782472400192,8.82229567034664
14.494188905547228,-1.6020580618781508,3.769129071827738,8.804116123756302
14.502187906046979,-2.1,3.003023488255226,9.203023488255226
14.510186906546728,-2.115455713003717,2.84636713901115,9.0
14.518185907046478,-2.132657864616081,2.897973593848243,9.0
14.526184907546229,-2.149860016228449,2.949580048685348,9.0
14.534183908045978,-2.1670621678408137,3.001186503522441,9.0
14.54218290854573,-2.184264319453182,3.0527929583595457,9.0
14.55018190904548,-2.2014664710655465,3.104399413196639,9.0
14.558180909545229,-2.2186686226779107,3.156005868033732,9.0
14.56617991004498,-2.235870774290279,3.207612322870837,9.0
14.57417891054473,-2.2530729259026434,3.25921877770793,9.0
14.582177911044479,-2.2702750775150076,3.310825232545023,9.0
14.59017691154423,-2.2874772291273757,3.362431687382128,9.0
14.59817591204398,-1.6604197901048108,4.4252373813090875,9.273613193403207
14.60617491254373,-2.2736862751418925,1.9102416533668736,9.310241653366875
14.61417391304348,-1.9554464703131509,1.93604488078542,9.33604488078542
14.62217291354323,-1.6372066654844097,1.9618481082039667,9.361848108203967
14.63017191404298,-1.3189668606555975,1.9876513356225192,9.38765133562252
14.63817091454273,-1.0007270558268562,2.0134545630410656,9.413454563041066
14.646169915042481,-0.6824872509980442,2.039257790459618,9.439257790459619
14.65416891554223,-0.36424744616930305,2.0650610178781648,9.465061017878165
14.66216791604198,-0.046007641340561456,2.090864245296711,9.490864245296711
14.670166916541731,0.2722321634882503,2.1166674727152635,9.516667472715264
14.67816591704148,0.5904719683169919,2.1424707001338104,9.54247070013381
14.68616491754123,0.908711773145733,2.168273927552357,9.568273927552356
14.694163918040982,1.2269515779745452,2.194077154970909,9.59407715497091
14.702162918540731,-1.3779485257374453,3.5418540729634698,9.229072963518265
14.710161919040482,-2.5138730634682758,3.872253873063449,9.304624354489427
14.718160919540232,-2.5405363984674403,3.818927203065119,9.313512132822481
14.726159920039981,-2.5671997334666052,3.765600533066789,9.322399911155536
14.734158920539732,-2.593863068465776,3.7122738630684475,9.331287689488592
14.742157921039482,-2.620526403464941,3.658947193070118,9.340175467821648
14.750156921539233,-2.6471897384641117,3.605620523071776,9.349063246154705
14.758155922038982,-2.6738530734632766,3.5522938530734467,9.35795102448776
14.766154922538732,-2.700516408462441,3.498967183075117,9.366838802820814
14.774153923038483,-2.727179743461612,3.4456405130767753,9.375726581153872
14.782152923538233,-2.753843078460777,3.392313843078446,9.384614359486926
14.790151924037982,-2.7805064134599418,3.338987173080116,9.393502137819981
14.798150924537733,-3.2345993669823114,4.384907546226688,9.07987672830225
14.806149925037483,-2.8762908868146533,4.366129838306648,9.4
14.814148925537234,-2.8160833561713643,4.280119080244806,9.4
14.822147926036983,-2.755875825528089,4.194108322182984,9.4
14.830146926536733,-2.6956682948848134,4.108097564121163,9.4
14.838145927036484,-2.635460764241525,4.022086806059321,9.4
14.846144927536233,-2.5752532335982496,3.936076047997499,9.4
14.854143928035985,-2.5150457029549607,3.8500652899356584,9.4
14.862142928535734,-2.4548381723116854,3.7640545318738363,9.4
14.870141929035483,-2.39463064166841,3.678043773812014,9.4
14.878140929535235,-2.3344231110251212,3.592033015750173,9.4
14.886139930034984,-2.274215580381846,3.5060222576883513,9.4
14.894138930534734,-2.2140080497385703,3.420011499626529,9.4
14.902137931034485,-0.8284482758621241,2.809482758620708,9.4
14.910136931534234,-1.0284232883558526,2.8761410961186176,9.4
14.918135932033985,-1.122996710599934,2.9306622807999116,9.384668859600044
14.926134932533735,-1.1588131307480656,2.978417507664087,9.360791246167956
14.934133933033484,-1.1946295508961973,3.026172734528263,9.336913632735868
14.942132933533236,-1.230445971044337,3.073927961392449,9.313036019303775
14.950131934032985,-1.2662623911924686,3.1216831882566245,9.289158405871687
14.958130934532736,-1.3020788113406083,3.169438415120811,9.265280792439594
14.966129935032486,-1.33789523148874,3.2171936419849865,9.241403179007506
14.974128935532235,-1.3737116516368717,3.2649488688491624,9.217525565575418
14.982127936031986,-0.8063968015993489,2.780809595201953,9.196801599200326
14.990126936531736,0.28807325309306797,3.0801220884884466,9.20397558230231
14.998125937031485,0.24321904468325845,3.0053650744720977,9.218926985105579
15.006124937531236,0.19836483627343898,2.930608060455732,9.233878387908852
15.014123938030986,0.15351062786362948,2.8558510464393825,9.248829790712122
15.022122938530737,0.10865641945381002,2.7810940324230167,9.263781193515396
15.030121939030487,0.06380221104400052,2.7063370184066677,9.278732596318665
15.038120939530236,0.018948002634191052,2.6315800043903184,9.293683999121937
15.046119940029987,-0.02590620577562841,2.556822990373953,9.30863540192521
15.054118940529737,-0.07076041418543794,2.4820659763576036,9.32358680472848
15.062117941029488,-0.1156146225952574,2.407308962341238,9.338538207531753
15.070116941529237,-0.16046883100506687,2.3325519483248884,9.353489610335023
15.078115942028987,-0.20532303941487634,2.2577949343085395,9.368441013138293
15.086114942528738,-0.2501772478246958,2.1830379202921737,9.383392415941566
15.094113943028487,-0.2950314562345054,2.1082809062758248,9.398343818744836
15.102112943528237,-3.008115213226721,2.91391179410295,9.198840683824754
15.110111944027988,-3.0664412585374077,3.0138993003498418,9.190508391637513
15.118110944527738,-3.124767303848082,3.1138868065967116,9.182176099450274
15.126109945027489,-3.183093349158769,3.2138743128436036,9.173843807263033
15.134108945527238,-3.241419394469443,3.3138618190904734,9.165511515075794
15.142107946026988,-3.299745439780117,3.413849325337343,9.157179222888555
15.150106946526739,-3.358071485090804,3.513836831584235,9.148846930701314
15.158105947026488,-3.416397530401478,3.613824337831105,9.140514638514073
15.16610494752624,-3.474723575712165,3.713811844077997,9.132182346326832
15.174103948025989,-3.5330496210228395,3.813799350324867,9.123850054139593
15.182102948525738,-3.591375666333513,3.913786856571736,9.115517761952354
15.19010194902549,-3.6497017116442003,4.013774362818628,9.107185469765113
15.198100949525239,-3.039430284856299,4.044952523738025,8.934857571214074
15.206099950024988,-3.459970014993025,4.129985007496512,8.683325004164729
15.21409895052474,-1.88739146910058,3.8414435639323017,9.486486976292069
15.22209795102449,-1.6676387081184507,3.7271721282215946,9.460116644974214
15.23009695152424,-1.4478859471362728,3.6129006925108618,9.433746313656352
15.23809595202399,-1.2281331861541436,3.4986292568001547,9.407375982338497
15.24609495252374,-1.0083804251720143,3.3843578210894476,9.381005651020642
15.25409395302349,-0.7886276641898364,3.2700863853787148,9.35463531970278
15.26209295352324,-0.5688749032077072,3.1558149496680077,9.328264988384925
15.270091954022991,-0.34912214222552906,3.0415435139572753,9.301894657067063
15.27809095452274,-0.1293693812433998,2.9272720782465678,9.275524325749208
15.28608995502249,0.09038337973872945,2.8130006425358607,9.249153994431351
15.294088955522241,0.31013614072090734,2.6987292068251283,9.222783663113491
15.30208795602199,0.39511355433382933,1.8117274695988097,9.399022710866767
15.31008695652174,-0.04927536231890062,2.878260869565362,9.31014492753622
15.318085957021491,-0.49366427897172926,3.944794269532151,9.221267144205653
15.32608495752124,-0.7049130607110434,3.906243430009079,9.304913060711042
15.334083958020992,-0.8428268624308924,3.520084785193501,9.442826862430891
15.342082958520741,-0.9807406641507108,3.13392614037801,9.58074066415071
15.35008195902049,-1.1,2.7809926118021906,9.698537893215553
15.358080959520242,-1.1,2.640469630049804,9.687728433080753
15.366079960019992,-1.1,2.4999466482974486,9.676918972945957
15.374078960519743,-1.1,2.359423666545062,9.666109512811158
15.382077961019492,-1.1,2.2189006847927066,9.655300052676361
15.390076961519242,-1.1,2.078377703040351,9.644490592541565
15.398075962018993,-1.1,1.9378547212879647,9.633681132406766
15.406074962518742,-1.1,1.7973317395356092,9.62287167227197
15.414073963018492,-1.1,1.656808757783254,9.612062212137173
15.422072963518243,-1.1,1.5162857760308674,9.601252752002374
15.430071964017992,-0.5734846862283773,1.6121225101729806,9.38674234311419
15.438070964517744,-0.24754029235384814,1.1950805847076964,9.960383089705127
15.446069965017493,-0.3225309220389991,1.3450618440779982,9.897890898300835
15.454068965517243,-0.39752155172415005,1.4950431034483,9.835398706896541
15.462067966016994,-0.47251218140931767,1.6450243628186352,9.772906515492235
15.470066966516743,-0.5475028110944686,1.795005622188937,9.710414324087942
15.478065967016494,-0.6224934407796363,1.9449868815592724,9.647922132683636
15.486064967516244,-0.6974840704647872,2.0949681409295744,9.585429941279344
15.494063968015993,-0.7724747001499381,2.244949400299876,9.522937749875052
15.502062968515745,-0.6251874062975472,2.2811094452768392,9.78110944527684
15.510061969015494,-0.9578389909522758,1.9262182341664826,9.521080504523862
15.518060969515243,-0.9100837640881001,1.8426465871541753,9.54495811795595
15.526059970014995,-0.8623285372239138,1.7590749401418493,9.568835731388043
15.534058970514744,-0.8145733103597381,1.675503293129542,9.592713344820131
15.542057971014495,-0.7668180834955519,1.591931646117216,9.616590958252223
15.550056971514245,-0.7190628566313763,1.5083599991049086,9.64046857168431
15.558055972013994,-0.6713076297672006,1.4247883520926012,9.664346185116399
15.566054972513745,-0.6235524029030144,1.3412167050802752,9.688223798548492
15.574053973013495,-0.6423288355825929,1.9,9.32073963018437
15.582052973513246,-0.8058774779277056,1.8764900882891777,9.14114234549394
15.590051974012995,-0.8125433116774967,1.849826753290013,9.187803181742478
15.598050974512745,-0.819209145427288,1.8231634182908485,9.234464017991014
15.606049975012496,-0.8258749791770805,1.796500083291678,9.281124854239563
15.614048975512246,-0.8325408129268717,1.7698367482925135,9.327785690488101
15.622047976011995,-0.8392066466766628,1.7431734132933487,9.374446526736639
15.630046976511746,-0.8458724804264555,1.7165100782941782,9.421107362985188
15.638045977011496,-0.8525383141762466,1.6898467432950137,9.467768199233726
15.646044977511247,-0.8592041479260393,1.6631834082958432,9.514429035482275
15.654043978010996,-0.8658699816758304,1.6365200732966787,9.561089871730813
15.662042978510746,-0.8725358154256215,1.609856738297514,9.607750707979351
15.670041979010497,-0.8792016491754141,1.5831934032983437,9.6544115442279
15.678040979510246,-0.8858674829252053,1.556530068299179,9.701072380476438
15.686039980009998,-0.8925333166749979,1.5298667333000084,9.747733216724987
15.694038980509747,-0.899199150424789,1.503203398300844,9.794394052973523
15.702037981009497,-0.416315074785843,1.6959212313035392,9.504078768696461
15.710036981509248,-0.44863426872423173,1.687841432818942,9.512158567181057
15.718035982008997,-0.48095346266261324,1.6797616343343467,9.520238365665653
15.726034982508747,-0.5132726566009947,1.6716818358497514,9.52831816415025
15.734033983008498,-0.5455918505393835,1.663602037365154,9.536397962634846
15.742032983508247,-0.577911044477765,1.6555222388805588,9.544477761119442
15.750031984007999,-0.6102302384161538,1.6474424403959615,9.552557559604038
15.758030984507748,-0.6425494323545352,1.6393626419113663,9.560637358088634
15.766029985007497,-0.6748686262929167,1.6312828434267708,9.568717156573229
15.774028985507249,-0.7071878202313054,1.6232030449421737,9.576796955057826
15.782027986006998,-0.7395070141696869,1.6151232464575784,9.58487675354242
15.79002698650675,-0.7718262081080757,1.6070434479729812,9.592956552027019
15.798025987006499,-0.6461019490251936,1.702598700649871,9.651299350324935
15.806024987506248,-0.596693588689521,1.7022042742069858,9.702204274206986
15.814023988006,-0.5708903612709687,1.7194064258193542,9.719406425819354
15.822022988505749,-0.5450871338524221,1.7366085774317186,9.736608577431719
15.830021989005498,-0.5192839064338756,1.753810729044083,9.753810729044083
15.83802098950525,-0.4934806790153232,1.7710128806564511,9.771012880656452
15.846019990004999,-0.46767745159677665,1.7882150322688155,9.788215032268816
15.85401899050475,-0.4418742241782243,1.8054171838811837,9.805417183881184
15.8620179910045,-0.41607099675967774,1.822619335493548,9.822619335493549
15.870016991504249,-0.3902677693411311,1.8398214871059124,9.839821487105912
15.878015992004,-0.3644645419225788,1.8570236387182808,9.857023638718282
15.88601499250375,-0.3386613145040322,1.8742257903306452,9.874225790330646
15.894013993003501,-0.31285808708547985,1.8914279419430133,9.891427941943014
15.90201299350325,-0.5,1.3434140072821694,9.628942671521447
15.910011994003,-0.5044219648417589,1.608843929683518,9.80442196484176
15.918010994502751,-0.5220021857203329,1.6440043714406658,9.822002185720333
15.9260099950025,-0.5395824065989028,1.6791648131978056,9.839582406598904
15.93400899550225,-0.5571626274774728,1.7143252549549457,9.857162627477473
15.942007996002001,-0.5747428483560467,1.7494856967120935,9.874742848356048
15.95000699650175,-0.5923230692346166,1.7846461384692334,9.892323069234617
15.958005997001502,-0.6099032901131906,1.8198065802263812,9.90990329011319
15.966004997501251,-0.6274835109917606,1.8549670219835213,9.927483510991761
15.974003998001,-0.6450637318703306,1.8901274637406613,9.94506373187033
15.982002998500752,-0.6626439527489045,1.9252879054978091,9.962643952748905
15.990001999000501,-0.6802241736274744,1.960448347254949,9.980224173627475
15.998000999500253,-0.6978043945060484,1.9956087890120968,9.997804394506048
16.006,-1.2,1.0,10.3
