gyro_time_list,gyro_x_list,gyro_y_list,gyro_z_list
0.0,0.0,0.0,-0.1
0.007996995192307692,0.09995707417582418,0.19991414835164836,-0.1
0.015993990384615384,0.0793310676392573,0.08622071175950487,0.0
0.023990985576923078,0.05175522214854111,0.06783681476569409,0.0
0.03198798076923077,0.02417937665782495,0.049452917771883306,0.0
0.03998497596153846,-0.003396468832891228,0.031069020778072526,0.0
0.047981971153846156,-0.03097231432360742,0.012685123784261731,0.0
0.05597896634615385,-0.0585481598143236,-0.005698773209549063,0.0
0.06397596153846154,-0.08612400530503977,-0.024082670203359843,0.0
0.07197295673076923,-0.11369985079575595,-0.042466567197170624,0.0
0.07996995192307692,-0.14127569628647216,-0.06085046419098142,0.0
0.08796694711538461,-0.16885154177718834,-0.07923436118479218,0.0
0.09596394230769231,-0.19642738726790457,-0.097618258178603,0.0
0.1039609375,-0.09700915404040406,0.0,0.0
0.1119579326923077,-0.08893138111888113,0.0,0.0
0.11995492788461538,-0.0808536081973582,0.0,0.0
0.12795192307692307,-0.07277583527583528,0.0,0.0
0.13594891826923078,-0.06469806235431236,0.0,0.0
0.14394591346153846,-0.05662028943278945,0.0,0.0
0.15194290865384616,-0.048542516511266516,0.0,0.0
0.15993990384615384,-0.040464743589743606,0.0,0.0
0.16793689903846154,-0.032386970668220674,0.0,0.0
0.17593389423076922,-0.024309197746697764,0.0,0.0
0.18393088942307692,-0.01623142482517484,0.0,0.0
0.19192788461538463,-0.008153651903651901,0.0,0.0
0.1999248798076923,-7.587898212899069e-05,0.0,0.0
0.207921875,0.0,0.0,0.0
0.21591887019230768,0.0,0.0,0.0
0.2239158653846154,0.0,0.0,0.0
0.23191286057692306,0.0,0.0,0.0
0.23990985576923077,0.0,0.0,0.0
0.24790685096153844,0.0,0.0,0.0
0.25590384615384615,0.0,0.0,0.0
0.2639008413461538,0.0,0.0,0.0
0.27189783653846156,0.0,0.0,0.0
0.27989483173076923,0.0,0.0,0.0
0.2878918269230769,0.0,0.0,0.0
0.2958888221153846,0.0,0.0,0.0
0.3038858173076923,0.0,0.0,0.0
0.3118828125,0.0,0.0,0.0
0.31987980769230767,-0.1,0.19399038461538326,0.09399038461538325
0.3278768028846154,-0.12953801081730776,0.20984600360576924,0.1
0.3358737980769231,-0.15952674278846152,0.21984224759615384,0.1
0.34387079326923076,-0.18951547475961533,0.22983849158653843,0.1
0.35186778846153843,-0.2195042067307691,0.23983473557692303,0.1
0.35986478365384617,-0.2494929387019231,0.24983097956730768,0.1
0.36786177884615384,-0.2794816706730769,0.2598272235576923,0.1
0.3758587740384615,-0.30947040264423065,0.26982346754807685,0.1
0.38385576923076925,-0.3394591346153847,0.2798197115384615,0.1
0.3918527644230769,-0.3694478665865385,0.28981595552884615,0.1
0.3998497596153846,-0.3994365985576922,0.2998121995192307,0.1
0.4078467548076923,-0.8058938983224221,1.2078585310965628,0.9058938983224221
0.41584375,-0.8314162234042554,1.2418882978723405,0.9314162234042553
0.4238407451923077,-0.8569385484860883,1.2759180646481176,0.9569385484860883
0.43183774038461537,-0.8824608735679214,1.309947831423895,0.9824608735679213
0.43983473557692304,-0.9079831986497544,1.3439775981996724,1.0079831986497543
0.4478317307692308,-0.9335055237315876,1.37800736497545,1.0335055237315875
0.45582872596153845,-0.9590278488134206,1.4120371317512275,1.0590278488134206
0.4638257211538461,-0.9845501738952536,1.4460668985270049,1.0845501738952534
0.47182271634615386,-1.0100724989770868,1.4800966653027823,1.1100724989770867
0.47981971153846154,-1.03559482405892,1.5141264320785597,1.1355948240589198
0.4878167067307692,-1.061117149140753,1.548156198854337,1.1611171491407528
0.4958137019230769,-1.086639474222586,1.5821859656301145,1.1866394742225856
0.5038106971153846,-1.5763371394230772,1.9810697115384617,1.3905348557692307
0.5118076923076923,0.6822898032200359,1.808855098389982,1.904427549194991
0.5198046875,0.6450944767441862,1.827452761627907,1.9137263808139533
0.5278016826923076,0.6078991502683365,1.8460504248658318,1.923025212432916
0.5357986778846153,0.5707038237924869,1.8646480881037566,1.9323240440518783
0.5437956730769231,0.5335084973166366,1.8832457513416818,1.9416228756708407
0.5517926682692308,0.49631317084078697,1.9018434145796066,1.9509217072898033
0.5597896634615385,0.4591178443649373,1.9204410778175314,1.9602205389087657
0.5677866586538461,0.42192251788908763,1.9390387410554561,1.969519370527728
0.5757836538461538,0.38472719141323797,1.957636404293381,1.9788182021466905
0.5837806490384615,0.3475318649373883,1.976234067531306,1.9881170337656529
0.5917776442307692,0.31033653846153864,1.9948317307692307,1.9974158653846152
0.599774639423077,0.07957732371794973,1.6408453525641007,1.8204226762820503
0.6077716346153846,0.07831075174825156,1.4956621503496503,1.786986451048951
0.6157686298076923,0.041960773601398486,1.4883921547202796,1.7651764641608392
0.623765625,0.005610795454545403,1.4811221590909092,1.7433664772727273
0.6317626201923077,-0.03073918269230766,1.4738521634615385,1.7215564903846154
0.6397596153846153,-0.06708916083916075,1.4665821678321678,1.6997465034965036
0.647756610576923,-0.10343913898601384,1.4593121722027973,1.6779365166083917
0.6557536057692308,-0.1397891171328674,1.4520421765734264,1.6561265297202796
0.6637506009615385,-0.17613909527972046,1.444772180944056,1.6343165428321678
0.6717475961538462,-0.21248907342657355,1.4375021853146852,1.612506555944056
0.6797445913461538,-0.24883905157342665,1.4302321896853145,1.590696569055944
0.6877415865384615,-0.2851890297202797,1.422962194055944,1.5688865821678322
0.6957385817307692,-0.32153900786713285,1.4156921984265733,1.5470765952797203
0.7037355769230769,-0.3578889860139859,1.4084222027972026,1.5252666083916084
0.7117325721153847,-0.3942389641608395,1.401152207167832,1.5034566215034963
0.7197295673076923,-0.6243189102564118,1.2504540598290586,1.3504540598290586
0.7277265625,-0.8372656250000003,1.0627343749999998,1.0627343749999998
0.7357235576923077,-0.9111197270471465,1.0027799317617867,0.9944401364764268
0.7437205528846154,-0.9627132444168733,1.0156783111042182,0.9686433777915633
0.751717548076923,-1.0143067617866002,1.02857669044665,0.9428466191066999
0.7597145432692307,-1.0659002791563272,1.0414750697890818,0.9170498604218364
0.7677115384615385,-1.1174937965260547,1.0543734491315138,0.8912531017369727
0.7757085336538462,-1.1690873138957816,1.0672718284739455,0.8654563430521092
0.7837055288461539,-1.2206808312655086,1.0801702078163773,0.8396595843672457
0.7917025240384615,-1.2722743486352355,1.0930685871588088,0.8138628256823823
0.7996995192307692,-1.735961538461533,1.3679807692307666,0.7
0.8076965144230769,-2.375839468149036,1.7,0.5719113080929497
0.8156935096153846,-2.6007549579326894,1.7,0.4886092748397446
0.8236905048076922,-2.825670447716343,1.7,0.40530724158653963
0.8316875,-3.0505859374999993,1.7,0.3220052083333335
0.8396844951923077,-3.275501427283653,1.7,0.2387031750801285
0.8476814903846154,-3.500416917067306,1.7,0.1554011418269235
0.855678485576923,-3.72533240685096,1.7,0.07209910857371848
0.8636754807692307,-3.9502478966346133,1.7,-0.01120292467948647
0.8716724759615384,-4.175163386418267,1.7,-0.09450495793269142
0.8796694711538461,-4.4000788762019205,1.7,-0.17780699118589638
0.8876664663461539,-4.624994365985577,1.7,-0.26110902443910255
0.8956634615384615,-4.84990985576923,1.7,-0.3444110576923076
0.9036604567307692,-1.4602463942308228,-0.2641826923076793,0.04161658653841771
0.9116574519230769,-0.07337019230769248,-0.8201105769230774,0.006657451923076882
0.9196544471153846,-0.04138221153846173,-0.7241466346153852,0.01465444711538457
0.9276514423076923,-0.009394230769230974,-0.628182692307693,0.022651442307692258
0.9356484374999999,0.022593749999999774,-0.5322187500000006,0.030648437499999945
0.9436454326923077,0.05458173076923095,-0.4362548076923071,0.03864543269230774
0.9516424278846154,0.08656971153846171,-0.34029086538461484,0.04664242788461543
0.9596394230769231,0.11855769230769245,-0.2443269230769226,0.05463942307692311
0.9676364182692307,0.1505456730769232,-0.14836298076923038,0.0626364182692308
0.9756334134615384,0.18253365384615397,-0.05239903846153815,0.0706334134615385
0.9836304086538461,0.21452163461538473,0.04356490384615408,0.07863040865384618
0.9916274038461538,0.24650961538461544,0.1395288461538463,0.08662740384615386
0.9996243990384616,0.2784975961538466,0.23549278846153998,0.09462439903846166
1.0076213942307692,0.4810697115384617,0.25679086538461493,0.0
1.0156183894230768,0.2716242958430465,-0.08864971833721859,-0.0943248591686093
1.0236153846153846,0.23123543123543136,-0.07249417249417256,-0.08624708624708628
1.0316123798076924,0.19084656662781624,-0.05633862665112652,-0.07816931332556326
1.039609375,0.15045770202020228,-0.040183080808080925,-0.07009154040404046
1.0476063701923077,0.11006883741258719,-0.02402753496503489,-0.06201376748251745
1.0556033653846153,0.0696799728049732,-0.00787198912198929,-0.05393599456099465
1.063600360576923,0.029291108197358084,0.008283556721056753,-0.045858221639471626
1.0715973557692307,-0.011097756410255899,0.02443910256410234,-0.037780448717948834
1.0795943509615384,-0.05148662101787099,0.04059464840714838,-0.029702675796425812
1.0875913461538462,-0.09187548562548609,0.056750194250194425,-0.02162490287490279
1.0955883413461538,-0.13226435023310007,0.07290574009324002,-0.013547129953379991
1.1035853365384616,-0.17265321484071516,0.08906128593628604,-0.005469357031856983
1.1115823317307691,-0.3,-0.012171782544377393,0.0
1.119579326923077,-0.3,-0.0736871301775147,0.0
1.1275763221153845,-0.1930369672557176,-0.1,0.0
1.1355733173076923,-0.1714234667359668,-0.1,0.0
1.1435703125,-0.14980996621621606,-0.1,0.0
1.1515673076923076,-0.12819646569646592,-0.1,0.0
1.1595643028846154,-0.10658296517671514,-0.1,0.0
1.167561298076923,-0.08496946465696499,-0.1,0.0
1.1755582932692308,-0.06335596413721423,-0.1,0.0
1.1835552884615383,-0.04174246361746409,-0.1,0.0
1.1915522836538461,-0.02012896309771331,-0.1,0.0
1.199549278846154,0.027463942307692755,-0.07253605769230725,0.0
1.2075462740384615,-0.1,0.0,0.0
1.2155432692307693,-0.1,0.0,0.0
1.2235402644230768,-0.1,0.0,0.0
1.2315372596153846,-0.1,0.0,0.0
1.2395342548076922,-0.1,0.0,0.0
1.24753125,-0.1,0.0,0.0
1.2555282451923078,-0.1,0.0,0.0
1.2635252403846153,-0.1,0.0,0.0
1.2715222355769231,-0.1,0.0,0.0
1.2795192307692307,-0.1,0.0,0.0
1.2875162259615385,-0.1,0.0,0.0
1.295513221153846,-0.1,0.0,0.0
1.3035102163461538,0.0,0.1,0.0
1.3115072115384616,0.008249683009298427,0.09175031699070157,0.0
1.3195042067307692,0.017037589814032018,0.08296241018596799,0.0
1.327501201923077,0.025825496618765854,0.07417450338123416,0.0
1.3354981971153845,0.034613403423499445,0.06538659657650056,0.0
1.3434951923076923,0.04340131022823328,0.05659868977176673,0.0
1.3514921874999999,0.05218921703296687,0.04781078296703314,0.0
1.3594891826923077,0.06097712383770071,0.0390228761622993,0.0
1.3674861778846155,0.06976503064243454,0.030234969357565464,0.0
1.375483173076923,0.07855293744716813,0.02144706255283188,0.0
1.3834801682692308,0.08734084425190197,0.012659155748098033,0.0
1.3914771634615384,0.09612875105663556,0.00387124894336445,0.0
1.3994741586538462,0.1,0.0,-0.02629206730768717
1.4074711538461537,0.0948867721063983,0.0948867721063983,-0.005113227893601702
1.4154681490384615,0.08741294482386766,0.08741294482386766,-0.012587055176132346
1.4234651442307693,0.07993911754133701,0.07993911754133701,-0.02006088245866299
1.4314621394230769,0.07246529025880658,0.07246529025880658,-0.027534709741193427
1.4394591346153847,0.06499146297627593,0.06499146297627593,-0.03500853702372407
1.4474561298076922,0.057517635693745496,0.057517635693745496,-0.04248236430625451
1.455453125,0.050043808411214856,0.050043808411214856,-0.04995619158878515
1.4634501201923076,0.04256998112868442,0.04256998112868442,-0.05743001887131559
1.4714471153846154,0.03509615384615378,0.03509615384615378,-0.06490384615384623
1.4794441105769232,0.027622326563623123,0.027622326563623123,-0.07237767343637688
1.4874411057692307,0.02014849928109269,0.02014849928109269,-0.07985150071890731
1.4954381009615385,0.012674671998562051,0.012674671998562051,-0.08732532800143795
1.503435096153846,0.005200844716031605,0.005200844716031605,-0.0947991552839684
1.5114320913461539,0.0,0.0,-0.1
1.5194290865384614,0.0,0.0,-0.08700830419580524
1.5274260817307692,0.0,0.0,-0.01430834790209741
1.535423076923077,0.1,0.1,0.007975113122172015
1.5434200721153846,0.1,0.1,0.019735400169683132
1.5514170673076924,0.1,0.1,0.031495687217194576
1.5594140625,0.1,0.1,0.04325597426470569
1.5674110576923077,0.1,0.1,0.05501626131221713
1.5754080528846153,0.1,0.1,0.06677654835972825
1.583405048076923,0.1,0.1,0.07853683540723969
1.5914020432692306,0.1,0.1,0.0902971224547508
1.5993990384615384,0.09334935897435939,-0.10665064102564062,0.0
1.6073960336538462,-0.0004304713628763227,-0.19956952863712368,0.1
1.6153930288461538,-0.009122857441471495,-0.19087714255852853,0.1
1.6233900240384616,-0.017815243520066908,-0.1821847564799331,0.1
1.6313870192307691,-0.02650762959866208,-0.17349237040133794,0.1
1.639384014423077,-0.035200015677257494,-0.1647999843227425,0.1
1.6473810096153845,-0.04389240175585267,-0.15610759824414733,0.1
1.6553780048076923,-0.05258478783444808,-0.14741521216555192,0.1
1.663375,-0.06127717391304349,-0.13872282608695652,0.1
1.6713719951923076,-0.06996955999163866,-0.13003044000836134,0.1
1.6793689903846154,-0.07866194607023408,-0.12133805392976593,0.1
1.687365985576923,-0.08735433214882925,-0.11264566785117076,0.1
1.6953629807692308,-0.09604671822742467,-0.10395328177257535,0.1
1.7033599759615383,-0.1,-0.03200120192308195,0.1
1.711356971153846,-0.08498577315541604,0.0,0.1
1.719353966346154,-0.06866537480376751,0.0,0.1
1.7273509615384615,-0.052344976452119434,0.0,0.1
1.7353479567307692,-0.0360245781004709,0.0,0.1
1.7433449519230768,-0.019704179748822825,0.0,0.1
1.7513419471153846,-0.003383781397174282,0.0,0.1
1.7593389423076922,0.01293661695447379,0.0,0.1
1.7673359375,0.02925701530612232,0.0,0.1
1.7753329326923077,0.04557741365777085,0.0,0.1
1.7833299278846153,0.061897812009418934,0.0,0.1
1.791326923076923,0.07821821036106746,0.0,0.1
1.7993239182692307,0.09453860871271555,0.0,0.1
1.8073209134615384,-0.00027664953580905827,-0.1,0.0
1.815317908653846,-0.007170610908487988,-0.1,0.0
1.8233149038461538,-0.01406457228116711,-0.1,0.0
1.8313118990384616,-0.020958533653846232,-0.1,0.0
1.8393088942307692,-0.027852495026525162,-0.1,0.0
1.847305889423077,-0.03474645639920428,-0.1,0.0
1.8553028846153845,-0.041640417771883216,-0.1,0.0
1.8632998798076923,-0.04853437914456234,-0.1,0.0
1.8712968749999999,-0.05542834051724126,-0.1,0.0
1.8792938701923076,-0.062322301889920384,-0.1,0.0
1.8872908653846154,-0.06921626326259951,-0.1,0.0
1.895287860576923,-0.07611022463527843,-0.1,0.0
1.9032848557692308,-0.08300418600795756,-0.1,0.0
1.9112818509615384,-0.08989814738063649,-0.1,0.0
1.9192788461538461,-0.0967921087533156,-0.1,0.0
1.9272758413461537,-0.1,0.0,0.0
1.9352728365384615,-0.09134186126373625,0.008658138736263752,0.0
1.9432698317307693,-0.08182162889194128,0.01817837110805873,0.0
1.9512668269230768,-0.07230139652014655,0.027698603479853444,0.0
1.9592638221153846,-0.06278116414835158,0.037218835851648424,0.0
1.9672608173076922,-0.05326093177655687,0.046739068223443134,0.0
1.9752578125,-0.04374069940476189,0.056259300595238114,0.0
1.9832548076923076,-0.034220467032967175,0.06577953296703283,0.0
1.9912518028846153,-0.024700234661172202,0.0752997653388278,0.0
1.9992487980769231,-0.015180002289377229,0.08481999771062278,0.0
2.007245793269231,-0.005659769917582241,0.09434023008241776,0.0
2.0152427884615385,0.0,0.1,0.0
2.023239783653846,-0.007799729567307671,0.1,-0.007799729567307671
2.0312367788461536,-0.017795973557692118,0.1,-0.017795973557692118
2.0392337740384616,-0.027792217548077123,0.1,-0.027792217548077123
2.047230769230769,-0.03778846153846157,0.1,-0.03778846153846157
2.0552277644230768,-0.04778470552884602,0.1,-0.04778470552884602
2.0632247596153848,-0.057780949519231024,0.1,-0.057780949519231024
2.0712217548076923,-0.06777719350961547,0.1,-0.06777719350961547
2.07921875,-0.07777343749999992,0.1,-0.07777343749999992
2.0872157451923075,-0.08776968149038436,0.1,-0.08776968149038436
2.0952127403846155,-0.09776592548076937,0.1,-0.09776592548076937
2.103209735576923,-0.09877804487179478,0.0012219551282052154,-0.09877804487179478
2.1112067307692306,-0.09070027195027201,0.009299728049727993,-0.09070027195027201
2.1192037259615386,-0.08262249902874878,0.01737750097125122,-0.08262249902874878
2.127200721153846,-0.07454472610722601,0.025455273892773998,-0.07454472610722601
2.1351977163461537,-0.06646695318570323,0.03353304681429677,-0.06646695318570323
2.1431947115384613,-0.058389180264180454,0.04161081973581955,-0.058389180264180454
2.1511917067307693,-0.050311407342657224,0.04968859265734278,-0.050311407342657224
2.159188701923077,-0.042233634421134446,0.05776636557886556,-0.042233634421134446
2.1671856971153844,-0.03415586149961167,0.06584413850038834,-0.03415586149961167
2.1751826923076925,-0.026078088578088437,0.07392191142191157,-0.026078088578088437
2.1831796875,-0.018000315656565666,0.08199968434343434,-0.018000315656565666
2.1911766826923076,-0.00992254273504288,0.09007745726495713,-0.00992254273504288
2.199173677884615,-0.0018447698135201085,0.0981552301864799,-0.0018447698135201085
2.207170673076923,0.0,0.1,0.0
2.2151676682692307,0.0,0.1,0.0
2.2231646634615383,0.0,0.1,0.0
2.2311616586538463,0.0,0.1,0.0
2.239158653846154,0.0,0.1,0.0
2.2471556490384614,0.0,0.1,0.0
2.255152644230769,0.0,0.1,0.0
2.263149639423077,0.0,0.1,0.0
2.2711466346153846,0.0,0.1,0.0
2.279143629807692,0.0,0.1,0.0
2.287140625,0.0,0.1,0.0
2.2951376201923077,0.0,0.1,0.0
2.3031346153846153,0.0,0.1,0.0
2.311131610576923,0.0,0.1,0.0
2.319128605769231,0.0,0.1,-0.002627908357074921
2.3271256009615384,0.0,0.1,-0.012500741927825007
2.335122596153846,0.0,0.1,-0.02237357549857509
2.343119591346154,0.0,0.1,-0.03224640906932573
2.3511165865384616,0.0,0.1,-0.04211924264007581
2.359113581730769,0.0,0.1,-0.0519920762108259
2.3671105769230767,0.0,0.1,-0.06186490978157598
2.3751075721153847,0.0,0.1,-0.07173774335232662
2.3831045673076923,0.0,0.1,-0.0816105769230767
2.3911015625,0.0,0.1,-0.09148341049382679
2.399098557692308,0.0,0.1,-0.1
2.4070955528846154,0.0,0.1,0.0
2.415092548076923,0.0,0.1,0.0
2.4230895432692305,0.0,0.1,0.0
2.4310865384615385,0.0,0.1,0.0
2.439083533653846,0.0,0.1,0.0
2.4470805288461537,0.0,0.1,0.0
2.4550775240384617,0.0,0.1,0.0
2.4630745192307693,0.0,0.1,0.0
2.471071514423077,0.0,0.1,0.0
2.4790685096153844,0.0,0.1,0.0
2.4870655048076924,0.0,0.1,0.0
2.4950625,0.0,0.1,0.0
2.5030594951923075,0.0059495192307419285,0.1,0.0
2.5110564903846155,0.1,0.1069866241431837,0.0
2.519053485576923,0.1,0.1149044411652704,0.0
2.5270504807692307,0.1,0.1228222581873571,0.0
2.5350474759615382,0.1,0.1307400752094438,0.0
2.5430444711538462,0.1,0.13865789223153094,0.0
2.551041466346154,0.1,0.14657570925361765,0.0
2.5590384615384614,0.1,0.15449352627570434,0.0
2.5670354567307694,0.1,0.1624113432977915,0.0
2.575032451923077,0.1,0.1703291603198782,0.0
2.5830294471153845,0.1,0.17824697734196487,0.0
2.591026442307692,0.1,0.1861647943640516,0.0
2.5990234375,0.1,0.19408261138613872,0.0
2.6070204326923077,0.1,0.1,0.0
2.615017427884615,0.1,0.1,0.0
2.6230144230769232,0.1,0.1,0.0
2.631011418269231,0.1,0.1,0.0
2.6390084134615384,0.1,0.1,0.0
2.647005408653846,0.1,0.1,0.0
2.655002403846154,0.1,0.1,0.0
2.6629993990384615,0.1,0.1,0.0
2.670996394230769,0.1,0.1,0.0
2.678993389423077,0.1,0.1,0.0
2.6869903846153846,0.1,0.1,0.0
2.694987379807692,0.1,0.1,0.0
2.7029843749999998,0.14973958333332837,0.2,0.0
2.710981370192308,0.2,0.2,0.0
2.7189783653846153,0.2,0.2,0.0
2.726975360576923,0.2,0.2,0.0
2.734972355769231,0.2,0.2,0.0
2.7429693509615385,0.2,0.2,0.0
2.750966346153846,0.2,0.2,0.0
2.7589633413461536,0.2,0.2,0.0
2.7669603365384616,0.2,0.2,0.0
2.774957331730769,0.2,0.2,0.0
2.7829543269230768,0.2,0.2,0.0
2.7909513221153848,0.2,0.2,0.0
2.7989483173076923,0.2,0.2,0.0
2.8069453125,0.39726562499999774,0.2,0.0
2.8149423076923075,0.4,0.2,-0.008824786324786156
2.8229393028846155,0.4,0.2,-0.017710336538461737
2.830936298076923,0.4,0.2,-0.026595886752136824
2.8389332932692306,0.4,0.2,-0.03548143696581191
2.8469302884615386,0.4,0.2,-0.04436698717948749
2.854927283653846,0.4,0.2,-0.05325253739316258
2.8629242788461537,0.4,0.2,-0.062138087606837665
2.8709212740384613,0.4,0.2,-0.07102363782051276
2.8789182692307693,0.4,0.2,-0.07990918803418834
2.886915264423077,0.4,0.2,-0.08879473824786342
2.8949122596153845,0.4,0.2,-0.0976802884615385
2.9029092548076925,0.39836170304920304,0.3,-0.1
2.91090625,0.3839527027027029,0.3,-0.1
2.9189032451923076,0.3695437023562027,0.3,-0.1
2.926900240384615,0.3551347020097026,0.3,-0.1
2.934897235576923,0.34072570166320165,0.3,-0.1
2.9428942307692307,0.3263167013167015,0.3,-0.1
2.9508912259615383,0.3119077009702014,0.3,-0.1
2.9588882211538463,0.2974987006237004,0.3,-0.1
2.966885216346154,0.28308970027720026,0.3,-0.1
2.9748822115384614,0.2686806999307001,0.3,-0.1
2.982879206730769,0.25427169958419993,0.3,-0.1
2.990876201923077,0.239862699237699,0.3,-0.1
2.9988731971153846,0.22545369889119884,0.3,-0.1
3.006870192307692,0.2110446985446987,0.3,-0.1
3.0148671875,0.013281249999995304,0.3,-0.1
3.0228641826923077,0.0,0.3,-0.1
3.0308611778846153,-0.10648157051282064,0.2,-0.2
3.038858173076923,-0.1171442307692307,0.2,-0.2
3.046855168269231,-0.12780689102564136,0.2,-0.2
3.0548521634615384,-0.1384695512820514,0.2,-0.2
3.062849158653846,-0.14913221153846148,0.2,-0.2
3.070846153846154,-0.15979487179487212,0.2,-0.2
3.0788431490384616,-0.1704575320512822,0.2,-0.2
3.086840144230769,-0.18112019230769227,0.2,-0.2
3.0948371394230767,-0.19178285256410232,0.2,-0.2
3.1028341346153847,-0.10829326923077374,0.29170673076922626,-0.2
3.1108311298076923,0.0,0.2,-0.2070424018636002
3.118828125,0.0,0.2,-0.21528672680412347
3.1268251201923074,0.0,0.2,-0.2235310517446467
3.1348221153846154,0.0,0.2,-0.23177537668517045
3.142819110576923,0.0,0.2,-0.24001970162569372
3.1508161057692305,0.0,0.2,-0.248264026566217
3.1588131009615386,0.0,0.2,-0.2565083515067407
3.166810096153846,0.0,0.2,-0.26475267644726397
3.1748070913461537,0.0,0.2,-0.27299700138778726
3.1828040865384613,0.0,0.2,-0.2812413263283105
3.1908010817307693,0.0,0.2,-0.2894856512688342
3.198798076923077,0.0,0.2,-0.2977299762093575
3.2067950721153844,0.2,0.3,-0.2
3.2147920673076924,0.18359564777327889,0.29179782388663944,-0.2
3.2227890625,0.16675986842105245,0.2833799342105262,-0.2
3.2307860576923075,0.14992408906882604,0.27496204453441303,-0.2
3.238783052884615,0.13308830971659963,0.2665441548582998,-0.2
3.246780048076923,0.11625253036437226,0.2581262651821861,-0.2
3.2547770432692307,0.09941675101214584,0.24970837550607292,-0.2
3.2627740384615382,0.08258097165991943,0.2412904858299597,-0.2
3.2707710336538462,0.06574519230769207,0.23287259615384603,-0.2
3.278768028846154,0.048909412955465636,0.22445470647773286,-0.2
3.2867650240384614,0.03207363360323923,0.21603681680161962,-0.2
3.294762019230769,0.015237854251012817,0.20761892712550642,-0.2
3.302759014423077,0.0,0.23036057692307702,-0.1848197115384615
3.3107560096153845,-0.30072693232248504,0.19927306767751496,-0.0007269323224850644
3.318753004807692,-0.30841635077662694,0.19158364922337306,-0.008416350776626948
3.32675,-0.3161057692307693,0.18389423076923075,-0.01610576923076926
3.3347469951923077,-0.3237951876849111,0.17620481231508886,-0.023795187684911144
3.3427439903846152,-0.331484606139053,0.168515393860947,-0.031484606139053024
3.350740985576923,-0.3391740245931949,0.1608259754068051,-0.03917402459319491
3.358737980769231,-0.34686344304733724,0.1531365569526628,-0.04686344304733722
3.3667349759615384,-0.35455286150147913,0.14544713849852092,-0.0545528615014791
3.374731971153846,-0.36224227995562097,0.13775772004437903,-0.06224227995562099
3.382728966346154,-0.3699316984097633,0.1300683015902367,-0.06993169840976331
3.3907259615384615,-0.3776211168639052,0.12237888313609482,-0.07762111686390519
3.398722956730769,-0.38531053531804704,0.11468946468195294,-0.08531053531804707
3.4067199519230766,-0.392999953772189,0.10700004622781106,-0.09299995377218895
3.4147169471153846,-0.4238982371794861,0.1,-0.1
3.422713942307692,-0.44286057692307734,0.1,-0.1
3.4307109375,-0.35361328125000335,0.05361328125000338,-0.1
3.438707932692308,-0.29420635516826915,0.0,-0.1
3.4467049278846154,-0.2817110501802886,0.0,-0.1
3.454701923076923,-0.26921574519230806,0.0,-0.1
3.4626989182692305,-0.2567204402043275,0.0,-0.1
3.4706959134615385,-0.24422513521634623,0.0,-0.1
3.478692908653846,-0.23172983022836569,0.0,-0.1
3.4866899038461536,-0.21923452524038511,0.0,-0.1
3.4946868990384616,-0.20673922025240388,0.0,-0.1
3.502683894230769,-0.2,0.06139823717948707,-0.1
3.5106808894230768,-0.3,0.1,-0.1
3.5186778846153843,-0.3,0.1,-0.1
3.5266748798076923,-0.3,0.1,-0.1
3.534671875,-0.3,0.1,-0.1
3.5426688701923075,-0.3,0.1,-0.1
3.5506658653846155,-0.3,0.1,-0.1
3.558662860576923,-0.3,0.1,-0.1
3.5666598557692306,-0.3,0.1,-0.1
3.574656850961538,-0.3,0.1,-0.1
3.582653846153846,-0.3,0.1,-0.1
3.5906508413461538,-0.3,0.1,-0.1
3.5986478365384613,-0.3,0.1,-0.1
3.6066448317307693,-0.3528966346153859,0.1,-0.1
3.614641826923077,-0.4,0.09351514146772771,-0.1064848585322723
3.6226388221153845,-0.4,0.08432319297082248,-0.11567680702917753
3.630635817307692,-0.4,0.07513124447391725,-0.12486875552608276
3.6386328125,-0.4,0.06593929597701151,-0.1340607040229885
3.6466298076923076,-0.4,0.05674734748010629,-0.14325265251989372
3.654626802884615,-0.4,0.04755539898320106,-0.15244460101679896
3.662623798076923,-0.4,0.038363450486295324,-0.16163654951370468
3.6706207932692307,-0.4,0.0291715019893901,-0.1708284980106099
3.6786177884615383,-0.4,0.01997955349248487,-0.18002044650751514
3.686614783653846,-0.4,0.010787604995579639,-0.1892123950044204
3.694611778846154,-0.4,0.0015956564986739086,-0.1984043435013261
3.7026087740384614,-0.3993972534272659,0.1,-0.2
3.710605769230769,-0.3914794364051792,0.1,-0.2
3.718602764423077,-0.383561619383092,0.1,-0.2
3.7265997596153846,-0.3756438023610053,0.1,-0.2
3.734596754807692,-0.36772598533891865,0.1,-0.2
3.7425937499999997,-0.35980816831683193,0.1,-0.2
3.7505907451923077,-0.3518903512947448,0.1,-0.2
3.7585877403846153,-0.34397253427265806,0.1,-0.2
3.766584735576923,-0.33605471725057134,0.1,-0.2
3.774581730769231,-0.32813690022848424,0.1,-0.2
3.7825787259615384,-0.3202190832063975,0.1,-0.2
3.790575721153846,-0.3123012661843108,0.1,-0.2
3.7985727163461536,-0.30438344916222415,0.1,-0.2
3.8065697115384616,-0.32974759615384697,0.1,-0.2
3.814566706730769,-0.39638922275641,0.1,-0.2
3.8225637019230767,-0.3055654901500935,0.09443450984990652,-0.1
3.8305606971153847,-0.3153179233114447,0.08468207668855528,-0.1
3.8385576923076923,-0.3250703564727954,0.07492964352720458,-0.1
3.8465546875,-0.33482278963414613,0.06517721036585386,-0.1
3.8545516826923074,-0.34457522279549685,0.05542477720450315,-0.1
3.8625486778846154,-0.3543276559568481,0.0456723440431519,-0.1
3.870545673076923,-0.36408008911819884,0.0359199108818012,-0.1
3.8785426682692306,-0.37383252227954955,0.026167477720450485,-0.1
3.8865396634615386,-0.38358495544090077,0.016415044559099243,-0.1
3.894536658653846,-0.3933373886022515,0.006662611397748541,-0.1
3.9025336538461537,-0.4,0.1689102564102458,-0.01554487179487711
3.9105306490384613,-0.1,0.0951283343672461,0.1
3.9185276442307693,-0.1,0.0865294148056246,0.1
3.926524639423077,-0.1,0.07793049524400356,0.1
3.9345216346153844,-0.1,0.06933157568238252,0.1
3.9425186298076924,-0.1,0.06073265612076099,0.1
3.950515625,-0.1,0.05213373655913995,0.1
3.9585126201923075,-0.1,0.043534816997518905,0.1
3.966509615384615,-0.1,0.03493589743589787,0.1
3.974506610576923,-0.1,0.026336977874276343,0.1
3.9825036057692307,-0.1,0.017738058312655305,0.1
3.9905006009615382,-0.1,0.009139138751034268,0.1
3.9984975961538463,-0.1,0.0005402191894127439,0.1
4.006494591346153,-0.0063176081730790395,-0.09368239182692097,0.1
4.014491586538462,-0.003905727424749597,0.1,0.1
4.022488581730769,-0.010859636287625728,0.1,0.1
4.030485576923077,-0.01781354515050186,0.1,0.1
4.0384825721153845,-0.02476745401337799,0.1,0.1
4.046479567307692,-0.03172136287625412,0.1,0.1
4.0544765625,-0.038675271739130254,0.1,0.1
4.062473557692307,-0.04562918060200639,0.1,0.1
4.070470552884616,-0.05258308946488329,0.1,0.1
4.078467548076923,-0.05953699832775942,0.1,0.1
4.086464543269231,-0.06649090719063555,0.1,0.1
4.094461538461538,-0.07344481605351168,0.1,0.1
4.102458533653846,-0.08039872491638782,0.1,0.1
4.1104555288461535,-0.08735263377926394,0.1,0.1
4.118452524038461,-0.09430654264214007,0.1,0.1
4.1264495192307695,-0.13623798076924212,0.1,0.1
4.134446514423077,-0.302878252262444,0.1,0.0
4.142443509615385,-0.31228648190045294,0.1,0.0
4.150440504807692,-0.32169471153846185,0.1,0.0
4.1584375,-0.3311029411764707,0.1,0.0
4.166434495192307,-0.3405111708144796,0.1,0.0
4.174431490384615,-0.34991940045248854,0.1,0.0
4.182428485576923,-0.3593276300904985,0.1,0.0
4.190425480769231,-0.3687358597285074,0.1,0.0
4.1984224759615385,-0.37814408936651633,0.1,0.0
4.206419471153846,-0.38755231900452525,0.1,0.0
4.214416466346154,-0.39696054864253416,0.1,0.0
4.222413461538461,-0.36391025641025765,0.13608974358974238,0.0
4.230410456730769,-0.3105969551282092,0.18940304487179083,0.0
4.238407451923077,-0.49744099650349616,0.19744099650349614,-0.09744099650349614
4.246404447115385,-0.48290100524475504,0.18290100524475505,-0.08290100524475504
4.254401442307692,-0.46836101398601393,0.16836101398601394,-0.06836101398601394
4.2623984375,-0.4538210227272728,0.15382102272727283,-0.05382102272727283
4.2703954326923075,-0.4392810314685317,0.1392810314685317,-0.03928103146853172
4.278392427884615,-0.42474104020979064,0.12474104020979063,-0.02474104020979062
4.286389423076923,-0.41020104895104953,0.11020104895104953,-0.010201048951049521
4.294386418269231,-0.4,0.1,-0.059660456730774566
4.302383413461539,-0.39574425877520525,0.1,0.0
4.310380408653846,-0.3879801857729649,0.1,0.0
4.318377403846154,-0.38021611277072453,0.1,0.0
4.326374399038461,-0.3724520397684841,0.1,0.0
4.334371394230769,-0.36468796676624377,0.1,0.0
4.3423683894230765,-0.3569238937640034,0.1,0.0
4.350365384615385,-0.34915982076176216,0.1,0.0
4.3583623798076925,-0.34139574775952175,0.1,0.0
4.366359375,-0.3336316747572814,0.1,0.0
4.374356370192308,-0.32586760175504104,0.1,0.0
4.382353365384615,-0.3181035287528007,0.1,0.0
4.390350360576923,-0.31033945575056027,0.1,0.0
4.39834735576923,-0.3025753827483199,0.1,0.0
4.406344350961539,-0.3,0.1,0.1
4.414341346153846,-0.3,0.1,0.1
4.422338341346154,-0.3,0.1,0.1
4.4303353365384615,-0.3,0.1,0.1
4.438332331730769,-0.3,0.1,0.1
4.446329326923077,-0.3,0.1,0.1
4.454326322115384,-0.3,0.1,0.1
4.462323317307693,-0.3,0.1,0.1
4.4703203125,-0.3,0.1,0.1
4.478317307692308,-0.3,0.1,0.1
4.486314302884615,-0.3,0.1,0.1
4.494311298076923,-0.3,0.1,0.1
4.50230829326923,-0.4,0.2,0.1
4.510305288461538,-0.4,0.2,0.1
4.5183022836538465,-0.4,0.2,0.1
4.526299278846154,-0.4,0.2,0.1
4.534296274038462,-0.4,0.2,0.1
4.542293269230769,-0.4,0.2,0.1
4.550290264423077,-0.4,0.2,0.1
4.558287259615384,-0.4,0.2,0.1
4.566284254807692,-0.4,0.2,0.1
4.57428125,-0.4,0.2,0.1
4.582278245192308,-0.4,0.2,0.1
4.590275240384615,-0.4,0.2,0.1
4.598272235576923,-0.4,0.2,0.1
4.606269230769231,-0.4,0.2,0.1
4.614266225961538,-0.4,0.2,0.1
4.622263221153846,-0.4,0.2,0.1
4.630260216346154,-0.4,0.2,0.1
4.638257211538462,-0.4,0.256430288461546,0.15643028846154597
4.646254206730769,-0.4,0.49557998680241344,0.20442001319758657
4.654251201923077,-0.4,0.4798996040723987,0.22010039592760133
4.662248197115384,-0.4,0.4642192213423839,0.23578077865761612
4.670245192307692,-0.4,0.4485388386123691,0.2514611613876309
4.6782421874999995,-0.4,0.43285845588235433,0.2671415441176457
4.686239182692308,-0.4,0.4171780731523378,0.2828219268476622
4.694236177884616,-0.4,0.40149769042232303,0.298502309577677
4.702233173076923,-0.4966321113782049,0.503367888621795,0.3
4.710230168269231,-0.48830190805288454,0.5116980919471155,0.3
4.718227163461538,-0.4799717047275642,0.5200282952724358,0.3
4.726224158653846,-0.4716415014022438,0.5283584985977562,0.3
4.734221153846153,-0.46331129807692345,0.5366887019230766,0.3
4.742218149038462,-0.45498109475160214,0.5450189052483978,0.3
4.750215144230769,-0.4466508914262818,0.5533491085737182,0.3
4.758212139423077,-0.4383206881009614,0.5616793118990386,0.3
4.7662091346153845,-0.42999048477564106,0.5700095152243589,0.3
4.774206129807692,-0.42166028145032064,0.5783397185496794,0.3
4.782203125,-0.4133300781250003,0.5866699218749997,0.3
4.790200120192307,-0.4049998747996799,0.5950001252003201,0.3
4.798197115384616,-0.29342948717947887,0.6532852564102606,0.3
4.806194110576923,0.4,1.1003961440345373,0.39980192798273145
4.814191105769231,0.4,1.1167165423861853,0.3916417288069074
4.822188100961538,0.4,1.1330369407378336,0.38348152963108334
4.830185096153846,0.4,1.1493573390894816,0.3753213304552593
4.8381820913461535,0.4,1.1656777374411296,0.3671611312794352
4.846179086538461,0.4,1.1819981357927778,0.35900093210361117
4.8541760817307695,0.4,1.1983185341444278,0.35084073292778617
4.862173076923077,0.4,1.2146389324960758,0.3426805337519621
4.870170072115385,0.4,1.230959330847724,0.33452033457613806
4.878167067307692,0.4,1.247279729199372,0.326360135400314
4.8861640625,0.4,1.2636001275510202,0.31819993622448994
4.894161057692307,0.4,1.2799205259026682,0.3100397370486659
4.902158052884615,0.4,1.2962409242543165,0.30187953787284183
4.910155048076923,-3.4010452679343137,0.8987805207433004,-0.8001742113223858
4.918152043269231,-3.4549575950734663,0.8358828057476226,-0.8091595991789111
4.9261490384615385,-3.5088699222126185,0.7729850907519448,-0.8181449870354365
4.934146033653846,-3.562782249351771,0.7100873757562669,-0.827130374891962
4.942143028846154,-3.6166945764909237,0.6471896607605891,-0.8361157627484873
4.950140024038461,-3.670606903630076,0.5842919457649114,-0.8451011506050127
4.958137019230769,-3.7245192307692285,0.5213942307692335,-0.8540865384615381
4.966134014423077,-3.778431557908387,0.4584965157735487,-0.8630719263180645
4.974131009615385,-3.832343885047539,0.3955988007778709,-0.8720573141745899
4.982128004807692,-3.8862562121866917,0.33270108578219315,-0.8810427020311153
4.990125,-3.9401685393258443,0.2698033707865153,-0.8900280898876407
4.9981219951923075,-3.9940808664649965,0.20690565579083753,-0.8990134777441661
5.006118990384615,-1.6609615384615741,-2.42713942307691,-1.6423798076923033
5.014115985576923,-1.1405117956171824,-2.623795281753127,-1.7
5.022112980769231,-1.0475234794275485,-2.6609906082289805,-1.7
5.030109975961539,-0.9545351632379251,-2.69818593470483,-1.7
5.038106971153846,-0.8615468470483016,-2.7353812611806796,-1.7
5.046103966346154,-0.7685585308586781,-2.7725765876565287,-1.7
5.054100961538461,-0.6755702146690546,-2.8097719141323783,-1.7
5.062097956730769,-0.5825818984794311,-2.8469672406082274,-1.7
5.0700949519230765,-0.48959358228980765,-2.884162567084077,-1.7
5.078091947115385,-0.39660526610017377,-2.9213578935599305,-1.7
5.0860889423076925,-0.3036169499105503,-2.95855322003578,-1.7
5.0940859375,-0.21062863372092688,-2.995748546511629,-1.7
5.102082932692308,1.226133241758205,-4.080906593406564,-1.9273866758241796
5.110079927884615,2.209493871513101,-4.297626532121725,-1.594066330304312
5.118076923076923,2.2797971259509695,-4.280050718512258,-1.5501267962806444
5.12607391826923,2.350100380388838,-4.26247490490279,-1.5061872622569765
5.134070913461539,2.420403634826714,-4.2448990912933215,-1.4622477282333037
5.142067908653846,2.4907068892645827,-4.227323277683854,-1.418308194209636
5.150064903846154,2.5610101437024513,-4.209747464074387,-1.3743686601859681
5.1580618990384615,2.63131339814032,-4.192171650464919,-1.3304291261623002
5.166058894230769,2.7016166525781884,-4.1745958368554525,-1.2864895921386323
5.174055889423077,2.771919907016057,-4.157020023245986,-1.2425500581149644
5.182052884615384,2.8422231614539255,-4.139444209636518,-1.1986105240912968
5.190049879807693,2.9125264158918016,-4.1218683960270495,-1.154670990067624
5.198046875,2.9828296703296706,-4.104292582417582,-1.110731456043956
5.206043870192308,4.321033653846748,-3.7131610576922087,0.32632211538441747
5.214040865384615,2.552149458551157,-3.972656833457804,0.941014749813294
5.222037860576923,2.4978009475354743,-3.9416005414488424,0.9875991878267363
5.23003485576923,2.4434524365197916,-3.910544249439881,1.0341836258401784
5.238031850961538,2.3891039255041093,-3.8794879574309196,1.0807680638536208
5.2460288461538465,2.3347554144884204,-3.8484316654219546,1.1273525018670683
5.254025841346154,2.2804069034727377,-3.817375373412993,1.1739369398805104
5.262022836538462,2.2260583924570554,-3.7863190814040317,1.2205213778939528
5.270019831730769,2.1717098814413727,-3.7552627893950703,1.267105815907395
5.278016826923077,2.11736137042569,-3.724206497386109,1.313690253920837
5.286013822115384,2.0630128594100077,-3.693150205377147,1.3602746919342794
5.294010817307692,2.0086643483943245,-3.6620939133681856,1.4068591299477216
5.3020078125,1.954315837378636,-3.6310376213592206,1.453443567961169
5.310004807692308,1.9028846153849561,-3.589903846152654,1.495673076922566
5.318001802884615,3.2797964242791218,-7.5118464543270465,2.08635066105791
5.325998798076923,-3.167780949518847,-4.612935697115557,-3.0117337740381585
5.333995793269231,-7.152923248626383,-2.8,-6.255636160714275
5.341992788461538,-7.027256181318691,-2.8,-6.404151785714274
5.349989783653846,-6.901589114011,-2.8,-6.552667410714273
5.357986778846154,-6.775922046703295,-2.8,-6.701183035714289
5.365983774038462,-6.650254979395603,-2.8,-6.849698660714287
5.373980769230769,-6.524587912087911,-2.8,-6.998214285714286
5.381977764423077,-6.39892084478022,-2.8,-7.146729910714285
5.389974759615384,-6.2732537774725285,-2.8,-7.295245535714284
5.397971754807692,-6.147586710164838,-2.8,-7.443761160714283
5.4059687499999995,-2.2927083333332985,2.1958333333333138,-3.2218750000001037
5.413965745192308,-3.0460452853598032,1.4615113213399507,-2.6139713864764285
5.421962740384616,-2.839671215880898,1.4099178039702245,-2.3646027191894183
5.429959735576923,-2.633297146401993,1.3583242866004983,-2.1152340519024078
5.437956730769231,-2.426923076923088,1.306730769230772,-1.8658653846153976
5.445953725961538,-2.220549007444183,1.2551372518610457,-1.6164967173283877
5.453950721153846,-2.014174937965278,1.2035437344913196,-1.3671280500413774
5.461947716346153,-1.807800868486373,1.1519502171215934,-1.1177593827543673
5.469944711538462,-1.601426799007445,1.1003566997518612,-0.8683907154673294
5.477941706730769,-1.39505272952854,1.048763182382135,-0.6190220481803195
5.485938701923077,-1.1886786600496348,0.9971696650124088,-0.3696533808933089
5.4939356971153845,-0.9823045905707297,0.9455761476426826,-0.12028471360629878
5.501932692307692,1.0653846153845812,0.4336538461538547,0.3798076923076873
5.5099296875,0.6474609375000822,-0.39472656249999094,-0.5912109374999849
5.517926682692307,0.5141276041666694,-0.3405498798076942,-0.5603665865384627
5.525923677884616,0.4274934895833279,-0.28057241586538084,-0.5203816105769206
5.533920673076923,0.34085937499999597,-0.22059495192307413,-0.48039663461538273
5.541917668269231,0.2542252604166641,-0.16061748798076744,-0.4404116586538449
5.549914663461538,0.1675911458333323,-0.10064002403846073,-0.40042668269230713
5.557911658653846,0.08095703125000042,-0.04066256009615404,-0.36044170673076936
5.5659086538461535,-0.005677083333331501,0.019314903846152642,-0.32045673076923153
5.573905649038461,-0.09231119791666331,0.07929236778845933,-0.28047175480769376
5.5819026442307695,-0.17894531250000478,0.13926983173077268,-0.24048677884615155
5.589899639423077,-0.2655794270833367,0.19924729567307942,-0.20050180288461372
5.597896634615385,-0.3522135416666685,0.25922475961538605,-0.16051682692307595
5.605893629807692,-0.43884765625000044,0.3192022235576928,-0.12053185096153818
5.613890625,-0.5254817708333323,0.3791796874999994,-0.08054687500000035
5.621887620192307,-0.6121158854166641,0.43915715144230616,-0.04056189903846252
5.629884615384615,-0.6987499999999961,0.4991346153846128,-0.0005769230769248068
5.637881610576923,-0.19875829496207914,-0.10745023022752517,-0.0062085251896043065
5.645878605769231,-0.1874949214517869,-0.17503047128927868,-0.06252539274106556
5.6538756009615385,-0.17623154794149465,-0.24261071235103215,-0.11884226029252679
5.661872596153846,-0.1649681744312024,-0.31019095341278563,-0.17515912784398804
5.669869591346154,-0.15370480092091016,-0.3777711944745391,-0.23147599539544927
5.677866586538461,-0.1424414274106179,-0.44535143553629264,-0.28779286294691053
5.685863581730769,-0.13117805390032566,-0.5129316765980461,-0.34410973049837174
5.693860576923077,-0.11991468039003216,-0.5805119176598071,-0.40042659804983927
5.701857572115385,-0.10865130687973991,-0.6480921587215606,-0.45674346560130047
5.709854567307692,0.033439590301019145,-0.973991429765874,-0.7037155100334466
5.7178515625,0.3463654891304378,-0.730604619565215,-0.7384850543478264
5.7258485576923075,0.6592913879598564,-0.48721780936455616,-0.7732545986622062
5.733845552884615,1.1768329326922586,-0.3,-0.6154447115384942
5.741842548076923,1.212065458579881,-0.27586908284023814,-0.6
5.749839543269231,1.2243685281065093,-0.25126294378698155,-0.6
5.757836538461539,1.2366715976331362,-0.22665680473372762,-0.6
5.765833533653846,1.248974667159763,-0.20205066568047375,-0.6
5.773830528846154,1.26127773668639,-0.17744452662721985,-0.6
5.781827524038461,1.273580806213017,-0.15283838757396595,-0.6
5.789824519230769,1.285883875739644,-0.12823224852071205,-0.6
5.7978215144230765,1.2981869452662709,-0.10362610946745815,-0.6
5.805818509615385,1.1295372596153865,0.41138822115384077,-0.3443058894230796
5.8138155048076925,-0.20211105210196773,0.3936668436940969,0.0
5.8218125,-0.21140988372093006,0.3657703488372098,0.0
5.829809495192308,-0.22070871533989242,0.3378738539803228,0.0
5.837806490384615,-0.23000754695885475,0.30997735912343577,0.0
5.845803485576923,-0.2393063785778171,0.2820808642665487,0.0
5.85380048076923,-0.24860521019677945,0.25418436940966166,0.0
5.861797475961539,-0.25790404181574283,0.2262878745527715,0.0
5.869794471153846,-0.26720287343470517,0.19839137969588444,0.0
5.877791466346154,-0.2765017050536675,0.17049488483899738,0.0
5.8857884615384615,-0.28580053667262983,0.14259838998211033,0.0
5.893785456730769,-0.2950993682915922,0.11470189512522327,0.0
5.901782451923077,-0.4891225961538245,-0.278245192307649,-0.09456129807691224
5.909779447115384,-0.5,-0.3,-0.1
5.917776442307693,-0.6062787416387964,0.006278741638796436,0.10627874163879644
5.9257734375,-0.6149711277173916,0.01497112771739165,0.11497112771739165
5.933770432692308,-0.6236635137959868,0.023663513795986864,0.12366351379598686
5.941767427884615,-0.6323558998745821,0.03235589987458208,0.13235589987458207
5.949764423076923,-0.6410482859531772,0.0410482859531773,0.1410482859531773
5.9577614182692304,-0.6497406720317724,0.04974067203177251,0.14974067203177252
5.965758413461538,-0.6584330581103677,0.058433058110367725,0.15843305811036773
5.9737554086538465,-0.6671254441889638,0.0671254441889639,0.1671254441889639
5.981752403846154,-0.675817830267559,0.07581783026755912,0.17581783026755912
5.989749399038462,-0.6845102163461543,0.08451021634615434,0.18451021634615433
5.997746394230769,-0.6932026024247495,0.09320260242474955,0.19320260242474957
6.005743389423077,-0.8442457932692436,0.2,0.3
6.013740384615384,-0.2853318250377079,0.1,0.19266591251885395
6.021737379807692,-0.2539710595776783,0.1,0.17698552978883916
6.029734375,-0.2226102941176452,0.1,0.16130514705882262
6.037731370192308,-0.19124952865761563,0.1,0.14562476432880783
6.045728365384615,-0.15988876319758608,0.1,0.12994438159879307
6.053725360576923,-0.1285279977375565,0.1,0.11426399886877826
6.061722355769231,-0.09716723227752691,0.1,0.09858361613876347
6.069719350961538,-0.06580646681749736,0.1,0.0829032334087487
6.077716346153846,-0.03444570135746777,0.1,0.0672228506787339
6.085713341346154,-0.003084935897434693,0.1,0.05154246794871736
6.093710336538462,0.02827582956259489,0.1,0.03586208521870257
6.101707331730769,0.05963659502262442,0.1,0.020181702488687808
6.109704326923077,0.090997360482654,0.1,0.004501319758673017
6.117701322115384,0.4,0.06635161713286816,-0.033648382867131836
6.125698317307692,0.29525240384619045,-0.03491586538460319,-0.1
6.1336953124999996,0.0811399647887332,-0.1,-0.1
6.141692307692308,0.0586132177681462,-0.1,-0.1
6.149689302884616,0.0360864707475617,-0.1,-0.1
6.157686298076923,0.01355972372697721,-0.1,-0.1
6.165683293269231,-0.008967023293607296,-0.1,-0.1
6.173680288461538,-0.03149377031419179,-0.1,-0.1
6.181677283653846,-0.05402051733477628,-0.1,-0.1
6.189674278846153,-0.0765472643553608,-0.1,-0.1
6.197671274038461,-0.09907401137594529,-0.1,-0.1
6.205668269230769,-0.2066346153846187,-0.10663461538461871,-0.1
6.213665264423077,-0.08794624590834717,-0.00602687704582642,-0.1
6.2216622596153845,-0.07093136252045862,-0.014534318739770692,-0.1
6.229659254807692,-0.053916479132570076,-0.023041760433714965,-0.1
6.23765625,-0.036901595744681534,-0.031549202127659236,-0.1
6.245653245192307,-0.019886712356793,-0.0400566438216035,-0.1
6.253650240384615,-0.0028718289689044496,-0.04856408551554778,-0.1
6.261647235576923,0.014143054418985987,-0.057071527209492996,-0.1
6.269644230769231,0.031157937806874536,-0.06557896890343727,-0.1
6.277641225961538,0.04817282119476307,-0.07408641059738154,-0.1
6.285638221153846,0.0651877045826516,-0.0825938522913258,-0.1
6.2936352163461535,0.08220258797054017,-0.09110129398527009,-0.1
6.301632211538461,0.0992174713584287,-0.09960873567921436,-0.1
6.309629206730769,0.09637954059829149,0.1,0.1
6.317626201923077,0.07860844017093935,0.1,0.1
6.325623197115385,0.06083733974358917,0.1,0.1
6.333620192307692,0.04306623931623899,0.1,0.1
6.3416171875,0.02529513888888882,0.1,0.1
6.349614182692307,0.007524038461538637,0.1,0.1
6.357611177884615,-0.01024706196581153,0.1,0.1
6.3656081730769225,-0.02801816239316171,0.1,0.1
6.373605168269231,-0.04578926282051385,0.1,0.1
6.3816021634615385,-0.06356036324786402,0.1,0.1
6.389599158653846,-0.08133146367521421,0.1,0.1
6.397596153846154,-0.09910256410256438,0.1,0.1
6.405593149038461,-0.10254230297888396,0.1,0.09745769702111605
6.413590144230769,-0.11038249434389136,0.1,0.08961750565610865
6.421587139423076,-0.11822268570889874,0.1,0.08177731429110127
6.429584134615385,-0.126062877073907,0.1,0.073937122926093
6.437581129807692,-0.13390306843891442,0.1,0.0660969315610856
6.445578125,-0.1417432598039218,0.1,0.05825674019607821
6.4535751201923075,-0.14958345116892918,0.1,0.05041654883107082
6.461572115384615,-0.1574236425339366,0.1,0.042576357466063426
6.469569110576923,-0.16526383389894397,0.1,0.03473616610105604
6.47756610576923,-0.17310402526395136,0.1,0.026895974736048642
6.485563100961539,-0.18094421662895965,0.1,0.019055783371040372
6.493560096153846,-0.18878440799396703,0.1,0.011215592006032976
6.501557091346154,-0.19662459935897442,0.1,0.0033754006410255805
6.509554086538461,-0.2,0.049399038461541304,0.0
6.517551081730769,-0.2,-0.03551081730768755,0.0
6.5255480769230765,-0.09679487179490673,-0.1,0.0
6.533545072115384,0.0,-0.0929622880479743,0.0
6.5415420673076925,0.0,-0.0843633684863523,0.0
6.5495390625,0.0,-0.07576444892473125,0.0
6.557536057692308,0.0,-0.06716552936311021,0.0
6.565533052884615,0.0,-0.05856660980148917,0.0
6.573530048076923,0.0,-0.049967690239868134,0.0
6.58152704326923,0.0,-0.04136877067824709,0.0
6.589524038461538,0.0,-0.032769851116626045,0.0
6.597521033653846,0.0,-0.02417093155500405,0.0
6.605518028846154,0.0,-0.015572011993383011,0.0
6.6135150240384615,0.0,-0.006973092431761974,0.0
6.621512019230769,0.030240384615379347,0.0,0.0
6.629509014423077,0.1,0.0,0.0
6.637506009615384,0.1,0.0,0.0
6.645503004807692,0.1,0.0,0.0
6.6535,0.1,0.0,0.0
6.661496995192308,0.1,0.0,0.0
6.669493990384615,0.1,0.0,0.0
6.677490985576923,0.1,0.0,0.0
6.6854879807692305,0.1,0.0,0.0
6.693484975961538,0.1,0.0,0.0
6.701481971153846,-0.012049278846147688,0.0,0.0
6.709478966346154,-0.09950622026169649,0.0,0.0
6.717475961538462,-0.09126189532117326,0.0,0.0
6.725472956730769,-0.08301757038065004,0.0,0.0
6.733469951923077,-0.07477324544012681,0.0,0.0
6.741466947115384,-0.06652892049960357,0.0,0.0
6.749463942307692,-0.05828459555908035,0.0,0.0
6.757460937499999,-0.05004027061855712,0.0,0.0
6.765457932692308,-0.04179594567803298,0.0,0.0
6.7734549278846155,-0.03355162073750975,0.0,0.0
6.781451923076923,-0.025307295796986526,0.0,0.0
6.789448918269231,-0.017062970856463286,0.0,0.0
6.797445913461538,-0.00881864591594006,0.0,0.0
6.805442908653846,-0.0005743209754168338,0.0,0.0
6.813439903846153,0.08599759615383211,0.0,0.0
6.821436899038462,0.1,0.0,0.0
6.829433894230769,0.1,0.0,0.0
6.837430889423077,0.1,0.0,0.0
6.845427884615384,0.1,0.0,0.0
6.853424879807692,0.1,0.0,0.0
6.861421875,0.1,0.0,0.0
6.869418870192307,0.1,0.0,0.0
6.877415865384616,0.1,0.0,0.0
6.885412860576923,0.1,0.0,0.0
6.893409855769231,0.1,0.0,0.0
6.901406850961538,0.1,0.0,0.0
6.909403846153846,0.1,0.0,0.0
6.917400841346153,0.1,0.0,0.0
6.925397836538461,0.0,0.0,0.0
6.933394831730769,0.0,0.0,0.0
6.941391826923077,0.0,0.0,0.0
6.949388822115385,0.0,0.0,0.0
6.957385817307692,0.0,0.0,0.0
6.9653828125,0.0,0.0,0.0
6.973379807692307,0.0,0.0,0.0
6.981376802884615,0.0,0.0,0.0
6.989373798076923,0.0,0.0,0.0
6.997370793269231,0.0,0.0,0.0
7.005367788461538,-0.047355769230766794,0.0,0.0
7.013364783653846,0.0,0.0,0.0
7.0213617788461535,0.0,0.0,0.0
7.029358774038461,0.0,0.0,0.0
7.037355769230769,0.0,0.0,0.0
7.045352764423077,0.0,0.0,0.0
7.053349759615385,0.0,0.0,0.0
7.061346754807692,0.0,0.0,0.0
7.06934375,0.0,0.0,0.0
7.077340745192307,0.0,0.0,0.0
7.085337740384615,0.0,0.0,0.0
7.0933347355769225,0.0,0.0,0.0
7.101331730769231,0.0,0.0,0.0
7.1093287259615385,0.0,0.0,0.0
7.117325721153846,0.0,0.0,0.0
7.125322716346154,0.0,0.0,0.0
7.133319711538461,0.0,0.0,0.0
7.141316706730769,0.0,0.0,0.0
7.149313701923076,0.0,0.0,0.0
7.157310697115385,0.0,0.0,0.0
7.165307692307692,0.0,0.0,0.0
7.1733046875,0.0,0.0,0.0
7.1813016826923075,0.0,0.0,0.0
7.189298677884615,0.0,0.0,0.0
7.197295673076923,0.0,0.0,0.0
7.20529266826923,0.0,0.0,0.0
7.213289663461539,0.0,0.0,0.0
7.221286658653846,0.0,0.0,0.0
7.229283653846154,0.0,0.0,0.0
7.237280649038461,0.0,0.0,0.0
7.245277644230769,0.0,0.0,0.0
7.2532746394230765,0.0,0.0,0.0
7.261271634615384,0.0,0.0,0.0
7.2692686298076925,0.0,0.0,0.0
7.277265625,0.0,0.0,0.0
7.285262620192308,0.0,0.0,0.0
7.293259615384615,0.0,0.0,0.0
7.301256610576923,0.0,0.0,0.0
7.30925360576923,0.0,0.0,0.0
7.317250600961538,0.0,0.0,0.0
7.325247596153846,0.0,0.0,0.0
7.333244591346154,0.0,0.0,0.0
7.3412415865384615,0.0,0.0,0.0
7.349238581730769,0.0,0.0,0.0
7.357235576923077,0.0,0.0,0.0
7.365232572115384,0.0,0.0,0.0
7.373229567307692,0.0,0.0,0.0
7.3812265625,0.0,0.0,0.0
7.389223557692308,0.0,0.0,0.0
7.397220552884615,0.0,0.0,0.0
7.405217548076923,0.0,0.0,0.0
7.4132145432692305,0.0,0.0,0.0
7.421211538461538,0.0,0.0,0.0
7.429208533653846,0.0,0.0,0.0
7.437205528846154,0.0,0.0,0.0
7.445202524038462,0.0,0.0,0.0
7.453199519230769,0.0,0.0,0.0
7.461196514423077,0.0,0.0,0.0
7.469193509615384,0.0,0.0,0.0
7.477190504807692,0.0,0.0,0.0
7.485187499999999,0.0,0.0,0.0
7.493184495192308,0.0,0.0,0.0
7.5011814903846155,0.0,0.0,0.0
7.509178485576923,0.0,0.0,0.0
7.517175480769231,0.0,0.0,0.0
7.525172475961538,0.0,0.0,0.0
7.533169471153846,0.0,0.0,0.0
7.541166466346153,0.0,0.0,0.0
7.549163461538462,0.0,0.0,0.0
7.557160456730769,0.0,0.0,0.0
7.565157451923077,0.0,0.0,0.0
7.573154447115384,0.0,0.0,0.0
7.581151442307692,0.0,0.0,0.0
7.5891484375,0.0,0.0,0.0
7.597145432692307,0.0,0.0,0.0
7.605142427884616,0.0,0.0,0.0
7.613139423076923,0.0,0.0,0.0
7.621136418269231,0.0,0.0,0.0
7.629133413461538,0.0,0.0,0.0
7.637130408653846,0.0,0.0,0.0
7.645127403846153,0.0,0.0,0.0
7.653124399038461,0.0,0.0,0.0
7.661121394230769,0.0,0.0,0.0
7.669118389423077,0.0,0.0,0.0
7.677115384615385,0.0,0.0,0.0
7.685112379807692,0.0,0.0,0.0
7.693109375,0.0,0.0,0.0
7.701106370192307,0.0,0.0,0.0
7.709103365384615,0.0,0.0,0.0
7.717100360576923,0.0,0.0,0.0
7.725097355769231,0.0,0.0,0.0
7.733094350961538,0.0,0.0,0.0
7.741091346153846,0.0,0.0,0.0
7.7490883413461535,0.0,0.0,0.0
7.757085336538461,0.0,0.0,0.0
7.765082331730769,0.0,0.0,0.0
7.773079326923077,0.0,0.0,0.0
7.781076322115385,0.0,0.0,0.0
7.789073317307692,0.0,0.0,0.0
7.7970703125,0.0,0.0,0.0
7.805067307692307,0.0,0.0,0.0
7.813064302884615,0.0,0.0,0.0
7.8210612980769225,0.0,0.0,0.0
7.829058293269231,0.0,0.0,0.0
7.8370552884615385,0.0,0.0,0.0
7.845052283653846,0.0,0.0,0.0
7.853049278846154,0.0,0.0,0.0
7.861046274038461,0.0,0.0,0.0
7.869043269230769,0.0,0.0,0.0
7.877040264423076,0.0,0.0,0.0
7.885037259615385,0.0,0.0,0.0
7.893034254807692,0.0,0.0,0.0
7.90103125,0.0,0.0,0.0
7.9090282451923075,0.0,-0.001895556254492991,0.0
7.917025240384615,0.0,-0.009369383537023475,0.0
7.925022235576923,0.0,-0.016843210819553957,0.0
7.93301923076923,0.0,-0.02431703810208444,0.0
7.941016225961539,0.0,-0.03179086538461575,0.0
7.949013221153846,0.0,-0.03926469266714624,0.0
7.957010216346154,0.0,-0.04673851994967672,0.0
7.965007211538461,0.0,-0.0542123472322072,0.0
7.973004206730769,0.0,-0.061686174514737686,0.0
7.9810012019230765,0.0,-0.06916000179726817,0.0
7.988998197115384,0.0,-0.07663382907979865,0.0
7.9969951923076925,0.0,-0.08410765636232996,0.0
8.0049921875,0.0,-0.09158148364485962,0.0
8.012989182692307,0.0,-0.0990553109273901,0.0
8.020986177884616,0.09519737604263057,0.0,0.0
8.028983173076924,0.08556244207599498,0.0,0.0
8.036980168269231,0.07592750810935937,0.0,0.0
8.044977163461539,0.06629257414272377,0.0,0.0
8.052974158653846,0.056657640176088174,0.0,0.0
8.060971153846154,0.04702270620945257,0.0,0.0
8.068968149038461,0.037387772242816975,0.0,0.0
8.076965144230769,0.02775283827618137,0.0,0.0
8.084962139423077,0.018117904309545768,0.0,0.0
8.092959134615384,0.008482970342910165,0.0,0.0
8.100956129807692,0.0,0.0,0.0
8.108953125,0.0,0.0032451923076917237,0.0
8.116950120192307,0.0,0.01203309911242538,0.0
8.124947115384614,0.0,0.020821005917159036,0.0
8.132944110576924,0.0,0.029608912721894646,0.0
8.140941105769231,0.0,0.0383968195266283,0.0
8.148938100961539,0.0,0.04718472633136196,0.0
8.156935096153846,0.0,0.055972633136095615,0.0
8.164932091346154,0.0,0.06476053994082927,0.0
8.172929086538462,0.0,0.07354844674556293,0.0
8.18092608173077,0.0,0.08233635355029659,0.0
8.188923076923077,0.0,0.09112426035503024,0.0
8.196920072115384,0.0,0.09991216715976389,0.0
8.204917067307692,0.0,0.0,0.0
8.2129140625,0.0,0.0,0.0
8.220911057692307,0.0,0.0,0.0
8.228908052884615,0.0,0.0,0.0
8.236905048076922,0.0,0.0,0.0
8.24490204326923,0.0,0.0,0.0
8.252899038461539,0.0,0.0,0.0
8.260896033653847,0.0,0.0,0.0
8.268893028846154,0.0,0.0,0.0
8.276890024038462,0.0,0.0,0.0
8.28488701923077,0.0,0.0,0.0
8.292884014423077,0.0,0.0,0.0
8.300881009615384,0.0,0.0,0.0
8.308878004807692,0.0,0.0,0.0
8.316875,0.0,0.0,0.0
8.324871995192307,0.0,0.0,0.0
8.332868990384615,0.0,0.0,0.0
8.340865985576922,0.0,0.0,0.0
8.34886298076923,0.0,0.0,0.0
8.356859975961537,0.0,0.0,0.0
8.364856971153847,0.0,0.0,0.0
8.372853966346154,0.0,0.0,0.0
8.380850961538462,0.0,0.0,0.0
8.38884795673077,0.0,0.0,0.0
8.396844951923077,0.0,0.0,0.0
8.404841947115385,0.0,0.0,0.0
8.412838942307692,0.0,0.0,0.0
8.4208359375,0.0,0.0,0.0
8.428832932692307,0.0,0.0,0.0
8.436829927884615,0.0,0.0,0.0
8.444826923076922,0.0,0.0,0.0
8.45282391826923,0.0,0.0,0.0
8.460820913461538,0.0,0.0,0.0
8.468817908653845,0.0,0.0,0.0
8.476814903846154,0.0,0.0,0.0
8.484811899038462,0.0,0.0,0.0
8.49280889423077,0.0,0.0,0.0
8.500805889423077,0.0,0.0,0.0
8.508802884615385,0.0,0.0,0.0
8.516799879807692,0.0,0.0,0.0
8.524796875,0.0,0.0,0.0
8.532793870192307,0.0,0.0,0.0
8.540790865384615,0.0,0.0,0.0
8.548787860576923,0.0,0.0,0.0
8.55678485576923,0.0,0.0,0.0
8.564781850961538,0.0,0.0,0.0
8.572778846153845,0.0,0.0,0.0
8.580775841346153,0.0,0.0,0.0
8.588772836538462,0.0,0.0,0.0
8.59676983173077,0.0,0.0,0.0
8.604766826923077,0.0,0.0,0.0
8.612763822115385,0.0,0.0,0.0
8.620760817307692,0.0,0.0,0.0
8.6287578125,0.0,0.0,0.0
8.636754807692308,0.0,0.0,0.0
8.644751802884615,0.0,0.0,0.0
8.652748798076923,0.0,0.0,0.0
8.66074579326923,0.0,0.0,0.0
8.668742788461538,0.0,0.0,0.0
8.676739783653845,0.0,0.0,0.0
8.684736778846153,0.0,0.0,0.0
8.69273377403846,0.0,0.0,0.0
8.70073076923077,0.0,0.0,0.0
8.708727764423077,0.0,0.0,0.0
8.716724759615385,0.0,0.0,0.0
8.724721754807693,0.0,0.0,0.0
8.73271875,0.0,0.0,0.0
8.740715745192308,0.0,0.0,0.0
8.748712740384615,0.0,0.0,0.0
8.756709735576923,0.0,0.0,0.0
8.76470673076923,0.0,0.0,0.0
8.772703725961538,0.0,0.0,0.0
8.780700721153845,0.0,0.0,0.0
8.788697716346153,0.0,0.0,0.0
8.79669471153846,0.0,0.0,0.0
8.804691706730768,0.0,0.0,0.0
8.812688701923078,0.0,0.0,0.0
8.820685697115385,0.0,0.0,0.0
8.828682692307693,0.0,0.0,0.0
8.8366796875,0.0,0.0,0.0
8.844676682692308,0.0,0.0,0.0
8.852673677884615,0.0,0.0,0.0
8.860670673076923,0.0,0.0,0.0
8.86866766826923,0.0,0.0,0.0
8.876664663461538,0.0,0.0,0.0
8.884661658653846,0.0,0.0,0.0
8.892658653846153,0.0,0.0,0.0
8.90065564903846,0.0,0.0,0.0
8.908652644230768,0.0,0.0,0.0
8.916649639423076,0.0,0.0,0.0
8.924646634615385,0.0,0.0,0.0
8.932643629807693,0.0,0.0,0.0
8.940640625,0.0,0.0,0.0
8.948637620192308,0.0,0.0,0.0
8.956634615384615,0.0,0.0,0.0
8.964631610576923,0.0,0.0,0.0
8.97262860576923,0.0,0.0,0.0
8.980625600961538,0.0,0.0,0.0
8.988622596153846,0.0,0.0,0.0
8.996619591346153,0.0,0.0,0.0
9.00461658653846,0.0,0.0,0.0
9.012613581730768,0.0,0.0,0.0
9.020610576923076,0.0,0.0,0.0
9.028607572115384,0.0,0.0,0.0
9.036604567307693,0.0,0.0,0.0
9.0446015625,0.0,0.0,0.0
9.052598557692308,0.0,0.0,0.0
9.060595552884616,0.0,0.0,0.0
9.068592548076923,0.0,0.0,0.0
9.07658954326923,0.0,0.0,0.0
9.084586538461538,0.0,0.0,0.0
9.092583533653846,0.0,0.0,0.0
9.100580528846153,0.0,0.0,0.0
9.108577524038461,0.0,0.0,0.0
9.116574519230769,0.0,0.0,0.0
9.124571514423076,0.0,0.0,0.0
9.132568509615384,0.0,0.0,0.0
9.140565504807691,0.0,0.0,0.0
9.1485625,0.0,0.0,0.0
9.156559495192308,0.0,0.0,0.0
9.164556490384616,0.0,0.0,0.0
9.172553485576923,0.0,0.0,0.0
9.18055048076923,0.0,0.0,0.0
9.188547475961538,0.0,0.0,0.0
9.196544471153846,0.0,0.0,0.0
9.204541466346154,0.0,0.0,0.0
9.212538461538461,0.0,0.0,0.0
9.220535456730769,0.0,0.0,0.0
9.228532451923076,0.0,0.0,0.0
9.236529447115384,0.0,0.0,0.0
9.244526442307691,0.0,0.0,0.0
9.252523437499999,0.0,0.0,0.0
9.260520432692308,0.0,0.0,0.0
9.268517427884616,0.0,0.0,0.0
9.276514423076923,0.0,0.0,0.0
9.284511418269231,0.0,0.0,0.0
9.292508413461539,0.0,0.0,0.0
9.300505408653846,0.0,0.0,0.0
9.308502403846154,0.0,0.0,0.0
9.316499399038461,0.0,0.0,0.0
9.324496394230769,0.0,0.0,0.0
9.332493389423076,0.0,0.0,0.0
9.340490384615384,0.0,0.0,0.0
9.348487379807692,0.0,0.0,0.0
9.356484374999999,0.0,0.0,0.0
9.364481370192307,0.0,0.0,0.0
9.372478365384616,0.0,0.0,0.0
9.380475360576924,0.0,0.0,0.0
9.388472355769231,0.0,0.0,0.0
9.396469350961539,0.0,0.0,0.0
9.404466346153846,0.0,0.0,0.0
9.412463341346154,0.0,0.0,0.0
9.420460336538461,0.0,0.0,0.0
9.428457331730769,0.0,0.0,0.0
9.436454326923077,0.0,0.0,0.0
9.444451322115384,0.0,0.0,0.0
9.452448317307692,0.0,0.0,0.0
9.4604453125,0.0,0.0,0.0
9.468442307692307,0.0,0.0,0.0
9.476439302884614,0.0,0.0,0.0
9.484436298076924,0.0,0.0,0.0
9.492433293269231,0.0,0.0,0.0
9.500430288461539,0.0,0.0,0.0
9.508427283653846,0.0,0.0,0.0
9.516424278846154,0.0,0.0,0.0
9.524421274038462,0.0,0.0,0.0
9.532418269230769,0.0,0.0,0.0
9.540415264423077,0.0,0.0,0.0
9.548412259615384,0.0,0.0,0.0
9.556409254807692,0.0,0.0,0.0
9.56440625,0.0,0.0,0.0
9.572403245192307,0.0,0.0,0.0
9.580400240384614,0.0,0.0,0.0
9.588397235576922,0.0,0.0,0.0
9.596394230769231,0.0,0.0,0.0
9.604391225961539,0.0,0.0,0.0
9.612388221153847,0.0,0.0,0.0
9.620385216346154,0.0,0.0,0.0
9.628382211538462,0.0,0.0,0.0
9.63637920673077,0.0,0.0,0.0
9.644376201923077,0.0,0.0,0.0
9.652373197115384,0.0,0.0,0.0
9.660370192307692,0.0,0.0,0.0
9.6683671875,0.0,0.0,0.0
9.676364182692307,0.0,0.0,0.0
9.684361177884615,0.0,0.0,0.0
9.692358173076922,0.0,0.0,0.0
9.70035516826923,0.0,0.0,0.0
9.708352163461539,0.0,0.0,0.0
9.716349158653847,0.0,0.0,0.0
9.724346153846154,0.0,0.0,0.0
9.732343149038462,0.0,0.0,0.0
9.74034014423077,0.0,0.0,0.0
9.748337139423077,0.0,0.0,0.0
9.756334134615384,0.0,0.0,0.0
9.764331129807692,0.0,0.0,0.0
9.772328125,0.0,0.0,0.0
9.780325120192307,0.0,0.0,0.0
9.788322115384615,0.0,0.0,0.0
9.796319110576922,0.0,0.0,0.0
9.80431610576923,0.0,0.0,0.0
9.812313100961537,0.0,0.0,0.0
9.820310096153847,0.0,0.0,0.0
9.828307091346154,0.0,0.0,0.0
9.836304086538462,0.0,0.0,0.0
9.84430108173077,0.0,0.0,0.0
9.852298076923077,0.0,0.0,0.0
9.860295072115385,0.0,0.0,0.0
9.868292067307692,0.0,0.0,0.0
9.8762890625,0.0,0.0,0.0
9.884286057692307,0.0,0.0,0.0
9.892283052884615,0.0,0.0,0.0
9.900280048076922,0.0,0.0,0.0
9.90827704326923,0.0,0.0,0.0
9.916274038461538,0.0,0.0,0.0
9.924271033653845,0.0,0.0,0.0
9.932268028846154,0.0,0.0,0.0
9.940265024038462,0.0,0.0,0.0
9.94826201923077,0.0,0.0,0.0
9.956259014423077,0.0,0.0,0.0
9.964256009615385,0.0,0.0,0.0
9.972253004807692,0.0,0.0,0.0
9.98025,0.0,0.0,0.0
9.988246995192307,0.0,0.0,0.0
9.996243990384615,0.0,0.0,0.0
10.004240985576923,0.0,0.0,0.0
10.01223798076923,0.012861816019030739,0.0,0.10643090800951538
10.020234975961538,0.029350465900077345,0.0,0.11467523295003867
10.028231971153845,0.04583911578112395,0.0,0.12291955789056198
10.036228966346153,0.06232776566217056,0.0,0.1311638828310853
10.044225961538462,0.07881641554322083,0.0,0.13940820777161042
10.05222295673077,0.09530506542426743,0.0,0.14765253271213372
10.060219951923077,0.11179371530531404,0.0,0.15589685765265704
10.068216947115385,0.12828236518636066,0.0,0.16414118259318033
10.076213942307692,0.14477101506740725,0.0,0.17238550753370363
10.0842109375,0.16125966494845387,0.0,0.18062983247422693
10.092207932692308,0.17774831482950046,0.0,0.18887415741475022
10.100204927884615,0.19423696471054708,0.0,0.19711848235527354
10.108201923076923,0.0,0.024038461538463247,0.12403846153846325
10.11619891826923,0.009435771391528347,0.10943577139152835,0.2
10.124195913461538,0.027406547104578974,0.127406547104579,0.2
10.132192908653845,0.0453773228176296,0.1453773228176296,0.2
10.140189903846153,0.06334809853068023,0.16334809853068022,0.2
10.14818689903846,0.08131887424373085,0.18131887424373086,0.2
10.15618389423077,0.09928964995678546,0.19928964995678547,0.2
10.164180889423077,0.11726042566983609,0.2172604256698361,0.2
10.172177884615385,0.13523120138288672,0.23523120138288672,0.2
10.180174879807693,0.15320197709593733,0.25320197709593734,0.2
10.188171875,0.17117275280898797,0.271172752808988,0.2
10.196168870192308,0.18914352852203858,0.2891435285220386,0.2
10.204165865384615,0.39170673076926515,0.27512019230779544,-0.008293269230734857
10.212162860576923,0.31151936556434245,0.0,-0.1
10.22015985576923,0.32646702012940315,0.0,-0.1
10.228156850961538,0.3414146746944639,0.0,-0.1
10.236153846153845,0.3563623292595246,0.0,-0.1
10.244150841346153,0.3713099838245853,0.0,-0.1
10.25214783653846,0.38625763838964605,0.0,-0.1
10.260144831730768,0.40120529295470675,0.0,-0.1
10.268141826923078,0.4161529475197708,0.0,-0.1
10.276138822115385,0.4311006020848315,0.0,-0.1
10.284135817307693,0.4460482566498922,0.0,-0.1
10.2921328125,0.460995911214953,0.0,-0.1
10.300129807692308,0.4759435657800136,0.0,-0.1
10.308126802884615,0.4908912203450744,0.0,-0.1
10.316123798076923,0.998762019230778,0.0,-0.198762019230778
10.32412079326923,0.9187920673077006,0.0,-0.11879206730770063
10.332117788461538,0.8300824175824284,0.008739697802196454,-0.09126030219780355
10.340114783653846,0.7386881868131994,0.020163976648350075,-0.07983602335164994
10.348111778846153,0.6472939560439706,0.03158825549450369,-0.06841174450549631
10.35610877403846,0.5558997252747415,0.04301253434065731,-0.05698746565934269
10.364105769230768,0.4645054945055126,0.05443681318681093,-0.04556318681318908
10.372102764423076,0.37311126373628367,0.06586109203296454,-0.03413890796703546
10.380099759615385,0.2817170329670343,0.07728537087912071,-0.022714629120879293
10.388096754807693,0.1903228021978054,0.08870964972527433,-0.011290350274725677
10.39609375,0.07187500000011658,0.1,0.004687499999980571
10.404090745192308,-2.8,-0.3,0.09979834401709332
10.412087740384615,-2.8,-0.3,0.08202724358974314
10.420084735576923,-2.8,-0.3,0.06425614316239298
10.42808173076923,-2.8,-0.3,0.0464850427350428
10.436078725961538,-2.8,-0.3,0.028713942307692628
10.444075721153846,-2.8,-0.3,0.010942841880342447
10.452072716346153,-2.8,-0.3,-0.006828258547007721
10.46006971153846,-2.8,-0.3,-0.0245993589743579
10.468066706730768,-2.8,-0.3,-0.04237045940170808
10.476063701923076,-2.8,-0.3,-0.06014155982905825
10.484060697115384,-2.8,-0.3,-0.07791266025640842
10.492057692307693,-2.8,-0.3,-0.09568376068376255
10.5000546875,-1.0915625000000007,-0.6010546874999999,0.09894531250000008
10.508051682692308,-1.02758653846154,-0.6090516826923075,0.09094831730769248
10.516048677884616,-0.9636105769230792,-0.6170486778846151,0.08295132211538489
10.524045673076923,-0.8996346153846184,-0.6250456730769227,0.0749543269230773
10.53204266826923,-0.8356586538461577,-0.6330426682692303,0.0669573317307697
10.540039663461538,-0.7716826923076969,-0.6410396634615378,0.0589603365384621
10.548036658653846,-0.7077067307692362,-0.6490366586538454,0.05096334134615451
10.556033653846153,-0.6437307692307754,-0.6570336538461531,0.04296634615384692
10.564030649038461,-0.5797548076923146,-0.6650306490384607,0.03496935096153932
10.572027644230769,-0.5157788461538538,-0.6730276442307682,0.026972355769231723
10.580024639423076,-0.4518028846153931,-0.6810246394230758,0.01897536057692413
10.588021634615384,-0.38782692307693234,-0.6890216346153835,0.010978365384616537
10.596018629807691,-0.3238509615384716,-0.697018629807691,0.0029813701923089436
10.604015625,-0.3000903925619916,-0.6999741735537166,-1.2913223141658527e-05
10.612012620192308,-0.34635400111253106,-0.686755999682134,-0.006622000158933011
10.620009615384616,-0.3926176096630705,-0.6735378258105512,-0.013231087094724365
10.628006610576923,-0.43888121821361004,-0.6603196519389686,-0.019840174030515717
10.63600360576923,-0.4851448267641495,-0.6471014780673858,-0.026449260966307068
10.644000600961538,-0.531408435314689,-0.6338833041958032,-0.03305834790209842
10.651997596153846,-0.5776720438652284,-0.6206651303242204,-0.03966743483788977
10.659994591346154,-0.6239356524157679,-0.6074469564526377,-0.04627652177368113
10.667991586538461,-0.6701992609663073,-0.594228782581055,-0.05288560870947248
10.675988581730769,-0.7164628695168468,-0.5810106087094723,-0.059494695645263836
10.683985576923076,-0.7627264780673862,-0.5677924348378897,-0.06610378258105519
10.691982572115384,-0.8089900866179258,-0.5545742609663069,-0.07271286951684654
10.699979567307691,-0.8552536951684653,-0.5413560870947243,-0.07932195645263788
10.707976562499999,-0.9015173037190047,-0.5281379132231415,-0.08593104338842925
10.715973557692308,-0.9477809122695544,-0.5149197393515559,-0.09254013032422206
10.723970552884616,-0.9940445208200939,-0.5017015654799732,-0.09914921726001341
10.731967548076923,-1.0,-1.0067307692307748,0.026682692307693656
10.739964543269231,-1.0,-1.4441652097902045,0.17208260489510224
10.747961538461539,-0.8076923076923281,-1.7,0.34807692307691795
10.755958533653846,-0.45798910910519075,-1.6005923763736336,0.42840217817896187
10.763955528846154,-0.2947851255887082,-1.4863495879120956,0.46104297488225837
10.771952524038461,-0.13158114207222554,-1.3721067994505578,0.4936837715855549
10.779949519230769,0.03162284144425709,-1.25786401098902,0.5263245682888514
10.787946514423076,0.19482682496073978,-1.1436212225274822,0.558965364992148
10.795943509615384,0.35803080847722235,-1.0293784340659444,0.5916061616954444
10.803940504807692,2.1433413461536537,-0.8611899038461677,0.5611899038461676
10.811937499999999,2.967083333333342,-0.7615972222222323,0.483541666666671
10.819934495192307,2.9137700320512914,-0.6993983707265067,0.4568850160256457
10.827931490384616,2.860456730769229,-0.6371995192307672,0.4302283653846145
10.835928485576924,2.8071434294871787,-0.5750006677350417,0.40357171474358927
10.843925480769231,2.753830128205128,-0.512801816239316,0.376915064102564
10.851922475961539,2.7005168269230775,-0.45060296474359035,0.35025841346153874
10.859919471153846,2.647203525641027,-0.3884041132478648,0.32360176282051345
10.867916466346154,2.5938902243589763,-0.32620526175213915,0.2969451121794882
10.875913461538461,2.5405769230769257,-0.26400641025641347,0.270288461538463
10.883910456730769,2.487263621794875,-0.2018075587606879,0.24363181089743768
10.891907451923077,2.4339503205128246,-0.13960870726496233,0.21697516025641245
10.899904447115384,2.8356670673075604,0.33566706730756035,0.00637019230775096
10.907901442307692,3.9558250777001067,-0.33649232711730326,-0.6076825951825902
10.9158984375,3.7700363005050828,-0.4899700126262361,-0.6399936868686813
10.923895432692307,3.584247523310059,-0.6434476981351689,-0.6723047785547723
10.931892427884614,3.398458746115035,-0.7969253836441017,-0.7046158702408635
10.939889423076924,3.21266996891997,-0.9504030691530685,-0.7369269619269618
10.947886418269231,3.026881191724946,-1.1038807546620013,-0.7692380536130529
10.955883413461539,2.841092414529922,-1.2573584401709341,-0.801549145299144
10.963880408653846,2.6553036373348986,-1.410836125679867,-0.833860236985235
10.971877403846154,2.469514860139874,-1.5643138111887998,-0.8661713286713262
10.979874399038462,2.2837260829448507,-1.7177914966977323,-0.8984824203574173
10.987871394230769,2.0979373057498267,-1.8712691822066652,-0.9307935120435085
10.995868389423077,1.9121485285548028,-2.024746867715598,-0.9631046037295996
11.003865384615384,1.7263597513597793,-2.178224553224531,-0.9954156954156907
11.011862379807692,0.34917269500360965,-0.2080253639467985,-0.6775785181523852
11.019859375,0.2071699766355305,-0.23044684579438993,-0.8943195093457692
11.027856370192307,0.06516725826745134,-0.25286832764198136,-1.1110605005391534
11.035853365384614,-0.0768354601006278,-0.2752898094895728,-1.3278014917325374
11.043850360576922,-0.218838178468707,-0.2977112913371643,-1.5445424829259213
11.051847355769231,-0.36084089683681764,-0.3201327731847607,-1.7612834741193533
11.059844350961539,-0.5028436152048968,-0.34255425503235215,-1.9780244653127372
11.067841346153847,-0.644846333572976,-0.36497573687994356,-2.194765456506121
11.075838341346154,-0.7868490519410553,-0.3873972187275351,-2.411506447699505
11.083835336538462,-0.9288517703091342,-0.4098187005751265,-2.628247438892889
11.09183233173077,-1.0708544886772136,-0.43224018242271794,-2.844988430086273
11.099829326923077,-1.2128572070452925,-0.45466166427030935,-3.0617294212796575
11.107826322115384,-1.354859925413372,-0.4770831461179008,-3.2784704124730415
11.115823317307692,-1.496862643781451,-0.4995046279654923,-3.4952114036664255
11.1238203125,-1.6421874999999835,-1.0687499999999344,1.3343749999994428
11.131817307692307,-0.5759615384615564,-0.336538461538477,0.32932692307697087
11.139814302884615,0.3626155695266156,0.08210983727810983,-0.12683524408283528
11.147811298076922,0.4487370562130054,0.057503698224855584,-0.16374445266271664
11.15580829326923,0.5348585428993953,0.03289755917160135,-0.20065366124259798
11.163805288461539,0.6209800295858042,0.00829142011834165,-0.23756286982248756
11.171802283653847,0.7071015162721941,-0.016314718934912598,-0.2744720784023689
11.179799278846154,0.7932230029585838,-0.04092085798816683,-0.3113812869822503
11.187796274038462,0.8793444896449738,-0.06552699704142106,-0.34829049556213165
11.19579326923077,0.9654659763313636,-0.0901331360946753,-0.385199704142013
11.203790264423077,1.4758052884615405,-0.15161057692308094,-0.07258413461537858
11.211787259615384,0.8462105661192831,0.08924211322385663,-0.1
11.219784254807692,0.7563566875540282,0.07127133751080564,-0.1
11.22778125,0.6665028089887732,0.05330056179775466,-0.1
11.235778245192307,0.5766489304235183,0.03532978608470368,-0.1
11.243775240384615,0.4867950518582634,0.01735901037165269,-0.1
11.251772235576922,0.3969411732930085,-0.0006117653413982987,-0.1
11.25976923076923,0.30708729472775353,-0.018582541054449286,-0.1
11.267766225961537,0.21723341616249858,-0.03655331676750026,-0.1
11.275763221153847,0.12737953759722376,-0.05452409248055523,-0.1
11.283760216346154,0.037525659031968805,-0.07249486819360623,-0.1
11.291757211538462,-0.05232821953328615,-0.0904656439066572,-0.1
11.29975420673077,0.4251402243589984,0.3754206730769951,0.14971955128200326
11.307751201923077,0.4749947742474896,0.5499895484949792,0.012502612876255216
11.315748197115385,0.44022522993310903,0.48045045986621804,0.029887385033445478
11.323745192307692,0.4054556856187285,0.410911371237457,0.04727215719063574
11.3317421875,0.37068614130434796,0.34137228260869595,0.064656929347826
11.339739182692307,0.33591659698996745,0.2718331939799349,0.08204170150501627
11.347736177884615,0.30114705267558695,0.20229410535117387,0.09942647366220653
11.355733173076922,0.26637750836120644,0.1327550167224128,0.1168112458193968
11.36373016826923,0.23160796404682588,0.06321592809365173,0.13419601797658706
11.371727163461538,0.19683841973244537,-0.0063231605351092846,0.15158079013377732
11.379724158653845,0.16206887541806486,-0.0758622491638703,0.16896556229096757
11.387721153846154,0.12729933110367658,-0.14540133779264686,0.1863503344481617
11.395718149038462,0.2718149038461328,-0.11409254807693357,0.3718149038461329
11.40371514423077,0.2077258749133799,-0.29690965003464803,0.401545174982676
11.411712139423077,0.24374837577963,-0.282500649688148,0.40874967515592603
11.419709134615385,0.2797708766458801,-0.268091649341648,0.41595417532917606
11.427706129807692,0.31579337751213016,-0.2536826489951479,0.42315867550242603
11.435703125,0.35181587837838024,-0.23927364864864792,0.43036317567567606
11.443700120192307,0.38783837924463027,-0.22486464830214786,0.4375676758489261
11.451697115384615,0.4238608801108804,-0.21045564795564783,0.4447721760221761
11.459694110576923,0.45988338097713044,-0.1960466476091478,0.4519766761954261
11.46769110576923,0.4959058818433805,-0.18163764726264778,0.4591811763686761
11.475688100961538,0.5319283827096306,-0.16722864691614775,0.46638567654192614
11.483685096153845,0.5679508835758806,-0.15281964656964772,0.47359017671517617
11.491682091346153,0.6039733844421308,-0.1384106462231477,0.48079467688842614
11.499679086538462,0.6399958853083889,-0.12400164587664445,0.4879991770616778
11.50767608173077,0.6760183861746389,-0.10959264553014442,0.4952036772349278
11.515673076923077,0.6809065934065891,-0.0045329670329459365,0.6145604395604649
11.523670072115385,0.6237851991758182,0.281074004120909,0.9572888049450909
11.531667067307692,0.3,0.5950236796785282,1.102488160160736
11.5396640625,0.3,0.5711520522388042,1.1144239738805979
11.547661057692308,0.3,0.5472804247990801,1.12635978760046
11.555658052884615,0.3,0.5234087973593562,1.138295601320322
11.563655048076923,0.3,0.49953716991963215,1.150231415040184
11.57165204326923,0.3,0.4756655424799081,1.162167228760046
11.579649038461538,0.3,0.4517939150401841,1.174103042479908
11.587646033653845,0.3,0.42792228760046014,1.18603885619977
11.595643028846153,0.3,0.4040506601607361,1.1979746699196319
11.60364002403846,0.3679987980769731,0.16799879807697313,0.8039963942309194
11.61163701923077,0.18861208236208088,0.20569395881895958,0.2943060411810404
11.619634014423077,0.17245653651903534,0.21377173174048236,0.28622826825951764
11.627631009615385,0.15630099067598976,0.22184950466200512,0.27815049533799485
11.635628004807693,0.14014544483294422,0.2299272775835279,0.2700727224164721
11.643625,0.12398989898989866,0.23800505050505066,0.26199494949494934
11.651621995192308,0.1078343531468531,0.24608282342657345,0.25391717657342655
11.659618990384615,0.09167880730380755,0.25416059634809623,0.24583940365190377
11.667615985576923,0.07552326146076199,0.262238369269619,0.23776163073038098
11.67561298076923,0.05936771561771642,0.27031614219114175,0.22968385780885822
11.683609975961538,0.04321216977467088,0.27839391511266454,0.22160608488733544
11.691606971153846,0.027056623931625334,0.2864716880341873,0.21352831196581268
11.699603966346153,0.010901078088579763,0.2945494609557101,0.2054505390442899
11.70760096153846,0.13004807692304265,0.3650240384615213,0.004927884615436001
11.715597956730768,0.1,0.7,-0.2
11.723594951923078,0.1,0.7,-0.2
11.731591947115385,0.1,0.7,-0.2
11.739588942307693,0.1,0.7,-0.2
11.7475859375,0.1,0.7,-0.2
11.755582932692308,0.1,0.7,-0.2
11.763579927884615,0.1,0.7,-0.2
11.771576923076923,0.1,0.7,-0.2
11.77957391826923,0.1,0.7,-0.2
11.787570913461538,0.1,0.7,-0.2
11.795567908653846,-0.07119391025641841,-0.0703725961538828,0.3135817307692553
11.803564903846153,0.06183226495725497,-0.8473290598290198,0.2145032051282351
11.81156189903846,0.1,-1.0230398941336383,0.08617606351981706
11.819558894230768,0.1,-1.063428758741252,0.061942744755248726
11.827555889423076,0.1,-1.1038176233488661,0.03770942599068039
11.835552884615385,0.1,-1.1442064879564888,0.013476107226106676
11.843549879807693,0.1,-1.1845953525641026,-0.010757211538461667
11.851546875,0.1,-1.2249842171717167,-0.03499053030303001
11.859543870192308,0.1,-1.2653730817793305,-0.05922384906759834
11.867540865384616,0.1,-1.3057619463869443,-0.08345716783216667
11.875537860576923,0.1,-1.3461508109945584,-0.107690486596735
11.88353485576923,0.1,-1.3865396756021722,-0.13192380536130333
11.891531850961538,0.1,-1.426928540209786,-0.15615712412587165
11.899528846153846,0.1,-1.4673174048174,-0.18039044289044
11.907525841346153,0.11173724112425198,-1.3591531065089764,-0.29389792899401584
11.915522836538461,0.17325258875738758,-0.6209689349113492,-0.7860207100591006
11.923519831730768,-0.09876230540293235,-0.2,-0.3012376945970677
11.931516826923076,-0.07972184065934282,-0.2,-0.3202781593406572
11.939513822115384,-0.06068137591575329,-0.2,-0.33931862408424673
11.947510817307693,-0.04164091117215953,-0.2,-0.35835908882784046
11.9555078125,-0.02260044642857001,-0.2,-0.37739955357142996
11.963504807692308,-0.003559981684980479,-0.2,-0.3964400183150195
11.971501802884616,0.015480483058609051,-0.2,-0.4154804830586091
11.979498798076923,0.03452094780219858,-0.2,-0.4345209478021986
11.98749579326923,0.05356141254578811,-0.2,-0.4535614125457881
11.995492788461538,0.07260187728937761,-0.2,-0.47260187728937764
12.003489783653846,0.09164234203296714,-0.2,-0.49164234203296714
12.011486778846153,0.0,-0.3,-1.8177283653842449
12.019483774038461,0.4,0.2,-0.7
12.027480769230769,0.4,0.2,-0.7
12.035477764423076,0.4,0.2,-0.7
12.043474759615384,0.4,0.2,-0.7
12.051471754807691,0.4,0.2,-0.7
12.05946875,0.4,0.2,-0.7
12.067465745192308,0.4,0.2,-0.7
12.075462740384616,0.4,0.2,-0.7
12.083459735576923,0.4,0.2,-0.7
12.09145673076923,0.4,0.2,-0.7
12.099453725961538,0.4,0.2,-0.7
12.107450721153846,0.1,-0.0016300237683664488,-0.004890071305099346
12.115447716346154,0.1,-0.010615411624891762,-0.031846234874675285
12.123444711538461,0.1,-0.019600799481417075,-0.058802398444251225
12.131441706730769,0.1,-0.028586187337942385,-0.08575856201382716
12.139438701923076,0.1,-0.0375715751944677,-0.11271472558340309
12.147435697115384,0.1,-0.04655696305099301,-0.13967088915297904
12.155432692307691,0.1,-0.05554235090751832,-0.16662705272255496
12.163429687499999,0.1,-0.06452773876404364,-0.1935832162921309
12.171426682692308,0.1,-0.07351312662057094,-0.22053937986171285
12.179423677884616,0.1,-0.08249851447709626,-0.24749554343128877
12.187420673076923,0.1,-0.09148390233362157,-0.2744517070008647
12.195417668269231,0.08607772435897616,-0.07215544871795233,-0.2582331730769285
12.203414663461539,0.09865270146520132,0.0013472985347986834,0.0013472985347986834
12.211411658653846,0.09103651556776557,0.00896348443223443,0.00896348443223443
12.219408653846154,0.08342032967032983,0.016579670329670174,0.016579670329670174
12.227405649038461,0.07580414377289409,0.024195856227105923,0.024195856227105923
12.235402644230769,0.06818795787545834,0.03181204212454167,0.03181204212454167
12.243399639423076,0.06057177197802259,0.039428228021977416,0.039428228021977416
12.251396634615384,0.05295558608058685,0.04704441391941316,0.04704441391941316
12.259393629807692,0.0453394001831511,0.054660599816848905,0.054660599816848905
12.267390624999999,0.03772321428571535,0.06227678571428465,0.06227678571428465
12.275387620192307,0.03010702838827961,0.0698929716117204,0.0698929716117204
12.283384615384616,0.02249084249084217,0.07750915750915784,0.07750915750915784
12.291381610576924,0.014874656593406421,0.08512534340659358,0.08512534340659358
12.299378605769231,0.007258470695970673,0.09274152930402933,0.09274152930402933
12.307375600961539,0.0,0.1,0.07495993589744596
12.315372596153846,0.2,0.2,0.004961190917516437
12.323369591346154,0.2,0.2,0.03386599281742323
12.331366586538461,0.2,0.2,0.06277079471733003
12.339363581730769,0.2,0.2,0.09167559661723683
12.347360576923077,0.2,0.2,0.12058039851714362
12.355357572115384,0.2,0.2,0.1494852004170504
12.363354567307692,0.2,0.2,0.1783900023169572
12.3713515625,0.2,0.2,0.20729480421686403
12.379348557692307,0.2,0.2,0.23619960611677082
12.387345552884614,0.2,0.2,0.2651044080166776
12.395342548076922,0.2,0.2,0.2940092099165844
12.403339543269231,0.13302283653842117,0.3,0.4
12.411336538461539,0.10764222756410305,0.29235777243589695,0.392357772435897
12.419333533653846,0.11597243088942341,0.2840275691105766,0.3840275691105766
12.427330528846154,0.12430263421474379,0.2756973657852562,0.37569736578525625
12.435327524038462,0.13263283754006416,0.26736716245993586,0.36736716245993584
12.443324519230769,0.14096304086538453,0.25903695913461544,0.3590369591346155
12.451321514423077,0.14929324419070492,0.2507067558092951,0.3507067558092951
12.459318509615384,0.1576234475160253,0.24237655248397472,0.34237655248397475
12.467315504807692,0.16595365084134567,0.23404634915865435,0.33404634915865433
12.4753125,0.17428385416666603,0.225716145833334,0.32571614583333397
12.483309495192307,0.1826140574919864,0.21738594250801363,0.3173859425080136
12.491306490384614,0.19094426081730678,0.20905573918269327,0.30905573918269325
12.499303485576922,0.19927446414262717,0.20072553585737288,0.3007255358573728
12.50730048076923,0.12699519230770223,0.2,0.2269951923077022
12.515297475961539,0.2,0.1,0.40239320412660323
12.523294471153847,0.2,0.1,0.4107234074519236
12.531291466346154,0.2,0.1,0.41905361077724396
12.539288461538462,0.2,0.1,0.4273838141025643
12.54728545673077,0.2,0.1,0.4357140174278847
12.555282451923077,0.2,0.1,0.44404422075320504
12.563279447115384,0.2,0.1,0.45237442407852546
12.571276442307692,0.2,0.1,0.4607046274038458
12.5792734375,0.2,0.1,0.4690348307291662
12.587270432692307,0.2,0.1,0.47736503405448655
12.595267427884615,0.2,0.1,0.4856952373798069
12.603264423076922,0.2,0.1,0.4940254407051273
12.61126141826923,0.35076121794864523,0.024619391025677367,0.5
12.619258413461537,0.7,-0.3251682692307403,0.29370793269231493
12.627255408653847,0.7,-0.48510817307693055,0.25372295673076734
12.635252403846154,0.7,-0.6450480769230853,0.21373798076922867
12.643249399038462,0.7,-0.7204522040459553,0.1931825986513482
12.65124639423077,0.7,-0.751609328171829,0.1827968906093903
12.659243389423077,0.7,-0.7827664522977027,0.17241118256743243
12.667240384615384,0.7,-0.8139235764235764,0.16202547452547456
12.675237379807692,0.7,-0.8450807005494501,0.15163976648351668
12.683234375,0.7,-0.8762378246753236,0.14125405844155878
12.691231370192307,0.7,-0.9073949488011973,0.1308683503996009
12.699228365384615,0.7,-0.9385520729270709,0.12048264235764301
12.707225360576922,0.7,-0.9697091970529446,0.11009693431568512
12.71522235576923,0.6629407051283313,-0.9481169871796639,0.08517628205133254
12.723219350961537,-0.7028453217455607,0.2,-0.005690643491121476
12.731216346153845,-0.7130978796844166,0.2,-0.02619575936883334
12.739213341346154,-0.7233504376232749,0.2,-0.04670087524654976
12.747210336538462,-0.7336029955621308,0.2,-0.06720599112426162
12.75520733173077,-0.7438555535009868,0.2,-0.08771110700197349
12.763204326923077,-0.7541081114398427,0.2,-0.10821622287968535
12.771201322115385,-0.7643606693786986,0.2,-0.12872133875739722
12.779198317307692,-0.7746132273175546,0.2,-0.14922645463510908
12.7871953125,-0.7848657852564105,0.2,-0.16973157051282095
12.795192307692307,-0.7951183431952664,0.2,-0.19023668639053282
12.803189302884615,-1.0094651442307614,-0.358573717948697,-0.9680388621794587
12.811186298076922,0.7895890567765566,0.6,-0.9713699061355304
12.81918329326923,0.7515081272893783,0.6,-0.8666473500457903
12.827180288461538,0.7134271978022001,0.6,-0.7619247939560501
12.835177283653845,0.6753462683150218,0.6,-0.6572022378663099
12.843174278846153,0.6372653388278435,0.6,-0.5524796817765698
12.851171274038462,0.5991844093406569,0.6,-0.44775712568680626
12.85916826923077,0.5611034798534786,0.6,-0.34303456959706613
12.867165264423077,0.5230225503663004,0.6,-0.2383120135073259
12.875162259615385,0.4849416208791221,0.6,-0.13358945741758577
12.883159254807692,0.44686069139194384,0.6,-0.02886690132784553
12.89115625,0.4087797619047656,0.6,0.07585565476189471
12.899153245192307,-0.03951751373621737,0.1604824862637826,0.012096497252756522
12.907150240384615,-0.20305848581030592,-0.0030584858103059184,0.0
12.915147235576923,-0.2108225588125463,-0.010822558812546292,0.0
12.92314423076923,-0.21858663181478666,-0.018586631814786665,0.0
12.931141225961538,-0.22635070481702704,-0.02635070481702704,0.0
12.939138221153845,-0.23411477781926743,-0.03411477781926741,0.0
12.947135216346153,-0.24187885082150778,-0.04187885082150779,0.0
12.95513221153846,-0.24964292382374814,-0.04964292382374816,0.0
12.96312920673077,-0.2574069968259902,-0.05740699682599026,0.0
12.971126201923077,-0.26517106982823063,-0.06517106982823063,0.0
12.979123197115385,-0.272935142830471,-0.072935142830471,0.0
12.987120192307692,-0.28069921583271135,-0.08069921583271138,0.0
12.9951171875,-0.28846328883495176,-0.08846328883495175,0.0
13.003114182692308,-0.2962273618371921,-0.09622736183719213,0.0
13.011111177884615,-0.21190333104396153,-0.07063444368132052,0.0
13.019108173076923,-0.04053914835167027,-0.013513049450556772,0.0
13.02710516826923,0.0,0.0,0.0
13.035102163461538,0.0,0.0,0.0
13.043099158653845,0.0,0.0,0.0
13.051096153846153,0.0,0.0,0.0
13.05909314903846,0.0,0.0,0.0
13.067090144230768,0.0,0.0,0.0
13.075087139423077,0.0,0.0,0.0
13.083084134615385,0.0,0.0,0.0
13.091081129807693,0.0,0.0,0.0
13.099078125,0.0,0.0,0.0
13.107075120192308,0.0,0.0,0.0
13.115072115384615,0.0,0.0,0.0
13.123069110576923,0.0,0.0,0.0
13.13106610576923,0.0,0.0,0.0
13.139063100961538,0.0,0.0,0.0
13.147060096153846,0.0,0.0,0.0
13.155057091346153,0.0,0.0,0.0
13.16305408653846,0.0,0.0,0.0
13.171051081730768,0.0,0.0,0.0
13.179048076923076,0.0,0.0,0.0
13.187045072115385,0.0,0.0,0.0
13.195042067307693,0.0,0.0,0.0
13.2030390625,0.0,0.0,0.0
13.211036057692308,0.0,0.0,0.0
13.219033052884615,0.0,0.0,0.0
13.227030048076923,0.0,0.0,0.0
13.23502704326923,0.0,0.0,0.0
13.243024038461538,0.0,0.0,0.0
13.251021033653846,0.0,0.0,0.0
13.259018028846153,0.0,0.0,0.0
13.26701502403846,0.0,0.0,0.0
13.275012019230768,0.0,0.0,0.0
13.283009014423076,0.0,0.0,0.0
13.291006009615383,0.0,0.0,0.0
13.299003004807693,0.0,0.0,0.0
13.307,0.0,0.0,0.0
