accel_time_list,vertical_Accel_x,vertical_Accel_y,vertical_Accel_z
0.0,-0.647,3.125,-7.358
0.008,-1.0554477611940298,4.301589552238807,-9.07542537313433
0.016,-0.9926417910447761,4.273828358208956,-9.108559701492538
0.024,-0.9298358208955224,4.246067164179105,-9.141694029850747
0.032,-0.8670298507462686,4.218305970149254,-9.174828358208956
0.04,-0.8042238805970149,4.1905447761194035,-9.207962686567164
0.048,-0.7414179104477612,4.162783582089553,-9.241097014925373
0.056,-0.6786119402985074,4.135022388059702,-9.274231343283583
0.064,-0.6158059701492536,4.107261194029851,-9.307365671641792
0.07200000000000001,-0.5529999999999999,4.0795,-9.3405
0.08,-0.4901940298507462,4.05173880597015,-9.373634328358209
0.088,-0.4273880597014925,4.023977611940299,-9.406768656716418
0.096,-0.3645820895522388,3.996216417910448,-9.439902985074628
0.10400000000000001,-0.301776119402985,3.9684552238805972,-9.473037313432837
0.112,-0.23897014925373128,3.9406940298507465,-9.506171641791045
0.12,-0.17616417910447768,3.9129328358208957,-9.539305970149254
0.128,-0.11335820895522386,3.885171641791045,-9.572440298507463
0.136,-0.05055223880597004,3.857410447761194,-9.605574626865671
0.14400000000000002,-0.35092941176470577,3.786835294117647,-9.135435294117647
0.152,-0.3263647058823529,3.8015176470588234,-9.114917647058823
0.16,-0.30179999999999996,3.8162000000000003,-9.0944
0.168,-0.27723529411764697,3.8308823529411766,-9.073882352941176
0.176,-0.2526705882352941,3.845564705882353,-9.053364705882354
0.184,-0.22810588235294116,3.8602470588235294,-9.03284705882353
0.192,-0.2035411764705882,3.8749294117647057,-9.012329411764705
0.2,-0.17897647058823524,3.889611764705882,-8.991811764705883
0.20800000000000002,-0.15441176470588228,3.904294117647059,-8.971294117647059
0.216,-0.12984705882352943,3.9189764705882353,-8.950776470588234
0.224,-0.10528235294117647,3.9336588235294117,-8.930258823529412
0.232,-0.45899999999999996,4.029,-9.074
0.24,-0.4900967741935484,3.9770645161290323,-9.100451612903225
0.248,-0.4810645161290323,3.9737096774193548,-9.092967741935484
0.256,-0.47203225806451615,3.970354838709677,-9.08548387096774
0.264,-0.463,3.967,-9.078
0.272,-0.45396774193548384,3.9636451612903225,-9.070516129032258
0.28,-0.4449354838709677,3.960290322580645,-9.063032258064515
0.28800000000000003,-0.4359032258064516,3.956935483870968,-9.055548387096774
0.296,-0.4268709677419355,3.9535806451612903,-9.048064516129031
0.304,-0.4178387096774194,3.9502258064516127,-9.04058064516129
0.312,-0.40880645161290324,3.946870967741935,-9.033096774193547
0.32,-0.3997741935483871,3.943516129032258,-9.025612903225806
0.328,-0.491,3.921,-9.026
0.336,-0.407,3.959,-8.88
0.34400000000000003,-0.407,3.959,-8.88
0.352,-0.407,3.959,-8.88
0.36,-0.407,3.959,-8.88
0.368,-0.407,3.959,-8.88
0.376,-0.407,3.959,-8.88
0.384,-0.407,3.959,-8.88
0.392,-0.407,3.959,-8.88
0.4,-0.407,3.959,-8.88
0.40800000000000003,-0.407,3.959,-8.88
0.41600000000000004,-0.407,3.959,-8.88
0.424,-0.407,3.959,-8.88
0.432,-0.51275,3.95234375,-8.615874999999999
0.44,-0.5174166666666666,4.0945937500000005,-8.479541666666666
0.448,-0.5220833333333333,4.23684375,-8.343208333333333
0.456,-0.52675,4.37909375,-8.206875
0.464,-0.5314166666666666,4.521343750000001,-8.070541666666665
0.47200000000000003,-0.5360833333333334,4.66359375,-7.934208333333332
0.48,-0.54075,4.805843749999999,-7.797875
0.488,-0.5454166666666667,4.94809375,-7.6615416666666665
0.496,-0.5500833333333333,5.09034375,-7.5252083333333335
0.504,-0.55475,5.2325937499999995,-7.388875
0.512,-0.5594166666666667,5.37484375,-7.252541666666667
0.52,-0.5640833333333333,5.51709375,-7.116208333333333
0.528,-0.9055000000000002,5.396,-6.1795
0.536,0.08451086956521744,5.784717391304348,-6.199945652173913
0.544,0.1872065217391306,5.786630434782609,-6.1944673913043475
0.552,0.2899021739130438,5.78854347826087,-6.188989130434782
0.56,0.3925978260869569,5.79045652173913,-6.183510869565217
0.5680000000000001,0.4952934782608701,5.792369565217391,-6.178032608695652
0.5760000000000001,0.5979891304347833,5.794282608695652,-6.172554347826087
0.584,0.700684782608695,5.796195652173913,-6.167076086956522
0.592,0.8033804347826082,5.798108695652174,-6.161597826086957
0.6,0.9060760869565214,5.800021739130435,-6.1561195652173915
0.608,1.0087717391304345,5.801934782608695,-6.150641304347826
0.616,1.1114673913043478,5.803847826086956,-6.145163043478261
0.624,1.2141630434782609,5.805760869565217,-6.139684782608696
0.632,0.7799381443298969,5.743515463917526,-6.006144329896907
0.64,0.7396907216494845,5.681577319587629,-5.998721649484536
0.648,0.6994432989690721,5.619639175257732,-5.991298969072165
0.656,0.6591958762886596,5.557701030927835,-5.983876288659794
0.664,0.6189484536082472,5.495762886597938,-5.9764536082474224
0.672,0.5787010309278349,5.433824742268041,-5.9690309278350515
0.68,0.5384536082474224,5.371886597938144,-5.961608247422681
0.6880000000000001,0.49820618556700996,5.309948453608247,-5.95418556701031
0.6960000000000001,0.4579587628865976,5.24801030927835,-5.946762886597938
0.704,0.4177113402061857,5.186072164948454,-5.939340206185567
0.712,0.3774639175257733,5.124134020618557,-5.931917525773196
0.72,0.33721649484536087,5.06219587628866,-5.924494845360825
0.728,0.5960000000000001,4.9335,-5.6129999999999995
0.736,-0.23619999999999974,7.1344,-3.953
0.744,-1.1091176470588235,7.258282352941176,-3.5795882352941177
0.752,-1.1853529411764707,7.146847058823529,-3.624764705882353
0.76,-1.261588235294118,7.0354117647058825,-3.6699411764705885
0.768,-1.337823529411765,6.923976470588235,-3.7151176470588236
0.776,-1.4140588235294123,6.812541176470588,-3.7602941176470592
0.784,-1.4902941176470594,6.70110588235294,-3.8054705882352944
0.792,-1.5665294117647066,6.589670588235293,-3.8506470588235295
0.8,-1.6427647058823536,6.4782352941176455,-3.895823529411765
0.808,-1.7190000000000007,6.366799999999999,-3.9410000000000003
0.8160000000000001,-1.795235294117648,6.255364705882352,-3.986176470588236
0.8240000000000001,-1.871470588235295,6.143929411764704,-4.031352941176471
0.8320000000000001,-3.4834893617021243,9.100340425531915,-3.471234042553192
0.84,-3.231404255319149,9.135063829787233,-3.4811063829787234
0.848,-2.9793191489361703,9.169787234042554,-3.4909787234042553
0.856,-2.7272340425531914,9.204510638297872,-3.500851063829787
0.864,-2.475148936170213,9.239234042553191,-3.510723404255319
0.872,-2.2230638297872343,9.273957446808511,-3.520595744680851
0.88,-1.9709787234042553,9.30868085106383,-3.530468085106383
0.888,-1.7188936170212765,9.343404255319149,-3.540340425531915
0.896,-1.4668085106382978,9.378127659574467,-3.550212765957447
0.904,-1.2147234042553192,9.412851063829788,-3.560085106382979
0.912,-0.9626382978723402,9.447574468085106,-3.5699574468085107
0.92,-0.7105531914893617,9.482297872340425,-3.5798297872340425
0.928,-1.766,12.186,-0.751
0.936,-1.8092000000000006,13.006000000000009,-2.078200000000015
0.9440000000000001,-1.4912413793103383,13.734655172413804,-2.3600689655172404
0.9520000000000001,-1.0528965517241309,14.432862068965528,-2.2934942528735625
0.96,-0.6145517241379295,15.131068965517244,-2.226919540229885
0.968,-0.17620689655172206,15.829275862068968,-2.1603448275862065
0.976,0.26213793103448535,16.527482758620692,-2.0937701149425285
0.984,0.7004827586206928,17.225689655172417,-2.02719540229885
0.992,1.1388275862069006,17.923896551724145,-1.9606206896551719
1.0,1.577172413793108,18.62210344827587,-1.8940459770114937
1.008,2.0155172413793156,19.320310344827593,-1.8274712643678153
1.016,2.453862068965523,20.018517241379318,-1.760896551724137
1.024,2.8922068965517305,20.716724137931045,-1.6943218390804589
1.032,0.3731199999999999,5.64292,-6.60548
1.04,0.21359999999999954,5.7386,-6.087399999999999
1.048,0.054079999999999184,5.834280000000001,-5.569319999999998
1.056,-0.10544000000000114,5.92996,-5.051239999999996
1.064,-0.26496000000000147,6.025640000000001,-4.533159999999995
1.072,-0.4244800000000019,6.121320000000001,-4.015079999999994
1.08,-0.5840000000000023,6.217000000000001,-3.496999999999993
1.088,-0.7435200000000024,6.312680000000002,-2.9789199999999916
1.096,-0.903040000000003,6.408360000000002,-2.4608399999999904
1.104,-1.0625600000000033,6.5040400000000025,-1.9427599999999892
1.112,-1.2220800000000036,6.599720000000002,-1.424679999999988
1.12,-1.381600000000004,6.695400000000003,-0.9065999999999867
1.1280000000000001,-1.5411200000000043,6.791080000000003,-0.38851999999998554
1.1360000000000001,-2.6593333333333207,9.826000000000036,-2.337333333333332
1.1440000000000001,-2.199999999999882,11.100000000000051,-2.299999999999942
1.1520000000000001,-1.111199999999999,11.514199999999999,-1.7602249999999993
1.16,-1.0768,11.4398,-1.7325249999999999
1.168,-1.0424,11.365400000000001,-1.704825
1.176,-1.008,11.291,-1.677125
1.184,-0.9736,11.2166,-1.649425
1.192,-0.9392,11.1422,-1.621725
1.2,-0.9048,11.0678,-1.594025
1.208,-0.8704000000000001,10.993400000000001,-1.566325
1.216,-0.8360000000000001,10.919,-1.538625
1.224,-0.8016,10.8446,-1.510925
1.232,0.159,9.003,-0.383
1.24,0.07851515151515154,8.724636363636364,0.37269696969696975
1.248,0.09920202020202024,8.772151515151515,0.42562626262626274
1.256,0.11988888888888896,8.819666666666667,0.47855555555555573
1.264,0.14057575757575766,8.867181818181818,0.5314848484848487
1.272,0.16126262626262639,8.91469696969697,0.5844141414141417
1.28,0.18194949494949508,8.96221212121212,0.6373434343434348
1.288,0.2026363636363638,9.009727272727273,0.6902727272727277
1.296,0.2233232323232325,9.057242424242425,0.7432020202020206
1.304,0.2440101010101012,9.104757575757576,0.7961313131313137
1.312,0.26469696969696993,9.152272727272727,0.8490606060606067
1.32,0.28538383838383863,9.199787878787879,0.9019898989898996
1.328,0.3060707070707074,9.24730303030303,0.9549191919191926
1.336,1.142,10.641,-0.009000000000000008
1.344,0.980629213483146,10.274865168539325,-0.3343820224719101
1.352,0.9361348314606741,10.178685393258426,-0.3322247191011236
1.36,0.8916404494382021,10.082505617977528,-0.3300674157303371
1.368,0.8471460674157302,9.986325842696628,-0.3279101123595506
1.3760000000000001,0.8026516853932582,9.89014606741573,-0.325752808988764
1.3840000000000001,0.7581573033707862,9.79396629213483,-0.3235955056179775
1.3920000000000001,0.7136629213483143,9.697786516853931,-0.321438202247191
1.4000000000000001,0.6691685393258423,9.601606741573033,-0.3192808988764045
1.408,0.6246741573033716,9.505426966292136,-0.31712359550561803
1.416,0.5801797752808996,9.409247191011236,-0.3149662921348315
1.424,0.5356853932584276,9.313067415730337,-0.31280898876404495
1.432,0.965,9.804,-0.105
1.44,0.981,9.798947368421054,-0.14272631578947373
1.448,0.997,9.793894736842105,-0.18045263157894748
1.456,1.0130000000000001,9.788842105263159,-0.2181789473684212
1.464,1.0290000000000001,9.78378947368421,-0.2559052631578949
1.472,1.0450000000000002,9.778736842105264,-0.2936315789473687
1.48,1.0610000000000002,9.773684210526316,-0.3313578947368424
1.488,1.0770000000000002,9.76863157894737,-0.3690842105263161
1.496,1.0930000000000002,9.763578947368421,-0.40681052631578984
1.504,1.1090000000000002,9.758526315789474,-0.4445368421052636
1.512,1.1250000000000002,9.753473684210526,-0.48226315789473734
1.52,1.1410000000000002,9.74842105263158,-0.5199894736842111
1.528,1.147299999999999,9.7504,-0.5527
1.536,1.0856999999999992,9.8016,-0.5503
1.544,0.983,9.838,-0.326
1.552,0.8009506172839501,9.78751851851852,-0.05649382716049354
1.56,0.7700370370370365,9.780111111111111,-0.03762962962962931
1.568,0.7391234567901229,9.772703703703703,-0.018765432098765092
1.576,0.7082098765432092,9.765296296296297,9.876543209913491e-05
1.584,0.6772962962962956,9.757888888888889,0.01896296296296336
1.592,0.646382716049382,9.750481481481481,0.037827160493827575
1.6,0.6154691358024684,9.743074074074073,0.056691358024691815
1.608,0.5845555555555548,9.735666666666667,0.07555555555555603
1.616,0.5536419753086412,9.728259259259259,0.09441975308642024
1.624,0.5227283950617276,9.720851851851851,0.11328395061728448
1.6320000000000001,0.4192708333333336,9.763093750000001,0.026343750000000037
1.6400000000000001,0.43743750000000026,9.77184375,0.029093750000000036
1.6480000000000001,0.4556041666666669,9.780593750000001,0.03184375000000004
1.6560000000000001,0.4737708333333336,9.78934375,0.034593750000000034
1.6640000000000001,0.49193750000000025,9.798093750000001,0.03734375000000004
1.672,0.5101041666666664,9.80684375,0.04009374999999996
1.68,0.528270833333333,9.81559375,0.04284374999999996
1.688,0.5464374999999997,9.82434375,0.04559374999999996
1.696,0.5646041666666665,9.83309375,0.04834374999999996
1.704,0.5827708333333331,9.84184375,0.051093749999999966
1.712,0.6009374999999998,9.850593750000002,0.05384374999999997
1.72,0.6191041666666665,9.85934375,0.056593749999999964
1.728,0.751,9.858,-0.069
1.736,0.9000638297872341,9.730425531914895,-0.0705531914893617
1.744,0.8901914893617021,9.731276595744681,-0.059659574468085105
1.752,0.8803191489361702,9.732127659574468,-0.048765957446808506
1.76,0.8704468085106383,9.732978723404255,-0.03787234042553191
1.768,0.8605744680851064,9.733829787234043,-0.026978723404255313
1.776,0.8507021276595745,9.73468085106383,-0.01608510638297872
1.784,0.8408297872340426,9.735531914893617,-0.00519148936170212
1.792,0.8309574468085107,9.736382978723405,0.00570212765957448
1.8,0.8210851063829787,9.737234042553192,0.016595744680851066
1.808,0.8112127659574468,9.738085106382979,0.027489361702127665
1.816,0.801340425531915,9.738936170212765,0.038382978723404265
1.824,0.791468085106383,9.739787234042554,0.049276595744680865
1.832,0.7496415094339622,9.68711320754717,0.1758584905660376
1.84,0.7467735849056604,9.69601886792453,0.1667264150943395
1.848,0.7439056603773584,9.704924528301888,0.15759433962264138
1.856,0.7410377358490565,9.713830188679246,0.14846226415094327
1.864,0.7381698113207547,9.722735849056605,0.13933018867924515
1.872,0.7353018867924528,9.731641509433963,0.13019811320754704
1.8800000000000001,0.7324339622641509,9.740547169811322,0.12106603773584892
1.8880000000000001,0.729566037735849,9.74945283018868,0.11193396226415081
1.8960000000000001,0.7266981132075471,9.758358490566039,0.1028018867924527
1.9040000000000001,0.7238301886792452,9.767264150943397,0.09366981132075458
1.9120000000000001,0.7209622641509433,9.776169811320756,0.08453773584905647
1.92,0.7180943396226416,9.785075471698113,0.07540566037735862
1.928,0.7152264150943396,9.793981132075471,0.0662735849056605
1.936,0.7123584905660377,9.80288679245283,0.05714150943396239
1.944,0.712,9.804,0.056
1.952,0.649818181818182,9.732272727272726,0.08885714285714273
1.96,0.644,9.741,0.09914285714285706
1.968,0.6381818181818182,9.749727272727272,0.1094285714285714
1.976,0.6323636363636363,9.758454545454546,0.11971428571428572
1.984,0.6265454545454545,9.767181818181818,0.13000000000000006
1.992,0.6207272727272727,9.77590909090909,0.14028571428571437
2.0,0.6149090909090908,9.784636363636364,0.15057142857142872
2.008,0.609090909090909,9.793363636363637,0.16085714285714303
2.016,0.6032727272727272,9.802090909090909,0.17114285714285737
2.024,0.5974545454545452,9.810818181818183,0.18142857142857172
2.032,0.673,9.75,0.181
2.04,0.6725102040816326,9.754224489795918,0.18020408163265303
2.048,0.6712040816326531,9.765489795918368,0.17808163265306118
2.056,0.6698979591836735,9.776755102040816,0.17595918367346935
2.064,0.6685918367346939,9.788020408163266,0.1738367346938775
2.072,0.6672857142857143,9.799285714285714,0.17171428571428565
2.08,0.6659795918367347,9.810551020408164,0.16959183673469383
2.088,0.6646734693877551,9.821816326530612,0.16746938775510198
2.096,0.6633673469387755,9.833081632653062,0.16534693877551013
2.104,0.6620612244897959,9.84434693877551,0.1632244897959183
2.112,0.6607551020408163,9.855612244897959,0.16110204081632645
2.12,0.6594489795918367,9.866877551020409,0.1589795918367346
2.128,0.6581428571428571,9.878142857142857,0.15685714285714278
2.136,0.657,9.888,0.155
2.144,0.635,9.696,0.305
2.152,0.6328536585365854,9.693951219512195,0.29573170731707316
2.16,0.6307073170731707,9.69190243902439,0.28646341463414626
2.168,0.6285609756097561,9.689853658536585,0.2771951219512194
2.176,0.6264146341463415,9.68780487804878,0.2679268292682926
2.184,0.6242682926829268,9.685756097560976,0.25865853658536575
2.192,0.6221219512195122,9.683707317073171,0.24939024390243886
2.2,0.6199756097560976,9.681658536585367,0.24012195121951202
2.208,0.6178292682926829,9.67960975609756,0.23085365853658515
2.216,0.6156829268292683,9.677560975609756,0.2215853658536583
2.224,0.6135365853658535,9.675512195121952,0.21231707317073145
2.232,0.6734105263157897,9.750568421052632,0.17968421052631534
2.24,0.6766947368421055,9.755115789473685,0.16915789473684167
2.248,0.6799789473684212,9.759663157894737,0.158631578947368
2.2560000000000002,0.683263157894737,9.76421052631579,0.14810526315789432
2.2640000000000002,0.6865473684210528,9.768757894736842,0.13757894736842066
2.2720000000000002,0.6898315789473686,9.773305263157894,0.127052631578947
2.2800000000000002,0.6931157894736844,9.777852631578948,0.11652631578947333
2.2880000000000003,0.6964000000000001,9.7824,0.10599999999999965
2.2960000000000003,0.6996842105263159,9.786947368421053,0.09547368421052597
2.3040000000000003,0.7029684210526317,9.791494736842106,0.0849473684210523
2.312,0.7062526315789472,9.796042105263158,0.07442105263157922
2.32,0.709536842105263,9.80058947368421,0.06389473684210555
2.328,0.75,9.686,0.17700000000000002
2.336,0.6891584158415841,9.618831683168317,0.20476237623762378
2.344,0.6878118811881188,9.629762376237624,0.2027821782178218
2.352,0.6864653465346534,9.64069306930693,0.2008019801980198
2.36,0.6851188118811881,9.651623762376238,0.19882178217821783
2.368,0.6837722772277227,9.662554455445544,0.19684158415841585
2.376,0.6824257425742575,9.673485148514851,0.19486138613861387
2.384,0.6810792079207921,9.684415841584158,0.19288118811881189
2.392,0.6797326732673268,9.695346534653465,0.1909009900990099
2.4,0.6783861386138614,9.706277227722772,0.18892079207920792
2.408,0.6770396039603961,9.71720792079208,0.18694059405940594
2.416,0.6756930693069307,9.728138613861386,0.18496039603960396
2.424,0.6743465346534654,9.739069306930693,0.18298019801980198
2.432,0.673,9.75,0.181
2.44,0.6916999999999999,9.765733333333333,0.2811333333333335
2.448,0.6828999999999998,9.754355555555556,0.2948222222222224
2.456,0.6740999999999999,9.742977777777778,0.30851111111111124
2.464,0.6652999999999999,9.7316,0.3222000000000001
2.472,0.6565,9.720222222222223,0.33588888888888896
2.48,0.6476999999999999,9.708844444444445,0.34957777777777777
2.488,0.6389,9.697466666666665,0.3632666666666666
2.496,0.6301,9.686088888888888,0.3769555555555555
2.504,0.6213,9.67471111111111,0.39064444444444435
2.512,0.6125,9.663333333333332,0.4043333333333332
2.52,0.6037000000000001,9.651955555555555,0.4180222222222221
2.528,0.536,9.739,0.213
2.536,0.5741052631578947,9.791210526315789,0.0996315789473682
2.544,0.5726736842105263,9.788347368421052,0.11824210526315773
2.552,0.5712421052631579,9.785484210526315,0.13685263157894728
2.56,0.5698105263157894,9.782621052631578,0.1554631578947368
2.568,0.5683789473684211,9.779757894736841,0.17407368421052635
2.576,0.5669473684210526,9.776894736842104,0.1926842105263159
2.584,0.5655157894736842,9.774031578947369,0.21129473684210542
2.592,0.5640842105263157,9.771168421052632,0.22990526315789495
2.6,0.5626526315789474,9.768305263157895,0.2485157894736845
2.608,0.561221052631579,9.765442105263158,0.26712631578947404
2.616,0.5597894736842105,9.762578947368421,0.28573684210526357
2.624,0.5583578947368422,9.759715789473685,0.30434736842105314
2.632,0.558,9.759,0.309
2.64,0.5589310344827589,9.76009195402299,0.30975862068965543
2.648,0.5663793103448279,9.768827586206896,0.31582758620689677
2.656,0.5738275862068969,9.777563218390805,0.32189655172413817
2.664,0.5812758620689659,9.786298850574713,0.3279655172413795
2.672,0.5887241379310348,9.795034482758622,0.3340344827586209
2.68,0.5961724137931037,9.803770114942528,0.34010344827586225
2.688,0.6036206896551727,9.812505747126437,0.34617241379310365
2.696,0.6110689655172417,9.821241379310345,0.35224137931034505
2.704,0.6185172413793106,9.829977011494252,0.3583103448275864
2.712,0.6259655172413796,9.83871264367816,0.3643793103448278
2.72,0.6334137931034485,9.84744827586207,0.37044827586206913
2.728,0.618,9.834,0.28
2.736,0.558,9.759,0.309
2.744,0.558,9.759,0.309
2.7520000000000002,0.558,9.759,0.309
2.7600000000000002,0.558,9.759,0.309
2.7680000000000002,0.558,9.759,0.309
2.7760000000000002,0.558,9.759,0.309
2.7840000000000003,0.558,9.759,0.309
2.7920000000000003,0.558,9.759,0.309
2.8000000000000003,0.558,9.759,0.309
2.8080000000000003,0.558,9.759,0.309
2.816,0.558,9.759,0.309
2.824,0.558,9.759,0.309
2.832,0.5362268041237114,9.739206185567012,0.21398969072164936
2.84,0.5380412371134021,9.740855670103093,0.22190721649484527
2.848,0.5398556701030928,9.742505154639176,0.22982474226804114
2.856,0.5416701030927835,9.744154639175258,0.23774226804123702
2.864,0.5434845360824743,9.745804123711341,0.24565979381443293
2.872,0.545298969072165,9.747453608247424,0.2535773195876288
2.88,0.5471134020618557,9.749103092783505,0.2614948453608247
2.888,0.5489278350515464,9.750752577319588,0.26941237113402056
2.896,0.5507422680412372,9.75240206185567,0.27732989690721643
2.904,0.5525567010309279,9.754051546391754,0.28524742268041237
2.912,0.5543711340206186,9.755701030927835,0.29316494845360824
2.92,0.5561855670103093,9.757350515463918,0.3010824742268041
2.928,0.558,9.759,0.309
2.936,0.5362173913043478,9.726293478260871,0.5332065217391306
2.944,0.5261304347826086,9.727076086956522,0.5444239130434785
2.952,0.5160434782608695,9.727858695652175,0.5556413043478263
2.96,0.5059565217391303,9.728641304347827,0.5668586956521741
2.968,0.4958695652173912,9.729423913043478,0.5780760869565219
2.976,0.48578260869565204,9.730206521739131,0.5892934782608698
2.984,0.4756956521739129,9.730989130434782,0.6005108695652176
2.992,0.4656086956521738,9.731771739130435,0.6117282608695654
3.0,0.45552173913043464,9.732554347826087,0.6229456521739132
3.008,0.4454347826086955,9.73333695652174,0.634163043478261
3.016,0.4353478260869564,9.73411956521739,0.6453804347826089
3.024,0.42526086956521725,9.734902173913042,0.6565978260869567
3.032,0.3798999999999997,9.7342,0.5629000000000001
3.04,0.326,9.779,0.565
3.048,0.326,9.779,0.565
3.056,0.326,9.779,0.565
3.064,0.326,9.779,0.565
3.072,0.326,9.779,0.565
3.08,0.326,9.779,0.565
3.088,0.326,9.779,0.565
3.096,0.326,9.779,0.565
3.104,0.326,9.779,0.565
3.112,0.326,9.779,0.565
3.12,0.326,9.779,0.565
3.128,0.326,9.779,0.565
3.136,0.36608888888888924,9.832511111111112,0.44202222222222254
3.144,0.37480000000000036,9.8286,0.4502000000000003
3.152,0.3835111111111114,9.82468888888889,0.4583777777777781
3.16,0.3922222222222225,9.820777777777778,0.46655555555555583
3.168,0.4009333333333336,9.816866666666666,0.4747333333333336
3.176,0.4096444444444447,9.812955555555556,0.48291111111111135
3.184,0.4183555555555558,9.809044444444444,0.49108888888888913
3.192,0.42706666666666687,9.805133333333334,0.49926666666666686
3.2,0.435777777777778,9.801222222222222,0.5074444444444446
3.208,0.4444888888888891,9.79731111111111,0.5156222222222224
3.216,0.45320000000000016,9.7934,0.5238000000000002
3.224,0.46191111111111127,9.789488888888888,0.5319777777777779
3.232,0.4676666666666648,9.74766666666667,0.43600000000000005
3.24,0.5216966292134831,9.708370786516854,0.43265168539325843
3.248,0.5270898876404495,9.715112359550561,0.42995505617977525
3.2560000000000002,0.5324831460674158,9.721853932584269,0.4272584269662921
3.2640000000000002,0.537876404494382,9.728595505617978,0.424561797752809
3.2720000000000002,0.5432696629213484,9.735337078651686,0.4218651685393258
3.2800000000000002,0.5486629213483146,9.742078651685393,0.4191685393258427
3.2880000000000003,0.5540561797752809,9.7488202247191,0.41647191011235957
3.2960000000000003,0.5594494382022472,9.755561797752808,0.4137752808988764
3.3040000000000003,0.5648426966292135,9.762303370786517,0.41107865168539326
3.3120000000000003,0.5702359550561799,9.769044943820225,0.4083820224719101
3.3200000000000003,0.5756292134831461,9.775786516853932,0.40568539325842695
3.3280000000000003,0.4420000000000304,9.769000000000002,0.43699999999999267
3.336,0.5591170212765958,9.760117021276596,0.3140531914893616
3.344,0.560904255319149,9.761904255319148,0.32213829787234033
3.352,0.5626914893617021,9.763691489361703,0.3302234042553191
3.36,0.5644787234042553,9.765478723404255,0.3383085106382978
3.368,0.5662659574468085,9.767265957446808,0.3463936170212766
3.376,0.5680531914893617,9.76905319148936,0.35447872340425535
3.384,0.5698404255319149,9.770840425531915,0.36256382978723406
3.392,0.571627659574468,9.772627659574468,0.37064893617021283
3.4,0.5734148936170212,9.77441489361702,0.37873404255319154
3.408,0.5752021276595745,9.776202127659573,0.3868191489361703
3.416,0.5769893617021277,9.777989361702128,0.3949042553191491
3.424,0.5787765957446809,9.77977659574468,0.4029893617021278
3.432,0.511600000000001,9.763,0.36019999999999885
3.44,0.442,9.769,0.437
3.448,0.442,9.769,0.437
3.456,0.442,9.769,0.437
3.464,0.442,9.769,0.437
3.472,0.442,9.769,0.437
3.48,0.442,9.769,0.437
3.488,0.442,9.769,0.437
3.496,0.442,9.769,0.437
3.504,0.442,9.769,0.437
3.512,0.442,9.769,0.437
3.52,0.442,9.769,0.437
3.528,0.403,9.715,0.562
3.536,0.3838988764044945,9.681494382022471,0.7809662921348316
3.544,0.37508988764044954,9.685449438202246,0.7726966292134833
3.552,0.3662808988764046,9.689404494382021,0.7644269662921349
3.56,0.3574719101123596,9.693359550561796,0.7561573033707866
3.568,0.34866292134831467,9.697314606741573,0.7478876404494382
3.576,0.3398539325842697,9.701269662921348,0.73961797752809
3.584,0.33104494382022476,9.705224719101123,0.7313483146067417
3.592,0.3222359550561798,9.709179775280898,0.7230786516853933
3.6,0.31342696629213485,9.713134831460673,0.714808988764045
3.608,0.3046179775280899,9.71708988764045,0.7065393258426966
3.616,0.29580898876404493,9.721044943820225,0.6982696629213483
3.624,0.287,9.725,0.69
3.632,0.25582795698924954,9.840279569892473,0.579870967741939
3.64,0.31045161290322787,9.826516129032258,0.6668387096774225
3.648,0.3650752688172062,9.812752688172043,0.7538064516129062
3.656,0.4196989247311845,9.798989247311829,0.8407741935483897
3.664,0.47432258064516275,9.785225806451614,0.9277419354838733
3.672,0.5289462365591411,9.771462365591399,1.014709677419357
3.68,0.5835698924731194,9.757698924731184,1.1016774193548404
3.688,0.6381935483870977,9.743935483870969,1.188645161290324
3.696,0.692817204301076,9.730172043010754,1.2756129032258077
3.704,0.7474408602150543,9.716408602150539,1.362580645161291
3.712,0.8020645161290326,9.702645161290324,1.4495483870967747
3.72,0.8566881720430108,9.688881720430109,1.5365161290322582
3.728,0.7950000000000029,9.625499999999985,1.8560000000000119
3.736,0.796563829787234,9.417074468085106,1.816255319148936
3.744,0.7942659574468085,9.428393617021277,1.8070638297872337
3.7520000000000002,0.791968085106383,9.439712765957447,1.7978723404255317
3.7600000000000002,0.7896702127659574,9.451031914893617,1.7886808510638295
3.7680000000000002,0.7873723404255318,9.462351063829788,1.7794893617021275
3.7760000000000002,0.7850744680851064,9.473670212765958,1.7702978723404252
3.7840000000000003,0.7827765957446808,9.484989361702128,1.7611063829787232
3.7920000000000003,0.7804787234042553,9.496308510638297,1.751914893617021
3.8000000000000003,0.7781808510638297,9.507627659574467,1.742723404255319
3.8080000000000003,0.7758829787234043,9.518946808510638,1.7335319148936168
3.8160000000000003,0.7735851063829787,9.530265957446808,1.7243404255319148
3.8240000000000003,0.7712872340425532,9.541585106382978,1.7151489361702126
3.8320000000000003,0.7780000000000002,9.545947368421052,1.750105263157896
3.84,0.7859999999999999,9.549315789473685,1.7913684210526313
3.848,0.6965000000000061,9.515499999999992,1.8839999999999884
3.856,0.67075,9.553736842105264,1.9460263157894733
3.864,0.67275,9.554578947368421,1.9563421052631575
3.872,0.67475,9.55542105263158,1.9666578947368418
3.88,0.67675,9.556263157894737,1.976973684210526
3.888,0.67875,9.557105263157895,1.9872894736842106
3.896,0.68075,9.557947368421052,1.9976052631578947
3.904,0.68275,9.558789473684211,2.007921052631579
3.912,0.68475,9.559631578947368,2.018236842105263
3.92,0.68675,9.560473684210526,2.0285526315789477
3.928,0.622,9.488,2.053
3.936,0.557,9.414,2.071
3.944,0.557,9.414,2.071
3.952,0.557,9.414,2.071
3.96,0.557,9.414,2.071
3.968,0.557,9.414,2.071
3.976,0.557,9.414,2.071
3.984,0.557,9.414,2.071
3.992,0.557,9.414,2.071
4.0,0.557,9.414,2.071
4.008,0.557,9.414,2.071
4.016,0.557,9.414,2.071
4.024,0.557,9.414,2.071
4.032,0.39892473118280136,9.487698924731182,2.3045376344086033
4.04,0.5343225806451671,9.453290322580644,2.32483870967742
4.048,0.6697204301075328,9.418881720430107,2.3451397849462374
4.056,0.8051182795698986,9.384473118279569,2.3654408602150547
4.064,0.9405161290322643,9.35006451612903,2.385741935483872
4.072,1.07591397849463,9.315655913978494,2.406043010752689
4.08,1.2113118279569959,9.281247311827956,2.426344086021506
4.088,1.3467096774193617,9.246838709677418,2.4466451612903235
4.096,1.4821075268817272,9.212430107526881,2.466946236559141
4.104,1.6175053763440932,9.178021505376343,2.487247311827958
4.112,1.7529032258064587,9.143612903225804,2.507548387096775
4.12,1.8883010752688247,9.109204301075268,2.5278494623655923
4.128,1.885,8.95,2.352
4.136,1.8818709677419356,9.117720430107527,2.7769139784946235
4.144,1.8800645161290324,9.13647311827957,2.786376344086021
4.152,1.878258064516129,9.155225806451613,2.7958387096774193
4.16,1.8764516129032258,9.173978494623656,2.805301075268817
4.168,1.8746451612903225,9.192731182795699,2.8147634408602147
4.176,1.8728387096774195,9.211483870967742,2.824225806451613
4.184,1.8710322580645162,9.230236559139785,2.8336881720430105
4.192,1.869225806451613,9.248989247311828,2.843150537634408
4.2,1.8674193548387097,9.26774193548387,2.8526129032258063
4.208,1.8656129032258066,9.286494623655914,2.862075268817204
4.216,1.8638064516129034,9.305247311827957,2.871537634408602
4.224,1.862,9.324,2.881
4.232,1.8169090909090915,9.379272727272728,2.8948181818181817
4.24,1.7374999999999985,9.353571428571428,2.882857142857142
4.248,1.6374999999999937,9.27928571428571,2.8554285714285697
4.256,1.7252400000000003,9.199280000000002,2.93468
4.264,1.736226666666667,9.206320000000002,2.9422533333333334
4.272,1.7472133333333337,9.213360000000002,2.9498266666666666
4.28,1.7582000000000004,9.2204,2.9574000000000003
4.288,1.769186666666667,9.22744,2.9649733333333335
4.296,1.7801733333333336,9.23448,2.9725466666666667
4.304,1.7911600000000003,9.24152,2.98012
4.312,1.802146666666667,9.24856,2.9876933333333335
4.32,1.8131333333333335,9.2556,2.9952666666666667
4.328,1.7502499999999896,8.999749999999962,3.0247500000000036
4.336,1.9286170212765954,8.967510638297872,2.972872340425533
4.344,1.9198510638297868,8.968531914893617,2.9846170212765966
4.352,1.9110851063829783,8.969553191489362,2.9963617021276603
4.36,1.90231914893617,8.970574468085106,3.008106382978724
4.368,1.8935531914893613,8.971595744680851,3.0198510638297877
4.376,1.8847872340425529,8.972617021276596,3.0315957446808515
4.384,1.8760212765957445,8.97363829787234,3.043340425531915
4.392,1.8672553191489358,8.974659574468085,3.0550851063829794
4.4,1.8584893617021274,8.97568085106383,3.066829787234043
4.408,1.849723404255319,8.976702127659573,3.078574468085107
4.416,1.8409574468085104,8.977723404255318,3.0903191489361705
4.424,1.832191489361702,8.978744680851063,3.1020638297872343
4.432,1.6453333333333342,8.84066666666666,3.4976666666666714
4.44,1.6438275862068958,8.714655172413792,3.594241379310345
4.448,1.595367816091953,8.689735632183908,3.6295517241379316
4.456,1.5469080459770104,8.664816091954023,3.664862068965518
4.464,1.4984482758620676,8.639896551724137,3.7001724137931045
4.472,1.449988505747125,8.614977011494252,3.7354827586206905
4.48,1.4015287356321822,8.590057471264366,3.770793103448277
4.488,1.3530689655172394,8.565137931034482,3.8061034482758633
4.496,1.3046091954022967,8.540218390804597,3.8414137931034498
4.5040000000000004,1.256149425287354,8.51529885057471,3.8767241379310358
4.5120000000000005,1.2076896551724114,8.490379310344826,3.912034482758622
4.5200000000000005,1.1592298850574687,8.46545977011494,3.9473448275862086
4.5280000000000005,1.324499999999999,8.57850000000003,4.542000000000002
4.5360000000000005,1.3619130434782607,8.65757608695652,4.29236956521739
4.5440000000000005,1.360173913043478,8.652097826086957,4.273760869565216
4.5520000000000005,1.3584347826086955,8.64661956521739,4.255152173913042
4.5600000000000005,1.3566956521739129,8.641141304347826,4.236543478260868
4.5680000000000005,1.3549565217391304,8.63566304347826,4.217934782608694
4.5760000000000005,1.3532173913043477,8.630184782608696,4.19932608695652
4.5840000000000005,1.351478260869565,8.62470652173913,4.180717391304347
4.5920000000000005,1.3497391304347826,8.619228260869566,4.162108695652173
4.6000000000000005,1.3479999999999999,8.61375,4.143499999999999
4.6080000000000005,1.3462608695652172,8.608271739130435,4.124891304347825
4.616,1.344521739130435,8.602793478260871,4.106282608695653
4.624,1.3777499999999845,8.52950000000003,4.072000000000008
4.632,1.598333333333325,8.432875000000001,4.4736249999999975
4.64,1.7509999999999915,8.400625000000002,4.530874999999997
4.648,1.9036666666666582,8.368375000000002,4.588124999999997
4.656,2.056333333333325,8.336125000000001,4.645374999999997
4.664,2.2089999999999916,8.303875000000001,4.702624999999997
4.672,2.3616666666666584,8.271625000000002,4.7598749999999965
4.68,2.514333333333325,8.239375,4.817124999999997
4.688,2.666999999999992,8.207125000000001,4.874374999999997
4.696,2.8196666666666585,8.174875000000002,4.931624999999997
4.704,2.9723333333333253,8.142625,4.988874999999997
4.712,3.124999999999992,8.110375000000001,5.046124999999996
4.72,3.2776666666666583,8.078125000000002,5.103374999999996
4.728,3.1086666666666587,8.103000000000005,4.42266666666666
4.736,2.96728888888889,7.920866666666667,4.388666666666668
4.744,2.932444444444445,7.896333333333334,4.323333333333335
4.752,2.8976000000000006,7.8718,4.258000000000002
4.76,2.862755555555556,7.847266666666667,4.192666666666668
4.768,2.8279111111111117,7.822733333333334,4.127333333333334
4.776,2.7930666666666673,7.7982000000000005,4.062000000000001
4.784,2.758222222222223,7.773666666666666,3.9966666666666675
4.792,2.7233777777777783,7.749133333333333,3.931333333333334
4.8,2.688533333333334,7.7246,3.8660000000000005
4.808,2.653688888888889,7.700066666666666,3.800666666666667
4.816,2.6188444444444445,7.675533333333333,3.735333333333333
4.824,2.584,7.651,3.67
4.832,3.3233010752688172,6.689419354838709,4.79796774193548
4.84,3.317709677419355,6.700774193548386,4.845709677419351
4.848,3.312118279569893,6.712129032258064,4.893451612903222
4.856,3.3065268817204303,6.723483870967741,4.941193548387093
4.864,3.300935483870968,6.734838709677419,4.988935483870964
4.872,3.2953440860215055,6.746193548387096,5.036677419354835
4.88,3.2897526881720434,6.757548387096773,5.084419354838706
4.888,3.2841612903225808,6.768903225806451,5.1321612903225775
4.896,3.2785698924731186,6.780258064516128,5.179903225806449
4.904,3.272978494623656,6.791612903225806,5.22764516129032
4.912,3.267387096774194,6.8029677419354835,5.275387096774191
4.92,3.261795698924731,6.814322580645161,5.323129032258063
4.928,3.298666666666696,6.63400000000001,4.7116666666667
4.936,3.476499999999987,6.330500000000012,5.0908749999999765
4.944,3.5061839080459776,6.27277011494253,5.1803908045977
4.952,3.4949655172413796,6.250793103448276,5.20255172413793
4.96,3.483747126436782,6.228816091954023,5.22471264367816
4.968,3.472528735632184,6.206839080459771,5.24687356321839
4.976,3.4613103448275866,6.184862068965518,5.26903448275862
4.984,3.4500919540229886,6.162885057471264,5.29119540229885
4.992,3.438873563218391,6.140908045977012,5.3133563218390805
5.0,3.427655172413793,6.118931034482759,5.33551724137931
5.008,3.4164367816091956,6.0969540229885055,5.35767816091954
5.016,3.405218390804598,6.074977011494253,5.37983908045977
5.024,3.394,6.053,5.402
5.032,2.695000000000028,6.061571428571427,5.548571428571413
5.04,2.6548,6.2863333333333316,5.906533333333333
5.048,2.6491999999999996,6.224111111111109,5.895244444444444
5.056,2.6435999999999997,6.161888888888887,5.883955555555556
5.064,2.638,6.099666666666664,5.8726666666666665
5.072,2.6323999999999996,6.037444444444442,5.861377777777777
5.08,2.6268,5.97522222222222,5.850088888888888
5.088,2.6211999999999995,5.912999999999998,5.8388
5.096,2.6155999999999997,5.8507777777777745,5.827511111111111
5.104,2.61,5.788555555555552,5.816222222222222
5.112,2.6043999999999996,5.72633333333333,5.804933333333333
5.12,2.5987999999999998,5.664111111111108,5.793644444444444
5.128,3.4000000000000794,4.6333333333333755,7.5000000000001
5.136,2.8128876404494316,4.215561797752806,8.254314606741572
5.144,2.659988764044938,4.148056179775279,8.208831460674155
5.152,2.5070898876404444,4.08055056179775,8.16334831460674
5.16,2.3541910112359505,4.013044943820223,8.117865168539325
5.168,2.2012921348314567,3.945539325842695,8.072382022471908
5.176,2.048393258426963,3.878033707865167,8.026898876404493
5.184,1.895494382022469,3.8105280898876392,7.981415730337077
5.192,1.7425955056179752,3.7430224719101113,7.935932584269662
5.2,1.5896966292134815,3.6755168539325833,7.890449438202246
5.208,1.4367977528089877,3.608011235955056,7.84496629213483
5.216,1.2838988764044938,3.540505617977528,7.799483146067415
5.224,1.1310000000000002,3.473,7.754
5.232,0.389,4.634666666666666,4.9303333333333335
5.24,0.6705930232558119,4.774825581395347,0.8111395348837231
5.248,0.5201744186046495,4.6383604651162775,0.9795116279069784
5.256,0.36975581395348717,4.501895348837208,1.147883720930234
5.264,0.2193372093023248,4.365430232558139,1.3162558139534892
5.272,0.0689186046511624,4.228965116279069,1.4846279069767445
5.28,-0.08150000000000002,4.092499999999999,1.653
5.288,-0.23191860465116243,3.9560348837209305,1.8213720930232553
5.296,-0.38233720930232484,3.8195697674418607,1.9897441860465106
5.304,-0.5327558139534873,3.6831046511627914,2.158116279069766
5.312,-0.6831744186046497,3.546639534883722,2.3264883720930216
5.32,-0.8335930232558121,3.4101744186046528,2.4948604651162767
5.328,-5.3,13.5,3.5
5.336,-5.165599999999997,12.510666666666644,4.902666666666698
5.344,-5.0480731707317075,11.61320731707316,6.255426829268335
5.352,-5.048658536585366,11.358865853658525,7.2588414634146785
5.36,-5.0492439024390245,11.10452439024389,8.262256097561023
5.368,-5.049829268292683,10.850182926829255,9.265670731707367
5.376,-5.050414634146342,10.59584146341462,10.269085365853712
5.384,-5.051,10.341499999999986,11.272500000000054
5.392,-5.051585365853659,10.08715853658535,12.2759146341464
5.4,-5.052170731707317,9.832817073170716,13.279329268292743
5.408,-5.052756097560976,9.578475609756081,14.282743902439087
5.416,-5.053341463414634,9.324134146341446,15.286158536585432
5.424,-5.053926829268293,9.069792682926812,16.289573170731774
5.432,10.103290322580616,2.6879354838709584,7.1244731182795675
5.44,9.393612903225776,2.4634193548387002,7.072258064516127
5.448,8.683935483870936,2.2389032258064416,7.020043010752686
5.456,7.974258064516097,2.0143870967741835,6.967827956989245
5.464,7.264580645161258,1.7898709677419251,6.915612903225804
5.472,6.554903225806418,1.5653548387096667,6.8633978494623635
5.48,5.8452258064515785,1.3408387096774084,6.811182795698922
5.488,5.135548387096739,1.11632258064515,6.758967741935481
5.496,4.4258709677419,0.8918064516128916,6.70675268817204
5.5040000000000004,3.71619354838706,0.6672903225806333,6.6545376344086
5.5120000000000005,3.006516129032221,0.4427741935483751,6.602322580645159
5.5200000000000005,2.296838709677381,0.2182580645161165,6.5501075268817175
5.5280000000000005,10.182666666667295,3.4739999999991653,9.69533333333402
5.5360000000000005,21.012999999999924,1.5270000000000001,24.44799999999997
5.5440000000000005,20.29436363636356,1.5281818181818183,24.14763636363633
5.5520000000000005,19.575727272727196,1.5293636363636365,23.847272727272696
5.5600000000000005,18.857090909090832,1.5305454545454547,23.546909090909057
5.5680000000000005,18.13845454545447,1.5317272727272728,23.24654545454542
5.5760000000000005,17.419818181818105,1.532909090909091,22.946181818181785
5.5840000000000005,16.701181818181738,1.5340909090909092,22.645818181818147
5.5920000000000005,15.982545454545377,1.5352727272727273,22.345454545454512
5.6000000000000005,15.263909090909014,1.5364545454545455,22.045090909090874
5.6080000000000005,14.54527272727265,1.5376363636363637,21.74472727272724
5.6160000000000005,13.826636363636286,1.5388181818181819,21.4443636363636
5.6240000000000006,13.107999999994485,1.54,21.14399999999664
5.632,-2.41799999999977,0.36000000000008736,7.77600000000043
5.64,4.063068965517228,0.4356781609195206,-0.7399195402299071
5.648,4.24762068965516,0.7211034482758436,-0.41927586206898637
5.656,4.432172413793092,1.0065287356321666,-0.09863218390806561
5.664,4.6167241379310235,1.2919540229884894,0.22201149425285527
5.672,4.801275862068955,1.5773793103448126,0.542655172413776
5.68,4.985827586206887,1.8628045977011354,0.8632988505746968
5.688,5.170379310344819,2.1482298850574586,1.1839425287356176
5.696,5.3549310344827505,2.4336551724137814,1.5045862068965385
5.704,5.539482758620682,2.719080459770104,1.8252298850574593
5.712,5.724034482758614,3.0045057471264274,2.1458735632183803
5.72,5.908586206896546,3.28993103448275,2.466517241379301
5.728,1.295,1.668,3.795
5.736,2.7764545454545306,0.08327272727274337,2.658272727272739
5.744,3.7916987951807224,1.9834216867469883,4.264506024096387
5.752,3.7562289156626503,2.0138795180722893,4.369855421686748
5.76,3.720759036144578,2.0443373493975905,4.475204819277109
5.768,3.6852891566265056,2.0747951807228917,4.580554216867471
5.776,3.6498192771084335,2.105253012048193,4.685903614457832
5.784,3.6143493975903613,2.135710843373494,4.791253012048193
5.792,3.5788795180722888,2.1661686746987954,4.896602409638555
5.8,3.5434096385542166,2.1966265060240966,5.001951807228916
5.808,3.5079397590361445,2.2270843373493974,5.107301204819277
5.816,3.472469879518072,2.2575421686746986,5.212650602409639
5.824,3.437,2.288,5.318
5.832,0.6,2.8,7.2
5.84,1.0238000000000052,3.34333333333334,8.605733333333339
5.848,1.2542000000000035,3.646444444444449,8.778711111111114
5.856,1.4846000000000017,3.9495555555555577,8.95168888888889
5.864,1.7149999999999999,4.252666666666666,9.124666666666668
5.872,1.9453999999999982,4.5557777777777755,9.297644444444444
5.88,2.1757999999999966,4.858888888888885,9.47062222222222
5.888,2.406199999999995,5.161999999999994,9.643599999999998
5.896,2.6365999999999934,5.465111111111102,9.816577777777773
5.904,2.8669999999999916,5.768222222222211,9.98955555555555
5.912,3.0973999999999897,6.071333333333319,10.162533333333325
5.92,3.3277999999999883,6.374444444444428,10.335511111111103
5.928,7.907857142857107,2.9587142857144246,14.298714285714224
5.936,8.232622222222224,-5.001422222222217,15.841955555555565
5.944,8.175111111111113,-5.183111111111107,15.501777777777786
5.952,8.117600000000001,-5.364799999999996,15.161600000000007
5.96,8.06008888888889,-5.546488888888885,14.821422222222228
5.968,8.002577777777779,-5.728177777777775,14.48124444444445
5.976,7.945066666666667,-5.909866666666664,14.14106666666667
5.984,7.887555555555556,-6.091555555555553,13.800888888888892
5.992,7.830044444444445,-6.273244444444443,13.460711111111113
6.0,7.7725333333333335,-6.454933333333332,13.120533333333336
6.008,7.715022222222222,-6.636622222222222,12.780355555555557
6.016,7.657511111111111,-6.818311111111111,12.440177777777778
6.024,7.6,-7.0,12.1
6.032,0.8075531914893628,-3.5175106382978742,7.262936170212767
6.04,0.7657659574468093,-3.439553191489363,7.214680851063831
6.048,0.7239787234042557,-3.361595744680852,7.166425531914895
6.056,0.6821914893617023,-3.283638297872341,7.118170212765958
6.064,0.6404042553191488,-3.2056808510638293,7.069914893617021
6.072,0.5986170212765953,-3.127723404255318,7.021659574468085
6.08,0.5568297872340419,-3.049765957446807,6.973404255319148
6.088,0.5150425531914884,-2.971808510638296,6.925148936170212
6.096,0.47325531914893487,-2.8938510638297847,6.876893617021276
6.104,0.4314680851063814,-2.8158936170212736,6.828638297872339
6.112,0.38968085106382794,-2.7379361702127625,6.780382978723402
6.12,0.34789361702127447,-2.6599787234042513,6.7321276595744655
6.128,-0.9540000000000114,-2.906250000000077,5.80224999999994
6.136,-1.3620000000000263,-5.674916666666846,3.656249999999861
6.144,-0.945541176470583,-6.64675294117647,4.163000000000004
6.152,-0.7649294117647004,-6.618423529411764,4.291000000000004
6.16,-0.5843176470588178,-6.590094117647058,4.419000000000004
6.168,-0.40370588235293525,-6.561764705882352,4.547000000000004
6.176,-0.22309411764705267,-6.533435294117647,4.675000000000004
6.184,-0.0424823529411702,-6.50510588235294,4.803000000000004
6.192,0.1381294117647125,-6.476776470588234,4.9310000000000045
6.2,0.31874117647059497,-6.448447058823528,5.059000000000005
6.208,0.49935294117647766,-6.420117647058823,5.187000000000005
6.216,0.6799647058823601,-6.391788235294117,5.315000000000005
6.224,0.9351250000000323,-6.296374999999976,5.633875000000068
6.232,1.2699999999999234,-6.012000000000047,7.157000000000016
6.24,0.14640449438202388,-6.640033707865169,7.435089887640448
6.248,0.004651685393258942,-6.636887640449438,7.520033707865168
6.256,-0.13710112359550597,-6.633741573033708,7.604977528089887
6.264,-0.27885393258427094,-6.630595505617978,7.689921348314607
6.272,-0.4206067415730358,-6.627449438202247,7.774865168539327
6.28,-0.5623595505618008,-6.624303370786517,7.859808988764047
6.288,-0.7041123595505656,-6.6211573033707865,7.944752808988766
6.296,-0.8458651685393307,-6.6180112359550565,8.029696629213486
6.304,-0.9876179775280954,-6.614865168539326,8.114640449438205
6.312,-1.1293707865168603,-6.611719101123596,8.199584269662925
6.32,-1.2711235955056255,-6.608573033707866,8.284528089887646
6.328,-1.9724285714285905,-9.122857142857173,9.082857142857012
6.336,-2.2660222222222193,-9.553533333333325,7.0204
6.344,-2.2301111111111083,-9.455666666666659,7.03
6.352,-2.1941999999999977,-9.357799999999994,7.039600000000001
6.36,-2.1582888888888867,-9.259933333333327,7.049200000000001
6.368,-2.1223777777777757,-9.16206666666666,7.058800000000001
6.376,-2.086466666666665,-9.064199999999996,7.0684000000000005
6.384,-2.050555555555554,-8.96633333333333,7.078
6.392,-2.0146444444444436,-8.868466666666663,7.0876
6.4,-1.9787333333333326,-8.770599999999998,7.097200000000001
6.408,-1.9428222222222216,-8.672733333333332,7.106800000000001
6.416,-1.9069111111111108,-8.574866666666667,7.1164000000000005
6.424,-1.871,-8.477,7.126
6.432,-0.7228571428570912,-6.009999999999949,7.671428571428603
6.44,-0.44633333333333314,-5.7240666666666655,7.834466666666667
6.448,-0.43877777777777754,-5.700155555555555,7.832422222222222
6.456,-0.43122222222222195,-5.6762444444444435,7.830377777777778
6.464,-0.4236666666666664,-5.652333333333332,7.828333333333333
6.472,-0.4161111111111108,-5.6284222222222215,7.826288888888889
6.48,-0.4085555555555552,-5.60451111111111,7.824244444444444
6.488,-0.4009999999999997,-5.580599999999999,7.8222
6.496,-0.3934444444444441,-5.556688888888887,7.820155555555555
6.5040000000000004,-0.3858888888888885,-5.532777777777777,7.818111111111111
6.5120000000000005,-0.37833333333333297,-5.508866666666665,7.816066666666666
6.5200000000000005,-0.3707777777777774,-5.484955555555554,7.8140222222222215
6.5280000000000005,-0.49279999999999624,-5.678400000000006,7.469599999999996
6.5360000000000005,-0.4920000000000441,-5.980000000000025,7.218999999999967
6.5440000000000005,-0.7980000000000004,-6.1384,7.009
6.5520000000000005,-0.8086666666666671,-6.120266666666666,7.027666666666668
6.5600000000000005,-0.8193333333333337,-6.102133333333333,7.046333333333334
6.5680000000000005,-0.8300000000000004,-6.084,7.065
6.5760000000000005,-0.8406666666666671,-6.0658666666666665,7.083666666666668
6.5840000000000005,-0.8513333333333338,-6.0477333333333325,7.102333333333334
6.5920000000000005,-0.8620000000000005,-6.029599999999999,7.121000000000001
6.6000000000000005,-0.8726666666666671,-6.011466666666666,7.139666666666668
6.6080000000000005,-0.8833333333333339,-5.993333333333333,7.158333333333334
6.6160000000000005,-0.8940000000000006,-5.975199999999999,7.177000000000001
6.6240000000000006,-0.9046666666666673,-5.957066666666666,7.195666666666668
6.632000000000001,-0.8949999999999725,-6.186500000000054,7.5180000000000575
6.640000000000001,-0.3114482758620665,-6.675172413793104,7.866206896551723
6.648000000000001,-0.2913103448275839,-6.6756321839080455,7.856091954022987
6.656000000000001,-0.27117241379310125,-6.676091954022988,7.845977011494252
6.664,-0.25103448275862084,-6.676551724137931,7.835862068965517
6.672,-0.2308965517241382,-6.6770114942528735,7.825747126436782
6.68,-0.2107586206896556,-6.677471264367816,7.815632183908046
6.688,-0.19062068965517295,-6.677931034482758,7.80551724137931
6.696,-0.17048275862069032,-6.678390804597701,7.795402298850575
6.704,-0.1503448275862077,-6.678850574712643,7.785287356321839
6.712,-0.13020689655172507,-6.679310344827586,7.775172413793103
6.72,-0.11006896551724243,-6.679770114942529,7.7650574712643685
6.728,0.2633333333332479,-6.682666666666668,7.634666666666676
6.736,0.5620851063829777,-6.681446808510638,7.600872340425532
6.744,0.5755319148936161,-6.686042553191489,7.596702127659575
6.752,0.5889787234042545,-6.69063829787234,7.592531914893617
6.76,0.6024255319148929,-6.695234042553191,7.58836170212766
6.768,0.6158723404255313,-6.699829787234043,7.584191489361702
6.776,0.6293191489361697,-6.704425531914893,7.580021276595745
6.784,0.6427659574468081,-6.709021276595744,7.575851063829787
6.792,0.6562127659574464,-6.713617021276596,7.57168085106383
6.8,0.6696595744680848,-6.718212765957447,7.567510638297872
6.808,0.6831063829787232,-6.7228085106382975,7.563340425531915
6.816,0.6965531914893616,-6.727404255319149,7.559170212765957
6.824,0.71,-6.732,7.555
6.832,0.5937500000000022,-6.20712500000001,7.495124999999999
6.84,0.5376236559139784,-5.918591397849463,7.531763440860216
6.848,0.545021505376344,-5.895537634408602,7.52978494623656
6.856,0.5524193548387096,-5.872483870967742,7.5278064516129035
6.864,0.5598172043010752,-5.8494301075268815,7.5258279569892474
6.872,0.5672150537634408,-5.826376344086022,7.523849462365591
6.88,0.5746129032258064,-5.803322580645162,7.521870967741935
6.888,0.582010752688172,-5.780268817204301,7.519892473118279
6.896,0.5894086021505376,-5.757215053763441,7.517913978494624
6.904,0.5968064516129032,-5.7341612903225805,7.515935483870968
6.912,0.6042043010752688,-5.711107526881721,7.513956989247312
6.92,0.6116021505376344,-5.68805376344086,7.511978494623656
6.928,0.619,-5.665,7.51
6.936,0.7446000000000028,-5.7082000000000015,7.471599999999999
6.944,0.7982749999999995,-5.500375,7.4999875
6.952,0.7844749999999995,-5.503375,7.4998875
6.96,0.7706749999999994,-5.506375,7.4997875
6.968,0.7568749999999995,-5.509375,7.4996875
6.976,0.7430749999999995,-5.5123750000000005,7.4995875
6.984,0.7292749999999995,-5.515375000000001,7.4994875
6.992,0.7154749999999994,-5.518375000000001,7.4993875
7.0,0.7016749999999995,-5.521375,7.499287499999999
7.008,0.6878749999999995,-5.524375,7.4991875
7.016,0.6740749999999994,-5.527375,7.4990875
7.024,0.538,-5.63,7.621
7.032,0.6372421052631578,-6.096915789473685,7.8398
7.04,0.6352210526315789,-6.115357894736842,7.8366
7.048,0.6332,-6.1338,7.8334
7.056,0.6311789473684211,-6.152242105263158,7.8302
7.064,0.629157894736842,-6.170684210526316,7.827
7.072,0.6271368421052631,-6.1891263157894745,7.8238
7.08,0.6251157894736842,-6.207568421052632,7.8206
7.088,0.6230947368421051,-6.2260105263157905,7.8174
7.096,0.6210736842105262,-6.244452631578948,7.8142
7.104,0.6190526315789473,-6.262894736842107,7.811
7.112,0.6170315789473683,-6.281336842105264,7.807799999999999
7.12,0.6150105263157893,-6.299778947368422,7.8046
7.128,0.4329999999999831,-6.3669999999999884,7.899999999999992
7.136,0.32812765957446843,-6.284042553191489,7.839085106382978
7.144,0.34029787234042586,-6.282765957446808,7.824531914893616
7.152,0.3524680851063833,-6.2814893617021275,7.809978723404255
7.16,0.36463829787234064,-6.2802127659574465,7.795425531914893
7.168,0.37680851063829807,-6.2789361702127655,7.780872340425532
7.176,0.3889787234042555,-6.2776595744680845,7.76631914893617
7.184,0.4011489361702129,-6.2763829787234044,7.751765957446809
7.192,0.41331914893617033,-6.2751063829787235,7.737212765957446
7.2,0.42548936170212776,-6.2738297872340425,7.722659574468085
7.208,0.4376595744680852,-6.2725531914893615,7.708106382978723
7.216,0.4498297872340426,-6.2712765957446805,7.693553191489362
7.224,0.462,-6.27,7.679
7.232,0.2403750000000029,-5.999875000000004,7.509625
7.24,0.16307954545454542,-5.894829545454545,7.516215909090909
7.248,0.16480681818181817,-5.902556818181818,7.511761363636364
7.256,0.16653409090909088,-5.910284090909091,7.507306818181818
7.264,0.16826136363636363,-5.918011363636364,7.502852272727273
7.272,0.16998863636363634,-5.9257386363636355,7.498397727272727
7.28,0.17171590909090906,-5.933465909090908,7.493943181818182
7.288,0.1734431818181818,-5.941193181818181,7.489488636363636
7.296,0.17517045454545452,-5.948920454545454,7.485034090909091
7.304,0.17689772727272723,-5.956647727272727,7.480579545454545
7.312,0.17862499999999998,-5.9643749999999995,7.476125
7.32,0.1803522727272727,-5.972102272727272,7.471670454545454
7.328,0.26666666666666394,-6.146666666666687,7.52666666666668
7.336,0.248,-6.282,7.616
7.344,0.248,-6.282,7.616
7.352,0.248,-6.282,7.616
7.36,0.248,-6.282,7.616
7.368,0.248,-6.282,7.616
7.376,0.248,-6.282,7.616
7.384,0.248,-6.282,7.616
7.392,0.248,-6.282,7.616
7.4,0.248,-6.282,7.616
7.408,0.248,-6.282,7.616
7.416,0.248,-6.282,7.616
7.424,0.26157142857143373,-6.2968571428571485,7.617857142857143
7.432,0.4142499999999979,-6.383749999999991,7.702500000000006
7.44,0.4,-6.32,7.74
7.448,0.4,-6.32,7.74
7.456,0.4,-6.32,7.74
7.464,0.4,-6.32,7.74
7.472,0.4,-6.32,7.74
7.48,0.4,-6.32,7.74
7.488,0.4,-6.32,7.74
7.496,0.4,-6.32,7.74
7.5040000000000004,0.4,-6.32,7.74
7.5120000000000005,0.4,-6.32,7.74
7.5200000000000005,0.4,-6.32,7.74
7.5280000000000005,0.4,-6.32,7.74
7.5360000000000005,0.41400000000000137,-6.049,7.483
7.5440000000000005,0.4266896551724151,-6.046149425287356,7.4830919540229885
7.5520000000000005,0.4393793103448288,-6.043298850574713,7.4831839080459766
7.5600000000000005,0.4520689655172425,-6.040448275862069,7.4832758620689654
7.5680000000000005,0.46475862068965623,-6.0375977011494255,7.4833678160919535
7.5760000000000005,0.47744827586206995,-6.034747126436781,7.483459770114942
7.5840000000000005,0.49013793103448366,-6.031896551724138,7.483551724137931
7.5920000000000005,0.5028275862068974,-6.029045977011494,7.483643678160919
7.6000000000000005,0.5155172413793111,-6.026195402298851,7.483735632183908
7.6080000000000005,0.5282068965517248,-6.0233448275862065,7.483827586206896
7.6160000000000005,0.5408965517241385,-6.020494252873563,7.483919540229885
7.6240000000000006,0.560555555555559,-6.020111111111111,7.490888888888891
7.632000000000001,0.629,-6.037,7.546
7.640000000000001,0.5979999999999976,-6.062000000000002,7.576500000000003
7.648000000000001,0.5634155844155831,-6.087779220779221,7.606974025974026
7.656000000000001,0.5490779220779208,-6.090896103896104,7.6068701298701304
7.664000000000001,0.5347402597402584,-6.094012987012987,7.606766233766234
7.672000000000001,0.5204025974025961,-6.09712987012987,7.606662337662338
7.68,0.5060649350649353,-6.100246753246753,7.606558441558442
7.688,0.491727272727273,-6.103363636363636,7.606454545454546
7.696,0.47738961038961064,-6.106480519480519,7.60635064935065
7.704,0.46305194805194827,-6.1095974025974025,7.6062467532467535
7.712,0.44871428571428595,-6.1127142857142855,7.606142857142857
7.72,0.4343766233766236,-6.115831168831169,7.606038961038961
7.728,0.5041999999999888,-6.064999999999996,7.626200000000003
7.736,0.6409333333333332,-6.107633333333333,7.671033333333333
7.744,0.6354222222222222,-6.111988888888889,7.676455555555555
7.752,0.6299111111111111,-6.116344444444445,7.681877777777777
7.76,0.6244000000000001,-6.1207,7.6873
7.768,0.6188888888888889,-6.125055555555556,7.692722222222222
7.776,0.6133777777777779,-6.129411111111111,7.698144444444444
7.784,0.6078666666666668,-6.133766666666666,7.703566666666666
7.792,0.6023555555555558,-6.138122222222222,7.7089888888888884
7.8,0.5968444444444447,-6.142477777777778,7.714411111111111
7.808,0.5913333333333336,-6.146833333333333,7.719833333333333
7.816,0.5858222222222226,-6.151188888888889,7.725255555555556
7.824,0.5524285714285859,-6.166428571428566,7.738571428571425
7.832,0.381,-6.235,7.79
7.84,0.3831098901098901,-6.243879120879122,7.770483516483517
7.848,0.3852197802197802,-6.252758241758242,7.750967032967033
7.856,0.3873296703296703,-6.261637362637363,7.73145054945055
7.864,0.38943956043956046,-6.2705164835164835,7.711934065934066
7.872,0.39154945054945056,-6.279395604395605,7.6924175824175824
7.88,0.39365934065934066,-6.288274725274725,7.672901098901099
7.888,0.39576923076923076,-6.297153846153846,7.653384615384615
7.896,0.39787912087912086,-6.306032967032968,7.633868131868132
7.904,0.39998901098901096,-6.314912087912088,7.614351648351648
7.912,0.4020989010989011,-6.323791208791209,7.594835164835165
7.92,0.4042087912087912,-6.3326703296703295,7.575318681318681
7.928,0.4265000000000176,-6.219333333333348,7.71216666666668
7.936,0.7572448979591847,-6.511948979591837,7.966683673469388
7.944,0.8458979591836738,-6.594479591836735,8.043173469387755
7.952,0.9345510204081631,-6.677010204081633,8.119663265306123
7.96,1.0232040816326522,-6.759540816326529,8.19615306122449
7.968,1.1118571428571413,-6.842071428571427,8.272642857142856
7.976,1.2005102040816307,-6.924602040816325,8.349132653061222
7.984,1.28916326530612,-7.007132653061222,8.42562244897959
7.992,1.377816326530609,-7.089663265306119,8.502112244897956
8.0,1.4664693877550983,-7.172193877551017,8.578602040816323
8.008000000000001,1.5551224489795974,-7.254724489795923,8.655091836734698
8.016,1.6437755102040765,-7.337255102040812,8.731581632653057
8.024000000000001,1.7324285714285756,-7.419785714285719,8.808071428571433
8.032,1.881,-7.654999999999999,8.9795
8.040000000000001,0.9136976744186012,-6.997488372093021,10.15016279069767
8.048,0.7475581395348957,-6.886790697674426,10.01193023255815
8.056000000000001,0.5814186046511534,-6.776093023255807,9.873697674418597
8.064,0.4152790697674478,-6.6653953488372135,9.735465116279075
8.072000000000001,0.24913953488370544,-6.554697674418594,9.597232558139522
8.08,0.08299999999999996,-6.444,9.459
8.088000000000001,-0.08313953488374248,-6.333302325581381,9.320767441860447
8.096,-0.24927906976744807,-6.222604651162786,9.182534883720924
8.104000000000001,-0.4154186046511903,-6.111906976744168,9.044302325581372
8.112,-0.5815581395348959,-6.001209302325574,8.90606976744185
8.120000000000001,-0.7476976744186383,-5.890511627906955,8.767837209302296
8.128,-1.0417499999999766,-5.971999999999921,8.759374999999979
8.136000000000001,-2.0521304347826135,-2.8271304347825894,9.363478260869547
8.144,-2.1126521739130415,-2.5916521739130514,9.137391304347833
8.152000000000001,-2.1731739130434824,-2.3561739130434614,8.911304347826071
8.16,-2.2336956521739104,-2.1206956521739233,8.685217391304358
8.168000000000001,-2.2942173913043518,-1.885217391304333,8.459130434782594
8.176,-2.3547391304347793,-1.6497391304347953,8.233043478260882
8.184000000000001,-2.4152608695652207,-1.414260869565205,8.006956521739118
8.192,-2.4757826086956483,-1.178782608695667,7.780869565217405
8.2,-2.5363043478260763,-0.9433043478261289,7.554782608695692
8.208,-2.5968260869565176,-0.7078260869565387,7.32869565217393
8.216,-2.657347826086945,-0.47234782608700066,7.102608695652217
8.224,-2.7178695652173865,-0.23686956521741065,6.876521739130453
8.232,2.045576086956534,2.126010869565212,7.282706521739138
8.24,1.8741847826086895,2.2060978260869595,7.17635869565217
8.248,1.7027934782608833,2.2861847826086894,7.070010869565226
8.256,1.531402173913039,2.366271739130437,6.963663043478259
8.264,1.3600108695652326,2.446358695652167,6.8573152173913146
8.272,1.1886195652173885,2.5264456521739143,6.750967391304346
8.28,1.0172282608695822,2.606532608695644,6.644619565217402
8.288,0.8458369565217378,2.686619565217392,6.538271739130434
8.296,0.6744456521739317,2.766706521739122,6.43192391304349
8.304,0.5030543478260874,2.8467934782608695,6.325576086956522
8.312,0.331663043478281,2.926880434782599,6.219228260869578
8.32,0.1602717391304369,3.0069673913043466,6.1128804347826105
8.328,2.2699999999985363,6.683499999999788,5.960000000000081
8.336,2.5898297872340823,5.953468085106406,4.9285531914893586
8.344,3.0359574468084958,6.216617021276587,4.884638297872343
8.352,3.4820851063830083,6.479765957446826,4.840723404255317
8.36,3.9282127659574213,6.742914893617006,4.796808510638301
8.368,4.374340425531933,7.006063829787245,4.752893617021275
8.376,4.820468085106347,7.269212765957426,4.708978723404259
8.384,5.26659574468086,7.532361702127664,4.6650638297872336
8.392,5.712723404255273,7.795510638297845,4.621148936170218
8.4,6.158851063829785,8.058659574468084,4.577234042553192
8.408,6.604978723404199,8.321808510638265,4.533319148936176
8.416,7.051106382978711,8.584957446808504,4.48940425531915
8.424,7.497234042553124,8.848106382978685,4.445489361702134
8.432,7.702,7.821,3.926
8.44,5.904333333333333,6.815333333333333,4.495
8.448,5.7745555555555805,6.71225925925926,4.654185185185168
8.456,6.0234444444444435,6.719074074074074,4.478481481481483
8.464,6.2723333333333615,6.72588888888889,4.302777777777758
8.472,6.5212222222222245,6.732703703703704,4.127074074074073
8.48,6.7701111111111425,6.739518518518519,3.951370370370348
8.488,7.0190000000000055,6.746333333333333,3.7756666666666625
8.496,7.267888888888924,6.753148148148149,3.599962962962938
8.504,7.516777777777786,6.759962962962963,3.4242592592592525
8.512,7.765666666666705,6.766777777777779,3.2485555555555283
8.52,8.014555555555567,6.7735925925925935,3.0728518518518424
8.528,7.512999999999015,7.188999999999844,1.9219999999999575
8.536,4.716043478260857,6.130228260869572,2.76207608695652
8.544,4.824913043478261,6.077793478260869,2.776597826086957
8.552,4.933782608695642,6.025358695652178,2.79111956521739
8.56,5.042652173913048,5.972923913043476,2.8056413043478265
8.568,5.151521739130429,5.9204891304347855,2.82016304347826
8.576,5.260391304347833,5.868054347826083,2.8346847826086967
8.584,5.369260869565214,5.815619565217393,2.84920652173913
8.592,5.478130434782619,5.763184782608691,2.8637282608695664
8.6,5.587,5.71075,2.87825
8.608,5.695869565217405,5.658315217391298,2.8927717391304366
8.616,5.804739130434786,5.605880434782607,2.90729347826087
8.624,5.793499999999906,5.250499999999725,3.079000000000141
8.632,5.075212765957443,6.3488510638297715,4.142191489361707
8.64,5.155638297872346,6.638553191489381,4.0445744680850995
8.648,5.2360638297872315,6.928255319148925,3.946957446808514
8.656,5.316489361702135,7.2179574468085335,3.849340425531907
8.664,5.396914893617019,7.507659574468079,3.7517234042553214
8.672,5.4773404255319225,7.797361702127687,3.654106382978714
8.68,5.557765957446808,8.087063829787231,3.5564893617021287
8.688,5.638191489361711,8.37676595744684,3.458872340425521
8.696,5.7186170212765965,8.666468085106384,3.3612553191489356
8.704,5.7990425531915,8.956170212765993,3.2636382978723284
8.712,5.879468085106385,9.245872340425539,3.166021276595743
8.72,5.959893617021288,9.535574468085146,3.0684042553191357
8.728,4.893939393939398,7.228080808080803,2.4741414141414064
8.736,4.845454545454544,7.292727272727275,2.587272727272732
8.744,4.7969696969697,7.357373737373733,2.7004040404040324
8.752,4.748484848484847,7.422020202020204,2.8135353535353578
8.76,4.700000000000004,7.486666666666662,2.9266666666666583
8.768,4.65151515151515,7.551313131313133,3.0397979797979837
8.776,4.603030303030307,7.615959595959591,3.1529292929292843
8.784,4.554545454545453,7.680606060606062,3.2660606060606097
8.792,4.506060606060609,7.7452525252525195,3.37919191919191
8.8,4.457575757575756,7.809898989898992,3.492323232323236
8.808,4.409090909090913,7.874545454545449,3.605454545454536
8.816,4.3606060606060595,7.939191919191921,3.718585858585862
8.824,4.312121212121216,8.003838383838378,3.831717171717162
8.832,6.40400000000025,6.738400000000142,3.271199999999876
8.84,6.7,7.6,2.8
8.848,5.935609756097561,7.949170731707321,2.8338536585365843
8.856,5.929756097560976,8.062731707317067,2.809658536585367
8.864,5.92390243902439,8.176292682926837,2.785463414634145
8.872,5.918048780487806,8.289853658536583,2.7612682926829275
8.88,5.912195121951219,8.403414634146351,2.737073170731705
8.888,5.906341463414634,8.516975609756097,2.712878048780488
8.896,5.900487804878048,8.630536585365867,2.6886829268292654
8.904,5.894634146341463,8.744097560975613,2.6644878048780485
8.912,5.888780487804877,8.857658536585383,2.640292682926826
8.92,5.882926829268293,8.971219512195129,2.6160975609756085
8.928,4.455999999999931,7.949599999999806,2.112799999999826
8.936,4.32083333333332,7.226666666666666,1.5174999999999936
8.944,4.562500000000013,7.24,1.6325000000000063
8.952,4.804166666666653,7.253333333333332,1.7474999999999936
8.96,5.045833333333347,7.2666666666666675,1.8625000000000063
8.968,5.287499999999986,7.279999999999999,1.9774999999999934
8.976,5.52916666666668,7.293333333333334,2.0925000000000065
8.984,5.77083333333332,7.306666666666666,2.2074999999999934
8.992,6.0125000000000135,7.32,2.322500000000006
9.0,6.254166666666653,7.333333333333332,2.4374999999999933
9.008000000000001,6.495833333333346,7.346666666666668,2.5525000000000064
9.016,6.7374999999999865,7.359999999999999,2.6674999999999933
9.024000000000001,6.97916666666668,7.373333333333334,2.782500000000006
9.032,6.42,6.962,2.716
9.040000000000001,6.893863636363632,7.107681818181818,2.8837272727272674
9.048,6.852045454545454,7.1007727272727275,2.8320909090909088
9.056000000000001,6.810227272727268,7.093863636363635,2.780454545454539
9.064,6.76840909090909,7.086954545454545,2.7288181818181805
9.072000000000001,6.726590909090903,7.080045454545454,2.677181818181811
9.08,6.684772727272725,7.0731363636363636,2.625545454545452
9.088000000000001,6.642954545454539,7.0662272727272715,2.5739090909090825
9.096,6.601136363636361,7.059318181818181,2.522272727272724
9.104000000000001,6.559318181818174,7.052409090909089,2.470636363636354
9.112,6.5174999999999965,7.045499999999999,2.4189999999999956
9.120000000000001,6.47568181818181,7.038590909090908,2.367363636363626
9.128,7.0,6.74,2.32
9.136000000000001,6.99609756097561,6.7402601626016265,2.3116747967479663
9.144,6.9921951219512195,6.740520325203252,2.303349593495935
9.152000000000001,6.988292682926829,6.740780487804878,2.2950243902439014
9.16,6.984390243902439,6.741040650406505,2.2866991869918696
9.168000000000001,6.980487804878049,6.74130081300813,2.278373983739836
9.176,6.9765853658536585,6.741560975609756,2.2700487804878047
9.184000000000001,6.972682926829268,6.741821138211382,2.261723577235771
9.192,6.968780487804878,6.742081300813008,2.2533983739837393
9.200000000000001,6.964878048780488,6.742341463414634,2.2450731707317058
9.208,6.9609756097560975,6.74260162601626,2.2367479674796744
9.216000000000001,6.957073170731707,6.742861788617886,2.228422764227641
9.224,6.953170731707317,6.743121951219512,2.220097560975609
9.232,6.949268292682928,6.743382113821138,2.2117723577235777
9.24,6.9453658536585365,6.743642276422764,2.203447154471544
9.248,6.941463414634147,6.7439024390243905,2.1951219512195124
9.256,6.709999999999959,6.856000000000019,2.107999999999985
9.264,6.71499999999994,6.994000000000033,1.8170000000000033
9.272,7.115942028985506,6.779420289855075,1.804927536231887
9.28,7.0997101449275375,6.809101449275361,1.8406376811594187
9.288,7.083478260869565,6.838782608695654,1.8763478260869586
9.296,7.067246376811595,6.86846376811594,1.9120579710144905
9.304,7.051014492753623,6.898144927536233,1.9477681159420304
9.312,7.034782608695654,6.927826086956519,1.9834782608695622
9.32,7.018550724637682,6.957507246376812,2.019188405797102
9.328,7.002318840579712,6.987188405797098,2.054898550724634
9.336,6.986086956521739,7.016869565217391,2.0906086956521737
9.344,7.1476543209876615,6.597481481481481,1.9299753086419742
9.352,7.098271604938272,6.603407407407407,1.9378765432098763
9.36,7.048888888888895,6.609333333333333,1.9457777777777767
9.368,6.9995061728395065,6.615259259259259,1.9536790123456789
9.376,6.950123456790129,6.621185185185184,1.9615802469135792
9.384,6.900740740740741,6.627111111111111,1.9694814814814816
9.392,6.851358024691363,6.633037037037036,1.977382716049382
9.4,6.801975308641975,6.638962962962963,1.9852839506172841
9.408,6.752592592592597,6.644888888888888,1.9931851851851845
9.416,6.703209876543208,6.650814814814815,2.001086419753087
9.424,6.699999999999976,6.746666666666613,1.9400000000000404
9.432,5.877894736842104,6.338105263157899,1.5069473684210537
9.44,5.869473684210527,6.378526315789473,1.5187368421052627
9.448,5.861052631578946,6.418947368421056,1.5305263157894744
9.456,5.852631578947369,6.45936842105263,1.5423157894736836
9.464,5.844210526315789,6.4997894736842134,1.5541052631578953
9.472,5.835789473684211,6.5402105263157875,1.5658947368421046
9.48,5.827368421052631,6.58063157894737,1.5776842105263162
9.488,5.818947368421053,6.621052631578944,1.5894736842105255
9.496,5.810526315789473,6.661473684210527,1.6012631578947372
9.504,5.8021052631578955,6.701894736842102,1.6130526315789464
9.512,5.793684210526316,6.742315789473685,1.624842105263158
9.52,5.785263157894738,6.782736842105259,1.6366315789473673
9.528,7.1,7.06,1.58
9.536,6.437058823529413,7.2392941176470575,1.710235294117648
9.544,6.535882352941189,7.1840784313725425,1.790862745098049
9.552,6.634705882352942,7.128862745098038,1.871490196078432
9.56,6.733529411764718,7.073647058823523,1.952117647058833
9.568,6.832352941176471,7.018431372549019,2.032745098039216
9.576,6.931176470588246,6.963215686274504,2.113372549019617
9.584,7.03,6.9079999999999995,2.194
9.592,7.128823529411775,6.8527843137254845,2.274627450980401
9.6,7.227647058823529,6.79756862745098,2.355254901960784
9.608,7.3264705882353045,6.742352941176465,2.435882352941185
9.616,7.425294117647058,6.687137254901961,2.516509803921568
9.624,7.524117647058834,6.631921568627446,2.597137254901969
9.632,7.6229411764705866,6.576705882352942,2.677764705882352
9.64,6.728571428571389,6.079999999999934,2.939999999999954
9.648,6.977974683544305,5.054632911392369,1.8909873417721481
9.656,6.969873417721519,5.321164556962024,1.9189367088607592
9.664,6.961772151898735,5.587696202531618,1.9468860759493642
9.672,6.953670886075949,5.854227848101273,1.9748354430379753
9.68,6.945569620253165,6.120759493670867,2.00278481012658
9.688,6.93746835443038,6.387291139240521,2.0307341772151912
9.696,6.929367088607596,6.6538227848101155,2.0586835443037965
9.704,6.92126582278481,6.92035443037977,2.0866329113924076
9.712,6.913164556962026,7.1868860759493645,2.1145822784810124
9.72,6.90506329113924,7.453417721519019,2.1425316455696235
9.728,7.0,6.32,1.76
9.736,6.201250000000001,6.096999999999999,1.9272500000000008
9.744,6.229583333333331,6.05566666666667,1.9582499999999974
9.752,6.2579166666666675,6.014333333333332,1.9892500000000009
9.76,6.286249999999997,5.973000000000003,2.020249999999997
9.768,6.314583333333334,5.931666666666666,2.051250000000001
9.776,6.342916666666664,5.890333333333337,2.0822499999999975
9.784,6.371250000000001,5.848999999999998,2.1132500000000007
9.792,6.3995833333333305,5.80766666666667,2.1442499999999973
9.8,6.427916666666667,5.766333333333332,2.1752500000000006
9.808,6.456249999999997,5.725000000000003,2.206249999999997
9.816,6.484583333333334,5.6836666666666655,2.237250000000001
9.824,6.512916666666664,5.642333333333337,2.2682499999999974
9.832,6.98,7.788,2.284
9.84,6.935268817204307,7.692344086021516,2.2482150537634444
9.848,6.890537634408602,7.59668817204301,2.2124301075268815
9.856,6.8458064516129085,7.501032258064527,2.176645161290326
9.864,6.801075268817204,7.405376344086021,2.1408602150537632
9.872,6.75634408602151,7.309720430107538,2.105075268817208
9.88,6.711612903225807,7.2140645161290315,2.069290322580645
9.888,6.666881720430112,7.118408602150548,2.0335053763440896
9.896,6.6221505376344085,7.022752688172043,1.9977204301075266
9.904,6.577419354838714,6.927096774193558,1.9619354838709713
9.912,6.53268817204301,6.831440860215053,1.9261505376344084
9.92,6.487956989247317,6.735784946236569,1.890365591397853
9.928,6.68,6.488,2.384
9.936,7.195446808510637,6.977574468085105,2.3840000000000003
9.944,7.136042553191481,6.942340425531909,2.400000000000002
9.952,7.0766382978723374,6.907106382978721,2.416000000000001
9.96,7.017234042553182,6.871872340425526,2.4320000000000026
9.968,6.957829787234039,6.836638297872338,2.448000000000001
9.976,6.898425531914883,6.8014042553191425,2.4640000000000026
9.984,6.83902127659574,6.766170212765955,2.4800000000000013
9.992,6.779617021276584,6.730936170212759,2.496000000000003
10.0,6.7202127659574415,6.695702127659571,2.5120000000000013
10.008000000000001,6.660808510638286,6.660468085106375,2.528000000000003
10.016,6.601404255319142,6.6252340425531875,2.544000000000002
10.024000000000001,6.54200000000008,6.589999999999705,2.5599999999997984
10.032,6.419576923076921,6.203730769230771,2.4241923076923095
10.040000000000001,6.311782051282036,6.2856794871794985,2.5153717948718075
10.048,6.203987179487176,6.367628205128208,2.606551282051285
10.056000000000001,6.0961923076922915,6.449576923076936,2.697730769230783
10.064,5.98839743589743,6.531525641025645,2.788910256410261
10.072000000000001,5.880602564102546,6.613474358974373,2.880089743589759
10.08,5.772807692307685,6.695423076923083,2.971269230769237
10.088000000000001,5.6650128205128,6.777371794871811,3.062448717948735
10.096,5.557217948717939,6.859320512820521,3.153628205128213
10.104000000000001,5.449423076923055,6.941269230769248,3.244807692307711
10.112,5.081,6.857,3.142
