accel_time_list,vertical_Accel_x,vertical_Accel_y,vertical_Accel_z
0.0,2.087,1.086,-9.944
0.008,1.481061224489796,0.842204081632653,-9.799244897959182
0.016,1.5132244897959184,0.8160816326530612,-9.815897959183673
0.024,1.545387755102041,0.7899591836734694,-9.832551020408163
0.032,1.5775510204081633,0.7638367346938776,-9.849204081632653
0.04,1.6097142857142859,0.7377142857142857,-9.865857142857143
0.048,1.6418775510204082,0.7115918367346938,-9.882510204081631
0.056,1.6740408163265308,0.685469387755102,-9.899163265306122
0.064,1.7062040816326531,0.6593469387755102,-9.915816326530612
0.07200000000000001,1.7383673469387757,0.6332244897959184,-9.932469387755102
0.08,1.770530612244898,0.6071020408163266,-9.949122448979592
0.088,1.8026938775510204,0.5809795918367348,-9.96577551020408
0.096,1.834857142857143,0.5548571428571429,-9.98242857142857
0.10400000000000001,1.5863333333333294,0.5283333333333333,-9.921999999999999
0.112,1.8978279569892471,0.20459139784946237,-9.698225806451612
0.12,1.8804516129032258,0.24132258064516127,-9.684032258064516
0.128,1.8630752688172043,0.27805376344086025,-9.66983870967742
0.136,1.8456989247311828,0.31478494623655917,-9.655645161290321
0.14400000000000002,1.8283225806451613,0.35151612903225815,-9.641451612903225
0.152,1.8109462365591398,0.388247311827957,-9.627258064516129
0.16,1.7935698924731183,0.42497849462365594,-9.613064516129032
0.168,1.7761935483870968,0.4617096774193549,-9.598870967741934
0.176,1.7588172043010752,0.49844086021505374,-9.584677419354838
0.184,1.7414408602150537,0.5351720430107527,-9.570483870967742
0.192,1.7240645161290322,0.5719032258064516,-9.556290322580645
0.2,1.7066881720430107,0.6086344086021507,-9.54209677419355
0.20800000000000002,1.4019999999999975,0.6734999999999985,-9.715
0.216,1.336663043478261,0.6235760869565218,-9.68975
0.224,1.3717065217391307,0.6276630434782609,-9.68375
0.232,1.4067500000000002,0.63175,-9.67775
0.24,1.4417934782608697,0.6358369565217391,-9.67175
0.248,1.4768369565217392,0.6399239130434783,-9.66575
0.256,1.511880434782609,0.6440108695652175,-9.65975
0.264,1.5469239130434784,0.6480978260869565,-9.65375
0.272,1.5819673913043482,0.6521847826086957,-9.64775
0.28,1.6170108695652177,0.6562717391304348,-9.64175
0.28800000000000003,1.6520543478260872,0.660358695652174,-9.63575
0.296,1.6870978260869567,0.664445652173913,-9.62975
0.304,1.538,0.805,-9.585
0.312,1.5487012987012987,0.7246883116883117,-9.617454545454546
0.32,1.5096363636363637,0.7322727272727273,-9.616727272727273
0.328,1.4705714285714286,0.7398571428571429,-9.616
0.336,1.4315064935064934,0.7474415584415585,-9.615272727272728
0.34400000000000003,1.3924415584415584,0.755025974025974,-9.614545454545455
0.352,1.3533766233766236,0.7626103896103896,-9.613818181818182
0.36,1.3143116883116883,0.7701948051948052,-9.613090909090909
0.368,1.2752467532467533,0.7777792207792208,-9.612363636363638
0.376,1.236181818181818,0.7853636363636364,-9.611636363636364
0.384,1.06,0.958,-9.562
0.392,1.0043548387096775,0.8954193548387097,-9.709129032258065
0.4,1.0106344086021506,0.9045376344086021,-9.704139784946237
0.40800000000000003,1.0169139784946237,0.9136559139784947,-9.69915053763441
0.41600000000000004,1.0231935483870969,0.9227741935483872,-9.694161290322581
0.424,1.0294731182795698,0.9318924731182796,-9.689172043010753
0.432,1.035752688172043,0.941010752688172,-9.684182795698925
0.44,1.042032258064516,0.9501290322580646,-9.679193548387097
0.448,1.0483118279569892,0.959247311827957,-9.67420430107527
0.456,1.0545913978494623,0.9683655913978495,-9.669215053763441
0.464,1.0608709677419355,0.977483870967742,-9.664225806451613
0.47200000000000003,1.0671505376344086,0.9866021505376344,-9.659236559139785
0.48,1.0734301075268817,0.9957204301075269,-9.654247311827957
0.488,1.5978608695652172,0.8838434782608696,-8.385895652173913
0.496,1.4533043478260868,0.9632173913043479,-8.313478260869566
0.504,1.308747826086956,1.0425913043478263,-8.241060869565217
0.512,1.1641913043478256,1.1219652173913046,-8.168643478260869
0.52,1.0196347826086951,1.201339130434783,-8.096226086956522
0.528,0.8750782608695644,1.2807130434782612,-8.023808695652173
0.536,0.730521739130434,1.3600869565217395,-7.951391304347826
0.544,0.5859652173913033,1.439460869565218,-7.8789739130434775
0.552,0.4414086956521728,1.5188347826086963,-7.80655652173913
0.56,0.2968521739130423,1.5982086956521746,-7.734139130434782
0.5680000000000001,0.1522956521739116,1.6775826086956531,-7.661721739130434
0.5760000000000001,0.0077391304347811385,1.7569565217391312,-7.589304347826086
0.584,-0.13681739130434756,1.8363304347826084,-7.5168869565217395
0.592,-0.28137391304347803,1.915704347826087,-7.444469565217392
0.6,-0.4259304347826087,1.9950782608695654,-7.372052173913044
0.608,0.6523750000000001,3.285125,-7.7095
0.616,-0.5175824175824176,5.580593406593406,-6.369769230769231
0.624,-0.5527472527472528,5.65778021978022,-6.295307692307692
0.632,-0.587912087912088,5.734967032967033,-6.2208461538461535
0.64,-0.6230769230769232,5.812153846153846,-6.146384615384615
0.648,-0.6582417582417585,5.889340659340659,-6.071923076923077
0.656,-0.6934065934065936,5.966527472527473,-5.997461538461538
0.664,-0.7285714285714289,6.0437142857142865,-5.922999999999999
0.672,-0.763736263736264,6.1209010989011,-5.84853846153846
0.68,-0.7989010989010992,6.198087912087913,-5.774076923076922
0.6880000000000001,-0.8340659340659344,6.275274725274726,-5.699615384615384
0.6960000000000001,-0.8692307692307697,6.352461538461539,-5.625153846153845
0.704,-0.7250000000000001,6.3100000000000005,-5.58
0.712,0.21666666666666667,6.296666666666667,-5.923333333333334
0.72,-0.3769230769230769,6.681538461538461,-5.998461538461539
0.728,-0.9307692307692308,6.3246153846153845,-6.035384615384616
0.736,-0.80176,6.385186666666667,-5.8917866666666665
0.744,-0.5751999999999999,6.5054,-5.7224
0.752,-0.34863999999999995,6.625613333333334,-5.553013333333333
0.76,-0.12207999999999997,6.745826666666667,-5.383626666666666
0.768,0.10448000000000013,6.86604,-5.21424
0.776,0.33104,6.986253333333334,-5.044853333333333
0.784,0.5576000000000001,7.106466666666667,-4.875466666666666
0.792,0.78416,7.22668,-4.70608
0.8,1.01072,7.346893333333333,-4.536693333333334
0.808,1.0436666666666667,9.329666666666666,-1.8796666666666668
0.8160000000000001,-0.020249999999999768,9.270125,-1.4548750000000001
0.8240000000000001,0.23408333333333384,9.228958333333333,-1.632041666666667
0.8320000000000001,0.4884166666666675,9.187791666666667,-1.809208333333334
0.84,0.7427499999999976,9.146625,-1.9863749999999984
0.848,0.9970833333333312,9.105458333333335,-2.1635416666666654
0.856,1.2514166666666648,9.064291666666668,-2.340708333333332
0.864,1.5057499999999984,9.023125,-2.517874999999999
0.872,1.760083333333332,8.981958333333333,-2.6950416666666657
0.88,2.0144166666666656,8.940791666666668,-2.872208333333333
0.888,2.2687499999999994,8.899625,-3.0493749999999995
0.896,2.523083333333333,8.858458333333333,-3.2265416666666664
0.904,2.777416666666667,8.817291666666668,-3.4037083333333333
0.912,0.9367934782608697,10.29733695652174,-1.8712608695652173
0.92,1.0071413043478263,10.380032608695654,-1.705347826086956
0.928,1.077489130434783,10.462728260869566,-1.5394347826086947
0.936,1.1478369565217397,10.545423913043479,-1.3735217391304335
0.9440000000000001,1.2181847826086964,10.628119565217393,-1.2076086956521723
0.9520000000000001,1.288532608695653,10.710815217391305,-1.0416956521739111
0.96,1.358880434782609,10.793510869565218,-0.8757826086956522
0.968,1.4292282608695657,10.87620652173913,-0.7098695652173908
0.976,1.4995760869565222,10.958902173913044,-0.5439565217391296
0.984,1.5699239130434788,11.041597826086957,-0.37804347826086837
0.992,1.6402717391304356,11.12429347826087,-0.21213043478260696
1.0,1.7106195652173923,11.206989130434783,-0.04621739130434577
1.008,0.3254999999999871,10.87349999999999,-0.7825000000000264
1.016,1.6509999999999991,9.743112359550564,-2.945853932584268
1.024,1.5869999999999993,9.770078651685393,-2.806797752808987
1.032,1.5229999999999992,9.797044943820225,-2.6677415730337066
1.04,1.4589999999999994,9.824011235955057,-2.5286853932584257
1.048,1.3949999999999996,9.850977528089889,-2.389629213483145
1.056,1.3309999999999995,9.877943820224719,-2.250573033707864
1.064,1.2669999999999997,9.90491011235955,-2.1115168539325837
1.072,1.2029999999999996,9.931876404494382,-1.972460674157303
1.08,1.1389999999999998,9.958842696629214,-1.8334044943820222
1.088,1.0749999999999997,9.985808988764045,-1.6943483146067413
1.096,1.011,10.012775280898875,-1.5552921348314606
1.104,0.247,10.3,-0.888
1.112,0.5638,10.5532,-0.23560000000000003
1.12,0.8805999999999999,10.8064,0.41679999999999995
1.1280000000000001,1.1040769230769285,12.172538461538462,1.1796153846153734
1.1360000000000001,1.3003846153846208,12.194692307692309,0.7780769230769119
1.1440000000000001,1.496692307692313,12.216846153846154,0.3765384615384504
1.1520000000000001,1.6930000000000054,12.239,-0.025000000000011235
1.16,1.8893076923076921,12.261153846153846,-0.42653846153846153
1.168,2.0856153846153846,12.283307692307691,-0.8280769230769234
1.176,2.2819230769230767,12.305461538461538,-1.2296153846153846
1.184,2.478230769230769,12.327615384615385,-1.6311538461538462
1.192,2.6745384615384613,12.34976923076923,-2.032692307692308
1.2,2.870846153846154,12.371923076923077,-2.434230769230769
1.208,1.683,8.364,-3.092
1.216,1.7327425742574258,8.337069306930694,-2.8396435643564355
1.224,1.7824851485148516,8.310138613861387,-2.587287128712871
1.232,1.8322277227722774,8.28320792079208,-2.3349306930693063
1.24,1.8819702970297032,8.256277227722773,-2.0825742574257413
1.248,1.931712871287129,8.229346534653466,-1.830217821782177
1.256,1.9814554455445548,8.202415841584159,-1.5778613861386124
1.264,2.0311980198019803,8.17548514851485,-1.3255049504950478
1.272,2.080940594059406,8.148554455445543,-1.073148514851483
1.28,2.130683168316832,8.121623762376236,-0.8207920792079184
1.288,2.1804257425742577,8.09469306930693,-0.5684356435643538
1.296,2.2301683168316835,8.067762376237622,-0.31607920792078925
1.304,2.2799108910891093,8.040831683168316,-0.06372277227722467
1.312,-0.925,11.395,-4.037
1.32,-1.009213483146067,12.082337078651685,-3.880752808988764
1.328,-0.7948314606741568,11.794786516853932,-3.8350898876404496
1.336,-0.5804494382022464,11.50723595505618,-3.789426966292135
1.344,-0.3660674157303361,11.219685393258425,-3.74376404494382
1.352,-0.15168539325842567,10.932134831460672,-3.6981011235955052
1.36,0.06269662921348473,10.64458426966292,-3.6524382022471906
1.368,0.27707865168539514,10.357033707865167,-3.606775280898876
1.3760000000000001,0.4914606741573053,10.069483146067412,-3.5611123595505614
1.3840000000000001,0.7058426966292157,9.78193258426966,-3.5154494382022468
1.3920000000000001,0.9202247191011264,9.494382022471907,-3.469786516853932
1.4000000000000001,1.1346067415730365,9.206831460674154,-3.4241235955056175
1.408,-0.03400000000000003,9.027,0.017000000000000015
1.416,0.090463157894737,9.065063157894736,-0.1589157894736844
1.424,0.214926315789474,9.103126315789472,-0.3348315789473688
1.432,0.339389473684211,9.14118947368421,-0.5107473684210533
1.44,0.46385263157894796,9.179252631578947,-0.6866631578947376
1.448,0.5883157894736849,9.217315789473684,-0.8625789473684221
1.456,0.712778947368422,9.25537894736842,-1.0384947368421067
1.464,0.8372421052631589,9.293442105263157,-1.2144105263157912
1.472,0.961705263157896,9.331505263157894,-1.3903263157894754
1.48,1.0861684210526328,9.369568421052632,-1.5662421052631599
1.488,1.2106315789473698,9.407631578947369,-1.7421578947368443
1.496,1.3350947368421069,9.445694736842105,-1.9180736842105288
1.504,1.423533333333331,9.523600000000004,-2.115133333333338
1.512,1.2597999999999991,9.880400000000002,-2.4602000000000017
1.52,1.1532222222222224,10.16088888888889,-2.727
1.528,1.2300000000000022,9.907499999999967,-2.6399999999999872
1.536,1.1901216216216206,9.583175675675676,-2.4004189189189167
1.544,1.1216891891891883,9.553662162162162,-2.2580405405405384
1.552,1.0532567567567557,9.524148648648648,-2.11566216216216
1.56,0.9848243243243233,9.494635135135136,-1.9732837837837818
1.568,0.916391891891891,9.465121621621622,-1.8309054054054035
1.576,0.8479594594594585,9.435608108108108,-1.6885270270270252
1.584,0.779527027027026,9.406094594594595,-1.5461486486486467
1.592,0.7110945945945936,9.376581081081081,-1.4037702702702683
1.6,0.6426621621621611,9.347067567567567,-1.2613918918918898
1.608,0.619,9.474,-1.809
1.616,0.6269175257731959,9.492556701030928,-1.8088350515463918
1.624,0.6348350515463917,9.511113402061856,-1.8086701030927834
1.6320000000000001,0.6427525773195877,9.529670103092784,-1.8085051546391753
1.6400000000000001,0.6506701030927835,9.548226804123711,-1.808340206185567
1.6480000000000001,0.6585876288659794,9.566783505154639,-1.8081752577319588
1.6560000000000001,0.6665051546391753,9.585340206185567,-1.8080103092783504
1.6640000000000001,0.6744226804123712,9.603896907216495,-1.8078453608247422
1.672,0.6823402061855668,9.622453608247422,-1.8076804123711339
1.68,0.6902577319587627,9.64101030927835,-1.8075154639175257
1.688,0.6981752577319587,9.659567010309278,-1.8073505154639176
1.696,0.7060927835051545,9.678123711340206,-1.8071855670103092
1.704,0.7140103092783504,9.696680412371133,-1.807020618556701
1.712,0.7055,9.612,-1.553
1.72,0.6614516129032258,9.580677419354839,-1.553774193548387
1.728,0.6513870967741936,9.57758064516129,-1.5788064516129032
1.736,0.6413225806451613,9.574483870967741,-1.6038387096774194
1.744,0.631258064516129,9.571387096774194,-1.6288709677419355
1.752,0.6211935483870967,9.568290322580646,-1.6539032258064517
1.76,0.6111290322580645,9.565193548387096,-1.6789354838709678
1.768,0.6010645161290322,9.562096774193549,-1.7039677419354842
1.776,0.591,9.559000000000001,-1.7290000000000003
1.784,0.5809354838709677,9.555903225806452,-1.7540322580645165
1.792,0.5708709677419355,9.552806451612904,-1.7790645161290326
1.8,0.5608064516129032,9.549709677419356,-1.8040967741935487
1.808,0.49949999999999417,9.591000000000005,-1.7244999999999888
1.816,0.52932,9.59656,-1.5186799999999998
1.824,0.52796,9.59368,-1.5260399999999998
1.832,0.5266000000000001,9.5908,-1.5333999999999999
1.84,0.52524,9.58792,-1.54076
1.848,0.52388,9.585040000000001,-1.54812
1.856,0.52252,9.58216,-1.55548
1.864,0.52116,9.57928,-1.56284
1.872,0.5198,9.5764,-1.5702
1.8800000000000001,0.51844,9.57352,-1.57756
1.8880000000000001,0.51708,9.57064,-1.58492
1.8960000000000001,0.51572,9.56776,-1.5922800000000001
1.9040000000000001,0.5143599999999999,9.564879999999999,-1.5996400000000002
1.9120000000000001,0.5130000000000026,9.562,-1.6070000000000004
1.92,0.6056666666666667,9.552,-1.6196666666666666
1.928,0.6487894736842106,9.548342105263158,-1.6230789473684208
1.936,0.6359473684210526,9.55371052631579,-1.611394736842105
1.944,0.6231052631578947,9.559078947368421,-1.5997105263157894
1.952,0.6102631578947367,9.564447368421053,-1.5880263157894734
1.96,0.5974210526315789,9.569815789473685,-1.5763421052631577
1.968,0.5845789473684209,9.575184210526317,-1.564657894736842
1.976,0.571736842105263,9.580552631578948,-1.552973684210526
1.984,0.558894736842105,9.58592105263158,-1.5412894736842102
1.992,0.5460526315789471,9.591289473684212,-1.5296052631578942
2.0,0.5332105263157891,9.596657894736843,-1.5179210526315785
2.008,0.53,9.598,-1.515
2.016,0.6000555555555555,9.528222222222222,-1.5000555555555555
2.024,0.6065444444444443,9.533377777777778,-1.5033444444444444
2.032,0.6130333333333333,9.538533333333334,-1.5066333333333333
2.04,0.6195222222222222,9.543688888888889,-1.5099222222222222
2.048,0.6260111111111111,9.548844444444445,-1.513211111111111
2.056,0.6325000000000001,9.554,-1.5165
2.064,0.6389888888888889,9.559155555555556,-1.5197888888888889
2.072,0.6454777777777778,9.564311111111111,-1.5230777777777778
2.08,0.6519666666666667,9.569466666666667,-1.5263666666666666
2.088,0.6584555555555557,9.574622222222223,-1.5296555555555555
2.096,0.6649444444444446,9.579777777777778,-1.5329444444444444
2.104,0.652,9.547,-1.626
2.112,0.4615483870967742,9.670096774193548,-1.526494623655914
2.12,0.45664516129032257,9.668290322580644,-1.5154838709677418
2.128,0.451741935483871,9.666483870967742,-1.5044731182795699
2.136,0.44683870967741934,9.664677419354838,-1.493462365591398
2.144,0.4419354838709677,9.662870967741934,-1.4824516129032257
2.152,0.4370322580645161,9.661064516129032,-1.4714408602150537
2.16,0.4321290322580645,9.659258064516129,-1.4604301075268815
2.168,0.42722580645161284,9.657451612903225,-1.4494193548387095
2.176,0.42232258064516126,9.655645161290323,-1.4384086021505376
2.184,0.4174193548387096,9.65383870967742,-1.4273978494623654
2.192,0.412516129032258,9.652032258064516,-1.4163870967741934
2.2,0.40761290322580634,9.650225806451614,-1.4053763440860212
2.208,0.4983333333333351,9.596333333333334,-1.399000000000001
2.216,0.5432696629213484,9.63661797752809,-1.4278988764044944
2.224,0.5358089887640449,9.63985393258427,-1.4376966292134832
2.232,0.5283483146067416,9.64308988764045,-1.447494382022472
2.24,0.5208876404494382,9.646325842696628,-1.4572921348314607
2.248,0.5134269662921348,9.649561797752808,-1.4670898876404495
2.2560000000000002,0.5059662921348315,9.652797752808988,-1.4768876404494382
2.2640000000000002,0.49850561797752807,9.656033707865168,-1.4866853932584272
2.2720000000000002,0.4910449438202247,9.659269662921348,-1.496483146067416
2.2800000000000002,0.4835842696629213,9.662505617977528,-1.5062808988764047
2.2880000000000003,0.4761235955056179,9.665741573033708,-1.5160786516853935
2.2960000000000003,0.46866292134831455,9.668977528089886,-1.5258764044943822
2.3040000000000003,0.4730000000000004,9.661045454545453,-1.5296818181818181
2.312,0.49699999999999933,9.634500000000001,-1.5235
2.32,0.5209999999999996,9.607954545454547,-1.5173181818181818
2.328,0.40161333333333327,9.523453333333332,-1.3489866666666668
2.336,0.40406666666666663,9.541266666666667,-1.3449333333333335
2.344,0.40652,9.55908,-1.34088
2.352,0.4089733333333333,9.576893333333333,-1.3368266666666668
2.36,0.41142666666666666,9.594706666666667,-1.3327733333333334
2.368,0.41387999999999997,9.61252,-1.3287200000000001
2.376,0.41633333333333333,9.630333333333333,-1.3246666666666667
2.384,0.4187866666666667,9.648146666666667,-1.3206133333333334
2.392,0.42124,9.66596,-1.31656
2.4,0.42369333333333337,9.683773333333333,-1.3125066666666667
2.408,0.335,9.592,-1.367
2.416,0.335,9.592,-1.367
2.424,0.335,9.592,-1.367
2.432,0.2910789473684211,9.694276315789475,-1.2914342105263157
2.44,0.29802631578947375,9.686592105263157,-1.2896447368421051
2.448,0.3049736842105264,9.678907894736842,-1.2878552631578946
2.456,0.31192105263157904,9.671223684210526,-1.2860657894736842
2.464,0.31886842105263163,9.66353947368421,-1.2842763157894737
2.472,0.3258157894736843,9.655855263157894,-1.282486842105263
2.48,0.3327631578947369,9.648171052631579,-1.2806973684210525
2.488,0.3397105263157896,9.640486842105263,-1.2789078947368422
2.496,0.34665789473684216,9.632802631578947,-1.2771184210526316
2.504,0.3389999999999996,9.600999999999999,-1.3442500000000026
2.512,0.40419148936170207,9.653063829787234,-1.4047234042553192
2.52,0.3985744680851063,9.659191489361703,-1.4061702127659574
2.528,0.3929574468085106,9.66531914893617,-1.4076170212765957
2.536,0.38734042553191483,9.67144680851064,-1.409063829787234
2.544,0.3817234042553191,9.677574468085107,-1.4105106382978723
2.552,0.37610638297872334,9.683702127659574,-1.4119574468085105
2.56,0.3704893617021276,9.689829787234043,-1.413404255319149
2.568,0.36487234042553185,9.69595744680851,-1.4148510638297873
2.576,0.35925531914893605,9.70208510638298,-1.4162978723404256
2.584,0.3536382978723403,9.708212765957446,-1.4177446808510639
2.592,0.34802127659574456,9.714340425531915,-1.4191914893617021
2.6,0.3424042553191488,9.720468085106383,-1.4206382978723404
2.608,0.3445714285714298,9.694571428571429,-1.3011428571428574
2.616,0.40380459770114907,9.65032183908046,-1.4035402298850574
2.624,0.3910229885057468,9.6516091954023,-1.4017011494252871
2.632,0.3782413793103445,9.652896551724139,-1.399862068965517
2.64,0.36545977011494224,9.654183908045978,-1.398022988505747
2.648,0.35267816091953996,9.655471264367817,-1.3961839080459768
2.656,0.3398965517241377,9.656758620689656,-1.3943448275862067
2.664,0.3271149425287354,9.658045977011493,-1.3925057471264366
2.672,0.31433333333333313,9.659333333333333,-1.3906666666666665
2.68,0.30155172413793085,9.660620689655172,-1.3888275862068964
2.688,0.2887701149425286,9.661908045977011,-1.3869885057471263
2.696,0.2759885057471263,9.66319540229885,-1.3851494252873562
2.704,0.38500000000000434,9.6805,-1.329999999999998
2.712,0.391,9.613,-1.495
2.72,0.392438202247191,9.616325842696629,-1.4868202247191011
2.728,0.39387640449438205,9.619651685393258,-1.4786404494382024
2.736,0.39531460674157304,9.622977528089887,-1.4704606741573034
2.744,0.396752808988764,9.626303370786516,-1.4622808988764044
2.7520000000000002,0.3981910112359551,9.629629213483145,-1.4541011235955057
2.7600000000000002,0.39962921348314606,9.632955056179775,-1.4459213483146067
2.7680000000000002,0.4010674157303371,9.636280898876404,-1.4377415730337078
2.7760000000000002,0.4025056179775281,9.639606741573035,-1.4295617977528088
2.7840000000000003,0.4039438202247191,9.642932584269664,-1.42138202247191
2.7920000000000003,0.40538202247191013,9.646258426966293,-1.413202247191011
2.8000000000000003,0.4068202247191011,9.649584269662922,-1.405022471910112
2.8080000000000003,0.23999999999999688,9.6535,-1.3199999999999927
2.816,0.212,9.643,-1.256
2.824,0.212,9.643,-1.256
2.832,0.212,9.643,-1.256
2.84,0.212,9.643,-1.256
2.848,0.212,9.643,-1.256
2.856,0.212,9.643,-1.256
2.864,0.212,9.643,-1.256
2.872,0.212,9.643,-1.256
2.88,0.212,9.643,-1.256
2.888,0.212,9.643,-1.256
2.896,0.212,9.643,-1.256
2.904,0.146,9.716,-1.273
2.912,0.08643010752688171,9.695591397849464,-1.1496451612903227
2.92,0.07929032258064514,9.698774193548388,-1.1589354838709678
2.928,0.07215053763440858,9.701956989247313,-1.168225806451613
2.936,0.06501075268817201,9.705139784946237,-1.177516129032258
2.944,0.057870967741935446,9.708322580645161,-1.1868064516129033
2.952,0.050731182795698875,9.711505376344087,-1.1960967741935484
2.96,0.04359139784946231,9.714688172043012,-1.2053870967741935
2.968,0.036451612903225745,9.717870967741936,-1.2146774193548386
2.976,0.029311827956989174,9.72105376344086,-1.223967741935484
2.984,0.02217204301075261,9.724236559139785,-1.233258064516129
2.992,0.015032258064516038,9.727419354838709,-1.2425483870967742
3.0,0.00789247311827948,9.730602150537635,-1.2518387096774193
3.008,0.0008749999999999028,9.616374999999998,-1.2066249999999992
3.016,0.14750000000000033,9.603000000000002,-1.1739999999999982
3.024,0.15589873417721517,9.626721518987344,-1.1330126582278486
3.032,0.15549367088607594,9.64960759493671,-1.1530632911392409
3.04,0.1550886075949367,9.672493670886077,-1.1731139240506334
3.048,0.15468354430379747,9.695379746835444,-1.1931645569620257
3.056,0.15427848101265823,9.718265822784812,-1.213215189873418
3.064,0.15387341772151897,9.741151898734177,-1.2332658227848106
3.072,0.15346835443037973,9.764037974683545,-1.2533164556962029
3.08,0.1530632911392405,9.786924050632912,-1.2733670886075954
3.088,0.15265822784810126,9.809810126582278,-1.2934177215189877
3.096,0.15225316455696203,9.832696202531645,-1.31346835443038
3.104,0.119,9.774,-1.509
3.112,0.09,9.694,-1.145
3.12,0.09,9.694,-1.145
3.128,0.09,9.694,-1.145
3.136,0.09,9.694,-1.145
3.144,0.09,9.694,-1.145
3.152,0.09,9.694,-1.145
3.16,0.09,9.694,-1.145
3.168,0.09,9.694,-1.145
3.176,0.09,9.694,-1.145
3.184,0.09,9.694,-1.145
3.192,0.09,9.694,-1.145
3.2,0.09,9.694,-1.145
3.208,0.14750000000000002,9.603000000000002,-1.174
3.216,0.20919540229885025,9.644172413793104,-1.2534482758620686
3.224,0.19797701149425256,9.648862068965519,-1.2432413793103445
3.232,0.18675862068965488,9.653551724137932,-1.2330344827586204
3.24,0.1755402298850572,9.658241379310345,-1.2228275862068962
3.248,0.1643218390804595,9.66293103448276,-1.2126206896551721
3.2560000000000002,0.15310344827586184,9.667620689655173,-1.202413793103448
3.2640000000000002,0.14188505747126412,9.672310344827586,-1.192206896551724
3.2720000000000002,0.13066666666666646,9.677000000000001,-1.182
3.2800000000000002,0.11944827586206877,9.681689655172415,-1.1717931034482758
3.2880000000000003,0.10822988505747108,9.686379310344828,-1.1615862068965517
3.2960000000000003,0.09701149425287339,9.691068965517243,-1.1513793103448275
3.3040000000000003,0.006999999999980016,9.730999999999979,-1.253000000000012
3.3120000000000003,-0.06538461538461532,9.674384615384616,-1.2134615384615381
3.3200000000000003,-0.06415384615384609,9.677153846153846,-1.2063846153846152
3.3280000000000003,-0.06292307692307686,9.679923076923076,-1.199307692307692
3.336,-0.0616923076923077,9.682692307692308,-1.1922307692307692
3.344,-0.06046153846153846,9.685461538461539,-1.1851538461538462
3.352,-0.05923076923076923,9.688230769230769,-1.178076923076923
3.36,-0.058,9.690999999999999,-1.171
3.368,-0.05676923076923077,9.693769230769231,-1.163923076923077
3.376,-0.055538461538461543,9.696538461538461,-1.1568461538461539
3.384,-0.05430769230769231,9.699307692307691,-1.1497692307692309
3.392,-0.05307692307692308,9.702076923076923,-1.1426923076923077
3.4,-0.05184615384615385,9.704846153846153,-1.1356153846153847
3.408,-0.05061538461538462,9.707615384615384,-1.1285384615384615
3.416,0.07908333333333266,9.662833333333332,-1.2390833333333329
3.424,0.1277499999999993,9.7015,-1.2637499999999995
3.432,0.16046478873239464,9.749352112676057,-1.1825492957746477
3.44,0.15032394366197205,9.738760563380282,-1.1887464788732394
3.448,0.14018309859154948,9.728169014084507,-1.194943661971831
3.456,0.1300422535211269,9.717577464788732,-1.2011408450704224
3.464,0.11990140845070431,9.706985915492957,-1.207338028169014
3.472,0.10976056338028173,9.696394366197183,-1.2135352112676057
3.48,0.09961971830985913,9.685802816901408,-1.2197323943661973
3.488,0.08947887323943655,9.675211267605633,-1.2259295774647887
3.496,0.07933802816901397,9.664619718309858,-1.2321267605633803
3.504,0.05772727272727231,9.652,-1.201090909090908
3.512,0.016999999999999994,9.636,-1.108
3.52,0.0027058823529412654,9.727588235294117,-1.2508823529411763
3.528,-0.004164705882352863,9.722129411764707,-1.2474941176470589
3.536,-0.01103529411764699,9.716670588235294,-1.2441058823529412
3.544,-0.01790588235294112,9.711211764705883,-1.2407176470588235
3.552,-0.024776470588235247,9.70575294117647,-1.2373294117647058
3.56,-0.031647058823529375,9.70029411764706,-1.2339411764705883
3.568,-0.038517647058823504,9.694835294117647,-1.2305529411764706
3.576,-0.04538823529411763,9.689376470588236,-1.227164705882353
3.584,-0.05225882352941176,9.683917647058824,-1.2237764705882352
3.592,-0.05912941176470588,9.678458823529413,-1.2203882352941178
3.6,-0.066,9.673,-1.217
3.608,0.007,9.731,-1.253
3.616,0.007,9.731,-1.253
3.624,0.007,9.731,-1.253
3.632,0.007,9.731,-1.253
3.64,0.007,9.731,-1.253
3.648,0.007,9.731,-1.253
3.656,0.007,9.731,-1.253
3.664,0.007,9.731,-1.253
3.672,0.007,9.731,-1.253
3.68,0.007,9.731,-1.253
3.688,0.007,9.731,-1.253
3.696,0.007,9.731,-1.253
3.704,0.062333333333325136,9.706333333333337,-1.1810000000000107
3.712,0.073,9.658,-1.236
3.72,0.06796629213483145,9.656022471910111,-1.2244943820224719
3.728,0.0629325842696629,9.654044943820224,-1.2129887640449437
3.736,0.05789887640449436,9.652067415730336,-1.2014831460674158
3.744,0.05286516853932581,9.65008988764045,-1.1899775280898877
3.7520000000000002,0.047831460674157264,9.648112359550561,-1.1784719101123595
3.7600000000000002,0.04279775280898872,9.646134831460673,-1.1669662921348314
3.7680000000000002,0.03776404494382018,9.644157303370786,-1.1554606741573032
3.7760000000000002,0.03273033707865163,9.642179775280898,-1.1439550561797753
3.7840000000000003,0.027696629213483086,9.640202247191011,-1.1324494382022472
3.7920000000000003,0.02266292134831454,9.638224719101123,-1.120943820224719
3.8000000000000003,0.017629213483145993,9.636247191011234,-1.109438202247191
3.8080000000000003,-0.01923076923077068,9.64192307692308,-1.171153846153844
3.8160000000000003,-0.05000000000001843,9.709000000000009,-1.1250000000000242
3.8240000000000003,-0.1281566265060239,9.740722891566266,-1.2327710843373494
3.8320000000000003,-0.12169879518072267,9.733686746987951,-1.2311325301204818
3.84,-0.1152409638554218,9.72665060240964,-1.2294939759036145
3.848,-0.10878313253012056,9.719614457831325,-1.227855421686747
3.856,-0.10232530120481934,9.712578313253012,-1.2262168674698795
3.864,-0.09586746987951811,9.705542168674699,-1.2245783132530121
3.872,-0.08940963855421688,9.698506024096385,-1.2229397590361446
3.88,-0.08295180722891565,9.691469879518072,-1.221301204819277
3.888,-0.07649397590361441,9.68443373493976,-1.2196626506024097
3.896,-0.07003614457831318,9.677397590361446,-1.2180240963855422
3.904,-0.14800000000000607,9.707000000000003,-1.1429999999999947
3.912,-0.05,9.709,-1.125
3.92,-0.05,9.709,-1.125
3.928,-0.05,9.709,-1.125
3.936,-0.05,9.709,-1.125
3.944,-0.05,9.709,-1.125
3.952,-0.05,9.709,-1.125
3.96,-0.05,9.709,-1.125
3.968,-0.05,9.709,-1.125
3.976,-0.05,9.709,-1.125
3.984,-0.05,9.709,-1.125
3.992,-0.05,9.709,-1.125
4.0,-0.05,9.709,-1.125
4.008,-0.05,9.709,-1.125
4.016,-0.06511111111111113,9.675,-1.211888888888889
4.024,-0.0636888888888889,9.6782,-1.2037111111111112
4.032,-0.06226666666666668,9.6814,-1.1955333333333336
4.04,-0.06084444444444445,9.6846,-1.1873555555555557
4.048,-0.05942222222222223,9.6878,-1.1791777777777779
4.056,-0.058,9.690999999999999,-1.171
4.064,-0.056577777777777775,9.6942,-1.1628222222222222
4.072,-0.055155555555555555,9.6974,-1.1546444444444444
4.08,-0.05373333333333333,9.7006,-1.1464666666666665
4.088,-0.0523111111111111,9.7038,-1.138288888888889
4.096,-0.05088888888888887,9.706999999999999,-1.130111111111111
4.104,-0.054000000000000895,9.699999999999998,-1.148000000000005
4.112,-0.06531914893617013,9.674531914893617,-1.2130851063829784
4.12,-0.06395744680851057,9.67759574468085,-1.205255319148936
4.128,-0.062595744680851,9.680659574468086,-1.1974255319148932
4.136,-0.061234042553191426,9.68372340425532,-1.1895957446808507
4.144,-0.059872340425531856,9.686787234042553,-1.1817659574468082
4.152,-0.058510638297872286,9.689851063829787,-1.1739361702127658
4.16,-0.057148936170212716,9.69291489361702,-1.166106382978723
4.168,-0.05578723404255315,9.695978723404256,-1.1582765957446806
4.176,-0.05442553191489357,9.69904255319149,-1.150446808510638
4.184,-0.053063829787234,9.702106382978723,-1.1426170212765956
4.192,-0.05170212765957443,9.705170212765957,-1.1347872340425529
4.2,-0.050340425531914854,9.70823404255319,-1.1269574468085104
4.208,-0.02100000000000362,9.67771428571429,-1.1177142857142868
4.216,-0.09700000000000242,9.76114285714286,-1.1371428571428577
4.224,-0.03823456790123513,9.73953086419753,-1.0412098765432107
4.232,-0.04870370370370422,9.726592592592592,-1.0556296296296304
4.24,-0.059172839506173316,9.713654320987654,-1.07004938271605
4.248,-0.06964197530864241,9.700716049382716,-1.0844691358024696
4.256,-0.08011111111111151,9.687777777777777,-1.0988888888888895
4.264,-0.0905802469135806,9.67483950617284,-1.113308641975309
4.272,-0.1010493827160497,9.661901234567901,-1.1277283950617287
4.28,-0.11151851851851878,9.648962962962964,-1.1421481481481486
4.288,-0.12198765432098788,9.636024691358024,-1.1565679012345682
4.296,-0.13245679012345696,9.623086419753086,-1.1709876543209878
4.304,-0.1393333333333284,9.615333333333345,-1.1803333333333061
4.312,-0.25572340425531925,9.795468085106384,-1.1259148936170218
4.32,-0.25717021276595753,9.792404255319148,-1.1337446808510643
4.328,-0.2586170212765958,9.789340425531915,-1.1415744680851068
4.336,-0.26006382978723414,9.786276595744681,-1.1494042553191495
4.344,-0.2615106382978724,9.783212765957447,-1.157234042553192
4.352,-0.2629574468085107,9.780148936170212,-1.1650638297872344
4.36,-0.264404255319149,9.777085106382978,-1.172893617021277
4.368,-0.2658510638297873,9.774021276595745,-1.1807234042553194
4.376,-0.2672978723404256,9.77095744680851,-1.188553191489362
4.384,-0.2687446808510639,9.767893617021276,-1.1963829787234046
4.392,-0.2701914893617022,9.764829787234042,-1.204212765957447
4.4,-0.2716382978723405,9.761765957446809,-1.2120425531914896
4.408,-0.401,9.681,-1.05
4.416,-0.3348023255813953,9.60843023255814,-1.0319302325581392
4.424,-0.3332209302325581,9.611872093023257,-1.0233720930232555
4.432,-0.3316395348837209,9.615313953488373,-1.0148139534883718
4.44,-0.33005813953488367,9.618755813953488,-1.006255813953488
4.448,-0.3284767441860465,9.622197674418604,-0.9976976744186044
4.456,-0.3268953488372093,9.625639534883721,-0.9891395348837206
4.464,-0.32531395348837205,9.629081395348837,-0.9805813953488369
4.472,-0.32373255813953483,9.632523255813954,-0.9720232558139532
4.48,-0.32215116279069766,9.63596511627907,-0.9634651162790695
4.488,-0.32056976744186044,9.639406976744185,-0.9549069767441858
4.496,-0.3189883720930232,9.642848837209302,-0.9463488372093022
4.5040000000000004,-0.2777999999999976,9.601199999999997,-0.9307999999999994
4.5120000000000005,-0.23374999999999937,9.697250000000006,-0.895499999999999
4.5200000000000005,-0.26697674418604833,9.802116279069768,-1.1218837209302326
4.5280000000000005,-0.28613953488372273,9.810302325581397,-1.1216976744186047
4.5360000000000005,-0.3053023255813971,9.818488372093025,-1.1215116279069768
4.5440000000000005,-0.3244651162790715,9.826674418604652,-1.1213255813953489
4.5520000000000005,-0.34362790697674583,9.83486046511628,-1.121139534883721
4.5600000000000005,-0.3627906976744202,9.843046511627907,-1.120953488372093
4.5680000000000005,-0.38195348837209453,9.851232558139536,-1.1207674418604652
4.5760000000000005,-0.40111627906976893,9.859418604651163,-1.1205813953488373
4.5840000000000005,-0.42027906976744334,9.867604651162791,-1.1203953488372094
4.5920000000000005,-0.4394418604651177,9.87579069767442,-1.1202093023255815
4.6000000000000005,-0.45860465116279203,9.883976744186047,-1.1200232558139536
4.6080000000000005,-0.4539999999999995,9.825181818181814,-1.0277272727272664
4.616,-0.54,9.696,-1.03
4.624,-0.3697439024390261,9.657012195121952,-0.8841097560975617
4.632,-0.23013414634146473,9.652231707317073,-0.8250853658536591
4.64,-0.09052439024390335,9.647451219512195,-0.7660609756097565
4.648,0.049085365853658025,9.642670731707318,-0.707036585365854
4.656,0.18869512195121935,9.63789024390244,-0.6480121951219513
4.664,0.3283048780487808,9.63310975609756,-0.5889878048780488
4.672,0.4679146341463421,9.628329268292683,-0.5299634146341461
4.68,0.6075243902439034,9.623548780487805,-0.47093902439024354
4.688,0.7471341463414647,9.618768292682928,-0.411914634146341
4.696,0.8867439024390262,9.613987804878048,-0.3528902439024384
4.704,1.0201999999999944,9.640399999999996,-0.33999999999999714
4.712,1.119,9.812,-0.535
4.72,1.1051573033707867,9.803191011235954,-0.5277191011235955
4.728,1.091314606741573,9.79438202247191,-0.5204382022471911
4.736,1.0774719101123598,9.785573033707864,-0.5131573033707866
4.744,1.0636292134831462,9.77676404494382,-0.5058764044943822
4.752,1.0497865168539329,9.767955056179776,-0.49859550561797766
4.76,1.0359438202247193,9.759146067415731,-0.49131460674157323
4.768,1.022101123595506,9.750337078651686,-0.48403370786516875
4.776,1.0082584269662926,9.741528089887641,-0.47675280898876427
4.784,0.9944157303370791,9.732719101123596,-0.4694719101123598
4.792,0.9805730337078656,9.723910112359551,-0.46219101123595535
4.8,0.9667303370786522,9.715101123595506,-0.45491011235955087
4.808,0.8601808510638302,9.774478723404256,-0.3295638297872343
4.816,0.8536276595744685,9.770308510638298,-0.3260744680851066
4.824,0.8470744680851068,9.766138297872342,-0.32258510638297894
4.832,0.8405212765957449,9.761968085106384,-0.3190957446808512
4.84,0.8339680851063832,9.757797872340426,-0.31560638297872357
4.848,0.8274148936170215,9.75362765957447,-0.31211702127659585
4.856,0.8208617021276597,9.749457446808512,-0.3086276595744682
4.864,0.814308510638298,9.745287234042554,-0.3051382978723405
4.872,0.8077553191489363,9.741117021276596,-0.3016489361702128
4.88,0.8012021276595745,9.73694680851064,-0.2981595744680851
4.888,0.7946489361702128,9.732776595744681,-0.2946702127659574
4.896,0.788095744680851,9.728606382978723,-0.29118085106382974
4.904,0.8374999999999999,9.7645,-0.264
4.912,0.7826170212765958,9.731904255319149,-0.2845319148936171
4.92,0.780404255319149,9.741351063829788,-0.27738297872340434
4.928,0.7781914893617022,9.750797872340426,-0.2702340425531916
4.936,0.7759787234042554,9.760244680851065,-0.2630851063829789
4.944,0.7737659574468085,9.769691489361703,-0.2559361702127661
4.952,0.7715531914893617,9.77913829787234,-0.24878723404255337
4.96,0.769340425531915,9.788585106382978,-0.24163829787234062
4.968,0.7671276595744682,9.798031914893617,-0.23448936170212786
4.976,0.7649148936170214,9.807478723404255,-0.22734042553191514
4.984,0.7627021276595746,9.816925531914894,-0.22019148936170238
4.992,0.7604893617021278,9.82637234042553,-0.21304255319148963
5.0,0.758276595744681,9.835819148936169,-0.2058936170212769
5.008,0.5996666666666742,9.727333333333338,-0.22933333333333727
5.016,0.5827499999999995,9.708945652173913,-0.20154347826087018
5.024,0.5927499999999997,9.706597826086957,-0.18502173913043532
5.032,0.6027499999999997,9.70425,-0.16850000000000045
5.04,0.6127499999999997,9.701902173913043,-0.1519782608695656
5.048,0.6227499999999998,9.699554347826087,-0.13545652173913073
5.056,0.6327499999999998,9.69720652173913,-0.11893478260869586
5.064,0.6427499999999998,9.694858695652174,-0.102413043478261
5.072,0.6527499999999999,9.692510869565217,-0.08589130434782613
5.08,0.66275,9.690163043478261,-0.06936956521739127
5.088,0.67275,9.687815217391304,-0.0528478260869564
5.096,0.6827500000000001,9.685467391304346,-0.036326086956521536
5.104,0.9784999999999999,9.6555,-0.6355
5.112,1.0370957446808509,9.569021276595745,-1.4697659574468085
5.12,1.0436489361702126,9.572255319148937,-1.474191489361702
5.128,1.0502021276595745,9.575489361702127,-1.4786170212765959
5.136,1.0567553191489363,9.578723404255319,-1.4830425531914895
5.144,1.063308510638298,9.581957446808511,-1.487468085106383
5.152,1.0698617021276597,9.585191489361703,-1.4918936170212767
5.16,1.0764148936170215,9.588425531914893,-1.4963191489361702
5.168,1.0829680851063832,9.591659574468085,-1.500744680851064
5.176,1.089521276595745,9.594893617021278,-1.5051702127659576
5.184,1.096074468085107,9.598127659574468,-1.5095957446808512
5.192,1.1026276595744686,9.60136170212766,-1.5140212765957448
5.2,1.1091808510638304,9.604595744680852,-1.5184468085106384
5.208,0.8775376344086027,9.816193548387096,-1.513139784946237
5.216,0.8898387096774198,9.80174193548387,-1.5222580645161294
5.224,0.9021397849462371,9.787290322580644,-1.531376344086022
5.232,0.9144408602150543,9.77283870967742,-1.5404946236559145
5.24,0.9267419354838715,9.758387096774193,-1.549612903225807
5.248,0.9390430107526887,9.743935483870967,-1.5587311827956993
5.256,0.9513440860215059,9.72948387096774,-1.5678494623655919
5.264,0.9636451612903232,9.715032258064516,-1.5769677419354844
5.272,0.9759462365591404,9.70058064516129,-1.586086021505377
5.28,0.9882473118279576,9.686129032258064,-1.5952043010752694
5.288,1.0005483870967748,9.671677419354838,-1.604322580645162
5.296,1.012849462365592,9.657225806451612,-1.6134408602150543
5.304,0.8249999999999568,9.519333333333368,-1.2309999999999253
5.312,0.752,9.573083333333333,-1.1210416666666678
5.32,0.752,9.56975,-1.1393750000000011
5.328,0.752,9.566416666666667,-1.1577083333333347
5.336,0.752,9.563083333333333,-1.176041666666668
5.344,0.752,9.55975,-1.1943750000000013
5.352,0.752,9.556416666666667,-1.2127083333333346
5.36,0.752,9.553083333333333,-1.231041666666668
5.368,0.752,9.54975,-1.2493750000000012
5.376,0.752,9.546416666666666,-1.2677083333333345
5.384,0.752,9.543083333333334,-1.2860416666666679
5.392,0.752,9.53975,-1.3043750000000012
5.4,0.752,9.536416666666666,-1.3227083333333345
5.408,0.919,9.53,-1.278
5.416,0.9010795454545454,9.649375,-1.2110568181818182
5.424,0.8906249999999999,9.642375,-1.213875
5.432,0.8801704545454544,9.635375,-1.2166931818181819
5.44,0.869715909090909,9.628374999999998,-1.2195113636363637
5.448,0.8592613636363635,9.621374999999999,-1.2223295454545455
5.456,0.848806818181818,9.614374999999999,-1.2251477272727274
5.464,0.8383522727272726,9.607375,-1.2279659090909092
5.472,0.8278977272727271,9.600375,-1.230784090909091
5.48,0.8174431818181818,9.593375,-1.2336022727272729
5.488,0.8069886363636363,9.586374999999999,-1.2364204545454547
5.496,0.7965340909090908,9.579374999999999,-1.2392386363636365
5.5040000000000004,0.7519999999999943,9.555999999999997,-1.2149999999999963
5.5120000000000005,0.8049999999999967,9.492000000000028,-1.0899999999999848
5.5200000000000005,0.8289647058823574,9.6126,-0.9802941176470542
5.5280000000000005,0.9068941176470633,9.6078,-0.8988823529411717
5.5360000000000005,0.9848235294117693,9.603,-0.8174705882352893
5.5440000000000005,1.0627529411764753,9.5982,-0.7360588235294068
5.5520000000000005,1.1406823529411814,9.593399999999999,-0.6546470588235244
5.5600000000000005,1.2186117647058872,9.5886,-0.573235294117642
5.5680000000000005,1.2965411764705932,9.5838,-0.49182352941175944
5.5760000000000005,1.3744705882352992,9.579,-0.41041176470587704
5.5840000000000005,1.4524000000000052,9.5742,-0.32899999999999463
5.5920000000000005,1.5303294117647113,9.5694,-0.2475882352941121
5.6000000000000005,1.6082588235294173,9.5646,-0.1661764705882297
5.6080000000000005,1.489,9.522,0.022
5.6160000000000005,1.489,9.522,0.022
5.6240000000000006,1.489,9.522,0.022
5.632,1.489,9.522,0.022
5.64,1.489,9.522,0.022
5.648,1.489,9.522,0.022
5.656,1.489,9.522,0.022
5.664,1.489,9.522,0.022
5.672,1.489,9.522,0.022
5.68,1.489,9.522,0.022
5.688,1.489,9.522,0.022
5.696,1.489,9.522,0.022
5.704,1.536,9.529,-0.111
5.712,1.5027692307692304,9.656384615384617,-0.06976923076923042
5.72,1.4852168674698796,9.72956626506024,-0.043204819277108404
5.728,1.4937951807228917,9.712409638554217,-0.041084337349397565
5.736,1.5023734939759037,9.695253012048193,-0.03896385542168672
5.744,1.5109518072289156,9.678096385542169,-0.03684337349397588
5.752,1.5195301204819278,9.660939759036145,-0.03472289156626504
5.76,1.5281084337349398,9.643783132530121,-0.0326024096385542
5.768,1.5366867469879517,9.626626506024097,-0.03048192771084336
5.776,1.5452650602409639,9.609469879518072,-0.02836144578313252
5.784,1.5538433734939758,9.592313253012048,-0.026240963855421677
5.792,1.562421686746988,9.575156626506024,-0.024120481927710838
5.8,1.571,9.558,-0.022
5.808,1.5346666666666666,9.330666666666666,0.104
5.816,1.5273333333333332,9.3454,0.13206666666666528
5.824,1.5224444444444443,9.355266666666665,0.0708222222222213
5.832,1.5175555555555555,9.365133333333333,0.009577777777777297
5.84,1.5126666666666666,9.375,-0.051666666666666694
5.848,1.5077777777777777,9.384866666666666,-0.11291111111111068
5.856,1.502888888888889,9.394733333333333,-0.17415555555555468
5.864,1.498,9.404599999999999,-0.23539999999999867
5.872,1.4931111111111113,9.414466666666666,-0.2966444444444427
5.88,1.4882222222222223,9.424333333333333,-0.35788888888888665
5.888,1.4833333333333336,9.434199999999999,-0.41913333333333064
5.896,1.4784444444444447,9.444066666666666,-0.48037777777777463
5.904,1.409,9.582,-0.078
5.912,1.1315789473684215,9.03157894736842,-0.10736842105263185
5.92,1.100505263157895,9.085305263157894,-0.08395789473684229
5.928,1.0694315789473685,9.139031578947368,-0.06054736842105274
5.936,1.0383578947368421,9.192757894736841,-0.037136842105263176
5.944,1.0072842105263158,9.246484210526315,-0.013726315789473628
5.952,0.9762105263157893,9.300210526315789,0.009684210526315934
5.96,0.9451368421052628,9.353936842105263,0.03309473684210548
5.968,0.9140631578947365,9.407663157894737,0.05650526315789506
5.976,0.8829894736842101,9.46138947368421,0.0799157894736846
5.984,0.8519157894736836,9.515115789473684,0.10332631578947415
5.992,0.8208421052631572,9.568842105263158,0.1267368421052637
6.0,0.7897684210526308,9.622568421052632,0.15014736842105325
6.008,0.35899999999999993,9.577,2.066
6.016,1.9236551724137931,9.145034482758621,1.95151724137931
6.024,1.9280689655172414,9.147793103448276,1.9395632183908043
6.032,1.9324827586206896,9.150551724137932,1.9276091954022985
6.04,1.9368965517241379,9.153310344827586,1.9156551724137927
6.048,1.9413103448275864,9.15606896551724,1.903701149425287
6.056,1.9457241379310346,9.158827586206897,1.8917471264367811
6.064,1.9501379310344829,9.161586206896551,1.8797931034482755
6.072,1.954551724137931,9.164344827586207,1.8678390804597695
6.08,1.9589655172413796,9.167103448275862,1.855885057471264
6.088,1.9633793103448278,9.169862068965516,1.843931034482758
6.096,1.967793103448276,9.172620689655172,1.8319770114942524
6.104,2.0350909090909064,8.895409090909093,1.709136363636363
6.112,1.9638181818181797,8.946681818181819,1.6942272727272722
6.12,1.8925454545454532,8.997954545454546,1.6793181818181815
6.128,1.84844,9.026879999999998,1.6571199999999995
6.136,1.8496133333333333,9.018559999999999,1.622773333333333
6.144,1.8507866666666668,9.01024,1.5884266666666662
6.152,1.85196,9.00192,1.5540799999999997
6.16,1.8531333333333333,8.993599999999999,1.5197333333333332
6.168,1.8543066666666668,8.98528,1.4853866666666664
6.176,1.85548,8.97696,1.4510399999999999
6.184,1.8566533333333333,8.96864,1.4166933333333334
6.192,1.8578266666666667,8.96032,1.3823466666666666
6.2,1.859,8.952,1.348
6.208,1.993,9.219,1.381
6.216,1.9762340425531915,9.205382978723403,1.3520638297872338
6.224,1.9594680851063828,9.191765957446808,1.3231276595744677
6.232,1.9427021276595742,9.178148936170212,1.2941914893617015
6.24,1.9259361702127655,9.164531914893615,1.2652553191489353
6.248,1.9091702127659569,9.15091489361702,1.2363191489361691
6.256,1.8924042553191482,9.137297872340424,1.207382978723403
6.264,1.8756382978723396,9.123680851063828,1.1784468085106368
6.272,1.858872340425531,9.110063829787233,1.1495106382978706
6.28,1.8421063829787223,9.096446808510636,1.1205744680851044
6.288,1.8253404255319137,9.08282978723404,1.0916382978723382
6.296,1.808574468085105,9.069212765957445,1.062702127659572
6.304,1.737,8.907,1.293
6.312,1.7908571428571587,9.029285714285722,1.3849999999999854
6.32,1.8751250000000044,9.009687499999998,1.403437500000004
6.328,1.93583928571429,8.970473214285711,1.4576517857142897
6.336,1.9965535714285758,8.931258928571426,1.5118660714285752
6.344,2.0572678571428615,8.89204464285714,1.566080357142861
6.352,2.117982142857147,8.852830357142855,1.6202946428571467
6.36,2.178696428571433,8.81361607142857,1.6745089285714325
6.368,2.2394107142857185,8.774401785714282,1.728723214285718
6.376,2.3001250000000044,8.735187499999997,1.7829375000000038
6.384,2.36083928571429,8.695973214285711,1.8371517857142896
6.392,2.421553571428576,8.656758928571426,1.8913660714285754
6.4,2.4822678571428614,8.61754464285714,1.9455803571428611
6.408,2.5429821428571473,8.578330357142853,1.9997946428571467
6.416,2.603696428571433,8.539116071428568,2.0540089285714327
6.424,2.6644107142857187,8.499901785714282,2.1082232142857182
6.432,2.741500000000014,7.644499999999955,2.6244999999999754
6.44,2.8713692307692313,7.243969230769231,2.4396615384615425
6.448,2.8801076923076927,7.247907692307693,2.514984615384619
6.456,2.888846153846154,7.251846153846154,2.5903076923076958
6.464,2.897584615384616,7.2557846153846155,2.665630769230772
6.472,2.9063230769230772,7.259723076923077,2.7409538461538485
6.48,2.915061538461539,7.263661538461538,2.816276923076925
6.488,2.9238000000000004,7.2676,2.8916000000000017
6.496,2.9325384615384618,7.271538461538461,2.966923076923078
6.5040000000000004,3.022999999999942,6.989000000000023,2.9690000000000407
6.5120000000000005,2.497857142857093,7.19700000000002,3.337000000000035
6.5200000000000005,1.9073333333332751,7.20833333333329,3.529666666666642
6.5280000000000005,1.1206666666666374,6.629666666666645,3.196333333333321
6.5360000000000005,-0.3969846153846013,4.803015384615385,3.6462461538461755
6.5440000000000005,-0.2249230769230637,4.815076923076924,3.9112307692307895
6.5520000000000005,-0.052861538461526136,4.827138461538462,4.1762153846154035
6.5600000000000005,0.11920000000001146,4.839200000000001,4.441200000000018
6.5680000000000005,0.29126153846154906,4.851261538461539,4.706184615384632
6.5760000000000005,0.46332307692308655,4.863323076923077,4.971169230769245
6.5840000000000005,0.6353846153846243,4.875384615384616,5.23615384615386
6.5920000000000005,0.8074461538461619,4.887446153846154,5.501138461538473
6.6000000000000005,1.223750000000118,5.653750000000335,6.043250000000137
6.6080000000000005,-0.19699999999998447,3.921000000000004,4.579000000000016
6.6160000000000005,-0.056999999999985146,3.956130434782612,4.72352173913045
6.6240000000000006,0.08300000000001417,3.9912608695652207,4.868043478260884
6.632000000000001,0.22300000000001352,4.026391304347829,5.012565217391318
6.640000000000001,0.3630000000000128,4.061521739130438,5.157086956521752
6.648000000000001,0.5030000000000121,4.096652173913046,5.301608695652186
6.656000000000001,0.6430000000000116,4.131782608695655,5.446130434782621
6.664,0.7829999999999953,4.166913043478259,5.590652173913038
6.672,0.9229999999999945,4.202043478260868,5.7351739130434725
6.68,1.062999999999994,4.237173913043477,5.879695652173907
6.688,1.2029999999999932,4.272304347826085,6.02421739130434
6.696,1.3429999999999926,4.307434782608694,6.1687391304347745
6.704,1.218428571428587,7.710428571428566,5.980428571428596
6.712,-2.442865168539331,8.462662921348304,5.171471910112368
6.72,-2.369786516853937,8.619966292134821,5.047247191011244
6.728,-2.2967078651685435,8.77726966292134,4.923022471910119
6.736,-2.2236292134831497,8.934573033707856,4.798797752808995
6.744,-2.150550561797756,9.091876404494375,4.674573033707871
6.752,-2.0774719101123624,9.249179775280892,4.5503483146067465
6.76,-2.0043932584269686,9.40648314606741,4.426123595505622
6.768,-1.9313146067415747,9.563786516853929,4.301898876404498
6.776,-1.8582359550561813,9.721089887640446,4.1776741573033735
6.784,-1.7851573033707875,9.878393258426964,4.053449438202249
6.792,-1.7120786516853936,10.035696629213481,3.929224719101125
6.8,-1.6390000000000002,10.193,3.805
6.808,0.9110000000000309,12.214583333333394,12.93697916666671
6.816,-0.20099999999996898,10.052916666666727,11.420895833333375
6.824,-1.3129999999999686,7.891250000000061,9.904812500000043
6.832,-2.4249999999999687,5.7295833333333945,8.38872916666671
6.84,-3.536999999999969,3.5679166666667275,6.872645833333376
6.848,-4.648999999999968,1.4062500000000604,5.3565625000000425
6.856,-5.760999999999968,-0.7554166666666049,3.840479166666709
6.864,-6.872999999999967,-2.917083333333272,2.3243958333333747
6.872,-7.9849999999999675,-5.078749999999937,0.8083125000000422
6.88,-9.096999999999968,-7.240416666666606,-0.7077708333332922
6.888,-10.208999999999968,-9.402083333333271,-2.2238541666666247
6.896,-11.320999999999968,-11.56374999999994,-3.739937499999959
6.904,-9.217727272727627,-10.496818181818508,-2.844818181818428
6.912,2.5313636363631637,0.25590909090865743,5.283909090908762
6.92,7.215799999999918,13.77859999999969,-3.1723999999997607
6.928,9.733615384615355,19.947166666666643,-6.847705128205138
6.936,11.556999999999965,21.465833333333308,-6.232833333333345
6.944,13.380384615384575,22.98449999999997,-5.617961538461552
6.952,15.203769230769186,24.50316666666663,-5.003089743589759
6.96,17.027153846153794,26.02183333333329,-4.3882179487179656
6.968,18.850538461538406,27.540499999999955,-3.773346153846173
6.976,20.673923076923018,29.059166666666616,-3.15847435897438
6.984,22.497307692307626,30.57783333333328,-2.543602564102587
6.992,24.320692307692234,32.09649999999994,-1.9287307692307936
7.0,26.144076923076845,33.6151666666666,-1.3138589743590003
7.008,3.8584285714283695,6.3628571428572345,-0.5355714285715323
7.016,11.706383720930228,2.8512325581395386,3.4026162790697625
7.024,11.451406976744183,3.161186046511631,3.04159302325581
7.032,11.196430232558138,3.471139534883723,2.6805697674418574
7.04,10.941453488372092,3.7810930232558153,2.3195465116279053
7.048,10.686476744186045,4.091046511627908,1.9585232558139525
7.056,10.4315,4.401,1.5975
7.064,10.176523255813954,4.710953488372092,1.2364767441860471
7.072,9.921546511627907,5.020906976744184,0.8754534883720946
7.08,9.666569767441862,5.3308604651162765,0.514430232558142
7.088,9.411593023255817,5.640813953488369,0.15340697674418946
7.096,9.15661627906977,5.950767441860461,-0.2076162790697631
7.104,4.287989795918359,-0.05238775510203592,-2.8239591836734643
7.112,4.111908163265298,0.0645102040816378,-2.703632653061219
7.12,3.9358265306122364,0.18140816326531153,-2.583306122448974
7.128,3.759744897959175,0.29830612244898524,-2.4629795918367288
7.136,3.583663265306113,0.415204081632659,-2.3426530612244836
7.144,3.4075816326530517,0.5321020408163326,-2.2223265306122384
7.152,3.23149999999999,0.6490000000000065,-2.101999999999993
7.16,3.0554183673469284,0.7658979591836801,-1.981673469387748
7.168,2.879336734693867,0.8827959183673539,-1.8613469387755028
7.176,2.7032551020408055,0.9996938775510276,-1.7410204081632579
7.184,2.5271734693877437,1.1165918367347014,-1.6206938775510127
7.192,2.351091836734682,1.233489795918375,-1.5003673469387675
7.2,2.1750102040816204,1.350387755102049,-1.3800408163265223
7.208,0.6262553191489288,1.546999999999996,-2.080829787234052
7.216,0.9112765957446756,1.7029999999999972,-1.7041489361702198
7.224,1.196297872340422,1.8589999999999982,-1.3274680851063874
7.232,1.4813191489361688,2.0149999999999992,-0.9507872340425549
7.24,1.7663404255319155,2.1710000000000003,-0.5741063829787223
7.248,2.0513617021276622,2.3270000000000017,-0.19742553191488987
7.256,2.336382978723409,2.4830000000000028,0.17925531914894233
7.264,2.6214042553191557,2.639000000000004,0.555936170212775
7.272,2.9064255319149024,2.7950000000000053,0.9326170212766072
7.28,3.191446808510649,2.951000000000006,1.3092978723404398
7.288,3.476468085106396,3.1070000000000073,1.6859787234042725
7.296,3.7614893617021425,3.2630000000000083,2.062659574468105
7.304,4.427200000000046,3.8736000000000477,3.0318000000000693
7.312,5.473600000000023,4.938800000000024,4.593400000000035
7.32,6.52,6.004,6.154999999999999
7.328,11.202000000000014,10.56200000000003,8.622000000000003
7.336,11.472000000000012,11.140000000000027,8.682000000000004
7.344,11.742000000000012,11.718000000000023,8.742000000000003
7.352,12.01200000000001,12.29600000000002,8.802000000000003
7.36,12.282000000000007,12.874000000000017,8.862000000000002
7.368,12.552000000000007,13.452000000000012,8.922000000000002
7.376,12.822000000000005,14.030000000000008,8.982000000000001
7.384,13.092000000000002,14.608000000000006,9.042000000000002
7.392,13.362000000000002,15.186000000000003,9.102
7.4,13.632,15.764,9.162
7.408,10.643,10.087,3.952
7.416,10.051434782608693,9.655086956521737,4.01704347826087
7.424,9.459869565217385,9.223173913043475,4.0820869565217395
7.432,8.86830434782608,8.79126086956521,4.14713043478261
7.44,8.276739130434771,8.359347826086948,4.21217391304348
7.448,7.685173913043464,7.927434782608685,4.277217391304349
7.456,7.093608695652157,7.495521739130423,4.342260869565219
7.464,6.50204347826085,7.063608695652159,4.40730434782609
7.472,5.910478260869542,6.631695652173896,4.472347826086959
7.48,5.3189130434782355,6.199782608695633,4.537391304347829
7.488,4.727347826086928,5.767869565217371,4.602434782608699
7.496,4.135782608695621,5.335956521739107,4.667478260869569
7.5040000000000004,4.084999999999911,2.7879999999999554,2.8239999999997334
7.5120000000000005,3.7935882352941133,2.611882352941173,2.1671176470588214
7.5200000000000005,3.6717058823529363,2.5103921568627414,2.091274509803919
7.5280000000000005,3.549823529411759,2.408901960784309,2.015431372549016
7.5360000000000005,3.427941176470582,2.3074117647058774,1.9395882352941138
7.5440000000000005,3.3060588235294044,2.205921568627445,1.8637450980392112
7.5520000000000005,3.184176470588227,2.104431372549013,1.7879019607843087
7.5600000000000005,3.06229411764705,2.002941176470581,1.7120588235294063
7.5680000000000005,2.940411764705873,1.9014509803921489,1.6362156862745039
7.5760000000000005,2.8185294117646955,1.7999607843137169,1.5603725490196014
7.5840000000000005,2.696647058823518,1.6984705882352849,1.484529411764699
7.5920000000000005,2.574764705882341,1.5969803921568528,1.4086862745097966
7.6000000000000005,2.4528823529411636,1.4954901960784208,1.332843137254894
7.6080000000000005,2.330999999999919,1.3939999999997121,1.2569999999999049
7.6160000000000005,1.6280882352941186,0.1597647058823548,1.0865588235294141
7.6240000000000006,1.6869901960784328,0.2738039215686301,1.2400490196078466
7.632000000000001,1.745892156862747,0.3878431372549053,1.393539215686279
7.640000000000001,1.804794117647061,0.5018823529411806,1.5470294117647114
7.648000000000001,1.8636960784313752,0.6159215686274558,1.7005196078431437
7.656000000000001,1.9225980392156892,0.7299607843137311,1.8540098039215762
7.664000000000001,1.9815000000000034,0.8440000000000063,2.0075000000000087
7.672000000000001,2.0404019607843176,0.9580392156862816,2.160990196078441
7.68,2.099303921568625,1.0720784313725442,2.3144803921568564
7.688,2.1582058823529393,1.1861176470588195,2.4679705882352887
7.696,2.2171078431372533,1.3001568627450948,2.6214607843137214
7.704,2.2760098039215677,1.41419607843137,2.7749509803921537
7.712,2.3349117647058817,1.5282352941176451,2.928441176470586
7.72,7.084,9.318,6.119
7.728,7.307804878048781,9.712048780487805,6.153634146341464
7.736,7.531609756097562,10.106097560975611,6.188268292682927
7.744,7.755414634146343,10.500146341463417,6.2229024390243906
7.752,7.979219512195124,10.894195121951224,6.2575365853658536
7.76,8.203024390243906,11.28824390243903,6.292170731707317
7.768,8.426829268292686,11.682292682926835,6.326804878048781
7.776,8.650634146341467,12.076341463414641,6.361439024390244
7.784,8.874439024390249,12.470390243902447,6.396073170731708
7.792,9.09824390243903,12.864439024390252,6.430707317073172
7.8,9.322048780487812,13.258487804878058,6.465341463414635
7.808,8.087571428571495,16.83742857142841,3.0150000000001063
7.816,4.968666666666667,15.19496666666666,1.7416666666666663
7.824,4.957111111111111,14.789544444444438,1.7167777777777773
7.832,4.945555555555555,14.384122222222214,1.6918888888888883
7.84,4.933999999999999,13.978699999999991,1.6669999999999994
7.848,4.922444444444444,13.573277777777767,1.6421111111111104
7.856,4.910888888888889,13.167855555555544,1.6172222222222215
7.864,4.899333333333333,12.762433333333322,1.5923333333333325
7.872,4.887777777777777,12.357011111111097,1.5674444444444438
7.88,4.876222222222221,11.951588888888875,1.5425555555555548
7.888,4.8646666666666665,11.546166666666652,1.5176666666666658
7.896,4.853111111111111,11.14074444444443,1.4927777777777769
7.904,5.154999999999999,9.7105,1.113
7.912,3.4104782608695623,6.696434782608703,2.5165217391304413
7.92,3.463434782608693,6.555304347826094,2.39356521739131
7.928,3.516391304347824,6.414173913043484,2.270608695652179
7.936,3.5693478260869544,6.273043478260876,2.1476521739130483
7.944,3.622304347826085,6.131913043478266,2.024695652173917
7.952,3.6752608695652156,5.990782608695657,1.9017391304347862
7.96,3.7282173913043466,5.849652173913047,1.778782608695655
7.968,3.781173913043477,5.708521739130438,1.655826086956524
7.976,3.8341304347826077,5.5673913043478285,1.5328695652173931
7.984,3.8870869565217383,5.426260869565219,1.409913043478262
7.992,3.9400434782608693,5.28513043478261,1.286956521739131
8.0,3.993,5.144,1.164
8.008000000000001,4.725324675324677,5.299012987012989,1.647623376623403
8.016,4.735922077922078,5.315116883116883,1.820610389610397
8.024000000000001,4.746519480519482,5.331220779220781,1.9935974025974295
8.032,4.7571168831168835,5.347324675324676,2.1665844155844236
8.040000000000001,4.767714285714288,5.363428571428574,2.339571428571456
8.048,4.778311688311689,5.379532467532468,2.51255844155845
8.056000000000001,4.788909090909092,5.395636363636366,2.6855454545454824
8.064,4.7995064935064935,5.41174025974026,2.858532467532476
8.072000000000001,4.8101038961038975,5.427844155844158,3.031519480519509
8.08,4.820701298701299,5.443948051948053,3.2045064935065026
8.088000000000001,5.788000000000136,6.56214285714301,4.037571428571459
8.096,8.180625000000003,8.873471153846154,4.316413461538455
8.104000000000001,8.129624999999997,8.869240384615384,4.415721153846159
8.112,8.078625000000002,8.865009615384617,4.515028846153841
8.120000000000001,8.027624999999997,8.860778846153847,4.614336538461545
8.128,7.976625000000001,8.856548076923078,4.713644230769227
8.136000000000001,7.925624999999996,8.852317307692308,4.812951923076931
8.144,7.874625000000001,8.848086538461539,4.912259615384614
8.152000000000001,7.8236249999999945,8.84385576923077,5.011567307692318
8.16,7.772625,8.839625000000002,5.110875
8.168000000000001,7.721624999999994,8.83539423076923,5.210182692307704
8.176,7.670624999999999,8.831163461538463,5.309490384615386
8.184000000000001,7.619624999999993,8.826932692307693,5.40879807692309
8.192,7.568624999999998,8.822701923076924,5.508105769230772
8.2,6.409,7.743,5.354
8.208,4.181599999999996,6.480819999999996,5.521280000000001
8.216,4.05440000000001,6.340580000000011,5.564319999999997
8.224,3.927199999999995,6.200339999999994,5.607360000000002
8.232,3.8000000000000087,6.060100000000009,5.650399999999997
8.24,3.672799999999994,5.919859999999994,5.6934400000000025
8.248,3.5456000000000074,5.779620000000008,5.736479999999998
8.256,3.4183999999999926,5.639379999999992,5.779520000000002
8.264,3.291200000000006,5.499140000000007,5.8225599999999975
8.272,3.1639999999999917,5.3588999999999904,5.865600000000003
8.28,3.036800000000005,5.218660000000005,5.908639999999998
8.288,2.9095999999999904,5.07841999999999,5.951680000000003
8.296,2.7824000000000035,4.9381800000000045,5.994719999999999
8.304,2.569666666666632,5.782333333333614,6.146333333333369
8.312,5.308999999999999,8.245000000000001,5.896
8.32,5.76370588235291,9.038882352941172,5.3846470588234805
8.328,5.425635294117656,8.97949411764706,4.846482352941192
8.336,5.087564705882328,8.920105882352937,4.308317647058784
8.344,4.749494117647075,8.860717647058827,3.7701529411764962
8.352,4.411423529411746,8.801329411764703,3.231988235294088
8.36,4.073352941176492,8.741941176470592,2.6938235294118
8.368,3.735282352941164,8.68255294117647,2.155658823529392
8.376,3.3972117647059106,8.623164705882358,1.6174941176471034
8.384,3.059141176470582,8.563776470588234,1.0793294117646957
8.392,2.7210705882353285,8.504388235294124,0.5411647058824078
8.4,2.383,8.445,0.0030000000000001137
8.408,0.5191818181818184,9.481363636363634,2.994363636363631
8.416,0.536131868131901,9.598659340659346,3.214560439560409
8.424,0.7531868131868196,9.635934065934066,3.01104395604395
8.432,0.9702417582417864,9.673208791208795,2.8075274725274464
8.44,1.1872967032967048,9.710483516483517,2.6040109890109875
8.448,1.4043516483516716,9.747758241758246,2.4004945054944837
8.456,1.6214065934065904,9.785032967032967,2.1969780219780253
8.464,1.8384615384615572,9.822307692307696,1.993461538461521
8.472,2.0555164835164756,9.859582417582416,1.7899450549450624
8.48,2.2725714285714425,9.896857142857145,1.5864285714285584
8.488,2.489626373626361,9.934131868131866,1.3829120879120997
8.496,2.7066813186813277,9.971406593406595,1.1793956043955958
8.504,2.9237362637362465,10.008681318681317,0.9758791208791369
8.512,4.282,10.382,1.255
8.52,4.562181818181821,9.709509090909101,0.9300000000000044
8.528,4.523636363636362,9.569581818181812,0.8659999999999969
8.536,4.4850909090909115,9.429654545454554,0.8020000000000036
8.544,4.446545454545452,9.289727272727264,0.7379999999999961
8.552,4.408000000000001,9.149800000000006,0.6740000000000028
8.56,4.369454545454542,9.009872727272718,0.6099999999999953
8.568,4.330909090909092,8.86994545454546,0.546000000000002
8.576,4.264,8.813,0.336
8.584,3.219425000000001,8.736325,1.2880749999999994
8.592,3.292558333333342,8.726524999999999,1.2349416666666606
8.6,3.3656916666666663,8.716725,1.1818083333333336
8.608,3.4388250000000076,8.706925,1.1286749999999948
8.616,3.511958333333332,8.697125,1.0755416666666677
8.624,3.585091666666673,8.687325,1.022408333333329
8.632,3.6582249999999976,8.677525000000001,0.9692750000000019
8.64,3.7313583333333384,8.667724999999999,0.916141666666663
8.648,3.804491666666663,8.657925,0.8630083333333359
8.656,3.877625000000004,8.648125,0.8098749999999971
8.664,3.9507583333333285,8.638325,0.7567416666666701
8.672,4.023891666666669,8.628525,0.7036083333333313
8.68,4.097024999999994,8.618725000000001,0.6504750000000041
8.688,4.170158333333335,8.608925,0.5973416666666653
8.696,4.24329166666666,8.599125,0.5442083333333383
8.704,4.402500000000246,8.656499999999818,-0.05250000000011236
8.712,4.625114583333336,8.426572916666668,-0.11053125000000324
8.72,4.563531249999996,8.398656249999998,-0.03228124999999457
8.728,4.501947916666669,8.370739583333334,0.045968749999996755
8.736,4.440364583333329,8.342822916666664,0.12421875000000543
8.744,4.378781250000003,8.314906250000002,0.20246874999999676
8.752,4.317197916666663,8.286989583333332,0.2807187500000054
8.76,4.255614583333336,8.259072916666668,0.3589687499999968
8.768,4.194031249999996,8.231156249999998,0.4372187500000054
8.776,4.132447916666669,8.203239583333334,0.5154687499999968
8.784,4.070864583333329,8.175322916666664,0.5937187500000054
8.792,4.009281250000003,8.147406250000001,0.6719687499999967
8.8,3.9476979166666624,8.119489583333332,0.7502187500000055
8.808,3.0164999999999993,8.509166666666674,1.5168333333333144
8.816,3.0064999999999986,8.605833333333349,1.2601666666666285
8.824,2.7349250000000103,8.630725000000002,0.8435749999999825
8.832,2.858625000000024,8.633625000000002,0.6338749999999593
8.84,2.9823250000000106,8.636525,0.42417499999998254
8.848,3.1060250000000242,8.639425000000001,0.21447499999995923
8.856,3.2297250000000104,8.642325000000001,0.004774999999982543
8.864,3.353425000000024,8.645225000000002,-0.20492500000004077
8.872,3.4771250000000102,8.648125,-0.41462500000001745
8.88,3.600825000000024,8.651025,-0.6243250000000408
8.888,3.7245250000000105,8.653925000000001,-0.8340250000000174
8.896,3.848225000000024,8.656825000000001,-1.0437250000000406
8.904,4.220428571428607,8.493857142857122,-1.119285714285704
8.912,5.343799999999896,8.456199999999997,-1.1866000000000911
8.92,4.94037777777778,8.441844444444445,-1.5693999999999955
8.928,4.911133333333332,8.435533333333334,-1.6502000000000048
8.936,4.8818888888888905,8.429222222222222,-1.7309999999999959
8.944,4.852644444444443,8.42291111111111,-1.8118000000000052
8.952,4.823400000000001,8.4166,-1.8925999999999965
8.96,4.7941555555555535,8.41028888888889,-1.9734000000000056
8.968,4.764911111111113,8.40397777777778,-2.054199999999997
8.976,4.735666666666665,8.397666666666666,-2.135000000000006
8.984,4.706422222222224,8.391355555555556,-2.215799999999997
8.992,4.677177777777776,8.385044444444445,-2.2966000000000064
9.0,4.647933333333334,8.378733333333335,-2.377399999999998
9.008000000000001,4.292000000000247,8.507999999999397,-2.4599999999985185
9.016,5.016499999999998,7.973295918367348,-0.9720714285714257
9.024000000000001,4.996499999999996,7.976969387755103,-0.9417857142857083
9.032,4.976499999999998,7.980642857142858,-0.9114999999999975
9.040000000000001,4.956499999999997,7.984316326530613,-0.8812142857142802
9.048,4.936499999999999,7.987989795918367,-0.8509285714285695
9.056000000000001,4.9164999999999965,7.991663265306123,-0.820642857142852
9.064,4.896499999999999,7.995336734693878,-0.7903571428571412
9.072000000000001,4.8764999999999965,7.9990102040816335,-0.7600714285714238
9.08,4.856499999999999,8.002683673469388,-0.7297857142857131
9.088000000000001,4.836499999999997,8.006357142857144,-0.6994999999999957
9.096,4.8165,8.010030612244899,-0.6692142857142849
9.104000000000001,4.796499999999997,8.013704081632653,-0.6389285714285675
9.112,5.564,8.336,-2.1365
9.120000000000001,4.955387096774193,8.151064516129033,-2.677677419354835
9.128,4.937236559139786,8.177817204301073,-2.5492473118279673
9.136000000000001,4.919086021505376,8.204569892473119,-2.420817204301071
9.144,4.9009354838709696,8.231322580645159,-2.2923870967742035
9.152000000000001,4.8827849462365585,8.258075268817205,-2.163956989247308
9.16,4.864634408602152,8.284827956989245,-2.0355268817204397
9.168000000000001,4.846483870967742,8.31158064516129,-1.9070967741935438
9.176,4.828333333333335,8.338333333333331,-1.7786666666666764
9.184000000000001,4.810182795698924,8.365086021505377,-1.65023655913978
9.192,4.792032258064517,8.391838709677417,-1.5218064516129124
9.200000000000001,4.773881720430107,8.418591397849463,-1.3933763440860163
9.208,4.812749999999975,8.47891666666665,-1.3211666666666488
9.216000000000001,5.250750000000073,8.774250000000048,-1.6425000000000534
9.224,6.080273809523814,8.013773809523808,-2.2754285714285793
9.232,6.0184642857142965,8.027964285714283,-2.1588571428571632
9.24,5.956654761904765,8.042154761904762,-2.042285714285721
9.248,5.8948452380952485,8.056345238095236,-1.9257142857143048
9.256,5.833035714285717,8.070535714285715,-1.8091428571428627
9.264,5.7712261904762,8.084726190476188,-1.6925714285714464
9.272,5.7094166666666695,8.098916666666666,-1.5760000000000045
9.28,5.647607142857152,8.11310714285714,-1.4594285714285882
9.288,5.585797619047621,8.127297619047619,-1.342857142857146
9.296,5.523988095238104,8.141488095238094,-1.2262857142857297
9.304,5.462178571428573,8.15567857142857,-1.1097142857142877
9.312,5.583499999999782,7.866500000000263,-1.4194999999999367
9.32,5.8178314606741575,7.542842696629214,-1.5288314606741562
9.328,5.805067415730338,7.5106629213483185,-1.5720674157303318
9.336,5.792303370786517,7.478483146067416,-1.6153033707865172
9.344,5.7795393258426975,7.44630337078652,-1.6585393258426928
9.352,5.766775280898876,7.414123595505616,-1.701775280898878
9.36,5.754011235955057,7.381943820224721,-1.7450112359550538
9.368,5.741247191011235,7.349764044943818,-1.788247191011239
9.376,5.728483146067417,7.317584269662922,-1.8314831460674146
9.384,5.715719101123594,7.2854044943820195,-1.8747191011236
9.392,5.702955056179776,7.253224719101123,-1.9179550561797756
9.4,5.690191011235954,7.22104494382022,-1.961191011235961
9.408,4.647583333333331,5.674291666666658,-2.4139270833333364
9.416,4.692250000000002,5.804625000000006,-2.3733437499999983
9.424,4.736916666666664,5.9349583333333245,-2.3327604166666696
9.432,4.7815833333333355,6.065291666666672,-2.2921770833333315
9.44,4.826249999999997,6.195624999999992,-2.2515937500000027
9.448,4.870916666666669,6.32595833333334,-2.211010416666665
9.456,4.9155833333333305,6.456291666666658,-2.170427083333336
9.464,4.960250000000002,6.586625000000006,-2.1298437499999983
9.472,5.004916666666664,6.7169583333333245,-2.0892604166666695
9.48,5.049583333333335,6.847291666666672,-2.0486770833333314
9.488,5.094249999999997,6.977624999999992,-2.0080937500000027
9.496,5.138916666666669,7.10795833333334,-1.967510416666665
9.504,6.8189999999985424,8.480999999998883,-0.9740000000008509
9.512,6.153,7.647,-1.394
9.52,6.162919999999999,7.6690799999999975,-1.411599999999998
9.528,6.17284,7.69116,-1.4292
9.536,6.182759999999999,7.713239999999998,-1.4467999999999983
9.544,6.19268,7.735320000000001,-1.4644000000000004
9.552,6.202599999999999,7.757399999999998,-1.4819999999999984
9.56,6.2125200000000005,7.77948,-1.4996000000000005
9.568,6.222439999999999,7.8015599999999985,-1.5171999999999985
9.576,6.23236,7.823640000000001,-1.5348000000000006
9.584,6.242279999999999,7.845719999999998,-1.552399999999999
9.592,6.2522,7.867800000000001,-1.570000000000001
9.6,6.2621199999999995,7.889879999999999,-1.587599999999999
9.608,6.2720400000000005,7.911960000000001,-1.605200000000001
9.616,5.726333333333285,7.773666666666833,-1.5830000000000521
9.624,6.011325301204815,7.489216867469884,-1.2515301204819227
9.632,5.965445783132531,7.535963855421686,-1.199578313253013
9.64,5.9195662650602365,7.582710843373499,-1.1476265060240916
9.648,5.873686746987953,7.6294578313253005,-1.0956746987951818
9.656,5.827807228915659,7.676204819277113,-1.0437228915662604
9.664,5.781927710843375,7.722951807228915,-0.9917710843373505
9.672,5.73604819277108,7.7696987951807275,-0.9398192771084292
9.68,5.690168674698796,7.816445783132529,-0.8878674698795194
9.688,5.6442891566265025,7.863192771084342,-0.8359156626505979
9.696,5.598409638554218,7.909939759036144,-0.7839638554216881
9.704,5.619000000000017,7.998000000000015,-0.8180000000000216
9.712,5.3760888888888845,8.083633333333333,-0.5665222222222208
9.72,5.432800000000002,8.0807,-0.5867000000000009
9.728,5.489511111111107,8.077766666666667,-0.6068777777777764
9.736,5.546222222222225,8.074833333333332,-0.6270555555555565
9.744,5.60293333333333,8.0719,-0.6472333333333321
9.752,5.659644444444448,8.068966666666666,-0.6674111111111122
9.76,5.716355555555552,8.066033333333333,-0.6875888888888878
9.768,5.7730666666666695,8.0631,-0.7077666666666679
9.776,5.829777777777775,8.060166666666667,-0.7279444444444434
9.784,5.886488888888892,8.057233333333333,-0.7481222222222235
9.792,5.943199999999997,8.0543,-0.7682999999999991
9.8,5.999911111111115,8.051366666666667,-0.7884777777777792
9.808,4.7347578947368385,7.70358947368421,0.14504210526315464
9.816,4.697789473684203,7.697947368421052,0.10521052631578204
9.824,4.660821052631576,7.692305263157895,0.06537894736841826
9.832,4.6238526315789406,7.686663157894736,0.025547368421045658
9.84,4.586884210526313,7.6810210526315785,-0.01428421052631812
9.848,4.549915789473678,7.67537894736842,-0.05411578947369072
9.856,4.512947368421051,7.669736842105263,-0.09394736842105447
9.864,4.475978947368415,7.664094736842104,-0.13377894736842708
9.872,4.439010526315788,7.658452631578947,-0.17361052631579085
9.88,4.402042105263153,7.652810526315789,-0.21344210526316346
9.888,4.365073684210525,7.647168421052632,-0.2532736842105272
9.896,4.32810526315789,7.641526315789473,-0.29310526315789986
9.904,3.821,7.9965,-0.5865
9.912,5.128750000000001,8.6216875,-0.9716874999999993
9.92,5.184416666666662,8.635937499999999,-0.9459375000000021
9.928,5.2400833333333345,8.650187500000001,-0.9201874999999993
9.936,5.2957499999999955,8.6644375,-0.8944375000000022
9.944,5.351416666666668,8.6786875,-0.8686874999999993
9.952,5.407083333333328,8.6929375,-0.8429375000000021
9.96,5.4627500000000015,8.7071875,-0.8171874999999993
9.968,5.518416666666662,8.721437499999999,-0.7914375000000022
9.976,5.574083333333335,8.735687500000001,-0.7656874999999993
9.984,5.629749999999995,8.7499375,-0.7399375000000021
9.992,5.685416666666669,8.7641875,-0.7141874999999993
10.0,5.741083333333329,8.778437499999999,-0.6884375000000023
10.008000000000001,5.329166666666649,8.636999999999977,-0.6970000000000017
10.016,5.102999999999997,8.362777777777776,-0.687222222222218
10.024000000000001,5.067799999999994,8.338422222222217,-0.6379777777777689
10.032,5.032599999999999,8.314066666666665,-0.5887333333333308
10.040000000000001,4.9973999999999945,8.289711111111107,-0.5394888888888817
10.048,4.962199999999999,8.265355555555555,-0.4902444444444436
10.056000000000001,4.926999999999996,8.240999999999996,-0.44099999999999456
10.064,4.891800000000001,8.216644444444444,-0.3917555555555564
10.072000000000001,4.856599999999998,8.192288888888886,-0.3425111111111074
10.08,4.821400000000002,8.167933333333334,-0.29326666666666923
10.088000000000001,4.786199999999998,8.143577777777777,-0.2440222222222202
10.096,4.751000000000003,8.119222222222223,-0.19477777777778205
10.104000000000001,4.9555000000001534,7.938499999999969,-0.31850000000012924
10.112,5.3000105263157895,8.066431578947368,-0.5112736842105264
10.120000000000001,5.309357894736843,8.08967368421053,-0.5143052631578952
10.128,5.318705263157895,8.112915789473684,-0.5173368421052632
10.136000000000001,5.328052631578949,8.136157894736844,-0.5203684210526319
10.144,5.3374,8.1594,-0.5234
10.152000000000001,5.346747368421053,8.18264210526316,-0.5264315789473688
10.16,5.356094736842105,8.205884210526316,-0.5294631578947369
10.168000000000001,5.365442105263159,8.229126315789475,-0.5324947368421056
10.176,5.37478947368421,8.25236842105263,-0.5355263157894736
10.184000000000001,5.3841368421052636,8.275610526315791,-0.5385578947368423
10.192,5.393484210526315,8.298852631578946,-0.5415894736842105
10.200000000000001,5.402831578947369,8.322094736842105,-0.5446210526315792
10.208,5.105410526315791,8.21577894736842,-0.6703052631578938
10.216000000000001,5.11905263157895,8.226894736842107,-0.6595263157894717
10.224,5.132694736842106,8.23801052631579,-0.648747368421052
10.232000000000001,5.146336842105266,8.249126315789475,-0.6379684210526297
10.24,5.1599789473684226,8.260242105263158,-0.62718947368421
10.248,5.173621052631578,8.271357894736841,-0.6164105263157902
10.256,5.187263157894738,8.282473684210526,-0.605631578947368
10.264,5.200905263157894,8.293589473684209,-0.5948526315789482
10.272,5.214547368421053,8.304705263157896,-0.584073684210526
10.28,5.22818947368421,8.315821052631579,-0.5732947368421062
10.288,5.241831578947369,8.326936842105264,-0.562515789473684
10.296,5.255473684210525,8.338052631578947,-0.5517368421052642
10.304,5.293,8.049,-0.509
10.312,5.280510204081634,8.043367346938776,-0.5001020408163275
10.32,5.268020408163265,8.037734693877551,-0.4912040816326529
10.328,5.255530612244899,8.032102040816326,-0.4823061224489803
10.336,5.24304081632653,8.026469387755101,-0.4734081632653057
10.344,5.230551020408164,8.020836734693878,-0.4645102040816331
10.352,5.218061224489795,8.015204081632653,-0.4556122448979586
10.36,5.205571428571429,8.009571428571428,-0.446714285714286
10.368,5.19308163265306,8.003938775510203,-0.4378163265306114
10.376,5.180591836734694,7.99830612244898,-0.4289183673469389
10.384,5.168102040816325,7.992673469387754,-0.4200204081632643
10.392,5.155612244897958,7.987040816326531,-0.4111224489795917
10.4,5.1431224489795895,7.981408163265305,-0.4022244897959172
10.408,5.282,7.973,-0.573
10.416,5.427202247191012,8.033314606741573,-0.5061235955056183
10.424,5.415606741573035,8.041943820224718,-0.5003707865168547
10.432,5.404011235955056,8.050573033707865,-0.49461797752809
10.44,5.39241573033708,8.05920224719101,-0.4888651685393265
10.448,5.380820224719101,8.067831460674157,-0.4831123595505617
10.456,5.369224719101124,8.076460674157303,-0.4773595505617982
10.464,5.357629213483145,8.08508988764045,-0.47160674157303345
10.472,5.346033707865169,8.093719101123595,-0.46585393258426994
10.48,5.33443820224719,8.102348314606742,-0.46010112359550515
10.488,5.3228426966292135,8.110977528089888,-0.45434831460674163
10.496,5.311247191011235,8.119606741573035,-0.4485955056179769
10.504,5.297250000000002,8.077750000000014,-0.6227499999999474
10.512,5.284888888888887,7.9927777777777695,-0.5972222222222127
10.52,5.393,8.249,-0.609
10.528,5.393,8.249,-0.609
10.536,5.393,8.249,-0.609
10.544,5.393,8.249,-0.609
10.552,5.393,8.249,-0.609
10.56,5.393,8.249,-0.609
10.568,5.393,8.249,-0.609
10.576,5.393,8.249,-0.609
10.584,5.393,8.249,-0.609
10.592,5.393,8.249,-0.609
10.6,5.335750000000025,8.223000000000011,-0.5680000000000182
10.608,5.278623655913978,7.961182795698925,-0.4011827956989251
10.616,5.273118279569893,7.965913978494624,-0.4059139784946236
10.624,5.267612903225806,7.970645161290323,-0.410645161290323
10.632,5.262107526881721,7.975376344086022,-0.4153763440860214
10.64,5.256602150537634,7.980107526881721,-0.42010752688172087
10.648,5.251096774193549,7.98483870967742,-0.42483870967741927
10.656,5.245591397849462,7.989569892473119,-0.4295698924731187
10.664,5.240086021505377,7.994301075268817,-0.4343010752688171
10.672,5.23458064516129,7.999032258064517,-0.43903225806451657
10.68,5.229075268817205,8.003763440860215,-0.443763440860215
10.688,5.223569892473118,8.008494623655915,-0.44849462365591447
10.696,5.218064516129033,8.013225806451613,-0.45322580645161287
10.704,5.252666666666671,7.9916666666666645,-0.5205555555555633
10.712,5.217166666666673,8.105416666666658,-0.38041666666667295
10.72,5.1385000000000005,8.220749999999999,-0.29575
10.728,5.11761842105263,8.258473684210527,-0.27952631578947085
10.736,5.131407894736842,8.249631578947367,-0.30436842105263195
10.744,5.1451973684210515,8.240789473684211,-0.3292105263157875
10.752,5.158986842105264,8.231947368421052,-0.3540526315789486
10.76,5.1727763157894735,8.223105263157894,-0.3788947368421042
10.768,5.186565789473685,8.214263157894736,-0.4037368421052653
10.776,5.200355263157895,8.205421052631579,-0.42857894736842084
10.784,5.214144736842107,8.196578947368419,-0.45342105263158194
10.792,5.227934210526317,8.187736842105263,-0.4782631578947375
10.8,5.269285714285751,8.171142857142845,-0.5168571428571642
10.808,5.48,8.36,-0.6
10.816,5.456134831460674,8.195808988764046,-0.5665955056179782
10.824,5.456314606741573,8.196887640449438,-0.5820561797752801
10.832,5.4564943820224725,8.197966292134831,-0.5975168539325855
10.84,5.456674157303371,8.199044943820224,-0.6129775280898874
10.848,5.45685393258427,8.200123595505618,-0.6284382022471926
10.856,5.457033707865169,8.201202247191011,-0.6438988764044946
10.864,5.4572134831460675,8.202280898876404,-0.6593595505617998
10.872,5.457393258426967,8.203359550561798,-0.6748202247191017
10.88,5.457573033707866,8.204438202247191,-0.6902808988764071
10.888,5.457752808988764,8.205516853932584,-0.705741573033709
10.896,5.457932584269663,8.206595505617978,-0.7212022471910143
10.904,5.367,8.071,-0.391
10.912,5.373507042253522,8.073873239436619,-0.39556338028169036
10.92,5.382183098591549,8.077704225352113,-0.40164788732394324
10.928,5.3908591549295775,8.081535211267605,-0.40773239436619746
10.936,5.399535211267605,8.085366197183099,-0.4138169014084503
10.944,5.408211267605634,8.089197183098593,-0.41990140845070456
10.952,5.416887323943661,8.093028169014085,-0.4259859154929574
10.96,5.425563380281691,8.096859154929579,-0.43207042253521166
10.968,5.434239436619718,8.10069014084507,-0.4381549295774645
10.976,5.442915492957747,8.104521126760565,-0.44423943661971876
10.984,5.229,8.104,-0.564
10.992,5.519046511627911,8.064651162790698,-0.5665116279069775
11.0,5.539139534883722,8.065953488372093,-0.5715348837209304
11.008000000000001,5.559232558139538,8.067255813953489,-0.5765581395348844
11.016,5.5793255813953495,8.068558139534884,-0.5815813953488373
11.024000000000001,5.599418604651166,8.069860465116278,-0.5866046511627915
11.032,5.619511627906977,8.071162790697674,-0.5916279069767444
11.040000000000001,5.639604651162793,8.07246511627907,-0.5966511627906984
11.048,5.659697674418605,8.073767441860465,-0.6016744186046513
11.056000000000001,5.679790697674421,8.07506976744186,-0.6066976744186053
11.064,5.699883720930233,8.076372093023256,-0.6117209302325582
11.072000000000001,5.719976744186049,8.077674418604651,-0.6167441860465123
11.08,5.725,8.078,-0.618
11.088000000000001,5.688749999999987,8.073499999999997,-0.6260000000000027
11.096,5.543750000000004,8.0555,-0.6579999999999991
11.104000000000001,5.4326470588235285,8.03533333333333,-0.6859215686274523
11.112,5.423235294117647,8.008666666666667,-0.7016078431372544
11.120000000000001,5.413823529411764,7.9819999999999975,-0.7172941176470601
11.128,5.404411764705882,7.955333333333334,-0.7329803921568623
11.136000000000001,5.395,7.928666666666665,-0.7486666666666678
11.144,5.385588235294118,7.902000000000001,-0.76435294117647
11.152000000000001,5.376176470588234,7.875333333333331,-0.7800392156862757
11.16,5.366764705882353,7.848666666666667,-0.7957254901960777
11.168000000000001,5.35735294117647,7.821999999999998,-0.8114117647058834
11.176,5.347941176470589,7.795333333333335,-0.8270980392156855
11.184000000000001,5.338529411764705,7.768666666666665,-0.8427843137254911
11.192,5.329117647058824,7.742000000000001,-0.8584705882352933
11.200000000000001,5.319705882352941,7.715333333333332,-0.874156862745099
11.208,5.42780000000001,8.096400000000035,-0.6203999999999767
11.216,5.336,8.355,-0.255
