accel_time_list,accel_x_list,accel_y_list,accel_z_list
0.0,-1.2,3.4,9.0
0.007997418688693856,-0.987250519008337,2.7,8.7
0.015994837377387713,-0.9362031656762486,2.7,8.7
0.023992256066081567,-0.8851558123441602,2.7,8.7
0.031989674754775425,-0.8341084590120718,2.7,8.7
0.03998709344346928,-0.7830611056799833,2.7,8.7
0.047984512132163135,-0.7320137523478949,2.7,8.7
0.05598193082085699,-0.6809663990158064,2.7,8.7
0.06397934950955085,-0.629919045683718,2.7,8.7
0.07197676819824471,-0.5788716923516295,2.7,8.7
0.07997418688693857,-0.5278243390195412,2.7,8.7
0.08797160557563243,-0.47677698568745264,2.7,8.7
0.09596902426432627,-0.4257296323553643,2.7,8.7
0.10396644295302013,-1.5106040268456362,3.969261744966441,9.255302013422819
0.11196386164171399,-1.3021659812173347,4.101082990608667,9.101082990608667
0.11996128033040784,-1.3201377086076582,4.110068854303829,9.11006885430383
0.1279586990191017,-1.3381094359979815,4.11905471799899,9.11905471799899
0.13595611770779556,-1.3560811633883048,4.128040581694152,9.128040581694151
0.14395353639648942,-1.374052890778628,4.1370264453893135,9.137026445389314
0.15195095508518328,-1.3920246181689513,4.146012309084475,9.146012309084474
0.15994837377387713,-1.4099963455592746,4.154998172779637,9.154998172779637
0.167945792462571,-1.4279680729495978,4.163984036474798,9.163984036474798
0.17594321115126485,-1.445939800339921,4.172969900169961,9.17296990016996
0.1839406298399587,-1.4639115277302444,4.181955763865123,9.18195576386512
0.19193804852865254,-1.4818832551205674,4.190941627560284,9.190941627560283
0.1999354672173464,-1.4998549825108907,4.199927491255446,9.199927491255444
0.20793288590604025,-1.200981985164253,3.5990180148357473,9.198036029671494
0.2159303045947341,-1.209400320626036,3.5905996793739643,9.181199358747927
0.22392772328342797,-1.2178186560878188,3.5821813439121812,9.164362687824362
0.23192514197212183,-1.2262369915496019,3.573763008450398,9.147526016900796
0.2399225606608157,-1.234655327011385,3.565344672988615,9.13068934597723
0.24791997934950954,-1.243073662473168,3.556926337526832,9.113852675053664
0.2559173980382034,-1.251491997934951,3.548508002065049,9.097016004130097
0.26391481672689726,-1.2599103333967339,3.540089666603266,9.080179333206532
0.2719122354155911,-1.268328668858517,3.531671331141483,9.063342662282967
0.279909654104285,-1.2767470043203,3.5232529956797,9.0465059913594
0.28790707279297884,-1.285165339782083,3.5148346602179172,9.029669320435834
0.2959044914816727,-1.293583675243866,3.506416324756134,9.012832649512267
0.30390191017036655,-1.3950955085183279,3.5,8.904904491481672
0.3118993288590604,-1.4138358286009294,3.7138358286009296,8.693082085699535
0.31989674754775427,-1.5368730391962195,3.8368730391962194,8.63156348040189
0.3278941662364481,-1.61024780588539,3.9102478058853896,8.58975219411461
0.335891584925142,-1.6312936445398474,3.931293644539847,8.568706355460153
0.34388900361383584,-1.6523394831943048,3.952339483194305,8.547660516805696
0.3518864223025297,-1.6733853218487624,3.9733853218487623,8.526614678151237
0.35988384099122356,-1.6944311605032198,3.9944311605032197,8.50556883949678
0.3678812596799174,-1.7154769991576775,4.015476999157677,8.484523000842323
0.3758786783686113,-1.736522837812135,4.036522837812135,8.463477162187866
0.3838760970573051,-1.7575686764665923,4.057568676466592,8.442431323533407
0.39187351574599893,-1.7786145151210497,4.07861451512105,8.42138548487895
0.3998709344346928,-1.7996603537755074,4.099660353775507,8.400339646224493
0.40786835312338665,-2.5990662869641006,4.995331434820502,8.0990662869641
0.4158657718120805,-2.590466912030021,4.9523345601501045,8.09046691203002
0.42386319050077437,-2.5818675370959414,4.9093376854797075,8.081867537095942
0.4318606091894682,-2.5732681621618623,4.8663408108093105,8.073268162161861
0.4398580278781621,-2.5646687872277827,4.823343936138913,8.064668787227783
0.44785544656685594,-2.556069412293703,4.780347061468516,8.056069412293702
0.4558528652555498,-2.547470037359624,4.737350186798119,8.047470037359624
0.46385028394424366,-2.5388706624255444,4.694353312127722,8.038870662425545
0.4718477026329375,-2.5302712874914652,4.651356437457325,8.030271287491464
0.4798451213216314,-2.5216719125573857,4.608359562786928,8.021671912557386
0.48784254001032523,-2.513072537623306,4.565362688116531,8.013072537623307
0.4958399586990191,-2.504473162689227,4.522365813446134,8.004473162689226
0.503837377387713,-2.4918688693856472,3.8703278265358816,8.045934434692823
0.5118347960764068,-2.794493202546893,3.113766993632767,8.002753398726554
0.5198322147651007,-2.693218354924302,2.6728734196972064,8.1
0.5278296334537945,-2.683919030867681,2.635676123470723,8.1
0.5358270521424884,-2.67461970681106,2.5984788272442403,8.1
0.5438244708311822,-2.6653203827544396,2.561281531017757,8.1
0.5518218895198761,-2.6560210586978186,2.524084234791274,8.1
0.55981930820857,-2.646721734641198,2.486886938564791,8.1
0.5678167268972638,-2.637422410584577,2.4496896423383077,8.1
0.5758141455859577,-2.6281230865279563,2.412492346111825,8.1
0.5838115642746515,-2.6188237624713357,2.3752950498853416,8.1
0.5918089829633454,-2.6095244384147147,2.3380977536588583,8.1
0.5998064016520392,-2.600225114358094,2.3009004574323755,8.1
0.6078038203407331,-3.760047754259164,0.539713474445016,8.5
0.615801239029427,-3.804319589806167,-0.43455671844933613,8.482721640775331
0.6237986577181208,-3.8134075655887734,-0.5072605247101895,8.446369737644906
0.6317960764068147,-3.82249554137138,-0.5799643309710427,8.410017834514479
0.6397934950955085,-3.831583517153987,-0.652668137231896,8.373665931384052
0.6477909137842024,-3.8406714929365937,-0.7253719434927492,8.337314028253624
0.6557883324728963,-3.8497594687192,-0.7980757497536025,8.300962125123199
0.6637857511615901,-3.858847444501807,-0.8707795560144558,8.264610221992772
0.671783169850284,-3.8679354202844136,-0.943483362275309,8.228258318862345
0.6797805885389778,-3.8770233960670204,-1.0161871685361623,8.191906415731918
0.6877780072276717,-3.8861113718496267,-1.0888909747970157,8.155554512601492
0.6957754259163655,-3.8951993476322335,-1.161594781057869,8.119202609471065
0.7037728446050594,-3.0859482799080102,-2.7843103205519393,7.1718965598160205
0.7117702632937533,-2.940540667386304,-3.656755995682177,6.881081334772608
0.7197676819824471,-3.1307072792978854,-4.476768198244715,6.511615900877643
0.727765100671141,-3.290220517737296,-4.92444870565676,6.314669223394056
0.7357625193598348,-3.2694480016627665,-4.976379995843084,6.34582799750585
0.7437599380485287,-3.248675485588237,-5.028311286029408,6.376986771617644
0.7517573567372225,-3.227902969513708,-5.080242576215731,6.408145545729438
0.7597547754259164,-3.207130453439178,-5.132173866402055,6.4393043198412325
0.7677521941146102,-3.186357937364649,-5.184105156588378,6.470463093953026
0.775749612803304,-3.1655854212901193,-5.236036446774701,6.50162186806482
0.7837470314919979,-3.14481290521559,-5.287967736961026,6.532780642176615
0.7917444501806917,-3.1240403891410606,-5.339899027147349,6.563939416288409
0.7997418688693856,-3.1032678730665313,-5.391830317333673,6.595098190400203
0.8077392875580794,-1.6018503059128506,-5.1185030591285035,7.818503059128504
0.8157367062467733,-1.6103581981348651,-5.203581981348651,7.903581981348651
0.8237341249354672,-1.61886609035688,-5.288660903568799,7.988660903568799
0.831731543624161,-1.6273739825788947,-5.373739825788946,8.073739825788946
0.8397289623128549,-1.6358818748009094,-5.458818748009094,8.158818748009095
0.8477263810015487,-1.6443897670229242,-5.543897670229241,8.243897670229241
0.8557237996902426,-1.652897659244939,-5.628976592449389,8.32897659244939
0.8637212183789365,-1.6614055514669537,-5.7140555146695355,8.414055514669537
0.8717186370676303,-1.6699134436889684,-5.799134436889683,8.499134436889685
0.8797160557563242,-1.6784213359109832,-5.884213359109831,8.584213359109832
0.887713474445018,-1.686929228132998,-5.969292281329978,8.66929228132998
0.8957108931337119,-1.6954371203550125,-6.054371203550126,8.754371203550127
0.9037083118224057,-1.3,-7.229168817759429,9.1
0.9117057305110996,-1.879760298876991,-8.740479402246017,8.020239701123009
0.9197031491997935,-1.8453627991406734,-8.809274401718653,8.054637200859327
0.9277005678884873,-1.8109652994043557,-8.878069401191288,8.089034700595644
0.9356979865771812,-1.776567799668038,-8.946864400663923,8.123432200331962
0.943695405265875,-1.7421702999317203,-9.015659400136558,8.15782970006828
0.9516928239545689,-1.7077728001954027,-9.084454399609195,8.192227199804597
0.9596902426432627,-1.673375300459085,-9.15324939908183,8.226624699540915
0.9676876613319566,-1.6389778007227673,-9.222044398554464,8.261022199277233
0.9756850800206505,-1.6045803009864497,-9.290839398027101,8.29541969901355
0.9836824987093443,-1.570182801250132,-9.359634397499736,8.329817198749868
0.9916799173980382,-1.5357853015138143,-9.428429396972371,8.364214698486187
0.999677336086732,-1.5013878017774966,-9.497224396445006,8.398612198222503
1.007674754775426,-4.701386532930158,-9.366088944612432,14.534604321852646
1.0156721734641199,-4.240451241122381,-2.804962396573135,12.231278516513413
1.0236695921528136,-4.110763370494914,-2.8157697191254236,11.863829549735591
1.0316670108415074,-3.9810754998674485,-2.8265770416777123,11.496380582957771
1.0396644295302013,-3.851387629239979,-2.8373843642300014,11.12893161617994
1.047661848218895,-3.721699758612513,-2.8481916867822905,10.76148264940212
1.055659266907589,-3.592011887985043,-2.8589990093345796,10.39403368262429
1.0636566855962828,-3.4623240173575773,-2.8698063318868683,10.026584715846468
1.0716541042849768,-3.3326361467301076,-2.8806136544391574,9.65913574906864
1.0796515229736705,-3.2029482761026413,-2.8914209769914465,9.291686782290817
1.0876489416623645,-2.2755291688178008,-5.208518327310159,7.268611254517381
1.0956463603510582,-3.4548786783686047,-5.049083634486338,5.945121321631396
1.1036437790397522,-3.72145930132507,-4.315986921356057,5.678540698674929
1.111641197728446,-3.914838189485651,-4.311870551588521,5.2
1.11963861641714,-3.9597675079614603,-4.347814006369168,5.2
1.1276360351058337,-4.004696826437268,-4.3837574611498145,5.2
1.1356334537945276,-4.049626144913077,-4.419700915930461,5.2
1.1436308724832214,-4.094555463388884,-4.4556443707111075,5.2
1.1516282911719153,-4.139484781864693,-4.491587825491754,5.2
1.159625709860609,-4.184414100340501,-4.527531280272401,5.2
1.167623128549303,-4.22934341881631,-4.563474735053048,5.2
1.1756205472379968,-4.274272737292117,-4.599418189833694,5.2
1.1836179659266908,-4.319202055767926,-4.635361644614341,5.2
1.1916153846153845,-4.364131374243734,-4.671305099394987,5.2
1.1996128033040785,-5.045121321631414,-4.780640165203927,5.68384099122356
1.2076102219927722,-6.801677314575804,-5.6,6.996645370848391
1.2156076406814662,-6.810007959043194,-5.6,6.979984081913612
1.22360505937016,-6.8183386035105835,-5.6,6.9633227929788335
1.231602478058854,-6.826669247977973,-5.6,6.946661504044054
1.2395998967475477,-6.834999892445362,-5.6,6.930000215109276
1.2475973154362416,-6.8433305369127515,-5.6,6.913338926174497
1.2555947341249354,-6.851661181380141,-5.6,6.896677637239718
1.2635921528136294,-6.859991825847531,-5.6,6.880016348304939
1.271589571502323,-6.86832247031492,-5.6,6.86335505937016
1.279586990191017,-6.87665311478231,-5.6,6.846693770435381
1.2875844088797108,-6.884983759249699,-5.6,6.830032481500602
1.2955818275684048,-6.893314403717088,-5.6,6.813371192565823
1.3035792462570985,-6.48415074858028,-5.92896231285493,6.01311306143521
1.3115766649457925,-5.442333505420744,-5.9,5.852555498193086
1.3195740836344863,-4.781724315952504,-5.663448631905009,6.218275684047496
1.3275715023231802,-4.75550327107154,-5.611006542143081,6.24449672892846
1.335568921011874,-4.729282226190577,-5.558564452381154,6.270717773809423
1.343566339700568,-4.7030611813096135,-5.506122362619227,6.2969388186903865
1.3515637583892617,-4.67684013642865,-5.453680272857301,6.32315986357135
1.3595611770779557,-4.650619091547686,-5.401238183095373,6.349380908452314
1.3675585957666494,-4.624398046666723,-5.348796093333447,6.375601953333277
1.3755560144553434,-4.581466184821887,-5.309266907589056,6.4
1.3835534331440371,-4.355343314403717,-5.810686628807434,6.455343314403717
1.391550851832731,-4.5049561177077955,-5.904956117707796,6.595043882292204
1.3995482705214248,-4.512096670108415,-5.912096670108415,6.587903329891585
1.4075456892101188,-4.519237222509035,-5.919237222509035,6.580762777490965
1.4155431078988125,-4.526377774909654,-5.926377774909654,6.573622225090346
1.4235405265875065,-4.533518327310274,-5.933518327310274,6.566481672689726
1.4315379452762003,-4.540658879710893,-5.9406588797108935,6.5593411202891065
1.4395353639648942,-4.547799432111512,-5.947799432111513,6.552200567888487
1.447532782653588,-4.554939984512132,-5.954939984512133,6.545060015487867
1.455530201342282,-4.5620805369127515,-5.962080536912752,6.537919463087248
1.4635276200309757,-4.569221089313371,-5.969221089313371,6.530778910686629
1.4715250387196697,-4.576361641713991,-5.976361641713991,6.523638358286009
1.4795224574083634,-4.58350219411461,-5.98350219411461,6.51649780588539
1.4875198760970574,-4.590642746515229,-5.990642746515229,6.509357253484771
1.4955172947857511,-4.597783298915849,-5.9977832989158495,6.5022167010841505
1.503514713474445,-4.7,-5.879044054379624,6.4
1.5115121321631388,-4.7,-5.812398898640509,6.4
1.5195095508518328,-4.7,-5.694756336218799,6.4
1.5275069695405266,-4.7,-5.685457012162178,6.4
1.5355043882292203,-4.7,-5.676157688105557,6.4
1.5435018069179143,-4.7,-5.666858364048937,6.4
1.551499225606608,-4.7,-5.657559039992316,6.4
1.559496644295302,-4.7,-5.648259715935695,6.4
1.5674940629839957,-4.7,-5.638960391879075,6.4
1.5754914816726897,-4.7,-5.629661067822454,6.4
1.5834889003613835,-4.7,-5.620361743765833,6.4
1.5914863190500774,-4.7,-5.611062419709212,6.4
1.5994837377387712,-4.7,-5.601763095652592,6.4
1.6074811564274651,-4.758019273791084,-5.6,6.3
1.6154785751161589,-5.0,-5.697151063084875,6.2
1.6234759938048529,-5.0,-5.687958627810514,6.2
1.6314734124935466,-5.0,-5.678766192536154,6.2
1.6394708311822406,-5.0,-5.669573757261793,6.2
1.6474682498709343,-5.0,-5.6603813219874315,6.2
1.6554656685596283,-5.0,-5.65118888671307,6.2
1.663463087248322,-5.0,-5.64199645143871,6.2
1.671460505937016,-5.0,-5.632804016164349,6.2
1.6794579246257098,-5.0,-5.623611580889989,6.2
1.6874553433144037,-5.0,-5.614419145615628,6.2
1.6954527620030975,-5.0,-5.605226710341267,6.2
1.7034501806917914,-5.1,-5.5,6.2
1.7114475993804852,-5.097310330351115,-5.502689669648885,6.2
1.7194450180691792,-5.088521958165737,-5.511478041834263,6.2
1.727442436757873,-5.079733585980359,-5.52026641401964,6.2
1.7354398554465669,-5.070945213794981,-5.529054786205019,6.2
1.7434372741352606,-5.062156841609603,-5.537843158390396,6.2
1.7514346928239546,-5.053368469424226,-5.546631530575774,6.2
1.7594321115126483,-5.044580097238848,-5.555419902761152,6.2
1.7674295302013423,-5.03579172505347,-5.564208274946529,6.2
1.775426948890036,-5.027003352868093,-5.572996647131907,6.2
1.78342436757873,-5.018214980682714,-5.5817850193172855,6.2
1.7914217862674238,-5.0094266084973365,-5.590573391502663,6.2
1.7994192049561177,-5.000638236311959,-5.599361763688041,6.2
1.8074166236448115,-5.1,-5.598492953569349,6.2
1.8154140423335055,-5.1,-5.589985061347335,6.2
1.8234114610221992,-5.1,-5.5814771691253195,6.2
1.8314088797108932,-5.1,-5.572969276903305,6.2
1.839406298399587,-5.1,-5.56446138468129,6.2
1.8474037170882809,-5.1,-5.555953492459276,6.2
1.8554011357769746,-5.1,-5.5474456002372605,6.2
1.8633985544656686,-5.1,-5.538937708015246,6.2
1.8713959731543623,-5.1,-5.530429815793231,6.2
1.8793933918430563,-5.1,-5.521921923571217,6.2
1.88739081053175,-5.1,-5.5134140313492015,6.2
1.895388229220444,-5.1,-5.504906139127187,6.2
1.9033856479091378,-5.1,-5.5,6.2
1.9113830665978317,-5.1,-5.512768886594391,6.2
1.9193804852865255,-5.1,-5.5,6.2
1.9273779039752195,-5.1,-5.5,6.2
1.9353753226639132,-5.1,-5.5,6.2
1.9433727413526072,-5.1,-5.5,6.2
1.951370160041301,-5.1,-5.5,6.2
1.959367578729995,-5.1,-5.5,6.2
1.9673649974186886,-5.1,-5.5,6.2
1.9753624161073826,-5.1,-5.5,6.2
1.9833598347960764,-5.1,-5.5,6.2
1.9913572534847703,-5.1,-5.5,6.2
1.999354672173464,-5.1,-5.5,6.2
2.007352090862158,-5.1,-5.5,6.2
2.015349509550852,-5.1,-5.5,6.2
2.0233469282395458,-5.1,-5.5,6.2
2.0313443469282397,-5.1,-5.5,6.2
2.0393417656169333,-5.1,-5.5,6.2
2.0473391843056272,-5.1,-5.5,6.2
2.055336602994321,-5.1,-5.5,6.2
2.0633340216830147,-5.1,-5.5,6.2
2.0713314403717087,-5.1,-5.5,6.2
2.0793288590604027,-5.1,-5.5,6.2
2.0873262777490966,-5.1,-5.5,6.2
2.09532369643779,-5.1,-5.5,6.2
2.103321115126484,-5.1,-5.5,6.2
2.111318533815178,-5.2,-5.5,6.2
2.119315952503872,-5.2,-5.5,6.2
2.1273133711925656,-5.2,-5.5,6.2
2.1353107898812596,-5.2,-5.5,6.2
2.1433082085699535,-5.2,-5.5,6.2
2.1513056272586475,-5.2,-5.5,6.2
2.159303045947341,-5.2,-5.5,6.2
2.167300464636035,-5.2,-5.5,6.2
2.175297883324729,-5.2,-5.5,6.2
2.183295302013423,-5.2,-5.5,6.2
2.1912927207021164,-5.2,-5.5,6.2
2.1992901393908104,-5.2,-5.5,6.2
2.2072875580795044,-5.114377903975225,-5.485622096024775,6.2
2.2152849767681984,-5.2,-5.4,6.2
2.223282395456892,-5.2,-5.4,6.2
2.231279814145586,-5.2,-5.4,6.2
2.23927723283428,-5.2,-5.4,6.2
2.247274651522974,-5.2,-5.4,6.2
2.2552720702116673,-5.2,-5.4,6.2
2.2632694889003613,-5.2,-5.4,6.2
2.2712669075890553,-5.2,-5.4,6.2
2.279264326277749,-5.2,-5.4,6.2
2.2872617449664427,-5.2,-5.4,6.2
2.2952591636551367,-5.2,-5.4,6.2
2.3032565823438307,-5.2,-5.5,6.2
2.3112540010325247,-5.2,-5.594849018595564,6.2
2.319251419721218,-5.2,-5.5870084120380215,6.2
2.327248838409912,-5.2,-5.579167805480478,6.2
2.335246257098606,-5.2,-5.571327198922935,6.2
2.3432436757873,-5.2,-5.563486592365392,6.2
2.3512410944759936,-5.2,-5.555645985807849,6.2
2.3592385131646876,-5.2,-5.547805379250306,6.2
2.3672359318533815,-5.2,-5.539964772692763,6.2
2.3752333505420755,-5.2,-5.53212416613522,6.2
2.383230769230769,-5.2,-5.524283559577677,6.2
2.391228187919463,-5.2,-5.516442953020134,6.2
2.399225606608157,-5.2,-5.508602346462591,6.2
2.407223025296851,-5.2,-5.500761739905048,6.2
2.4152204439855445,-5.1,-5.5,6.2
2.4232178626742384,-5.1,-5.5,6.2
2.4312152813629324,-5.1,-5.5,6.2
2.4392127000516264,-5.1,-5.5,6.2
2.44721011874032,-5.1,-5.5,6.2
2.455207537429014,-5.1,-5.5,6.2
2.463204956117708,-5.1,-5.5,6.2
2.471202374806402,-5.1,-5.5,6.2
2.4791997934950953,-5.1,-5.5,6.2
2.4871972121837893,-5.1,-5.5,6.2
2.4951946308724833,-5.1,-5.5,6.2
2.5031920495611772,-5.1,-5.5,6.2
2.5111894682498708,-5.1,-5.6,6.1
2.5191868869385647,-5.1,-5.6,6.1
2.5271843056272587,-5.1,-5.6,6.1
2.5351817243159527,-5.1,-5.6,6.1
2.543179143004646,-5.1,-5.6,6.1
2.55117656169334,-5.1,-5.6,6.1
2.559173980382034,-5.1,-5.6,6.1
2.5671713990707277,-5.1,-5.6,6.1
2.5751688177594216,-5.1,-5.6,6.1
2.5831662364481156,-5.1,-5.6,6.1
2.5911636551368096,-5.1,-5.6,6.1
2.599161073825503,-5.1,-5.6,6.1
2.607158492514197,-5.1,-5.5,6.2
2.615155911202891,-5.1,-5.5,6.295277373633079
2.623153329891585,-5.1,-5.5,6.286189397850472
2.6311507485802785,-5.1,-5.5,6.277101422067865
2.6391481672689725,-5.1,-5.5,6.268013446285258
2.6471455859576665,-5.1,-5.5,6.258925470502652
2.6551430046463604,-5.1,-5.5,6.249837494720045
2.663140423335054,-5.1,-5.5,6.240749518937439
2.671137842023748,-5.1,-5.5,6.231661543154832
2.679135260712442,-5.1,-5.5,6.222573567372225
2.687132679401136,-5.1,-5.5,6.2134855915896186
2.6951300980898294,-5.1,-5.5,6.204397615807012
2.7031275167785234,-5.1,-5.5,6.2
2.7111249354672173,-5.1,-5.6,6.2
2.7191223541559113,-5.1,-5.6,6.2
2.727119772844605,-5.1,-5.6,6.2
2.735117191533299,-5.1,-5.6,6.2
2.7431146102219928,-5.1,-5.6,6.2
2.7511120289106867,-5.1,-5.6,6.2
2.7591094475993803,-5.1,-5.6,6.2
2.7671068662880742,-5.1,-5.6,6.2
2.775104284976768,-5.1,-5.6,6.2
2.783101703665462,-5.1,-5.6,6.2
2.7910991223541557,-5.1,-5.6,6.2
2.7990965410428497,-5.1,-5.6,6.2
2.8070939597315436,-5.1,-5.6,6.2
2.8150913784202376,-5.1,-5.6,6.2
2.823088797108931,-5.1,-5.6,6.2
2.831086215797625,-5.1,-5.6,6.2
2.839083634486319,-5.1,-5.6,6.2
2.847081053175013,-5.1,-5.6,6.2
2.8550784718637066,-5.1,-5.6,6.2
2.8630758905524005,-5.1,-5.6,6.2
2.8710733092410945,-5.1,-5.6,6.2
2.8790707279297885,-5.1,-5.6,6.2
2.887068146618482,-5.1,-5.6,6.2
2.895065565307176,-5.1,-5.6,6.2
2.90306298399587,-5.1,-5.5,6.2
2.911060402684564,-5.1,-5.6,6.2
2.9190578213732574,-5.1,-5.6,6.2
2.9270552400619514,-5.1,-5.6,6.2
2.9350526587506454,-5.1,-5.6,6.2
2.9430500774393393,-5.1,-5.6,6.2
2.951047496128033,-5.1,-5.6,6.2
2.959044914816727,-5.1,-5.6,6.2
2.967042333505421,-5.1,-5.6,6.2
2.9750397521941148,-5.1,-5.6,6.2
2.9830371708828083,-5.1,-5.6,6.2
2.9910345895715023,-5.1,-5.6,6.2
2.9990320082601962,-5.1,-5.6,6.2
3.00702942694889,-5.1,-5.602942694889007,6.2
3.0150268456375837,-5.0,-5.6,6.2
3.0230242643262777,-5.0,-5.6,6.2
3.0310216830149717,-5.0,-5.6,6.2
3.0390191017036656,-5.004792224926454,-5.6,6.2
3.047016520392359,-5.017486540305332,-5.6,6.2
3.055013939081053,-5.030180855684211,-5.6,6.2
3.063011357769747,-5.04287517106309,-5.6,6.2
3.0710087764584406,-5.055569486441969,-5.6,6.2
3.0790061951471346,-5.068263801820848,-5.6,6.2
3.0870036138358286,-5.080958117199727,-5.6,6.2
3.0950010325245225,-5.093652432578606,-5.6,6.2
3.102998451213216,-5.1,-5.6,6.2
3.11099586990191,-5.1,-5.7,6.105371903120333
3.118993288590604,-5.1,-5.7,6.113971278054413
3.126990707279298,-5.1,-5.7,6.122570652988492
3.1349881259679915,-5.1,-5.7,6.131170027922572
3.1429855446566854,-5.1,-5.7,6.139769402856651
3.1509829633453794,-5.1,-5.7,6.148368777790731
3.1589803820340734,-5.1,-5.7,6.156968152724811
3.166977800722767,-5.1,-5.7,6.165567527658889
3.174975219411461,-5.1,-5.7,6.174166902592969
3.182972638100155,-5.1,-5.7,6.182766277527048
3.190970056788849,-5.1,-5.7,6.191365652461128
3.1989674754775423,-5.1,-5.7,6.199965027395208
3.2069648941662363,-5.070927059517661,-5.629072940482339,6.170927059517661
3.2149623128549303,-5.0,-5.694486319050077,6.2
3.2229597315436243,-5.0,-5.685600298284862,6.2
3.2309571502323178,-5.0,-5.676714277519647,6.2
3.2389545689210117,-5.0,-5.667828256754431,6.2
3.2469519876097057,-5.0,-5.658942235989215,6.2
3.2549494062983997,-5.0,-5.650056215224001,6.2
3.262946824987093,-5.0,-5.641170194458785,6.2
3.270944243675787,-5.0,-5.632284173693569,6.2
3.278941662364481,-5.0,-5.623398152928354,6.2
3.286939081053175,-5.0,-5.614512132163139,6.2
3.2949364997418686,-5.0,-5.605626111397923,6.2
3.3029339184305626,-5.068869385647916,-5.6,6.2
3.3109313371192566,-5.0,-5.7,6.2
3.3189287558079505,-5.0,-5.7,6.2
3.326926174496644,-5.0,-5.7,6.2
3.334923593185338,-5.0,-5.7,6.2
3.342921011874032,-5.0,-5.7,6.2
3.350918430562726,-5.0,-5.7,6.2
3.3589158492514195,-5.0,-5.7,6.2
3.3669132679401135,-5.0,-5.7,6.2
3.3749106866288074,-5.0,-5.7,6.2
3.3829081053175014,-5.0,-5.7,6.2
3.390905524006195,-5.0,-5.7,6.2
3.398902942694889,-5.0,-5.7,6.2
3.406900361383583,-5.0,-5.7,6.2
3.414897780072277,-5.0,-5.7,6.2
3.4228951987609704,-5.0,-5.7,6.2
3.4308926174496643,-5.0,-5.7,6.2
3.4388900361383583,-5.0,-5.7,6.2
3.4468874548270523,-5.0,-5.7,6.2
3.454884873515746,-5.0,-5.7,6.2
3.4628822922044398,-5.0,-5.7,6.2
3.4708797108931337,-5.0,-5.7,6.2
3.4788771295818277,-5.0,-5.7,6.2
3.4868745482705212,-5.0,-5.7,6.2
3.494871966959215,-5.0,-5.7,6.2
3.502869385647909,-5.0,-5.7,6.2
3.510866804336603,-5.0,-5.646670108415081,6.146670108415081
3.5188642230252967,-5.0,-5.693181136017097,6.2
3.5268616417139906,-5.0,-5.683881811960476,6.2
3.5348590604026846,-5.0,-5.674582487903855,6.2
3.5428564790913786,-5.0,-5.665283163847234,6.2
3.550853897780072,-5.0,-5.655983839790614,6.2
3.558851316468766,-5.0,-5.646684515733993,6.2
3.56684873515746,-5.0,-5.637385191677372,6.2
3.574846153846154,-5.0,-5.628085867620751,6.2
3.5828435725348475,-5.0,-5.618786543564131,6.2
3.5908409912235415,-5.0,-5.60948721950751,6.2
3.5988384099122355,-5.0,-5.600187895450889,6.2
3.606835828600929,-5.056716572018579,-5.7,6.2
3.614833247289623,-5.1,-5.693518614122642,6.2
3.622830665978317,-5.1,-5.684632593357426,6.2
3.630828084667011,-5.1,-5.67574657259221,6.2
3.6388255033557044,-5.1,-5.666860551826995,6.2
3.6468229220443984,-5.1,-5.65797453106178,6.2
3.6548203407330924,-5.1,-5.649088510296564,6.2
3.6628177594217863,-5.1,-5.640202489531348,6.2
3.67081517811048,-5.1,-5.6313164687661335,6.2
3.678812596799174,-5.1,-5.622430448000918,6.2
3.686810015487868,-5.1,-5.613544427235702,6.2
3.6948074341765618,-5.1,-5.604658406470486,6.2
3.7028048528652553,-5.040242643262762,-5.6,6.2
3.7108022715539493,-5.1,-5.6,6.2
3.7187996902426432,-5.1,-5.6,6.2
3.726797108931337,-5.1,-5.6,6.2
3.7347945276200307,-5.1,-5.6,6.2
3.7427919463087247,-5.1,-5.6,6.2
3.7507893649974187,-5.1,-5.6,6.2
3.7587867836861126,-5.1,-5.6,6.2
3.766784202374806,-5.1,-5.6,6.2
3.7747816210635,-5.1,-5.6,6.2
3.782779039752194,-5.1,-5.6,6.2
3.790776458440888,-5.1,-5.6,6.2
3.7987738771295816,-5.1,-5.6,6.2
3.8067712958182756,-5.1,-5.6,6.1
3.8147687145069695,-5.1,-5.6,6.1
3.8227661331956635,-5.1,-5.6,6.102264273327773
3.830763551884357,-5.1,-5.6,6.1125173742107135
3.838760970573051,-5.1,-5.6,6.122770475093655
3.846758389261745,-5.1,-5.6,6.133023575976596
3.854755807950439,-5.1,-5.6,6.143276676859537
3.8627532266391325,-5.1,-5.6,6.153529777742477
3.8707506453278264,-5.1,-5.6,6.163782878625418
3.8787480640165204,-5.1,-5.6,6.17403597950836
3.8867454827052144,-5.1,-5.6,6.1842890803913
3.894742901393908,-5.1,-5.6,6.194542181274241
3.902740320082602,-5.1,-5.6,6.106169334021681
3.910737738771296,-5.1,-5.6,6.172814489760797
3.91873515745999,-5.1,-5.6,6.2
3.9267325761486833,-5.1,-5.6,6.2
3.9347299948373773,-5.1,-5.6,6.2
3.9427274135260713,-5.1,-5.6,6.2
3.9507248322147652,-5.1,-5.6,6.2
3.9587222509034588,-5.1,-5.6,6.2
3.9667196695921527,-5.1,-5.6,6.2
3.9747170882808467,-5.1,-5.6,6.2
3.9827145069695407,-5.1,-5.6,6.2
3.990711925658234,-5.1,-5.6,6.2
3.998709344346928,-5.1,-5.6,6.2
4.006706763035622,-5.1,-5.6,6.198164770929439
4.014704181724316,-5.1,-5.6,6.189565395995359
4.02270160041301,-5.1,-5.6,6.18096602106128
4.030699019101704,-5.1,-5.6,6.1723666461272
4.0386964377903976,-5.1,-5.6,6.16376727119312
4.0466938564790915,-5.1,-5.6,6.155167896259041
4.0546912751677855,-5.1,-5.6,6.146568521324961
4.0626886938564795,-5.1,-5.6,6.137969146390882
4.0706861125451725,-5.1,-5.6,6.129369771456803
4.0786835312338665,-5.1,-5.6,6.120770396522723
4.0866809499225605,-5.1,-5.6,6.112171021588644
4.0946783686112544,-5.1,-5.6,6.103571646654564
4.102675787299948,-5.167578729994848,-5.6,6.1
4.110673205988642,-5.2,-5.6,6.1
4.118670624677336,-5.2,-5.6,6.1
4.126668043366029,-5.2,-5.6,6.1
4.134665462054723,-5.2,-5.6,6.1
4.142662880743417,-5.2,-5.6,6.1
4.150660299432111,-5.2,-5.6,6.1
4.158657718120805,-5.2,-5.6,6.1
4.166655136809499,-5.2,-5.6,6.1
4.174652555498193,-5.2,-5.6,6.1
4.182649974186887,-5.2,-5.6,6.1
4.19064739287558,-5.2,-5.6,6.1
4.198644811564274,-5.2,-5.6,6.1
4.206642230252968,-5.2,-5.544648081225264,6.1
4.214639648941662,-5.2,-5.5,6.131982447083093
4.222637067630356,-5.207996467024525,-5.5,6.192003532975475
4.23063448631905,-5.217631911227771,-5.5,6.182368088772229
4.238631905007744,-5.2272673554310165,-5.5,6.172732644568983
4.246629323696438,-5.2369027996342625,-5.5,6.163097200365738
4.254626742385131,-5.246538243837507,-5.5,6.153461756162493
4.262624161073825,-5.256173688040753,-5.5,6.143826311959247
4.270621579762519,-5.265809132243999,-5.5,6.1341908677560015
4.278618998451213,-5.275444576447244,-5.5,6.1245554235527555
4.286616417139907,-5.28508002065049,-5.5,6.1149199793495095
4.294613835828601,-5.294715464853735,-5.5,6.105284535146264
4.302611254517295,-5.3,-5.5,6.1
4.310608673205989,-5.2,-5.5,6.199308325902285
4.318606091894682,-5.2,-5.5,6.190220350119679
4.326603510583376,-5.2,-5.5,6.181132374337072
4.33460092927207,-5.2,-5.5,6.1720443985544655
4.342598347960764,-5.2,-5.5,6.162956422771859
4.350595766649458,-5.2,-5.5,6.153868446989252
4.358593185338152,-5.2,-5.5,6.144780471206645
4.366590604026846,-5.2,-5.5,6.135692495424038
4.37458802271554,-5.2,-5.5,6.126604519641432
4.382585441404233,-5.2,-5.5,6.117516543858826
4.390582860092927,-5.2,-5.5,6.108428568076219
4.398580278781621,-5.2,-5.5,6.1
4.406577697470315,-5.128884873515745,-5.5,6.1
4.414575116159009,-5.104919479740869,-5.504919479740869,6.1
4.422572534847703,-5.113518854674949,-5.513518854674949,6.1
4.430569953536397,-5.122118229609028,-5.5221182296090285,6.1
4.438567372225091,-5.130717604543108,-5.530717604543108,6.1
4.446564790913784,-5.1393169794771865,-5.539316979477187,6.1
4.454562209602478,-5.147916354411266,-5.547916354411266,6.1
4.462559628291172,-5.156515729345346,-5.556515729345346,6.1
4.470557046979866,-5.165115104279425,-5.565115104279425,6.1
4.47855446566856,-5.173714479213505,-5.573714479213504,6.1
4.486551884357254,-5.182313854147584,-5.582313854147584,6.1
4.494549303045948,-5.190913229081664,-5.590913229081663,6.1
4.5025467217346415,-5.1995126040157436,-5.599512604015743,6.1
4.510544140423335,-5.2,-5.6,6.1
4.518541559112029,-5.2,-5.6,6.1
4.526538977800723,-5.2,-5.6,6.1
4.5345363964894165,-5.2,-5.6,6.1
4.5425338151781105,-5.2,-5.6,6.1
4.5505312338668045,-5.2,-5.6,6.1
4.558528652555498,-5.2,-5.6,6.1
4.566526071244192,-5.2,-5.6,6.1
4.5745234899328855,-5.2,-5.6,6.1
4.5825209086215795,-5.2,-5.6,6.1
4.590518327310273,-5.2,-5.6,6.1
4.598515745998967,-5.2,-5.6,6.1
4.606513164687661,-5.2,-5.6,6.1
4.614510583376355,-5.2,-5.6,6.1
4.622508002065049,-5.2,-5.6,6.1
4.630505420753742,-5.2,-5.6,6.1
4.638502839442436,-5.2,-5.6,6.1
4.64650025813113,-5.2,-5.6,6.1
4.654497676819824,-5.2,-5.6,6.1
4.662495095508518,-5.2,-5.6,6.1
4.670492514197212,-5.2,-5.6,6.1
4.678489932885906,-5.2,-5.6,6.1
4.6864873515746,-5.2,-5.6,6.1
4.694484770263293,-5.2,-5.6,6.1
4.702482188951987,-5.2,-5.6,6.1
4.710479607640681,-5.2,-5.6,6.001644008489646
4.718477026329375,-5.2,-5.6,6.010530029254862
4.726474445018069,-5.2,-5.6,6.019416050020077
4.734471863706763,-5.2,-5.6,6.028302070785292
4.742469282395457,-5.2,-5.6,6.037188091550508
4.750466701084151,-5.2,-5.6,6.046074112315723
4.758464119772844,-5.2,-5.6,6.054960133080938
4.766461538461538,-5.2,-5.6,6.063846153846153
4.774458957150232,-5.2,-5.6,6.072732174611368
4.782456375838926,-5.2,-5.6,6.081618195376584
4.79045379452762,-5.2,-5.6,6.0905042161418
4.798451213216314,-5.2,-5.6,6.0993902369070145
4.806448631905008,-5.3,-5.6,6.0
4.814446050593702,-5.3,-5.6,6.0
4.822443469282395,-5.3,-5.6,6.0
4.830440887971089,-5.3,-5.6,6.0
4.838438306659783,-5.3,-5.6,6.0
4.846435725348477,-5.3,-5.6,6.0
4.854433144037171,-5.3,-5.6,6.0
4.862430562725865,-5.3,-5.6,6.0
4.870427981414559,-5.3,-5.6,6.0
4.878425400103253,-5.3,-5.6,6.0
4.886422818791946,-5.3,-5.6,6.0
4.89442023748064,-5.3,-5.6,6.0
4.902417656169334,-5.3,-5.6,6.0
4.910415074858028,-5.3,-5.6,6.0
4.918412493546722,-5.3,-5.6,6.0
4.926409912235416,-5.3,-5.6,6.0
4.93440733092411,-5.3,-5.6,6.0
4.942404749612804,-5.3,-5.6,6.0
4.950402168301497,-5.3,-5.6,6.0
4.958399586990191,-5.3,-5.6,6.0
4.966397005678885,-5.3,-5.6,6.0
4.974394424367579,-5.3,-5.6,6.0
4.982391843056273,-5.3,-5.6,6.0
4.9903892617449666,-5.3,-5.6,6.0
4.9983866804336605,-5.3,-5.6,6.0
5.0063840991223545,-5.3,-5.6230842982520794,6.0
5.014381517811048,-5.3,-5.6,5.999653165626321
5.0223789364997415,-5.3,-5.6,5.992382785000236
5.0303763551884355,-5.3,-5.6,5.98511240437415
5.0383737738771295,-5.3,-5.6,5.977842023748065
5.0463711925658234,-5.3,-5.6,5.970571643121978
5.054368611254517,-5.3,-5.6,5.963301262495893
5.062366029943211,-5.3,-5.6,5.956030881869808
5.070363448631905,-5.3,-5.6,5.948760501243722
5.078360867320598,-5.3,-5.6,5.941490120617638
5.086358286009292,-5.3,-5.6,5.934219739991552
5.094355704697986,-5.3,-5.6,5.926949359365467
5.10235312338668,-5.3,-5.6,5.919678978739381
5.110350542075374,-5.3,-5.6,5.912408598113296
5.118347960764068,-5.3,-5.6,5.9051382174872105
5.126345379452762,-5.3,-5.56726897263812,5.9
5.134342798141455,-5.3,-5.689046635690926,5.810953364309074
5.142340216830149,-5.3,-5.666635378044775,5.833364621955225
5.150337635518843,-5.3,-5.630283474914348,5.869716525085652
5.158335054207537,-5.3,-5.593931571783921,5.906068428216079
5.166332472896231,-5.3,-5.557579668653493,5.942420331346507
5.174329891584925,-5.3,-5.521227765523066,5.978772234476934
5.182327310273619,-5.3,-5.484875862392639,6.015124137607361
5.190324728962313,-5.3,-5.448523959262212,6.051476040737788
5.198322147651006,-5.3,-5.412172056131789,6.087827943868211
5.2063195663397,-5.3331366619957175,-5.700590014012847,5.8331366619957175
5.214316985028394,-5.4,-5.699618090327236,5.8
5.222314403717088,-5.4,-5.68998264612399,5.8
5.230311822405782,-5.4,-5.680347201920745,5.8
5.238309241094476,-5.4,-5.670711757717499,5.8
5.24630665978317,-5.4,-5.661076313514253,5.8
5.254304078471864,-5.4,-5.651440869311007,5.8
5.262301497160557,-5.4,-5.641805425107762,5.8
5.270298915849251,-5.4,-5.632169980904517,5.8
5.278296334537945,-5.4,-5.622534536701271,5.8
5.286293753226639,-5.4,-5.612899092498025,5.8
5.294291171915333,-5.4,-5.603263648294779,5.8
5.302288590604027,-5.320805369127519,-5.7,5.720805369127519
5.310286009292721,-5.393509175388372,-5.7,5.793509175388372
5.318283427981415,-5.4,-5.7,5.791723377293846
5.326280846670108,-5.4,-5.7,5.782635401511241
5.334278265358802,-5.4,-5.7,5.773547425728634
5.342275684047496,-5.4,-5.7,5.7644594499460275
5.35027310273619,-5.4,-5.7,5.755371474163421
5.358270521424884,-5.4,-5.7,5.746283498380814
5.366267940113578,-5.4,-5.7,5.737195522598207
5.374265358802272,-5.4,-5.7,5.7281075468156
5.382262777490966,-5.4,-5.7,5.719019571032994
5.390260196179659,-5.4,-5.7,5.709931595250388
5.398257614868353,-5.4,-5.7,5.700843619467781
5.406255033557047,-5.298664857918036,-5.787983721262321,5.605340568327857
5.414252452245741,-5.290156965696021,-5.7114126912641865,5.639372137215917
5.422249870934435,-5.281649073474005,-5.634841661266052,5.673403706103977
5.430247289623129,-5.273141181251991,-5.558270631267918,5.7074352749920365
5.438244708311823,-5.264633289029976,-5.481699601269784,5.7414668438800955
5.446242127000517,-5.256125396807961,-5.40512857127165,5.7754984127681555
5.45423954568921,-5.247617504585947,-5.328557541273524,5.809529981656212
5.462236964377904,-5.239109612363932,-5.25198651127539,5.843561550544271
5.470234383066598,-5.230601720141918,-5.1754154812772555,5.877593119432331
5.478231801755292,-5.2220938279199025,-5.098844451279121,5.911624688320391
5.4862292204439855,-5.213585935697887,-5.022273421280987,5.94565625720845
5.4942266391326795,-5.205078043475873,-4.945702391282853,5.97968782609651
5.5022240578213735,-5.268227745408949,-5.631772254591051,5.563544509182102
5.510221476510067,-5.216778523489915,-5.561073825503361,6.1
5.5182188951987605,-5.091796710001408,-5.591796710001408,6.04257697000986
5.5262163138874545,-5.0827087342188015,-5.5827087342188015,5.978961139531613
5.5342137325761485,-5.073620758436195,-5.573620758436195,5.915345309053365
5.542211151264842,-5.064532782653588,-5.564532782653588,5.851729478575118
5.550208569953536,-5.055444806870981,-5.555444806870981,5.7881136480968705
5.55820598864223,-5.046356831088374,-5.546356831088374,5.724497817618623
5.566203407330924,-5.037268855305768,-5.537268855305768,5.660881987140376
5.574200826019618,-5.028180879523161,-5.528180879523161,5.597266156662129
5.582198244708311,-5.019092903740555,-5.519092903740555,5.5336503261838885
5.590195663397005,-5.010004927957949,-5.510004927957949,5.470034495705641
5.598193082085699,-5.000916952175342,-5.500916952175342,5.406418665227394
5.606190500774393,-5.290474961280328,-5.509525038719672,5.990474961280328
5.614187919463087,-4.99058894502677,-5.7,5.8
5.622185338151781,-4.972617217636447,-5.7,5.8
5.630182756840475,-4.954645490246124,-5.7,5.8
5.638180175529168,-4.9366737628558015,-5.7,5.8
5.646177594217862,-4.918702035465478,-5.7,5.8
5.654175012906556,-4.900730308075155,-5.7,5.8
5.66217243159525,-4.882758580684831,-5.7,5.8
5.670169850283944,-4.8647868532945076,-5.7,5.8
5.678167268972638,-4.846815125904183,-5.7,5.8
5.686164687661332,-4.82884339851386,-5.7,5.8
5.694162106350026,-4.810871671123537,-5.7,5.8
5.702159525038719,-5.103988125967979,-5.70398812596798,5.59601187403202
5.710156943727413,-5.3039235931853215,-5.903923593185321,5.396076406814679
5.718154362416107,-5.507881813717464,-5.994745457521691,4.9
5.726151781104801,-5.5371406625785395,-5.975239558280974,4.9
5.734149199793495,-5.566399511439616,-5.9557336590402565,4.9
5.742146618482189,-5.595658360300691,-5.936227759799539,4.9
5.750144037170883,-5.624917209161766,-5.916721860558822,4.9
5.758141455859577,-5.654176058022842,-5.897215961318105,4.9
5.76613887454827,-5.683434906883914,-5.877710062077391,4.9
5.774136293236964,-5.71269375574499,-5.858204162836674,4.9
5.782133711925658,-5.741952604606065,-5.838698263595957,4.9
5.790131130614352,-5.77121145346714,-5.8191923643552395,4.9
5.798128549303046,-5.82570986060916,-5.81285493030458,4.91285493030458
5.80612596799174,-5.8,-5.7,4.381611952989766
5.814123386680434,-5.8,-5.7,4.334568313644507
5.822120805369128,-5.8,-5.7,4.287524674299249
5.830118224057821,-5.8,-5.7,4.240481034953995
5.838115642746515,-5.8,-5.7,4.193437395608736
5.846113061435209,-5.8,-5.7,4.146393756263478
5.854110480123903,-5.8,-5.7,4.099350116918219
5.862107898812597,-5.8,-5.7,4.052306477572961
5.870105317501291,-5.8,-5.7,4.0052628382277025
5.878102736189985,-5.8,-5.7,3.958219198882444
5.886100154878679,-5.8,-5.7,3.9111755595371855
5.894097573567372,-5.8,-5.7,3.864131920191932
5.902094992256066,-5.8,-5.7,3.8170882808466735
5.91009241094476,-6.4030803648253185,-6.081517811048093,3.918482188951906
5.918089829633454,-6.517964104588659,-5.5119760697257725,4.476047860548454
5.926087248322148,-6.546190288195814,-5.530793525463876,4.438412949072248
5.934084667010842,-6.574416471802969,-5.54961098120198,4.400778037596041
5.9420820856995356,-6.602642655410125,-5.568428436940083,4.363143126119834
5.9500795043882295,-6.63086883901728,-5.587245892678187,4.325508214643627
5.958076923076923,-6.659095022624432,-5.606063348416288,4.287873303167424
5.966074341765617,-6.687321206231587,-5.624880804154391,4.250238391691217
5.9740717604543105,-6.7155473898387426,-5.643698259892495,4.21260348021501
5.9820691791430045,-6.743773573445897,-5.662515715630598,4.174968568738803
5.9900665978316985,-6.771999757053052,-5.681333171368702,4.137333657262596
5.9980640165203924,-6.758389261745046,-5.68079504388233,4.122405782137283
6.006061435209086,-6.982880077272798,-5.210271953636322,4.19657601545456
6.01405885389778,-6.853889453261605,-5.287666328043037,4.170777890652321
6.0220562725864735,-6.724898829250426,-5.365060702449744,4.144979765850086
6.030053691275167,-6.595908205239233,-5.442455076856461,4.119181641047847
6.038051109963861,-6.46691758122804,-5.519849451263176,4.093383516245608
6.046048528652555,-6.337926957216847,-5.597243825669892,4.0675853914433695
6.054045947341249,-6.208936333205654,-5.674638200076608,4.041787266641131
6.062043366029943,-6.079945709194461,-5.752032574483323,4.015989141838892
6.070040784718637,-5.950955085183268,-5.829426948890039,3.9901910170366537
6.078038203407331,-5.821964461172074,-5.9068213232967555,3.964392892234415
6.086035622096024,-5.692973837160896,-5.984215697703462,3.9385947674321793
6.094033040784718,-5.563983213149703,-6.061610072110178,3.9127966426299405
6.102030459473412,-7.109137842023693,-4.978172431595262,4.253298915849292
6.110027878162106,-7.303832254477651,-5.148083872761174,3.6386759858623527
6.1180252968508,-6.186086732060063,-5.6936757873000285,3.71770779555992
6.126022715539494,-5.323921475186317,-5.223164290536515,4.961014256780906
6.134020134228188,-5.621261400791605,-5.2539235931853385,4.77645844088797
6.142017552916881,-5.918601326396859,-5.284682895834158,4.591902624995052
6.150014971605575,-6.215941252002146,-5.315442198482981,4.4073468091021155
6.158012390294269,-6.513281177607434,-5.346201501131803,4.222790993209179
6.166009808982963,-6.810621103212721,-5.3769608037806265,4.038235177316242
6.174007227671657,-7.107961028818009,-5.40772010642945,3.8536793614233043
6.182004646360351,-7.405300954423296,-5.438479409078272,3.6691235455303675
6.190002065049045,-7.702640880028584,-5.469238711727095,3.4845677296374307
6.197999483737739,-7.9999808056338715,-5.499998014375918,3.3000119137444934
6.205996902426432,-6.450774393391967,-6.151393908105541,3.2993804852864264
6.213994321115126,-6.154875347644347,-5.684958449214783,3.545124652355653
6.22199173980382,-6.10327909803987,-5.6677596993466235,3.59672090196013
6.229989158492514,-6.051682848435393,-5.650560949478464,3.6483171515646076
6.237986577181208,-6.000086598830915,-5.633362199610305,3.6999134011690846
6.245983995869902,-5.948490349226438,-5.616163449742146,3.7515096507735617
6.253981414558596,-5.896894099621961,-5.598964699873987,3.803105900378039
6.26197883324729,-5.8452978500174835,-5.581765950005828,3.8547021499825163
6.269976251935983,-5.793701600413012,-5.564567200137671,3.9062983995869875
6.277973670624677,-5.742105350808535,-5.547368450269512,3.9578946491914646
6.285971089313371,-5.690509101204057,-5.530169700401353,4.009490898795942
6.293968508002065,-5.63891285159958,-5.512970950533194,4.06108714840042
6.301965926690759,-5.305110996386116,-5.401703665462039,4.296592669075923
6.309963345379453,-4.795731857870754,-5.097865928935377,3.9
6.317960764068147,-4.778346165069245,-5.089173082534622,3.9
6.325958182756841,-4.760960472267737,-5.080480236133869,3.9
6.333955601445534,-4.743574779466231,-5.071787389733115,3.9
6.341953020134228,-4.726189086664722,-5.063094543332361,3.9
6.349950438822922,-4.708803393863214,-5.054401696931607,3.9
6.357947857511616,-4.691417701061705,-5.045708850530852,3.9
6.36594527620031,-4.6740320082601965,-5.037016004130098,3.9
6.373942694889004,-4.656646315458688,-5.028323157729344,3.9
6.381940113577698,-4.639260622657179,-5.01963031132859,3.9
6.389937532266392,-4.621874929855671,-5.010937464927835,3.9
6.397934950955085,-4.604489237054164,-5.002244618527082,3.9
6.405932369643779,-6.2,-5.233815178110538,10.679710893133677
6.413929788332473,-6.04485196740814,-5.156903324280039,10.639664653992053
6.421927207021167,-5.8883807321945625,-5.113439092276267,10.578814729186774
6.429924625709861,-5.731909496980986,-5.069974860272496,10.517964804381494
6.4379220443985545,-5.57543826176741,-5.026510628268725,10.457114879576213
6.4459194630872485,-5.418967026553832,-4.983046396264953,10.396264954770935
6.4539168817759425,-5.262495791340256,-4.939582164261182,10.335415029965654
6.4619143004646356,-5.106024556126696,-4.8961179322574155,10.27456510516038
6.4699117191533295,-4.94955332091312,-4.8526537002536445,10.213715180355102
6.4779091378420235,-4.793082085699543,-4.8091894682498735,10.152865255549822
6.4859065565307175,-4.636610850485966,-4.765725236246102,10.092015330744543
6.493903975219411,-4.480139615272389,-4.7222610042423305,10.031165405939262
6.501901393908105,-2.6802787816210754,-6.39756418078567,10.092575210024869
6.509898812596799,-4.279762519359851,-8.0697517247853,9.220129534894626
6.517896231285493,-2.972169776532192,-2.4356128770558243,11.390723258844064
6.525893649974186,-2.9150453573272412,-1.8929308946087913,11.371681785775747
6.53389106866288,-2.857920938122284,-1.350248912161698,11.352640312707429
6.541888487351574,-2.800796518917327,-0.8075669297146051,11.333598839639109
6.549885906040268,-2.7436720997123696,-0.2648849472675119,11.31455736657079
6.557883324728962,-2.686547680507412,0.27779703517958154,11.29551589350247
6.565880743417656,-2.6294232613024553,0.8204790176266745,11.276474420434152
6.57387816210635,-2.572298842097498,1.3631610000737675,11.257432947365832
6.581875580795044,-2.515174422892541,1.905842982520861,11.238391474297513
6.589872999483737,-2.45805000368759,2.448524964967894,11.219350001229197
6.597870418172431,-2.400925584482633,2.9912069474149874,11.200308528160877
6.605867836861125,-3.851227966664314,-5.438830297219673,2.1528652555500667
6.613865255549819,-2.7849921967255935,-4.186369489493779,-0.20995318035356092
6.621862674238513,-2.7206451498050668,-3.699170419952651,0.17612910116959735
6.629860092927207,-2.6562981028845405,-3.2119713504115226,0.5622113826927555
6.637857511615901,-2.591951055964014,-2.7247722808703942,0.9482936642159139
6.645854930304595,-2.527604009043488,-2.237573211329266,1.334375945739072
6.653852348993288,-2.4632569621229687,-1.7503741417881917,1.7204582272621873
6.661849767681982,-2.3989099152024425,-1.2631750722470634,2.1065405087853457
6.669847186370676,-2.334562868281916,-0.7759760027059355,2.4926227903085043
6.67784460505937,-2.27021582136139,-0.2887769331648071,2.8787050718316625
6.685842023748064,-2.205868774440863,0.19842213637632167,3.2647873533548206
6.693839442436758,-2.141521727520337,0.6856212059174496,3.6508696348779788
6.701836861125452,-8.836362071933944,0.009464808122257473,3.5236620203056437
6.709834279814145,-38.79688540679764,-1.5165720185854816,-29.156728712691564
6.717831698502839,-38.788097034612264,-0.7168301497160863,-28.752463592164176
6.725829117191533,-38.779308662426885,0.08291171915330886,-28.34819847163679
6.733826535880227,-38.77052029024151,0.882653588022704,-27.943933351109404
6.741823954568921,-38.76173191805613,1.6823954568920991,-27.539668230582016
6.749821373257615,-38.75294354587075,2.482137325761495,-27.13540311005463
6.757818791946309,-38.74415517368538,3.28187919463089,-26.73113798952724
6.765816210635003,-38.7353668015,4.081621063500285,-26.326872868999857
6.773813629323696,-38.72657842931462,4.8813629323695915,-25.922607748472515
6.78181104801239,-38.71779005712924,5.681104801238987,-25.518342627945128
6.789808466701084,-38.709001684943864,6.480846670108382,-25.11407750741774
6.797805885389778,-38.700213312758486,7.280588538977777,-24.709812386890356
6.805803304078472,4.098406040269016,-5.106472638099108,13.545889261744813
6.813800722767166,9.451407715119352,0.9859204475874151,5.821010673422148
6.82179814145586,7.014984812284661,-0.4089781609057286,4.137833019173755
6.829795560144554,4.57856190944997,-1.8038767693988722,2.4546553649253604
6.837792978833247,2.14213900661555,-3.1987753778918613,0.7714777106771544
6.845790397521941,-0.29428389621914164,-4.593673986385005,-0.9116999435712394
6.853787816210635,-2.7307067990538325,-5.988572594878148,-2.5948775978196332
6.861785234899329,-5.167129701888523,-7.383471203371292,-4.278055252068026
6.869782653588023,-7.6035526047232125,-8.778369811864435,-5.961232906316421
6.877780072276717,-10.039975507557905,-10.173268420357578,-7.644410560564814
6.885777490965411,-12.476398410392594,-11.568167028850722,-9.327588214813208
6.8937749096541046,-14.912821313227287,-12.963065637343865,-11.0107658690616
6.901772328342798,-15.04472444501813,-15.892665849251305,-16.238177594217635
6.909769747031492,-12.595514971605603,-20.54116546205467,-25.435209086215693
6.917767165720186,-22.288074341761288,3.3480640165191162,9.705988642224789
6.9257645844088795,-19.279072490776546,-1.265721445030669,27.001742699925725
6.9337620030975735,-18.001436090509582,-0.5244972738834219,25.616823853834816
6.9417594217862675,-16.723799690242615,0.2167268972638252,24.231905007743904
6.9497568404749615,-15.446163289975651,0.9579510684110726,22.846986161652996
6.957754259163655,-14.168526889708684,1.69917523955832,21.462067315562088
6.9657516778523485,-12.890890489441862,2.440399410705485,20.077148469471332
6.9737490965410425,-11.613254089174896,3.1816235818527323,18.69222962338042
6.981746515229736,-10.33561768890793,3.9228477529999797,17.307310777289512
6.98974393391843,-9.057981288640965,4.664071924147226,15.922391931198604
6.997741352607124,-7.780344888374,5.4052960952944735,14.537473085107694
7.005738771295818,-8.729607640680499,-5.917965926690346,-12.31879194630772
7.013736189984512,5.388139734985353,3.9729725233751947,3.1411048012390146
7.021733608673206,4.535081741524662,3.3776091321057535,2.501311306143496
7.029731027361899,3.682023748064065,2.7822457408363785,1.8615178110480486
7.037728446050593,2.8289657546033737,2.186882349566938,1.22172431595253
7.045725864739287,1.9759077611426825,1.5915189582974967,0.5819308208570115
7.053723283427981,1.1228497676819913,0.996155567028056,-0.057862674238506884
7.061720702116675,0.2697917742213001,0.4007921757586148,-0.6976561693340257
7.069718120805369,-0.583266219239392,-0.1945712155108259,-1.3374496644295442
7.077715539494063,-1.4363242127000833,-0.7899346067802666,-1.9772431595250626
7.085712958182757,-2.2893822061607736,-1.3852979980497073,-2.617036654620581
7.09371037687145,-3.1424401996213707,-1.9806613893190823,-3.2568301497160284
7.101707795560144,-14.37532266391342,-1.1172173464112487,-0.1571502323174554
7.109705214248838,-15.391378420237524,0.9202374806401623,-2.1166752710377272
7.117702632937532,-14.866816549258672,0.9546349803764805,-1.6351102747292732
7.125700051626226,-14.34225467827982,0.9890324801127987,-1.1535452784208189
7.13369747031492,-13.817692807300968,1.0234299798491169,-0.6719802821123646
7.141694889003614,-13.293130936322116,1.057827479585435,-0.19041528580391054
7.149692307692308,-12.768569065343264,1.092224979321753,0.2911497105045435
7.157689726381001,-12.244007194364471,1.1266224790580674,0.7727147068129443
7.165687145069695,-11.719445323385619,1.1610199787943856,1.2542797031213988
7.173684563758389,-11.194883452406767,1.195417478530704,1.7358446994298524
7.181681982447083,-10.670321581427915,1.229814978267022,2.2174096957383074
7.189679401135777,-10.145759710449063,1.2642124780033401,2.6989746920467614
7.197676819824471,-9.621197839470211,1.2986099777396582,3.1805396883552155
7.205674238513165,-7.9996754922929325,4.144258426137942,-3.0654768050740855
7.213671657201858,-7.632520507084269,10.689618539551425,-1.2858039350656854
7.221669075890552,-7.517002237136468,10.671846498020994,-1.0903114782309455
7.229666494579246,-7.401483967188668,10.654074456490564,-0.8948190213962057
7.23766391326794,-7.285965697240867,10.636302414960133,-0.6993265645614658
7.245661331956634,-7.170447427293066,10.618530373429701,-0.503834107726726
7.253658750645328,-7.054929157345265,10.600758331899272,-0.30834165089198606
7.261656169334022,-6.9394108873974645,10.58298629036884,-0.11284919405724625
7.269653588022716,-6.823892617449664,10.565214248838409,0.08264326277749356
7.277651006711409,-6.708374347501875,10.54744220730798,0.27813571961221184
7.285648425400103,-6.5928560775540745,10.52967016577755,0.47362817644695165
7.293645844088797,-6.477337807606274,10.51189812424712,0.6691206332816915
7.301643262777491,-4.98918430562722,5.999432111512432,-0.08975219411478808
7.309640681466185,-5.569116532475096,14.286451410933772,-0.7802524192928298
7.317638100154879,-5.688227023583304,14.090769889827431,-0.7462208504047705
7.325635518843573,-5.807337514691511,13.895088368721089,-0.7121892815167111
7.333632937532267,-5.926448005799719,13.699406847614748,-0.6781577126286518
7.34163035622096,-6.045558496907914,13.503725326508428,-0.6441261437405963
7.349627774909654,-6.164668988016121,13.308043805402088,-0.6100945748525369
7.357625193598348,-6.283779479124329,13.112362284295745,-0.5760630059644776
7.365622612287042,-6.402889970232536,12.916680763189405,-0.5420314370764183
7.373620030975736,-6.522000461340744,12.720999242083064,-0.5079998681883588
7.38161744966443,-6.641110952448952,12.525317720976723,-0.4739682993002996
7.3896148683531235,-6.7602214435571595,12.32963619987038,-0.43993673041224024
7.3976122870418175,-6.879331934665367,12.13395467876404,-0.40590516152418094
7.405609705730511,-5.158197507190909,0.936256361088811,-3.8020797993951048
7.4136071244192046,-5.087068520463555,8.492200879426074,-5.141954319690964
7.4216045431078985,-5.280109661225134,8.25319756229269,-5.013260225849911
7.4296019617965925,-5.473150801986713,8.014194245159308,-4.884566132008858
7.4375993804852865,-5.666191942748292,7.775190928025923,-4.755872038167805
7.44559679917398,-5.859233083509872,7.53618761089254,-4.6271779443267524
7.453594217862674,-6.05227422427145,7.297184293759156,-4.4984838504857
7.461591636551368,-6.245315365033029,7.058180976625772,-4.369789756644646
7.4695890552400614,-6.438356505794587,6.819177659492415,-4.241095662803608
7.477586473928755,-6.631397646556167,6.580174342359031,-4.1124015689625555
7.485583892617449,-6.824438787317746,6.341171025225648,-3.983707475121503
7.493581311306143,-7.017479928079325,6.1021677080922645,-3.85501338128045
7.501578729994837,-8.262983995869849,3.514919979349245,-2.0736189984511935
7.509576148683531,-8.546966959215279,5.184847702632937,-2.260609189468252
7.517573567372225,-8.490985028394421,5.168852865255549,-2.324588538977803
7.525570986060919,-8.435003097573565,5.152858027878161,-2.388567888487355
7.533568404749612,-8.379021166752713,5.136863190500775,-2.452547237996899
7.541565823438306,-8.323039235931855,5.120868353123387,-2.5165265875064504
7.549563242127,-8.267057305110999,5.104873515745999,-2.5805059370160017
7.557560660815694,-8.211075374290141,5.088878678368612,-2.644485286525553
7.565558079504388,-8.155093443469283,5.072883840991224,-2.708464636035105
7.573555498193082,-8.099111512648426,5.056889003613836,-2.772443985544656
7.581552916881776,-8.043129581827568,5.040894166236448,-2.8364233350542074
7.58955033557047,-7.987147651006711,5.02489932885906,-2.9004026845637587
7.597547754259163,-7.93116572018586,5.008904491481674,-2.964382034073303
7.605545172947857,-7.209034589571445,1.5638616417142206,-5.595327826535751
7.613542591636551,-8.548959644533133,5.154063680079821,-4.354063680079821
7.621540010325245,-8.459101007581516,5.073190906823365,-4.273190906823365
7.629537429013939,-8.369242370629898,4.99231813356691,-4.19231813356691
7.637534847702633,-8.279383733678282,4.911445360310454,-4.111445360310454
7.645532266391327,-8.189525096726664,4.830572587053998,-4.030572587053999
7.653529685080021,-8.099666459775047,4.749699813797543,-3.949699813797543
7.661527103768714,-8.00980782282344,4.668827040541096,-3.8688270405410963
7.669524522457408,-7.919949185871823,4.5879542672846405,-3.7879542672846407
7.677521941146102,-7.8300905489202055,4.507081494028185,-3.7070814940281855
7.685519359834796,-7.740231911968588,4.426208720771729,-3.62620872077173
7.69351677852349,-7.650373275016971,4.345335947515274,-3.5453359475152744
7.701514197212184,-7.1,6.637067630356479,-1.877129581827614
7.709511615900878,-6.714553599680251,6.4690176028777415,-4.311577597548591
7.717509034589571,-6.740351724482487,6.236834479657619,-4.509363221032398
7.725506453278265,-6.766149849284726,6.004651356437472,-4.707148844516228
7.733503871966959,-6.791947974086964,5.7724682332173245,-4.904934468000057
7.741501290655653,-6.817746098889202,5.540285109997177,-5.102720091483886
7.749498709344347,-6.843544223691441,5.30810198677703,-5.3005057149677155
7.757496128033041,-6.86934234849368,5.075918863556882,-5.498291338451545
7.765493546721735,-6.8951404732959185,4.843735740336735,-5.696076961935375
7.773490965410429,-6.920938598098157,4.611552617116587,-5.893862585419203
7.781488384099122,-6.9467367229003925,4.379369493896466,-6.0916482089030115
7.789485802787816,-6.972534847702631,4.147186370676318,-6.289433832386841
7.79748322147651,-6.99833297250487,3.91500324745617,-6.487219455870671
7.805480640165204,-1.5082690781110364,-1.388113200215385,-12.388630017597325
7.813478058853898,-1.645859077056309,-1.1903275767315555,-12.199443769047575
7.821475477542592,-1.7834490760015818,-0.9925419532477262,-12.010257520497825
7.829472896231286,-1.9210390749468544,-0.7947563297638969,-11.821071271948075
7.83747031491998,-2.058629073892127,-0.5969707062800674,-11.631885023398326
7.845467733608673,-2.1962190728373843,-0.39918508279625997,-11.442698774848596
7.853465152297367,-2.3338090717826567,-0.20139945931243064,-11.253512526298847
7.861462570986061,-2.4713990707279296,-0.0036138358286013084,-11.064326277749096
7.869459989674755,-2.6089890696732025,0.19417178765522825,-10.875140029199347
7.8774574083634485,-2.746579068618475,0.3919574111390576,-10.685953780649596
7.8854548270521425,-2.8841690675637475,0.5897430346228869,-10.496767532099847
7.8934522457408365,-3.02175906650902,0.7875286581067162,-10.307581283550096
7.9014496644295305,-5.020134228187721,-2.0147651006714895,-5.159731543624559
7.9094470831182235,-1.996483615924083,-2.803014043493643,-10.713563195721393
7.9174445018069175,-1.933582570057951,-2.8569292256646133,-10.95618151549076
7.9254419204956115,-1.870681524191819,-2.9108444078355835,-11.198799835260127
7.933439339184305,-1.807780478325687,-2.9647595900065538,-11.441418155029492
7.941436757872999,-1.744879432459555,-3.0186747721775244,-11.684036474798859
7.949434176561693,-1.6819783865934228,-3.0725899543484947,-11.926654794568226
7.957431595250387,-1.6190773407272907,-3.126505136519465,-12.169273114337592
7.965429013939081,-1.5561762948611588,-3.180420318690435,-12.411891434106959
7.973426432627774,-1.4932752489950336,-3.2343355008613996,-12.6545097538763
7.981423851316468,-1.4303742031289017,-3.28825068303237,-12.897128073645664
7.989421270005162,-1.3674731572627696,-3.34216586520334,-13.139746393415031
7.997418688693856,-1.3045721113966375,-3.3960810473743104,-13.382364713184398
8.00541610738255,-2.2167785234901296,-2.5627516778527917,-10.088255033558376
8.013413526071243,-1.6,-1.4931078988126094,-8.574122354155866
8.021410944759937,-1.6208353250858771,-1.4089294250368043,-8.962505975257631
8.029408363448631,-1.6899488199264427,-1.4385494942541897,-9.169846459779329
8.037405782137325,-1.7590623147670084,-1.4681695634715748,-9.377186944301025
8.04540320082602,-1.8281758096075738,-1.4977896326889601,-9.584527428822721
8.053400619514713,-1.8972893044481394,-1.5274097019063455,-9.791867913344419
8.061398038203407,-1.966402799288705,-1.5570297711237306,-9.999208397866115
8.069395456892101,-2.0355162941292706,-1.5866498403411158,-10.206548882387812
8.077392875580795,-2.104629788969836,-1.6162699095585011,-10.413889366909508
8.085390294269489,-2.173743283810402,-1.6458899787758865,-10.621229851431206
8.093387712958183,-2.2428567786509674,-1.6755100479932716,-10.828570335952902
8.101385131646877,-3.2933020583151973,-2.1083724271060036,-13.3966510291576
8.109382550335571,-3.1542165159031263,-2.282229355121092,-13.327108257951563
8.117379969024265,-3.0151309734910554,-2.4560862831361807,-13.257565486745527
8.125377387712959,-2.4867836861122607,-2.2556530717602175,-11.478265358801087
8.133374806401651,-1.6769651154214957,-1.6,-8.030895346264487
8.141372225090345,-1.6426904638985218,-1.6,-7.928071391695565
8.149369643779039,-1.6084158123755476,-1.6,-7.825247437126643
8.157367062467733,-1.5741411608525737,-1.6,-7.722423482557721
8.165364481156427,-1.5398665093295998,-1.6,-7.619599527988799
8.173361899845121,-1.5055918578066256,-1.6,-7.516775573419877
8.181359318533815,-1.4713172062836517,-1.6,-7.413951618850955
8.189356737222509,-1.4370425547606778,-1.6,-7.311127664282033
8.197354155911203,-1.4027679032377036,-1.6,-7.208303709713111
8.205351574599897,-1.5,-3.0529685080020585,-9.658905524006176
8.21334899328859,-1.5,-2.9825576305806827,-9.459301138021594
8.221346411977285,-1.5,-2.9564790913784202,-9.398451213216314
8.229343830665979,-1.5,-2.9304005521761574,-9.337601288411033
8.237341249354673,-1.5,-2.9043220129738945,-9.276751363605754
8.245338668043367,-1.5,-2.8782434737716316,-9.215901438800474
8.253336086732059,-1.5,-2.852164934569375,-9.155051513995208
8.261333505420753,-1.5,-2.826086395367112,-9.094201589189929
8.269330924109447,-1.5,-2.800007856164849,-9.033351664384648
8.27732834279814,-1.5,-2.7739293169625863,-8.972501739579368
8.285325761486835,-1.5,-2.747850777760324,-8.911651814774089
8.293323180175529,-1.5,-2.721772238558061,-8.850801889968809
8.301320598864223,-1.5,-2.5019101703665934,-8.667940113577728
8.309318017552917,-1.5025472720361717,-2.194905455927657,-9.605094544072344
8.31731543624161,-1.5113356442215498,-2.1773287115569007,-9.6226712884431
8.325312854930305,-1.5201240164069278,-2.1597519671861445,-9.640248032813856
8.333310273618999,-1.528912388592306,-2.1421752228153883,-9.657824777184612
8.341307692307693,-1.537700760777684,-2.124598478444632,-9.675401521555369
8.349305110996387,-1.5464891329630621,-2.107021734073876,-9.692978265926124
8.35730252968508,-1.5552775051484402,-2.0894449897031198,-9.710555010296881
8.365299948373774,-1.5640658773338183,-2.0718682453323636,-9.728131754667636
8.373297367062468,-1.5728542495191962,-2.054291500961608,-9.745708499038393
8.38129478575116,-1.5816426217045723,-2.0367147565908557,-9.763285243409145
8.389292204439855,-1.5904309938899504,-2.0191380122200995,-9.780861987779902
8.397289623128549,-1.5992193660753284,-2.0015612678493433,-9.798438732150657
8.405287041817243,-1.7357253484770212,-1.9,-10.1
8.413284460505936,-1.8025860045994204,-1.9,-10.092241986201739
8.42128187919463,-1.8752898108602798,-1.9,-9.874130567419162
8.429279297883324,-1.8928658136711825,-1.9071341863288174,-9.77146325468473
8.437276716572018,-1.8820584911188933,-1.9179415088811065,-9.728233964475574
8.445274135260712,-1.8712511685666042,-1.9287488314333958,-9.685004674266418
8.453271553949406,-1.860443846014315,-1.939556153985685,-9.64177538405726
8.4612689726381,-1.8496365234620258,-1.950363476537974,-9.598546093848103
8.469266391326794,-1.8388292009097367,-1.9611707990902634,-9.555316803638947
8.477263810015488,-1.8280218783574476,-1.9719781216425525,-9.51208751342979
8.485261228704182,-1.8172145558051582,-1.9827854441948416,-9.468858223220634
8.493258647392876,-1.8064072332528691,-1.993592766747131,-9.425628933011478
8.50125606608157,-1.7748786783686012,-2.1502426432627977,-9.1
8.509253484770262,-1.5986072391441521,-2.6013927608558483,-9.201392760855848
8.517250903458956,-1.5897212183789367,-2.6102787816210635,-9.210278781621064
8.52524832214765,-1.5808351976137214,-2.619164802386279,-9.219164802386278
8.533245740836344,-1.571949176848506,-2.628050823151494,-9.228050823151493
8.541243159525038,-1.5630631560832906,-2.6369368439167093,-9.236936843916709
8.549240578213732,-1.5541771353180753,-2.645822864681925,-9.245822864681925
8.557237996902426,-1.5452911145528598,-2.6547088854471403,-9.25470888544714
8.56523541559112,-1.5364050937876446,-2.6635949062123556,-9.263594906212356
8.573232834279814,-1.527519073022429,-2.672480926977571,-9.272480926977572
8.581230252968508,-1.5186330522572138,-2.681366947742786,-9.281366947742786
8.589227671657202,-1.5097470314919985,-2.690252968508002,-9.290252968508002
8.597225090345896,-1.500861010726783,-2.699138989273217,-9.299138989273217
8.60522250903459,-1.5,-2.4722186370676256,-9.327781362932376
8.613219927723284,-1.5,-2.4,-9.402551641061246
8.621217346411978,-1.5,-2.4,-9.411744076335607
8.629214765100672,-1.5,-2.4,-9.420936511609968
8.637212183789364,-1.5,-2.4,-9.430128946884325
8.645209602478058,-1.5,-2.4,-9.439321382158687
8.653207021166752,-1.5,-2.4,-9.448513817433048
8.661204439855446,-1.5,-2.4,-9.457706252707409
8.66920185854414,-1.5,-2.4,-9.46689868798177
8.677199277232834,-1.5,-2.4,-9.476091123256131
8.685196695921528,-1.5,-2.4,-9.485283558530492
8.693194114610222,-1.5,-2.4,-9.494475993804853
8.701191533298916,-1.6,-2.2,-9.503192221648588
8.70918895198761,-1.6,-2.199787694395944,-9.599787694395943
8.717186370676304,-1.6,-2.190801830700782,-9.590801830700782
8.725183789364998,-1.6,-2.1818159670056203,-9.58181596700562
8.733181208053692,-1.6,-2.1728301033104587,-9.572830103310459
8.741178626742386,-1.6,-2.163844239615297,-9.563844239615296
8.74917604543108,-1.6,-2.154858375920135,-9.554858375920135
8.757173464119772,-1.6,-2.1458725122249755,-9.545872512224975
8.765170882808466,-1.6,-2.136886648529814,-9.536886648529814
8.77316830149716,-1.6,-2.127900784834652,-9.527900784834651
8.781165720185854,-1.6,-2.11891492113949,-9.51891492113949
8.789163138874548,-1.6,-2.1099290574443286,-9.509929057444328
8.797160557563242,-1.6,-2.100943193749167,-9.500943193749167
8.805157976251936,-1.6,-2.189474703149205,-9.410525296850796
8.81315539494063,-1.6,-2.259628291171918,-9.4
8.821152813629324,-1.5,-2.5,-9.4
8.829150232318018,-1.5,-2.5,-9.4
8.837147651006712,-1.5,-2.5,-9.4
8.845145069695405,-1.5,-2.5,-9.4
8.8531424883841,-1.5,-2.5,-9.4
8.861139907072793,-1.5,-2.5,-9.4
8.869137325761487,-1.5,-2.5,-9.4
8.877134744450181,-1.5,-2.5,-9.4
8.885132163138874,-1.5,-2.5,-9.4
8.893129581827568,-1.5,-2.5,-9.4
8.901127000516261,-1.5,-2.5,-9.393649974186918
8.909124419204955,-1.5,-2.4,-9.3
8.91712183789365,-1.5,-2.4,-9.3
8.925119256582343,-1.5,-2.4,-9.3
8.933116675271037,-1.5,-2.4,-9.3
8.941114093959731,-1.5,-2.4,-9.3
8.949111512648425,-1.5,-2.4,-9.3
8.95710893133712,-1.5,-2.4,-9.3
8.965106350025813,-1.5,-2.4,-9.3
8.973103768714507,-1.5,-2.4,-9.3
8.981101187403201,-1.5,-2.4,-9.3
8.989098606091895,-1.5,-2.4,-9.3
8.99709602478059,-1.5,-2.4,-9.3
9.005093443469283,-1.5,-2.3453278265358417,-9.35467217346416
9.013090862157975,-1.6,-2.2,-9.402155527997914
9.02108828084667,-1.6,-2.2,-9.41040028953265
9.029085699535363,-1.6,-2.2,-9.418645051067386
9.037083118224057,-1.6,-2.2,-9.426889812602122
9.045080536912751,-1.6,-2.2,-9.435134574136857
9.053077955601445,-1.6,-2.2,-9.443379335671594
9.061075374290139,-1.6,-2.2,-9.451624097206329
9.069072792978833,-1.6,-2.2,-9.459868858741066
9.077070211667527,-1.6,-2.2,-9.468113620275801
9.085067630356221,-1.6,-2.2,-9.476358381810536
9.093065049044915,-1.6,-2.2,-9.484603143345273
9.101062467733609,-1.6,-2.2,-9.492847904880009
9.109059886422303,-1.6,-2.3,-9.5
9.117057305110997,-1.5954412302123626,-2.3,-9.4
9.12505472379969,-1.586455366517201,-2.3,-9.4
9.133052142488385,-1.5774695028220391,-2.3,-9.4
9.141049561177077,-1.5684836391268795,-2.3,-9.4
9.149046979865771,-1.5594977754317176,-2.3,-9.4
9.157044398554465,-1.550511911736556,-2.3,-9.4
9.165041817243159,-1.5415260480413944,-2.3,-9.4
9.173039235931853,-1.5325401843462325,-2.3,-9.4
9.181036654620547,-1.5235543206510709,-2.3,-9.4
9.18903407330924,-1.514568456955909,-2.3,-9.4
9.197031491997935,-1.5055825932607474,-2.3,-9.4
9.205028910686629,-1.5,-2.3,-9.393140595422478
9.213026329375323,-1.5,-2.3,-9.339824470831182
9.221023748064017,-1.5,-2.4,-9.301187403200831
9.22902116675271,-1.5,-2.4,-9.4
9.237018585441405,-1.5,-2.4,-9.4
9.245016004130099,-1.5,-2.4,-9.4
9.253013422818793,-1.5,-2.4,-9.4
9.261010841507485,-1.5,-2.4,-9.4
9.269008260196179,-1.5,-2.4,-9.4
9.277005678884873,-1.5,-2.4,-9.4
9.285003097573567,-1.5,-2.4,-9.4
9.29300051626226,-1.5,-2.4,-9.4
9.300997934950955,-1.5,-2.4,-9.4
9.308995353639649,-1.5,-2.3502323180175786,-9.4
9.316992772328343,-1.5,-2.3,-9.4
9.324990191017037,-1.5,-2.3,-9.4
9.33298760970573,-1.5,-2.3,-9.4
9.340985028394424,-1.5,-2.3,-9.4
9.348982447083118,-1.5,-2.3,-9.4
9.356979865771812,-1.5,-2.3,-9.4
9.364977284460506,-1.5,-2.3,-9.4
9.3729747031492,-1.5,-2.3,-9.4
9.380972121837894,-1.5,-2.3,-9.4
9.388969540526586,-1.5,-2.3,-9.4
9.39696695921528,-1.5,-2.3,-9.4
9.404964377903974,-1.5,-2.3,-9.4
9.412961796592668,-1.5,-2.3,-9.4
9.420959215281362,-1.5,-2.3,-9.4
9.428956633970056,-1.5,-2.3,-9.4
9.43695405265875,-1.5,-2.3,-9.4
9.444951471347444,-1.5,-2.3,-9.4
9.452948890036138,-1.5,-2.3,-9.4
9.460946308724832,-1.5,-2.3,-9.4
9.468943727413526,-1.5,-2.3,-9.4
9.47694114610222,-1.5,-2.3,-9.4
9.484938564790914,-1.5,-2.3,-9.4
9.492935983479608,-1.5,-2.3,-9.4
9.500933402168302,-1.5,-2.396670108415129,-9.4
9.508930820856996,-1.5,-2.4,-9.3
9.516928239545688,-1.5,-2.4,-9.3
9.524925658234382,-1.5,-2.4,-9.3
9.532923076923076,-1.5,-2.4,-9.3
9.54092049561177,-1.5,-2.4,-9.3
9.548917914300464,-1.5,-2.4,-9.3
9.556915332989158,-1.5,-2.4,-9.3
9.564912751677852,-1.5,-2.4,-9.3
9.572910170366546,-1.5,-2.4,-9.3
9.58090758905524,-1.5,-2.4,-9.3
9.588905007743934,-1.5,-2.4,-9.3
9.596902426432628,-1.5,-2.4,-9.3
9.604899845121322,-1.5,-2.367143594660374,-9.332856405339626
9.612897263810016,-1.5,-2.329060648523734,-9.370939351476267
9.62089468249871,-1.5,-2.394734124935471,-9.494734124935471
9.628892101187404,-1.506610947550545,-2.3,-9.4
9.636889519876098,-1.517418270102834,-2.3,-9.4
9.64488693856479,-1.528225592655121,-2.3,-9.4
9.652884357253484,-1.53903291520741,-2.3,-9.4
9.660881775942178,-1.5498402377596991,-2.3,-9.4
9.668879194630872,-1.5606475603119885,-2.3,-9.4
9.676876613319566,-1.5714548828642776,-2.3,-9.4
9.68487403200826,-1.5822622054165667,-2.3,-9.4
9.692871450696954,-1.593069527968856,-2.3,-9.4
9.700868869385648,-1.6,-2.386886938564739,-9.5
9.708866288074342,-1.5,-2.304157299004668,-9.4
9.716863706763036,-1.5,-2.3127566739387477,-9.4
9.72486112545173,-1.5,-2.3213560488728273,-9.4
9.732858544140424,-1.5,-2.329955423806907,-9.4
9.740855962829118,-1.5,-2.3385547987409865,-9.4
9.748853381517812,-1.5,-2.347154173675066,-9.4
9.756850800206506,-1.5,-2.3557535486091457,-9.4
9.764848218895198,-1.5,-2.364352923543223,-9.4
9.772845637583892,-1.5,-2.3729522984773026,-9.4
9.780843056272586,-1.5,-2.381551673411382,-9.4
9.78884047496128,-1.5,-2.3901510483454618,-9.4
9.796837893649974,-1.5,-2.3987504232795414,-9.4
9.804835312338668,-1.5,-2.4,-9.4
9.812832731027362,-1.5,-2.4,-9.4
9.820830149716056,-1.5,-2.4,-9.4
9.82882756840475,-1.5,-2.4,-9.4
9.836824987093443,-1.5,-2.4,-9.4
9.844822405782137,-1.5,-2.4,-9.4
9.852819824470831,-1.5,-2.4,-9.4
9.860817243159525,-1.5,-2.4,-9.4
9.86881466184822,-1.5,-2.4,-9.4
9.876812080536913,-1.5,-2.4,-9.4
9.884809499225607,-1.5,-2.4,-9.4
9.8928069179143,-1.5,-2.4,-9.4
9.900804336602993,-1.5,-2.4,-9.390216830149685
9.908801755291687,-1.5,-2.3,-9.495912091084206
9.916799173980381,-1.5,-2.3,-9.487312716150127
9.924796592669075,-1.5,-2.3,-9.478713341216048
9.93279401135777,-1.5,-2.3,-9.470113966281968
9.940791430046463,-1.5,-2.3,-9.461514591347889
9.948788848735157,-1.5,-2.3,-9.452915216413809
9.956786267423851,-1.5,-2.3,-9.44431584147973
9.964783686112545,-1.5,-2.3,-9.43571646654565
9.97278110480124,-1.5,-2.3,-9.42711709161157
9.980778523489933,-1.5,-2.3,-9.41851771667749
9.988775942178627,-1.5,-2.3,-9.409918341743412
9.996773360867321,-1.5,-2.3,-9.401318966809331
10.004770779556015,-1.5,-2.3,-9.4
10.012768198244709,-1.5,-2.3,-9.4
10.020765616933401,-1.5,-2.3,-9.4
10.028763035622095,-1.5,-2.3,-9.4
10.03676045431079,-1.5,-2.3,-9.4
10.044757872999483,-1.5,-2.3,-9.4
10.052755291688177,-1.5,-2.3,-9.4
10.060752710376871,-1.5,-2.3,-9.4
10.068750129065565,-1.5,-2.3,-9.4
10.076747547754259,-1.5,-2.3,-9.4
10.084744966442953,-1.5,-2.3,-9.4
10.092742385131647,-1.5,-2.3,-9.4
10.10073980382034,-1.5,-2.3,-9.4
10.108737222509035,-1.5,-2.313138874548253,-9.4
10.116734641197729,-1.5,-2.305570166114975,-9.4
10.124732059886423,-1.5,-2.314978893984027,-9.4
10.132729478575117,-1.5,-2.3243876218530786,-9.4
10.14072689726381,-1.5,-2.3337963497221303,-9.4
10.148724315952503,-1.5,-2.34320507759118,-9.4
10.156721734641197,-1.5,-2.352613805460232,-9.4
10.16471915332989,-1.5,-2.362022533329284,-9.4
10.172716572018585,-1.5,-2.3714312611983357,-9.4
10.180713990707279,-1.5,-2.3808399890673875,-9.4
10.188711409395973,-1.5,-2.3902487169364393,-9.4
10.196708828084667,-1.5,-2.399657444805491,-9.4
10.20470624677336,-1.5,-2.3293753226639544,-9.4
10.212703665462055,-1.5,-2.3,-9.408373549415277
10.220701084150749,-1.5,-2.3,-9.41706639581603
10.228698502839443,-1.5,-2.3,-9.425759242216785
10.236695921528137,-1.5,-2.3,-9.43445208861754
10.24469334021683,-1.5,-2.3,-9.443144935018294
10.252690758905525,-1.5,-2.3,-9.451837781419048
10.260688177594218,-1.5,-2.3,-9.460530627819802
10.26868559628291,-1.5,-2.3,-9.469223474220554
10.276683014971605,-1.5,-2.3,-9.47791632062131
10.284680433660299,-1.5,-2.3,-9.486609167022063
10.292677852348993,-1.5,-2.3,-9.495302013422817
10.300675271037687,-1.5,-2.33376355188431,-9.4
10.30867268972638,-1.5,-2.364880580387469,-9.364880580387469
10.316670108415074,-1.5,-2.322788903078554,-9.322788903078555
10.324667527103768,-1.5,-2.30482569355759,-9.304825693557591
10.332664945792462,-1.5,-2.315348612884819,-9.31534861288482
10.340662364481156,-1.5,-2.325871532212048,-9.325871532212048
10.34865978316985,-1.5,-2.336394451539277,-9.336394451539277
10.356657201858544,-1.5,-2.3469173708665054,-9.346917370866507
10.364654620547238,-1.5,-2.3574402901937344,-9.357440290193734
10.372652039235932,-1.5,-2.3679632095209633,-9.367963209520964
10.380649457924626,-1.5,-2.378486128848192,-9.378486128848193
10.38864687661332,-1.5,-2.389009048175421,-9.38900904817542
10.396644295302012,-1.5,-2.3995319675026474,-9.399531967502648
10.404641713990706,-1.5,-2.3006684520736522,-9.4
10.4126391326794,-1.5,-2.308999096541042,-9.4
10.420636551368094,-1.5,-2.3173297410084315,-9.4
10.428633970056788,-1.5,-2.325660385475821,-9.4
10.436631388745482,-1.5,-2.3339910299432107,-9.4
10.444628807434176,-1.5,-2.3423216744106004,-9.4
10.45262622612287,-1.5,-2.3506523188779895,-9.4
10.460623644811564,-1.5,-2.358982963345379,-9.4
10.468621063500258,-1.5,-2.367313607812769,-9.4
10.476618482188952,-1.5,-2.3756442522801584,-9.4
10.484615900877646,-1.5,-2.383974896747548,-9.4
10.49261331956634,-1.5,-2.392305541214937,-9.4
10.500610738255034,-1.5,-2.4,-9.4
10.508608156943728,-1.5,-2.3,-9.4
10.516605575632422,-1.5,-2.3,-9.4
10.524602994321114,-1.5,-2.3,-9.4
10.532600413009808,-1.5,-2.3,-9.4
10.540597831698502,-1.5,-2.3,-9.4
10.548595250387196,-1.5,-2.3,-9.4
10.55659266907589,-1.5,-2.3,-9.4
10.564590087764584,-1.5,-2.3,-9.4
10.572587506453278,-1.5,-2.3,-9.4
10.580584925141972,-1.5,-2.3,-9.4
10.588582343830666,-1.5,-2.3,-9.4
10.59657976251936,-1.5,-2.3,-9.4
10.604577181208054,-1.5,-2.3,-9.4
10.612574599896748,-1.5,-2.3,-9.4
10.620572018585442,-1.5,-2.3,-9.4
10.628569437274136,-1.5,-2.3,-9.4
10.63656685596283,-1.5,-2.3,-9.4
10.644564274651524,-1.5,-2.3,-9.4
10.652561693340216,-1.5,-2.3,-9.4
10.66055911202891,-1.5,-2.3,-9.4
10.668556530717604,-1.5,-2.3,-9.4
10.676553949406298,-1.5,-2.3,-9.4
10.684551368094992,-1.5,-2.3,-9.4
10.692548786783686,-1.5,-2.3,-9.4
10.70054620547238,-1.5,-2.4,-9.4
10.708543624161074,-1.5,-2.4,-9.4
10.716541042849768,-1.5,-2.4,-9.4
10.724538461538462,-1.5,-2.4,-9.4
10.732535880227156,-1.5,-2.4,-9.4
10.74053329891585,-1.5,-2.4,-9.4
10.748530717604543,-1.5,-2.4,-9.4
10.756528136293237,-1.5,-2.4,-9.4
10.764525554981931,-1.5,-2.4,-9.4
10.772522973670624,-1.5,-2.4,-9.4
10.780520392359318,-1.5,-2.4,-9.4
10.788517811048012,-1.5,-2.4,-9.4
10.796515229736706,-1.5,-2.4,-9.4
10.8045126484254,-1.5,-2.3,-9.4
10.812510067114093,-1.5,-2.3061222967934367,-9.4
10.820507485802787,-1.5,-2.315008317558652,-9.4
10.828504904491481,-1.5,-2.3238943383238677,-9.4
10.836502323180175,-1.5,-2.3327803590890834,-9.4
10.84449974186887,-1.5,-2.3416663798542987,-9.4
10.852497160557563,-1.5,-2.3505524006195144,-9.4
10.860494579246257,-1.5,-2.3594384213847297,-9.4
10.868491997934951,-1.5,-2.3683244421499454,-9.4
10.876489416623645,-1.5,-2.377210462915161,-9.4
10.88448683531234,-1.5,-2.3860964836803764,-9.4
10.892484254001033,-1.5,-2.394982504445592,-9.4
10.900481672689725,-1.5,-2.3740836344862855,-9.4
10.90847909137842,-1.5,-2.3,-9.4
10.916476510067113,-1.5,-2.3,-9.4
10.924473928755807,-1.5,-2.3,-9.4
10.932471347444501,-1.5,-2.3,-9.4
10.940468766133195,-1.5,-2.3,-9.4
10.94846618482189,-1.5,-2.3,-9.4
10.956463603510583,-1.5,-2.3,-9.4
10.964461022199277,-1.5,-2.3,-9.4
10.972458440887971,-1.5,-2.3,-9.4
10.980455859576665,-1.5,-2.3,-9.4
10.988453278265359,-1.5,-2.3,-9.4
10.996450696954053,-1.5,-2.3,-9.4
11.004448115642747,-1.5,-2.3,-9.359198072620885
11.012445534331441,-1.5,-2.3,-9.304994982394879
11.020442953020135,-1.5,-2.3,-9.313980846090042
11.028440371708827,-1.5,-2.3,-9.3229667097852
11.036437790397521,-1.5,-2.3,-9.331952573480363
11.044435209086215,-1.5,-2.3,-9.340938437175524
11.052432627774909,-1.5,-2.3,-9.349924300870686
11.060430046463603,-1.5,-2.3,-9.358910164565847
11.068427465152297,-1.5,-2.3,-9.36789602826101
11.07642488384099,-1.5,-2.3,-9.37688189195617
11.084422302529685,-1.5,-2.3,-9.385867755651333
11.092419721218379,-1.5,-2.3,-9.394853619346494
11.100417139907073,-1.5,-2.4,-9.4
11.108414558595767,-1.5,-2.3629272070211695,-9.4
11.11641197728446,-1.5,-2.322940113577699,-9.4
11.124409395973155,-1.5,-2.3,-9.4
11.132406814661849,-1.5,-2.3,-9.4
11.140404233350543,-1.5,-2.3,-9.4
11.148401652039237,-1.5,-2.3,-9.4
11.156399070727929,-1.5,-2.3,-9.4
11.164396489416623,-1.5,-2.3,-9.4
11.172393908105317,-1.5,-2.3,-9.4
11.18039132679401,-1.5,-2.3,-9.4
11.188388745482705,-1.5,-2.3,-9.4
11.196386164171399,-1.5,-2.3,-9.4
11.204383582860093,-1.5,-2.3476716572018455,-9.4
11.212381001548787,-1.5,-2.3940211093902377,-9.4
11.22037842023748,-1.5,-2.3851350886250224,-9.4
11.228375838926175,-1.5,-2.3762490678598067,-9.4
11.236373257614868,-1.5,-2.367363047094591,-9.4
11.244370676303562,-1.5,-2.3584770263293757,-9.4
11.252368094992256,-1.5,-2.34959100556416,-9.4
11.26036551368095,-1.5,-2.3407049847989447,-9.4
11.268362932369644,-1.5,-2.331818964033729,-9.4
11.276360351058337,-1.5,-2.3229329432685155,-9.4
11.28435776974703,-1.5,-2.3140469225033,-9.4
11.292355188435725,-1.5,-2.3051609017380845,-9.4
11.300352607124418,-1.5,-2.3558767854069624,-9.4
11.308350025813112,-1.5,-2.4,-9.4
11.316347444501806,-1.5,-2.4,-9.4
11.3243448631905,-1.5,-2.4,-9.4
11.332342281879194,-1.5,-2.4,-9.4
11.340339700567888,-1.5,-2.4,-9.4
11.348337119256582,-1.5,-2.4,-9.4
11.356334537945276,-1.5,-2.4,-9.4
11.36433195663397,-1.5,-2.4,-9.4
11.372329375322664,-1.5,-2.4,-9.4
11.380326794011358,-1.5,-2.4,-9.4
11.388324212700052,-1.5,-2.4,-9.4
11.396321631388746,-1.5,-2.4,-9.4
11.404319050077438,-1.5,-2.3,-9.415952503871914
11.412316468766132,-1.5,-2.307018298629035,-9.5
11.420313887454826,-1.5,-2.315904319394251,-9.5
11.42831130614352,-1.5,-2.324790340159466,-9.5
11.436308724832214,-1.5,-2.333676360924682,-9.5
11.444306143520908,-1.5,-2.342562381689897,-9.5
11.452303562209602,-1.5,-2.3514484024551128,-9.5
11.460300980898296,-1.5,-2.3603344232203285,-9.5
11.46829839958699,-1.5,-2.3692204439855438,-9.5
11.476295818275684,-1.5,-2.3781064647507595,-9.5
11.484293236964378,-1.5,-2.3869924855159748,-9.5
11.492290655653072,-1.5,-2.3958785062811905,-9.5
11.500288074341766,-1.5,-2.4,-9.4
11.50828549303046,-1.5,-2.4,-9.4
11.516282911719154,-1.5475879079905916,-2.3,-9.4
11.524280330407848,-1.6,-2.3,-9.4
11.53227774909654,-1.6,-2.3,-9.4
11.540275167785234,-1.6,-2.3,-9.4
11.548272586473928,-1.6,-2.3,-9.4
11.556270005162622,-1.6,-2.3,-9.4
11.564267423851316,-1.6,-2.3,-9.4
11.57226484254001,-1.6,-2.3,-9.4
11.580262261228704,-1.6,-2.3,-9.4
11.588259679917398,-1.6,-2.3,-9.4
11.596257098606092,-1.6,-2.3,-9.4
11.604254517294786,-1.4,-2.3,-9.487274135260677
11.61225193598348,-1.5,-2.3,-9.4
11.620249354672174,-1.5,-2.3,-9.4
11.628246773360868,-1.5,-2.3,-9.4
11.636244192049562,-1.5,-2.3,-9.4
11.644241610738256,-1.5,-2.3,-9.4
11.65223902942695,-1.5,-2.3,-9.4
11.660236448115642,-1.5,-2.3,-9.4
11.668233866804336,-1.5,-2.3,-9.4
11.67623128549303,-1.5,-2.3,-9.4
11.684228704181724,-1.5,-2.3,-9.4
11.692226122870418,-1.5,-2.3,-9.4
11.700223541559112,-1.5244708311822313,-2.324470831182231,-9.5
11.708220960247806,-1.5,-2.3,-9.3
11.7162183789365,-1.5,-2.3,-9.3
11.724215797625194,-1.5,-2.3,-9.3
11.732213216313887,-1.5,-2.3,-9.3
11.740210635002581,-1.5,-2.3,-9.3
11.748208053691275,-1.5,-2.3,-9.3
11.75620547237997,-1.5,-2.3,-9.3
11.764202891068663,-1.5,-2.3,-9.3
11.772200309757357,-1.5,-2.3,-9.3
11.78019772844605,-1.5,-2.3,-9.3
11.788195147134743,-1.5,-2.3,-9.3
11.796192565823437,-1.5,-2.3,-9.3
11.804189984512131,-1.5002042844216463,-2.300204284421646,-9.400817137686586
11.812187403200825,-1.508803659355726,-2.3088036593557257,-9.435214637422904
11.82018482188952,-1.5174030342898055,-2.3174030342898053,-9.469612137159222
11.828182240578213,-1.526002409223885,-2.326002409223885,-9.50400963689554
11.836179659266907,-1.5346017841579647,-2.3346017841579645,-9.538407136631859
11.844177077955601,-1.543201159092044,-2.343201159092044,-9.572804636368177
11.852174496644295,-1.5518005340261236,-2.3518005340261237,-9.607202136104496
11.86017191533299,-1.5603999089602032,-2.3603999089602032,-9.641599635840814
11.868169334021683,-1.5689992838942828,-2.3689992838942824,-9.67599713557713
11.876166752710377,-1.5775986588283624,-2.377598658828362,-9.710394635313449
11.884164171399071,-1.586198033762442,-2.3861980337624416,-9.744792135049767
11.892161590087765,-1.5947974086965213,-2.394797408696521,-9.779189634786086
11.900159008776459,-1.6263250731371557,-2.4,-9.8
11.908156427465151,-1.6929702288762547,-2.4,-9.8
11.916153846153845,-1.9005628517823592,-2.6001876172607865,-10.100562851782358
11.92415126484254,-1.929821700643435,-2.609940566881145,-10.129821700643435
11.932148683531233,-1.959080549504511,-2.6196935165015036,-10.15908054950451
11.940146102219927,-1.9883393983655868,-2.629446466121862,-10.188339398365587
11.948143520908621,-2.0175982472266627,-2.639199415742221,-10.217598247226663
11.956140939597315,-2.0468570960877384,-2.6489523653625797,-10.246857096087739
11.964138358286009,-2.0761159449488145,-2.6587053149829383,-10.276115944948815
11.972135776974703,-2.10537479380989,-2.668458264603297,-10.305374793809891
11.980133195663397,-2.1346336426709662,-2.6782112142236554,-10.334633642670966
11.988130614352091,-2.1638924915320423,-2.687964163844014,-10.363892491532042
11.996128033040785,-2.193151340393118,-2.697717113464373,-10.393151340393118
12.004125451729479,-2.6344088797108784,-2.643727413526081,-9.474909654104325
12.012122870418173,-3.3319384474585827,-2.2283897310742957,-9.917743581921435
12.020120289106867,-3.413730229502044,-2.301093537335151,-9.96318346083447
12.02811770779556,-3.495522011545506,-2.3737973435960056,-10.008623339747503
12.036115126484253,-3.57731379358895,-2.4465011498568443,-10.054063218660527
12.044112545172947,-3.659105575632412,-2.5192049561176995,-10.099503097573562
12.052109963861641,-3.7408973576758733,-2.591908762378554,-10.144942976486597
12.060107382550335,-3.822689139719335,-2.6646125686394093,-10.190382855399632
12.068104801239029,-3.904480921762797,-2.737316374900264,-10.235822734312665
12.076102219927723,-3.986272703806259,-2.810020181161119,-10.2812626132257
12.084099638616417,-4.068064485849721,-2.882723987421974,-10.326702492138734
12.09209705730511,-4.149856267893183,-2.955427793682829,-10.372142371051769
12.100094475993805,-9.848038203407226,-1.8811048012389908,-10.862209602477982
12.108091894682499,-5.89917398038204,-0.7017552916881669,-9.698554465668568
12.116089313371193,-5.827287070820744,-0.8545149745059192,-9.572752373936302
12.124086732059887,-5.755400161259449,-1.0072746573236715,-9.446950282204035
12.13208415074858,-5.6835132516981535,-1.160034340141424,-9.321148190471769
12.140081569437275,-5.611626342136859,-1.3127940229591761,-9.195346098739503
12.148078988125969,-5.539739432575563,-1.4655537057769283,-9.069544007007234
12.156076406814663,-5.467852523014268,-1.6183133885946808,-8.943741915274968
12.164073825503355,-5.395965613452988,-1.7710730714123992,-8.81793982354273
12.172071244192049,-5.3240787038916935,-1.9238327542301514,-8.692137731810464
12.180068662880743,-5.252191794330398,-2.076592437047904,-8.566335640078197
12.188066081569437,-5.180304884769103,-2.229352119865656,-8.44053354834593
12.19606350025813,-5.108417975207807,-2.3821118026834087,-8.314731456613664
12.204060918946825,-9.006935123042712,1.1191189124076149,-8.644329719497682
12.212058337635519,-8.386320210217354,0.9772003503622567,-4.981760280289805
12.220055756324212,-8.359362619131868,0.9322710318864481,-4.945816825509159
12.228053175012906,-8.332405028046384,0.8873417134106395,-4.909873370728511
12.2360505937016,-8.305447436960899,0.8424123949348309,-4.873929915947865
12.244048012390294,-8.278489845875413,0.7974830764590223,-4.837986461167217
12.252045431078988,-8.251532254789929,0.7525537579832137,-4.802043006386571
12.260042849767682,-8.224574663704443,0.7076244395074051,-4.766099551605924
12.268040268456376,-8.197617072618957,0.6626951210315964,-4.730156096825277
12.27603768714507,-8.170659481533473,0.6177658025557878,-4.69421264204463
12.284035105833762,-8.143701890447993,0.5728364840799892,-4.658269187263991
12.292032524522456,-8.116744299362509,0.5279071656041806,-4.622325732483344
12.30002994321115,-8.895508518327546,-0.49101703665508933,-3.4835312338676636
12.308027361899844,-9.300029421397683,2.1002647925791407,0.1000294213976823
12.316024780588538,-9.308628796331762,2.1776591669858565,0.10862879633176184
12.324022199277232,-9.317228171265842,2.2550535413925723,0.11722817126584138
12.332019617965926,-9.325827546199921,2.332447915799288,0.12582754619992093
12.34001703665462,-9.334426921134002,2.4098422902060044,0.13442692113400045
12.348014455343314,-9.34302629606808,2.4872366646127197,0.14302629606807998
12.356011874032008,-9.35162567100216,2.564631039019436,0.15162567100215954
12.364009292720702,-9.36022504593624,2.642025413426152,0.1602250459362391
12.372006711409396,-9.368824420870318,2.7194197878328676,0.16882442087031863
12.38000413009809,-9.377423795804399,2.7968141622395835,0.17742379580439815
12.388001548786784,-9.386023170738477,2.8742085366462993,0.18602317073847768
12.395998967475478,-9.394622545672558,2.951602911053015,0.19462254567255724
12.403996386164172,-8.901806917913962,2.9025296850795455,-1.4974703149204545
12.411993804852864,-8.672452586133517,2.446106191175874,-0.701201018908841
12.419991223541558,-8.769124680172675,2.5076247964735208,-0.5693754361281702
12.427988642230252,-8.865796774211834,2.569143401771167,-0.4375498533474993
12.435986060918946,-8.962468868250992,2.630662007068813,-0.3057242705668285
12.44398347960764,-9.05914096229015,2.69218061236646,-0.1738986877861577
12.451980898296334,-9.15581305632931,2.753699217664106,-0.04207310500548678
12.459978316985028,-9.252485150368468,2.8152178229617526,0.08975247777518403
12.467975735673722,-9.349157244407627,2.876736428259399,0.22157806055585483
12.475973154362416,-9.445829338446785,2.9382550335570454,0.35340364333652574
12.48397057305111,-9.542501432485944,2.9997736388546916,0.48522922611719643
12.491967991739804,-9.639173526525102,3.0612922441523382,0.6170548088978673
12.499965410428498,-9.134589571502172,2.7207537429013033,-0.979246257098697
12.507962829117192,-8.809292720701832,3.2925658234385353,-1.3944243675789014
12.515960247805886,-8.665838520125506,3.2821118026834006,-1.417888197316599
12.52395766649458,-8.53105056469808,3.2641400752930774,-1.4358599247069226
12.531955085183274,-8.396262609270655,3.2461683479027537,-1.453831652097246
12.539952503871966,-8.261474653843258,3.2281966205124344,-1.4718033794875656
12.54794992256066,-8.126686698415833,3.210224893122111,-1.489775106877889
12.555947341249354,-7.991898742988408,3.1922531657317874,-1.5077468342682123
12.563944759938048,-7.857110787560981,3.174281438341464,-1.5257185616585358
12.571942178626742,-7.722322832133555,3.156309710951141,-1.5436902890488593
12.579939597315436,-7.58753487670613,3.138337983560817,-1.5616620164391828
12.58793701600413,-7.452746921278703,3.120366256170494,-1.5796337438295063
12.595934434692824,-7.317958965851277,3.1023945287801706,-1.5976054712198298
12.603931853381518,-6.552297367062899,1.662519359835135,3.4761486835314495
12.611929272070212,-6.369795326993832,1.802313188002741,3.5682087920018275
12.619926690758906,-6.137612203773685,1.9055056872116956,3.6370037914744637
12.6279241094476,-5.905429080553537,2.00869818642065,3.7057987909471
12.635921528136294,-5.673245957333389,2.1118906856296045,3.774593790419736
12.643918946824988,-5.441062834113242,2.215083184838559,3.8433887898923724
12.651916365513681,-5.208879710893094,2.3182756840475136,3.912183789365009
12.659913784202375,-4.976696587672947,2.4214681832564677,3.9809787888376453
12.667911202891068,-4.744513464452851,2.5246606824653997,4.049773788310266
12.675908621579762,-4.512330341232703,2.6278531816743538,4.118568787782903
12.683906040268456,-4.280147218012556,2.7310456808833083,4.1873637872555385
12.69190345895715,-4.047964094792409,2.834238180092263,4.256158786728175
12.699900877645844,-0.9396489416623289,1.3883324728960622,7.0801755291688355
12.707898296334537,-0.995946010676518,-0.28584643060530557,7.495946010676518
12.715895715023231,-1.1525964798365007,-0.4260073766958165,7.652596479836501
12.723893133711925,-1.3092469489964835,-0.5661683227863274,7.809246948996484
12.73189055240062,-1.4658974181564663,-0.7063292688768386,7.965897418156467
12.739887971089313,-1.6225478873164494,-0.8464902149673494,8.12254788731645
12.747885389778007,-1.7791983564764322,-0.9866511610578603,8.279198356476433
12.755882808466701,-1.9358488256364152,-1.1268121071483714,8.435848825636416
12.763880227155395,-2.092499294796398,-1.2669730532388823,8.592499294796399
12.77187764584409,-2.249149763956381,-1.4071339993293932,8.749149763956382
12.779875064532783,-2.4058002331163637,-1.5472949454199043,8.905800233116365
12.787872483221477,-2.5624507022763465,-1.6874558915104152,9.062450702276347
12.79586990191017,-2.7191011714362943,-1.827616837600895,9.219101171436295
12.803867320598863,-4.0398038203410644,2.374445018067302,9.760196179658935
12.811864739287557,-7.978378936499747,0.051352607124430634,6.394599896747596
12.819862157976251,-7.942834853438884,-0.028621579762509175,6.0569311076694055
12.827859576664945,-7.907290770378022,-0.108595766649449,5.719262318591215
12.83585699535364,-7.87174668731716,-0.1885699535363888,5.381593529513024
12.843854414042333,-7.836202604256298,-0.26854414042332864,5.043924740434834
12.851851832731027,-7.8006585211954365,-0.34851832731026844,4.706255951356644
12.859849251419721,-7.765114438134574,-0.42849251419720835,4.368587162278454
12.867846670108415,-7.729570355073712,-0.5084667010841482,4.030918373200263
12.875844088797109,-7.69402627201285,-0.588440887971088,3.693249584122073
12.883841507485803,-7.658482188951988,-0.6684150748580278,3.355580795043883
12.891838926174497,-7.622938105891125,-0.7483892617449676,3.0179120059656923
12.899836344863191,-21.036241610739374,5.072689726381346,10.713603510583678
12.907833763551885,-8.833699842924464,6.070892694339779,17.911481343160606
12.915831182240577,-9.054905040696804,5.526387592130945,17.10323158206937
12.923828600929271,-9.27611023846919,4.981882489921991,16.294981820977952
12.931826019617965,-9.497315436241578,4.4373773877130365,15.486732059886537
12.939823438306659,-9.718520634013966,3.892872285504082,14.678482298795121
12.947820856995353,-9.939725831786355,3.348367183295127,13.870232537703703
12.955818275684047,-10.160931029558743,2.803862081086173,13.061982776612286
12.963815694372741,-10.38213622733113,2.2593569788772188,12.25373301552087
12.971813113061435,-10.603341425103519,1.7148518766682637,11.445483254429455
12.979810531750129,-10.824546622875907,1.1703467744593095,10.637233493338037
12.987807950438823,-11.045751820648293,0.6258416722503553,9.82898373224662
12.995805369127517,-11.266957018420682,0.08133657004140016,9.020733971155204
13.00380278781621,3.3574975360211194,1.637776317642145,11.880278781621024
13.011800206504905,1.3944947669779175,0.47451541746839565,12.680020650490478
13.019797625193599,1.0352607124419158,0.13815178110478898,12.64624419204955
13.027795043882293,0.9590948201686395,-0.05226294957840161,12.46535019790052
13.035792462570987,0.8829289278953631,-0.24267768026159214,12.284456203751487
13.043789881259679,0.8067630356221038,-0.43309241094474044,12.103562209602497
13.051787299948373,0.7305971433488276,-0.623507141627931,11.922668215453466
13.059784718637067,0.6544312510755514,-0.8139218723111215,11.741774221304436
13.06778213732576,0.5782653588022751,-1.0043366029943122,11.560880227155405
13.075779556014455,0.502099466528999,-1.1947513336775026,11.379986233006372
13.083776974703149,0.42593357425572265,-1.3851660643606933,11.199092238857341
13.091774393391843,0.34976768198244645,-1.5755807950438838,11.01819824470831
13.099771812080537,-2.0174496644295017,0.37986577181209313,7.625503355704717
13.10776923076923,0.9051282051282052,0.9384615384615373,12.038461538461537
13.115766649457925,0.9137275800622848,0.8352690392525828,11.935269039252583
13.123764068146619,0.9223269549963643,0.7320765400436284,11.832076540043628
13.131761486835313,0.9309263299304439,0.6288840408346739,11.728884040834673
13.139758905524006,0.9395257048645234,0.5256915416257195,11.62569154162572
13.1477563242127,0.9481250797986029,0.42249904241676495,11.522499042416765
13.155753742901394,0.9567244547326825,0.3193065432078105,11.41930654320781
13.163751161590088,0.965323829666762,0.21611404399885603,11.316114043998857
13.17174858027878,0.9739232046008397,0.11292154478992456,11.212921544789925
13.179745998967475,0.9825225795349192,0.009729045580970097,11.10972904558097
13.187743417656169,0.9911219544689988,-0.09346345362798436,11.006536546372017
13.195740836344863,0.9997213294030782,-0.19665595283693893,10.903344047163062
13.203738255033556,0.7214765100668494,0.3187919463101363,12.050335570467945
13.21173567372225,0.6918669264631746,0.024768931004029285,12.441959354061563
13.219733092410944,0.5800750523201406,0.15375955501522234,12.278571230314052
13.227730511099638,0.46828317817710663,0.2827501790264154,12.11518310656654
13.235727929788332,0.3564913040340726,0.4117408030376085,11.95179498281903
13.243725348477026,0.24469942989103854,0.5407314270488016,11.788406859071518
13.25172276716572,0.1329075557480045,0.6697220510599947,11.625018735324007
13.259720185854414,0.02111568160497057,0.7987126750711878,11.461630611576496
13.267717604543108,-0.09067619253806347,0.9277032990823809,11.298242487828983
13.275715023231802,-0.2024680666810974,1.056693923093574,11.134854364081473
13.283712441920496,-0.31425994082413156,1.1856845471047668,10.97146624033396
13.29170986060919,-0.4260518149671655,1.3146751711159599,10.808078116586449
13.299707279297882,-0.5024522457414015,-2.1219153329876246,10.009731543623111
13.307704697986576,-0.3885906040271103,0.3093959731525979,10.67718120805422
13.31570211667527,-0.2567296815996045,1.1163515920019775,10.31826466271834
13.323699535363964,-0.2118003631237959,1.3409981843810206,10.129561525119943
13.331696954052658,-0.1668710446479873,1.5656447767600636,9.940858387521546
13.339694372741352,-0.12194172617217869,1.7902913691391067,9.75215524992315
13.347691791430046,-0.07701240769637008,2.0149379615181497,9.563452112324754
13.35568921011874,-0.03208308922056147,2.239584553897193,9.374748974726359
13.363686628807434,0.012846229255247144,2.464231146276236,9.186045837127962
13.371684047496128,0.057775547731055754,2.688877738655279,8.997342699529566
13.379681466184822,0.10270486620686431,2.9135243310343215,8.80863956193117
13.387678884873516,0.14763418468267292,3.1381709234133646,8.619936424332774
13.39567630356221,0.19256350315848153,3.3628175157924076,8.431233286734377
13.403673722250904,0.3066468766133254,0.6770392359318527,11.878549303045938
13.411671140939598,0.7565016778523608,0.6270553691275155,11.178775167785217
13.41966855962829,0.8915515968187807,1.612672604771829,9.557757984093904
13.427665978316984,0.8510583376355204,1.6734124935467194,9.355291688177601
13.435663397005678,0.8105650784522602,1.7341523823216098,9.1528253922613
13.443660815694372,0.7700718192689999,1.7948922710965003,8.950359096344998
13.451658234383066,0.7295785600857396,1.8556321598713907,8.747892800428698
13.45965565307176,0.6890853009024793,1.9163720486462812,8.545426504512395
13.467653071760454,0.648592041719219,1.9771119374211716,8.342960208596095
13.475650490449148,0.6080987825359587,2.037851826196062,8.140493912679794
13.483647909137842,0.5676055233526984,2.0985917149709525,7.938027616763492
13.491645327826536,0.5271122641694381,2.159331603745843,7.73556132084719
13.49964274651523,-1.7963345379454099,-1.3285493030459787,14.52488384099139
13.507640165203924,0.49146446394767906,3.3729708025009835,5.714937188091562
13.515637583892618,0.38483221476509266,3.0353020134227933,5.901543624161088
13.523635002581312,0.27819996558250626,2.697633224344603,6.088150060230614
13.531632421270006,0.1715677163999198,2.359964435266413,6.2747564963001405
13.5396298399587,0.0649354672173334,2.022295646188222,6.461362932369667
13.547627258647392,-0.0416967819652293,1.684626857110107,6.647969368439152
13.555624677336086,-0.1483290311478157,1.3469580680319169,6.8345758045086775
13.56362209602478,-0.2549612803304022,1.0092892789537262,7.021182240578204
13.571619514713474,-0.3615935295129886,0.671620489875536,7.207788676647731
13.579616933402168,-0.468225778695575,0.3339517007973458,7.394395112717256
13.587614352090862,-0.5748580278781614,-0.003717088280844383,7.581001548786783
13.595611770779556,-0.6814902770607478,-0.34138587735903503,7.767607984856308
13.60360918946825,-0.4931078988123685,-0.5505678884877017,7.408053691274772
13.611606608156944,0.12876018305437403,-1.1160330057838967,6.8484297752071575
13.619604026845638,0.47441132976911243,-1.2380275281538045,6.794209987487198
13.627601445534332,0.8200624764838509,-1.360022050523712,6.739990199767239
13.635598864223025,1.1657136231985894,-1.4820165728936197,6.6857704120472805
13.64359628291172,1.5113647699133277,-1.6040110952635271,6.631550624327321
13.651593701600413,1.8570159166280662,-1.7260056176334349,6.577330836607362
13.659591120289107,2.2026670633428043,-1.8480001400033426,6.523111048887404
13.667588538977801,2.5483182100575426,-1.9699946623732503,6.468891261167444
13.675585957666494,2.8939693567722045,-2.091989184743131,6.414671473447497
13.683583376355188,3.2396205034869427,-2.213983707113038,6.360451685727538
13.691580795043881,3.585271650201681,-2.3359782294829463,6.306231898007579
13.699578213732575,3.9309227969164198,-2.4579727518528536,6.2520121102876205
13.70757563242127,4.276573943631158,-2.5799672742227617,6.197792322567661
13.715573051109963,4.622225090345896,-2.701961796592669,6.143572534847702
13.723570469798657,3.1593959731562395,-4.302684563760626,12.228523489932845
13.731567888487351,-0.2470904933992192,2.5534051183715634,9.162381444059298
13.739565307176045,0.09565602183052097,1.7765130171841526,8.853909580352532
13.74756272586474,0.4384025370602611,0.9996209159967415,8.545437716645765
13.755560144553433,0.7811490522900012,0.2227288148093307,8.236965852938999
13.763557563242127,1.1238955675197415,-0.5541632863780803,7.9284939892322335
13.771554981930821,1.4666420827494817,-1.3310553875654914,7.620022125525467
13.779552400619515,1.809388597979222,-2.107947488752902,7.3115502618187005
13.787549819308209,2.152135113208962,-2.8848395899403134,7.003078398111935
13.795547237996903,2.494881628438702,-3.661731691127724,6.6946065344051675
13.803544656685595,2.9033275449383233,1.764448303374451,10.047810578682833
13.81154207537429,2.693976940285675,1.7132851488559158,11.193976940285674
13.819539494062983,2.605116732633523,-1.0413812883607907,11.105116732633523
13.827536912751677,0.7665413870245934,5.048769574944106,8.624196868008942
13.835534331440371,0.8838368611254394,4.782188951987638,8.666849767681978
13.843531750129065,1.0011323352262853,4.51560832903117,8.709502667355013
13.851529168817759,1.1184278093271314,4.249027706074702,8.752155567028048
13.859526587506453,1.2357232834279772,3.9824470831182337,8.794808466701083
13.867524006195147,1.3530187575288233,3.7158664601617653,8.837461366374118
13.875521424883841,1.4703142316296693,3.449285837205297,8.880114266047153
13.883518843572535,1.5876097057305154,3.182705214248829,8.922767165720188
13.891516262261229,1.7049051798313613,2.916124591292361,8.965420065393221
13.899513680949923,1.3486319050076403,0.4256840474961798,9.04589571502292
13.907511099638617,1.695200957831259,0.5527894638561497,8.414397126506223
13.91550851832731,1.6866930656092443,0.6463762782983138,8.439920803172267
13.923505937016003,1.6781851733872313,0.739963092740457,8.465444479838306
13.931503355704697,1.6696772811652163,0.8335499071826211,8.490968156504351
13.939500774393391,1.6611693889432013,0.9271367216247851,8.516491833170395
13.947498193082085,1.6526614967211866,1.0207235360669493,8.54201550983644
13.955495611770779,1.6441536044991716,1.1143103505091132,8.567539186502485
13.963493030459473,1.6356457122771566,1.2078971649512773,8.59306286316853
13.971490449148167,1.6271378200551418,1.3014839793934414,8.618586539834574
13.97948786783686,1.6186299278331269,1.3950707938356053,8.64411021650062
13.987485286525555,1.610122035611112,1.4886576082777694,8.669633893166663
13.995482705214249,1.6016141433890971,1.5822444227199335,8.695157569832709
14.003480123902943,1.5480123902942449,2.3278265358805728,9.620030975735611
14.011477542591637,0.9304307921757582,0.17041243618424579,9.869569207824242
14.01947496128033,0.9748608960018359,0.41922101761028074,9.825139103998165
14.027472379969025,1.0192909998279136,0.6680295990363158,9.780709000172086
14.035469798657719,1.0637211036539913,0.9168381804623507,9.73627889634601
14.043467217346413,1.1081512074800688,1.1656467618883857,9.69184879251993
14.051464636035105,1.1525813113061367,1.4144553433143654,9.647418688693863
14.059462054723799,1.1970114151322142,1.6632639247404002,9.602988584867786
14.067459473412493,1.241441518958292,1.9120725061664352,9.558558481041707
14.075456892101187,1.2858716227843696,2.16088108759247,9.51412837721563
14.08345431078988,1.3303017266104473,2.4096896690185052,9.469698273389554
14.091451729478575,1.374731830436525,2.65849825044454,9.425268169563475
14.099449148167269,1.6572018585438792,1.3817759421779923,9.447031491997524
14.107446566855963,2.2542868787870467,2.61178382197105,10.313571719696762
14.115443985544657,2.3216335624813125,2.502345460967868,10.33040839062033
14.12344140423335,2.3889802461755782,2.392907099964686,10.347245061543894
14.131438822922044,2.456326929869844,2.283468738961504,10.364081732467461
14.139436241610738,2.52367361356411,2.174030377958322,10.380918403391028
14.147433660299432,2.5910202972583756,2.06459201695514,10.397755074314594
14.155431078988126,2.6583669809526413,1.955153655951958,10.41459174523816
14.16342849767682,2.725713664646907,1.845715294948776,10.431428416161728
14.171425916365514,2.793060348341173,1.7362769339455941,10.448265087085293
14.179423335054206,2.8604070320354236,1.6268385729424364,10.465101758008856
14.1874207537429,2.9277537157296893,1.5174002119392545,10.481938428932422
14.195418172431594,2.995100399423955,1.4079618509360725,10.498775099855989
14.203415591120288,1.6779211839616275,1.868181035966424,10.038960591980814
14.211413009808982,1.3652039235929188,1.8771553949402633,9.31739803820354
14.219410428497676,1.2215142853545191,1.5569714292909618,9.053785713386299
14.22740784718637,1.2605260838359529,1.4789478323280945,9.151315209589882
14.235405265875064,1.2995378823173864,1.4009242353652271,9.248844705793466
14.243402684563758,1.3385496807988202,1.3229006384023598,9.346374201997051
14.251400103252452,1.3775614792802537,1.2448770414394925,9.443903698200634
14.259397521941146,1.4165732777616875,1.1668534444766252,9.541433194404219
14.26739494062984,1.455585076243121,1.0888298475137579,9.638962690607803
14.275392359318534,1.4945968747245548,1.0108062505508906,9.736492186811386
14.283389778007228,1.5336086732059884,0.9327826535880234,9.83402168301497
14.291387196695922,1.5726204716874221,0.854759056625156,9.931551179218555
14.299384615384616,0.9923076923071458,2.076923076921437,10.36923076923036
14.307382034073308,-0.1561808065163276,1.0921356048872457,9.343819193483672
14.315379452762002,-0.8080463161000065,0.9362084224500294,9.367814735599975
14.323376871450696,-0.8270877891683253,1.0218950512574634,9.2916488433267
14.33137429013939,-0.8461292622366439,1.1075816800648974,9.215482951053424
14.339371708828084,-0.8651707353049625,1.1932683088723313,9.13931705878015
14.347369127516778,-0.8842122083732812,1.2789549376797653,9.063151166506875
14.355366546205472,-0.9032536814415998,1.3646415664871991,8.9869852742336
14.363363964894166,-0.9222951545099185,1.4503281952946332,8.910819381960327
14.37136138358286,-0.9413366275782371,1.5360148241020672,8.834653489687051
14.379358802271554,-0.9603781006465557,1.621701452909501,8.758487597413776
14.387356220960248,-0.9794195737148744,1.707388081716935,8.682321705140502
14.395353639648942,-0.9984610467831931,1.793074710524369,8.606155812867227
14.403351058337636,-1.0940874385240358,1.2011086052767432,9.301108605276744
14.41134847702633,-0.9593940711355041,1.2263636116620928,9.326363611662094
14.419345895715024,-0.8247007037469725,1.2516186180474427,9.351618618047443
14.427343314403716,-0.6900073363584708,1.2768736244327867,9.376873624432788
14.43534073309241,-0.5553139689699392,1.3021286308181363,9.402128630818137
14.443338151781104,-0.42062060158140757,1.3273836372034862,9.427383637203487
14.451335570469798,-0.2859272341928759,1.3526386435888358,9.452638643588836
14.459332989158492,-0.15123386680434436,1.3778936499741854,9.477893649974186
14.467330407847186,-0.016540499415812704,1.403148656359535,9.503148656359535
14.47532782653588,0.11815286797271884,1.4284036627448848,9.528403662744886
14.483325245224574,0.2528462353612506,1.4536586691302344,9.553658669130234
14.491322663913268,0.38753960274978216,1.4789136755155843,9.578913675515583
14.499320082601962,0.23598347960761434,1.6320082601961927,9.6
14.507317501290656,1.27424998565939,1.792274995697817,9.802575001434061
14.51531491997935,1.1853897780072349,1.7656169334021705,9.811461022199277
14.523312338668044,1.0965295703550795,1.7389588711065238,9.820347042964492
14.531309757356738,1.007669362702924,1.7123008088108773,9.829233063729708
14.539307176045432,0.9188091550507687,1.6856427465152306,9.838119084494924
14.547304594734126,0.8299489473986134,1.658984684219584,9.84700510526014
14.555302013422818,0.7410887397464777,1.6323266219239434,9.855891126025353
14.563299432111512,0.6522285320943224,1.6056685596282967,9.864777146790567
14.571296850800206,0.5633683244421671,1.5790104973326502,9.873663167555783
14.5792942694889,0.4745081167900117,1.5523524350370035,9.882549188320999
14.587291688177594,0.3856479091378564,1.525694372741357,9.891435209086215
14.595289106866288,0.3144553433143473,1.5144553433143473,9.897590776114276
14.603286525554982,0.7143262777490899,1.91432627774909,9.830945620375152
14.611283944243675,0.6772844605060124,1.3170366546204908,9.880123902942762
14.61928136293237,0.03749096541048125,1.796881775942139,9.320304594734171
14.627278781621063,-0.07454547991460944,1.883030319943073,9.267878720227708
14.635276200309757,-0.042123512257741934,1.8614156748384945,9.354337300646021
14.643273618998451,-0.009701544600874412,1.8398010297339162,9.440795881064334
14.651271037687145,0.022720423055993103,1.8181863846293378,9.527254461482649
14.65926845637584,0.05514239071286062,1.7965717395247596,9.613713041900962
14.667265875064533,0.08756435836972815,1.7749570944201811,9.700171622319274
14.675263293753227,0.11998632602659565,1.753342449315603,9.786630202737587
14.68326071244192,0.15240829368345596,1.7317278042110293,9.873088783155882
14.691258131130613,0.18483026134032346,1.710113159106451,9.959547363574195
14.699255549819307,0.6927723283422902,1.5233350542076978,10.7
14.707252968508001,1.3481930820857,1.3962128475551285,10.611188140718342
14.715250387196695,1.2910686628807435,1.5023010546500477,10.513260564938417
14.72324780588539,1.233944243675787,1.6083892617449669,10.415332989158491
14.731245224574083,1.1768198244708306,1.714477468839886,10.317405413378566
14.739242643262777,1.119695405265874,1.8205656759348052,10.21947783759864
14.747240061951471,1.0625709860609176,1.9266538830297244,10.121550261818715
14.755237480640165,1.0054465668559611,2.0327420901246436,10.02362268603879
14.76323489932886,0.9483221476510046,2.138830297219563,9.925695110258864
14.771232318017553,0.891197728446048,2.244918504314482,9.827767534478939
14.779229736706247,0.8340733092410916,2.3510067114094015,9.729839958699014
14.787227155394941,0.7769488900361351,2.4570949185043203,9.631912382919088
14.795224574083635,0.7198244708311786,2.56318312559924,9.533984807139163
14.803221992772329,1.9445018069179316,1.7446050593702087,10.244501806917933
14.811219411461021,1.4158163983667331,0.2869901910170325,9.3474491951002
14.819216830149715,1.4400510004536842,0.4202805024952639,9.420153001361054
14.827214248838409,1.4642856025406354,0.5535708139734953,9.492856807621907
14.835211667527103,1.4885202046275867,0.6868611254517266,9.565560613882761
14.843209086215797,1.5127548067145378,0.8201514369299581,9.638264420143614
14.851206504904491,1.536989408801489,0.9534417484081894,9.710968226404468
14.859203923593185,1.56122401088844,1.0867320598864207,9.78367203266532
14.867201342281879,1.5854586129753914,1.220022371364652,9.856375838926175
14.875198760970573,1.5,1.855278781621088,9.502484512132161
14.883196179659267,1.558853897780259,0.0215281362929879,9.541146102219741
14.89119359834796,1.8,-0.26180390257720065,9.325464064948534
14.899191017036655,1.8,-0.2193397325487369,9.353773511634175
14.907188435725349,1.8,-0.17687556252027317,9.382082958319819
14.915185854414043,1.8,-0.13441139249180944,9.41039240500546
14.923183273102737,1.8,-0.09194722246334572,9.438701851691103
14.931180691791429,1.8,-0.04948305243489143,9.46701129837674
14.939178110480123,1.8,-0.007018882406427729,9.495320745062381
14.947175529168817,1.8,0.035445287622036026,9.523630191748024
14.95517294785751,1.8,0.07790945765049972,9.551939638433666
14.963170366546205,1.8,0.12037362767896348,9.58024908511931
14.971167785234899,1.8,0.16283779770742718,9.60855853180495
14.979165203923593,1.8,0.20530196773589088,9.636867978490594
14.987162622612287,1.8,0.2477661377643547,9.665177425176235
14.99516004130098,1.8,0.2902303077928184,9.693486871861879
15.003157459989675,1.568370332128695,0.6736189984511796,9.294751333677516
15.011154878678369,1.9069660522680654,1.183592627216785,9.262694470412589
15.019152297367063,1.9177733748203545,1.313280497844255,9.35996037338319
15.027149716055757,1.9285806973726436,1.442968368471725,9.457226276353794
15.03514713474445,1.939388019924933,1.572656239099195,9.554492179324395
15.043144553433144,1.950195342477222,1.702344109726665,9.651758082294998
15.051141972121838,1.9610026650295111,1.832031980354135,9.749023985265602
15.05913939081053,1.971809987581798,1.9617198509815763,9.846289888236182
15.067136809499225,1.9826173101340872,2.091407721609046,9.943555791206784
15.075134228187919,1.9934246326863763,2.2210955922365163,10.040821694177387
15.083131646876613,1.3197470314918502,-0.5144295302019821,9.286835312338766
15.091129065565307,2.083931580639199,1.0899572378994995,10.189957237899499
15.099126484254,2.0235737037433954,1.0522335648396222,10.152233564839621
15.107123902942694,1.9632158268475919,1.014509891779745,10.114509891779743
15.115121321631388,1.9028579499517884,0.9767862187198677,10.076786218719867
15.123118740320082,1.8425000730559846,0.9390625456599905,10.03906254565999
15.131116159008776,1.782142196160181,0.9013388726001133,10.001338872600112
15.13911357769747,1.7217843192643774,0.8636151995402359,9.963615199540236
15.147110996386164,1.6614264423685738,0.8258915264803586,9.925891526480358
15.155108415074858,1.60106856547277,0.7881678534204815,9.88816785342048
15.163105833763552,1.5407106885769666,0.7504441803606041,9.850444180360604
15.171103252452246,1.480352811681163,0.7127205073007268,9.812720507300726
15.17910067114094,1.4199949347853593,0.6749968342408497,9.774996834240849
15.187098089829632,1.3596370578895691,0.6372731611809808,9.73727316118098
15.195095508518326,1.3095508518326124,0.6238771295815309,9.695224574083694
15.20309292720702,1.8453536396490133,0.8151178798830045,9.8
15.211090345895714,1.7773712365030414,0.8226287634969587,9.784914157668695
15.219087764584408,1.7518475598369967,0.8481524401630034,9.767898373224664
15.227085183273102,1.726323883170952,0.8736761168290482,9.750882588780636
15.235082601961796,1.700800206504907,0.8991997934950929,9.733866804336605
15.24308002065049,1.6752765298388623,0.9247234701611377,9.716851019892575
15.251077439339184,1.6497528531728176,0.9502471468271825,9.699835235448544
15.259074858027878,1.624229176506773,0.9757708234932272,9.682819451004516
15.267072276716572,1.5987054998407282,1.001294500159272,9.665803666560485
15.275069695405266,1.5731818231746835,1.0268181768253166,9.648787882116455
15.28306711409396,1.5476581465086388,1.0523418534913613,9.631772097672426
15.291064532782654,1.522134469842594,1.077865530157406,9.614756313228396
15.299061951471348,1.5530975735673778,1.0469024264326223,9.706195147134755
15.307059370160042,1.6854315706664675,0.8291368586670648,9.8
15.315056788848734,1.6473486245298363,0.9053027509403273,9.8
15.323054207537428,1.6092656783931967,0.9814686432136067,9.8
15.331051626226122,1.6,1.025215109275511,9.79159496357483
15.339049044914816,1.6,1.058537687145069,9.78048743761831
15.34704646360351,1.6,1.0918602650146267,9.769379911661792
15.355043882292204,1.6,1.1251828428841846,9.758272385705272
15.363041300980898,1.6,1.1585054207537422,9.747164859748752
15.371038719669592,1.6,1.1918279986233,9.736057333792234
15.379036138358286,1.6,1.2251505764928579,9.724949807835714
15.38703355704698,1.6,1.2584731543624155,9.713842281879195
15.395030975735674,1.6,1.2917957322319733,9.702734755922675
15.403028394424368,1.6567372225090349,0.9,9.68652555498193
15.411025813113062,1.603165332989158,1.2,9.796834667010843
15.419023231801756,1.6156612996902422,1.2,9.784338700309759
15.42702065049045,1.6281572663913266,1.2,9.771842733608674
15.435018069179142,1.6406532330924082,1.2,9.759346766907592
15.443015487867836,1.6531491997934924,1.2,9.746850800206508
15.45101290655653,1.6656451664945766,1.2,9.734354833505423
15.459010325245224,1.678141133195661,1.2,9.721858866804338
15.467007743933918,1.6906370998967453,1.2,9.709362900103255
15.475005162622612,1.6331612459129703,0.9994837377389109,9.7
15.483002581311306,1.6,0.9636598301027756,9.7
15.491,2.3,1.3,10.0
