accel_time_list,vertical_Accel_x,vertical_Accel_y,vertical_Accel_z
0.0,0.1,2.667,10.173
0.007998420221169037,-0.6633172456773483,2.858963230285375,9.719175427917156
0.015996840442338074,-0.5899372436482745,2.8128805890111166,9.713525167760917
0.02399526066350711,-0.5165572416192008,2.7667979477368583,9.707874907604678
0.03199368088467615,-0.44317723959012706,2.7207153064626,9.702224647448439
0.03999210110584518,-0.36979723756105337,2.6746326651883416,9.6965743872922
0.04799052132701422,-0.2964172355319795,2.6285500239140833,9.690924127135961
0.05598894154818326,-0.22303723350290583,2.582467382639825,9.685273866979724
0.0639873617693523,-0.14965723147383214,2.5363847413655667,9.679623606823485
0.07198578199052133,-0.07627722944475845,2.4903021000913084,9.673973346667246
0.07998420221169036,-0.0028972274156847666,2.44421945881705,9.668323086511007
0.08798262243285941,0.07048277461338914,2.3981368175427917,9.662672826354768
0.09598104265402845,0.14386277664246283,2.3520541762685334,9.65702256619853
0.10397946287519748,0.21724277867153652,2.305971534994275,9.65137230604229
0.11197788309636653,0.2906227807006103,2.259888893720017,9.645722045886053
0.11997630331753556,0.19526066350711285,2.4307630331753556,9.505838862559242
0.1279747235387046,0.29753234547163393,2.0002091507188995,9.389753234547165
0.13597314375987363,0.2772831803547503,2.0101312416261723,9.387728318035476
0.14397156398104266,0.2570340152378667,2.0200533325334455,9.385703401523786
0.1519699842022117,0.23678485012098305,2.0299754234407184,9.383678485012098
0.15996840442338073,0.21653568500409942,2.039897514347991,9.38165356850041
0.1679668246445498,0.1962865198872157,2.0498196052552644,9.379628651988721
0.17596524486571882,0.17603735477033208,2.059741696162537,9.377603735477033
0.18396366508688786,0.15578818965344846,2.0696637870698105,9.375578818965344
0.1919620853080569,0.13553902453656483,2.0795858779770833,9.373553902453656
0.19996050552922592,0.11528985941968117,2.089507968884356,9.371528985941968
0.20795892575039496,0.002053712480251657,2.3281532385466064,9.523775671406003
0.215957345971564,-0.1,2.315685660751681,9.430775267276536
0.22395576619273305,-0.1,2.3266602373342153,9.438029648407364
0.23195418641390209,-0.1,2.3376348139167495,9.44528402953819
0.23995260663507112,-0.1,2.3486093904992837,9.452538410669018
0.24795102685624015,-0.1,2.359583967081818,9.459792791799845
0.2559494470774092,-0.1,2.370558543664352,9.467047172930673
0.2639478672985782,-0.1,2.3815331202468863,9.474301554061501
0.27194628751974725,-0.1,2.3925076968294205,9.481555935192329
0.2799447077409163,-0.1,2.403482273411955,9.488810316323157
0.2879431279620853,-0.1,2.4144568499944894,9.496064697453985
0.29594154818325435,-0.1,2.4254314265770236,9.503319078584811
0.3039399684044234,0.048999473407056605,2.6372001053185885,9.516980516061084
0.3119383886255924,0.1,2.4060029047546245,9.405696835346278
0.31993680884676146,0.1,2.395854371570776,9.398988482902716
0.32793522906793054,0.1,2.3857058383869267,9.392280130459156
0.3359336492890996,0.1,2.375557305203078,9.385571778015594
0.3439320695102686,0.1,2.365408772019229,9.378863425572034
0.35193048973143765,0.1,2.3552602388353803,9.372155073128472
0.3599289099526067,0.1,2.3451117056515316,9.365446720684911
0.3679273301737757,0.1,2.3349631724676825,9.35873836824135
0.37592575039494475,0.1,2.324814639283834,9.352030015797789
0.3839241706161138,0.1,2.3146661060999847,9.345321663354227
0.3919225908372828,0.1,2.304517572916136,9.338613310910665
0.39992101105845185,0.1,2.294369039732287,9.331904958467105
0.4079194312796209,0.0,2.4929478672985756,9.29019431279621
0.4159178515007899,0.0,2.4789536937946965,9.28435922132192
0.42391627172195895,0.0,2.468805160610848,9.277650868878357
0.431914691943128,0.0,2.4586566274269988,9.270942516434795
0.439913112164297,0.0,2.44850809424315,9.264234163991235
0.4479115323854661,0.0,2.438359561059301,9.257525811547673
0.45590995260663514,0.0,2.4282110278754523,9.250817459104113
0.46390837282780417,0.0,2.418062494691603,9.24410910666055
0.4719067930489732,0.0,2.4079139615077545,9.23740075421699
0.47990521327014224,0.0,2.3977654283239054,9.230692401773428
0.4879036334913113,0.0,2.3876168951400567,9.223984049329868
0.4959020537124803,0.0,2.3774683619562076,9.217275696886306
0.5039004739336493,-0.054976303317533184,2.4151232227488175,9.203995260663506
0.5118988941548184,-0.1,2.375805961947936,8.688845319046637
0.5198973143759874,-0.1,2.3877166529294596,8.659807576069785
0.5278957345971564,-0.1,2.399627343910983,8.630769833092932
0.5358941548183255,-0.1,2.4115380348925064,8.601732090116078
0.5438925750394945,-0.1,2.42344872587403,8.572694347139226
0.5518909952606635,-0.1,2.4353594168555532,8.543656604162374
0.5598894154818326,-0.1,2.447270107837077,8.51461886118552
0.5678878357030016,-0.1,2.4591807988186005,8.485581118208668
0.5758862559241706,-0.1,2.471091489800124,8.456543375231815
0.5838846761453397,-0.1,2.4830021807816474,8.427505632254961
0.5918830963665087,-0.1,2.494912871763171,8.398467889278109
0.5998815165876777,-0.1,2.506823562744694,8.369430146301257
0.6078799368088468,0.2971614941650103,2.346990538313883,6.560174540080518
0.6158783570300158,0.27136013861285213,2.3469045337953762,6.516312235641849
0.6238767772511848,0.24555878306069398,2.346818529276869,6.4724499312031805
0.6318751974723539,0.2197574275085358,2.346732524758362,6.428587626764511
0.6398736176935229,0.19395607195637762,2.3466465202398545,6.384725322325842
0.6478720379146921,0.16815471640421908,2.3465605157213476,6.340863017887172
0.6558704581358611,0.1423533608520609,2.3464745112028402,6.2970007134485035
0.6638688783570301,0.11655200529990273,2.346388506684333,6.253138409009835
0.6718672985781992,0.09075064974774455,2.346302502165826,6.209276104571166
0.6798657187993682,0.06494929419558637,2.3462164976473185,6.165413800132496
0.6878641390205372,0.03914793864342819,2.3461304931288116,6.1215514956938275
0.6958625592417063,0.013346583091270015,2.3460444886103042,6.077689191255159
0.7038609794628753,-0.7721958925750665,0.9512061611373576,6.236561611374473
0.7118593996840443,-1.9603159557662102,-0.290834755134291,6.194405687203781
0.7198578199052134,-2.328390019514913,-0.5352567605241149,5.936573180931141
0.7278562401263824,-2.210483895548739,-0.53074000557569,5.957274974444755
0.7358546603475514,-2.0925777715825653,-0.526223250627265,5.977976767958369
0.7438530805687205,-1.9746716476163912,-0.5217064956788402,5.998678561471983
0.7518515007898895,-1.8567655236502172,-0.5171897407304153,6.019380354985596
0.7598499210110585,-1.7388593996840433,-0.5126729857819905,6.04008214849921
0.7678483412322276,-1.6209532757178693,-0.5081562308335656,6.060783942012824
0.7758467614533966,-1.5030471517516952,-0.5036394758851408,6.081485735526439
0.7838451816745656,-1.3851410277855214,-0.4991227209367159,6.1021875290400525
0.7918436018957347,-1.2672349038193473,-0.49460596598829104,6.122889322553666
0.7998420221169037,-1.1493287798531733,-0.49008921103986613,6.14359111606728
0.8078404423380727,-4.103095929548586,-2.476974824375651,7.779233168632987
0.8158388625592418,-3.7601849349601695,-2.6680860139154987,7.901932338408793
0.8238372827804108,-3.4172739403717522,-2.8591972034553463,8.0246315081846
0.8318357030015798,-3.074362945783335,-3.0503083929951935,8.147330677960404
0.8398341232227489,-2.731451951194918,-3.241419582535041,8.270029847736211
0.8478325434439179,-2.3885409566065006,-3.4325307720748883,8.392729017512016
0.8558309636650869,-2.0456299620180833,-3.623641961614736,8.515428187287823
0.863829383886256,-1.702718967429666,-3.8147531511545836,8.638127357063627
0.871827804107425,-1.3598079728412489,-4.005864340694431,8.760826526839434
0.879826224328594,-1.0168969782528317,-4.196975530234278,8.883525696615239
0.8878246445497631,-0.6739859836644144,-4.388086719774126,9.006224866391046
0.8958230647709322,-0.33107498907599275,-4.579197909313976,9.128924036166852
0.9038214849921012,-1.2160015797788342,-6.49852132701419,8.994241706161121
0.9118199052132703,-3.0208983886255916,-4.9737737914691955,9.848963981042655
0.9198183254344393,-2.954351532385465,-5.008246982622434,9.850563665086888
0.9278167456556083,-2.8878046761453384,-5.042720173775672,9.852163349131123
0.9358151658767774,-2.8212578199052123,-5.0771933649289105,9.853763033175357
0.9438135860979464,-2.7547109636650857,-5.11166655608215,9.85536271721959
0.9518120063191154,-2.688164107424959,-5.146139747235388,9.856962401263823
0.9598104265402845,-2.621617251184833,-5.180612938388626,9.858562085308057
0.9678088467614535,-2.5550703949447064,-5.215086129541866,9.860161769352292
0.9758072669826225,-2.48852353870458,-5.249559320695104,9.861761453396525
0.9838056872037916,-2.4219766824644537,-5.284032511848342,9.863361137440759
0.9918041074249606,-2.355429826224327,-5.3185057030015805,9.864960821484992
0.9998025276461296,-2.2888829699842006,-5.35297889415482,9.866560505529227
1.0078009478672987,-3.0964265402844866,-4.410848341232086,9.844772511848339
1.0157993680884676,-4.416110584518162,-4.3162270367862785,10.299776348454078
1.0237977883096367,-3.7144948608429336,-4.439443079203484,10.711606205995357
1.031796208530806,-3.4785908372827725,-4.6318988941548245,10.71595102685624
1.0397946287519748,-3.242686813722618,-4.82435470910616,10.720295847717122
1.047793048973144,-3.0067827901624566,-5.016810524057501,10.724640668578004
1.0557914691943129,-2.7708787666023023,-5.209266339008837,10.728985489438886
1.063789889415482,-2.5349747430421417,-5.401722153960178,10.733330310299769
1.071788309636651,-2.2990707194819873,-5.594177968911514,10.73767513116065
1.07978672985782,-2.0631666959218258,-5.786633783862855,10.742019952021533
1.087785150078989,-1.8272626723616714,-5.97908959881419,10.746364772882414
1.0957835703001582,-1.5913586488015103,-6.171545413765532,10.750709593743295
1.103781990521327,-2.1698341232227465,-8.110028436018947,10.55942180094787
1.1117804107424962,-2.2225804699842024,-8.65945596366509,10.430615422590837
1.1197788309636652,-2.2560738546603476,-9.116365718799365,10.317137835703003
1.1277772511848343,-2.1083093936079695,-10.103760663507112,9.54983989549155
1.1357756714060032,-1.9093743265686398,-10.363709320695103,9.168889496496131
1.1437740916271724,-1.7104392595293043,-10.6236579778831,8.787939097500704
1.1517725118483413,-1.5115041924899741,-10.883606635071091,8.406988698505286
1.1597709320695104,-1.3125691254506386,-11.143555292259087,8.026038299509857
1.1677693522906794,-1.1136340584113087,-11.403503949447078,7.645087900514439
1.1757677725118485,-0.9146989913719732,-11.663452606635076,7.264137501519011
1.1837661927330174,-0.7157639243326432,-11.923401263823067,6.883187102523593
1.1917646129541866,-0.5168288572933077,-12.183349921011065,6.5022367035281645
1.1997630331753555,-0.3178937902539778,-12.443298578199055,6.121286304532747
1.2077614533965246,-0.5227345971563949,-10.713116903633457,5.787099526066358
1.2157598736176936,-0.41502766368263816,-9.232424890293135,6.133144040723187
1.2237582938388627,-0.18316234860452396,-9.176080463401789,6.130566771985255
1.2317567140600316,0.04870296647358385,-9.119736036510444,6.127989503247323
1.2397551342812008,0.280568281551698,-9.063391609619096,6.12541223450939
1.2477535545023697,0.5124335966298058,-9.007047182727751,6.1228349657714585
1.2557519747235388,0.7442989117079201,-8.950702755836403,6.1202576970335265
1.2637503949447078,0.9761642267860279,-8.894358328945058,6.117680428295594
1.271748815165877,1.2080295418641418,-8.838013902053712,6.115103159557662
1.2797472353870458,1.4398948569422498,-8.781669475162365,6.11252589081973
1.287745655608215,1.671760172020364,-8.725325048271019,6.109948622081797
1.2957440758293841,1.9036254870984783,-8.66898062137967,6.107371353343865
1.303742496050553,2.144274881516593,-8.17712638230647,5.655236966824613
1.3117409162717222,2.359259083728278,-8.256463480219155,4.905384524889914
1.319739336492891,2.351260663507109,-8.351848895835435,4.6885762831501445
1.3277377567140602,2.34326224328594,-8.44723431145172,4.4717680414103675
1.3357361769352292,2.335263823064771,-8.542619727067999,4.254959799670597
1.3437345971563983,2.3272654028436017,-8.638005142684282,4.03815155793082
1.3517330173775672,2.319266982622433,-8.733390558300563,3.821343316191049
1.3597314375987364,2.3112685624012634,-8.828775973916846,3.6045350744512725
1.3677298578199053,2.3032701421800947,-8.924161389533126,3.3877268327115018
1.3757282780410744,2.2952717219589256,-9.019546805149409,3.1709185909717252
1.3837266982622434,2.2872733017377564,-9.11493222076569,2.9541103492319545
1.3917251184834125,2.2792748815165873,-9.210317636381973,2.7373021074921775
1.3997235387045814,2.2712764612954186,-9.305703051998254,2.5204938657524067
1.4077219589257506,1.5879794628750763,-9.522052132701454,1.9190837282779838
1.4157203791469195,1.235285318707066,-9.506867724585973,2.041947707545664
1.4237187993680886,1.2052687754051505,-9.465976924578873,2.228247989775817
1.4317172195892576,1.1752522321032357,-9.425086124571774,2.4145482720059652
1.4397156398104267,1.14523568880132,-9.384195324564674,2.6008485542361184
1.4477140600315956,1.1152191454994052,-9.343304524557574,2.787148836466266
1.4557124802527648,1.0852026021974894,-9.302413724550473,2.97344911869642
1.4637109004739337,1.0551860588955746,-9.261522924543373,3.159749400926568
1.4717093206951029,1.0251695155936589,-9.220632124536273,3.3460496831567212
1.4797077409162718,0.9951529722917442,-9.179741324529173,3.532349965386869
1.487706161137441,0.9651364289898285,-9.138850524522072,3.7186502476170227
1.4957045813586098,0.9351198856879137,-9.097959724514972,3.904950529847171
1.503703001579779,0.9217684044233811,-9.27838704581359,4.154776619273304
1.511701421800948,0.9441639810426541,-9.51034123222749,4.252357345971564
1.519699842022117,0.7848729406454512,-9.837966147596484,4.328584969532837
1.527698262243286,0.6743217749515065,-9.883762813206152,4.264223708680785
1.5356966824644551,0.5624451376807229,-9.920920031195633,4.195882776411302
1.5436951026856243,0.4505685004099392,-9.958077249185116,4.127541844141818
1.5516935229067932,0.3386918631391586,-9.995234467174596,4.0592009118723364
1.5596919431279623,0.226815225868375,-10.032391685164079,3.9908599796028534
1.5676903633491313,0.11493858859759443,-10.06954890315356,3.922519047333372
1.5756887835703004,0.0030619513268107523,-10.106706121143041,3.8541781150638887
1.5836872037914693,-0.10881468594396981,-10.143863339132523,3.7858371827944075
1.5916856240126385,-0.22069132321475338,-10.181020557122004,3.717496250524924
1.5996840442338074,-0.37190916271722996,-10.227312796208533,3.686466034755141
1.6076824644549765,-0.7668557887610021,-10.099678740690589,3.892448544346649
1.6156808846761455,-0.7730586452590515,-10.090292839410646,3.904282941612664
1.6236793048973146,-0.7792615017571011,-10.080906938130703,3.9161173388786796
1.6316777251184835,-0.7854643582551505,-10.07152103685076,3.9279517361446947
1.6396761453396527,-0.7916672147532,-10.062135135570816,3.9397861334107107
1.6476745655608216,-0.7978700712512494,-10.052749234290873,3.951620530676726
1.6556729857819907,-0.804072927749299,-10.043363333010928,3.9634549279427413
1.6636714060031597,-0.8102757842473483,-10.033977431730987,3.9752893252087564
1.6716698262243288,-0.8164786407453979,-10.024591530451042,3.9871237224747724
1.6796682464454977,-0.8226814972434472,-10.0152056291711,3.9989581197407875
1.6876666666666669,-0.8288843537414967,-10.005819727891156,4.010792517006803
1.6956650868878358,-0.8350872102395461,-9.996433826611213,4.022626914272818
1.703663507109005,-0.8508127962085323,-9.806845971563954,3.996234597156393
1.7116619273301739,-0.9889004739336517,-9.2199962085308,3.886476777251183
1.719660347551343,-1.0507540751113043,-9.130092919718509,3.993554879362347
1.727658767772512,-1.1079246014648865,-9.050835846617836,4.111077121930204
1.735657187993681,-1.1650951278184705,-8.971578773517159,4.228599364498064
1.74365560821485,-1.222265654172053,-8.892321700416487,4.346121607065921
1.7516540284360191,-1.2794361805256367,-8.81306462731581,4.463643849633781
1.759652448657188,-1.3366067068792191,-8.733807554215137,4.581166092201638
1.7676508688783572,-1.3937772332328031,-8.65455048111446,4.698688334769498
1.7756492890995261,-1.4509477595863856,-8.575293408013787,4.816210577337356
1.7836477093206953,-1.5081182859399695,-8.49603633491311,4.933732819905216
1.7916461295418644,-1.5652888122935533,-8.416779261812435,5.051255062473076
1.7996445497630333,-1.6224593386471358,-8.33752218871176,5.1687773050409325
1.8076429699842025,-1.3808652601539047,-7.795535731879253,4.925231157315397
1.8156413902053714,-1.466267747031547,-7.715121507075028,4.9778659226418
1.8236398104265406,-1.551670233909192,-7.634707282270801,5.030500687968203
1.8316382306477095,-1.6370727207868343,-7.554293057466576,5.083135453294605
1.8396366508688786,-1.722475207664479,-7.473878832662348,5.135770218621008
1.8476350710900475,-1.8078776945421213,-7.393464607858123,5.18840498394741
1.8556334913112167,-1.8932801814197662,-7.313050383053896,5.241039749273813
1.8636319115323856,-1.9786826682974086,-7.2326361582496705,5.293674514600216
1.8716303317535548,-2.064085155175053,-7.1522219334454435,5.346309279926619
1.8796287519747237,-2.1494876420526956,-7.071807708641218,5.398944045253021
1.8876271721958928,-2.2348901289303402,-6.99139348383699,5.4515788105794245
1.8956255924170617,-2.3202926158079826,-6.910979259032765,5.504213575905826
1.903624012638231,-2.304578725645078,-6.881909952606634,5.395489204844652
1.9116224328593998,-2.3419046866771995,-6.851915876777251,5.314171932596101
1.919620853080569,-2.22,-6.747,5.019
1.9276192733017379,-2.22,-6.747,5.019
1.935617693522907,-2.22,-6.747,5.019
1.943616113744076,-2.22,-6.747,5.019
1.951614533965245,-2.22,-6.747,5.019
1.959612954186414,-2.22,-6.747,5.019
1.9676113744075832,-2.22,-6.747,5.019
1.975609794628752,-2.22,-6.747,5.019
1.9836082148499212,-2.22,-6.747,5.019
1.9916066350710901,-2.22,-6.747,5.019
1.9996050552922593,-2.22,-6.747,5.019
2.007603475513428,-2.189533965244863,-6.81113902053713,4.98212006319115
2.0156018957345974,-2.0836018957345974,-7.0904186958653375,5.075564471318843
2.0236003159557665,-2.0916003159557666,-7.091705797969893,5.071151549817508
2.031598736176935,-2.0995987361769353,-7.092992900074449,5.066738628316173
2.0395971563981043,-2.1075971563981044,-7.094280002179005,5.062325706814839
2.0475955766192735,-2.1155955766192736,-7.095567104283561,5.057912785313504
2.0555939968404426,-2.1235939968404427,-7.096854206388117,5.05349986381217
2.063592417061612,-2.131592417061612,-7.098141308492673,5.049086942310835
2.0715908372827805,-2.1395908372827805,-7.099428410597229,5.0446740208095004
2.0795892575039496,-2.1475892575039497,-7.100715512701785,5.040261099308165
2.0875876777251188,-2.155587677725119,-7.102002614806341,5.035848177806831
2.095586097946288,-2.163586097946288,-7.103289716910897,5.031435256305496
2.1035845181674566,-2.136573723012109,-7.084721695629277,5.0218696682464445
2.1115829383886258,-1.0576177350960343,-6.647515839361436,5.4788386131204785
2.119581358609795,-0.9974892602754907,-6.6820353371580605,5.49034511238602
2.127579778830964,-0.9373607854549472,-6.716554834954685,5.501851611651562
2.1355781990521328,-0.877232310634407,-6.751074332751308,5.513358110917103
2.143576619273302,-0.8171038358138634,-6.785593830547933,5.524864610182645
2.151575039494471,-0.7569753609933199,-6.820113328344558,5.5363711094481864
2.15957345971564,-0.6968468861727763,-6.854632826141183,5.547877608713728
2.167571879936809,-0.6367184113522362,-6.889152323937806,5.559384107979269
2.175570300157978,-0.5765899365316925,-6.92367182173443,5.57089060724481
2.183568720379147,-0.516461461711149,-6.958191319531055,5.582397106510352
2.1915671406003163,-0.4563329868906054,-6.99271081732768,5.5939036057758935
2.199565560821485,-0.39620451207006524,-7.027230315124303,5.605410105041434
2.207563981042654,-0.33607603724952173,-7.061749812920928,5.616916604306977
2.2155624012638233,-0.2759475624289781,-7.0962693107175525,5.628423103572518
2.2235608214849925,-0.2158190876084346,-7.130788808514177,5.63992960283806
2.231559241706161,-0.43933175355449877,-7.762426540284345,6.143905213270129
2.2395576619273303,-0.9512591727299022,-8.914412122021227,6.178699352513184
2.2475560821484994,-0.9608347462341188,-8.874870636139109,6.178023429677592
2.2555545023696686,-0.9704103197383355,-8.83532915025699,6.177347506842
2.2635529225908373,-0.9799858932425516,-8.795787664374876,6.176671584006408
2.2715513428120064,-0.9895614667467681,-8.756246178492757,6.175995661170816
2.2795497630331756,-0.9991370402509848,-8.716704692610639,6.175319738335225
2.2875481832543447,-1.0087126137552014,-8.67716320672852,6.174643815499633
2.2955466034755134,-1.0182881872594176,-8.637621720846404,6.173967892664042
2.3035450236966826,-1.027863760763634,-8.598080234964288,6.173291969828449
2.3115434439178517,-0.8834293838862504,-8.342923538704573,5.904482464454967
2.319541864139021,-0.2835292259082546,-7.477259083728116,5.259208530805597
2.32754028436019,0.20577017377567847,-7.142885308056874,5.0100322906793
2.3355387045813587,0.32691957872564675,-7.17967804107425,4.913198083201684
2.343537124802528,0.44806898367562176,-7.216470774091628,4.816363875724063
2.351535545023697,0.5692183886255968,-7.253263507109006,4.719529668246443
2.359533965244866,0.6903677935755718,-7.2900562401263835,4.6226954607688215
2.367532385466035,0.81151719852554,-7.326848973143759,4.525861253291206
2.375530805687204,0.9326666034755151,-7.363641706161138,4.4290270458135845
2.383529225908373,1.05381600842549,-7.4004344391785155,4.332192838335964
2.3915276461295423,1.174965413375465,-7.437227172195893,4.235358630858343
2.399526066350711,1.200511848341227,-7.3906966824644496,4.021943127962076
2.40752448657188,0.7807667422213098,-6.925275224946766,3.713153650662822
2.4155229067930493,0.9602095610962349,-6.807472405384981,3.791746823270832
2.4235213270142184,1.1396523799711598,-6.6896695858231965,3.8703399958788416
2.431519747235387,1.319095198846075,-6.571866766261419,3.948933168486847
2.4395181674565563,1.498538017721,-6.454063946699634,4.027526341094856
2.4475165876777254,1.677980836595925,-6.33626112713785,4.1061195137028665
2.4555150078988945,1.8574236554708499,-6.218458307576065,4.184712686310876
2.4635134281200632,2.036866474345765,-6.100655488014287,4.263305858918882
2.4715118483412324,2.2163092932206903,-5.9828526684525025,4.341899031526891
2.4795102685624015,2.395752112095615,-5.865049848890719,4.420492204134901
2.4875086887835707,2.57519493097054,-5.747247029328934,4.499085376742911
2.4955071090047394,2.7546377498454553,-5.629444209767156,4.5776785493509164
2.5035055292259085,2.7535939968404453,-5.544802001053185,4.24720800421274
2.5115039494470777,2.5812040723187626,-5.345072108127085,3.7544784272424097
2.519502369668247,2.5556979989468123,-5.3560921537651405,3.7782959452343357
2.5275007898894155,2.5301919255748633,-5.367112199403195,3.80211346322626
2.5354992101105847,2.504685852202913,-5.37813224504125,3.825930981218186
2.543497630331754,2.4791797788309626,-5.389152290679305,3.8497484992101114
2.551496050552923,2.453673705459012,-5.40017233631736,3.8735660172020374
2.5594944707740916,2.428167632087063,-5.411192381955415,3.8973835351939616
2.567492890995261,2.4026615587151126,-5.42221242759347,3.9212010531858876
2.57549131121643,2.3771554853431622,-5.433232473231525,3.9450185711778136
2.583489731437599,2.351649411971212,-5.444252518869581,3.968836089169739
2.5914881516587682,2.3261433385992616,-5.455272564507636,3.992653607161665
2.599486571879937,2.3006372652273126,-5.466292610145691,4.01647112515359
2.607484992101106,0.8623352698364162,-5.272564966281064,3.658555215818173
2.615483412322275,0.7524214951842209,-5.034504459053148,3.7666628955817174
2.6234818325434444,0.6425077205320254,-4.796443951825232,3.8747705753452615
2.631480252764613,0.5325939458798361,-4.558383444597329,3.9828782551088
2.639478672985782,0.4226801712276408,-4.320322937369413,4.090985934872344
2.6474770932069513,0.31276639657544547,-4.082262430141497,4.199093614635888
2.6554755134281205,0.20285262192325004,-3.844201922913581,4.307201294399432
2.663473933649289,0.09293884727106083,-3.606141415685678,4.41530897416297
2.6714723538704583,-0.016974927381134597,-3.368080908457762,4.523416653926515
2.6794707740916275,-0.12688870203332991,-3.130020401229846,4.631524333690059
2.6874691943127966,-0.23680247668552523,-2.8919598940019298,4.739632013453603
2.6954676145339653,-0.34671625133771466,-2.6538993867740266,4.847739693217141
2.7034660347551345,0.7107946287521314,-3.52178515007915,4.905714060031512
2.7114644549763036,1.7263418876676389,-5.946921296763145,4.976007613189462
2.7194628751974728,1.669757319081708,-6.195638129810777,4.7432876205841685
2.7274612954186415,1.6131727504957807,-6.444354962858395,4.510567627978887
2.7354597156398106,1.55658818190985,-6.693071795906028,4.277847635373593
2.7434581358609798,1.5000036133239192,-6.941788628953661,4.045127642768299
2.751456556082149,1.4434190447379884,-7.190505462001292,3.8124076501630046
2.7594549763033176,1.3868344761520608,-7.4392222950489115,3.5796876575577237
2.7674533965244867,1.33024990756613,-7.687939128096543,3.34696766495243
2.775451816745656,1.2736653389801993,-7.936655961144176,3.1142476723471355
2.783450236966825,1.2170807703942685,-8.185372794191808,2.8815276797418417
2.7914486571879937,1.1604962018083411,-8.434089627239427,2.6488076871365607
2.799447077409163,1.1039116332224104,-8.68280646028706,2.4160876945312664
2.807445497630332,0.09110426540275388,-13.222336492891172,0.5964928909950389
2.815443917851501,-1.6651841671054894,-14.539744321572757,-0.4361062664560488
2.8234423380726703,-1.549384816570118,-14.504106915920659,-0.9034806213796999
2.831440758293839,-1.4335854660347533,-14.468469510268562,-1.3708549763033249
2.839439178515008,-1.317786115499382,-14.432832104616464,-1.8382293312269762
2.8474375987361773,-1.2019867649640108,-14.397194698964366,-2.305603686150627
2.8554360189573464,-1.0861874144286396,-14.361557293312268,-2.772978041074278
2.863434439178515,-0.9703880638932748,-14.325919887660172,-3.240352395997903
2.8714328593996843,-0.8545887133579035,-14.290282482008074,-3.7077267509215543
2.8794312796208534,-0.7387893628225324,-14.254645076355976,-4.175101105845206
2.8874296998420226,-0.622990012287161,-14.219007670703878,-4.642475460768857
2.8954281200631913,-0.5071906617517963,-14.183370265051781,-5.109849815692482
2.9034265402843604,0.11757819905223117,-12.819331753554588,-3.976118483412271
2.9114249605055296,1.3943407287814822,-12.44140838150791,-1.9038592608023894
2.9194233807266987,1.2690028470739303,-12.524381004461578,-1.9200318907001381
2.9274218009478674,1.1436649653663853,-12.60735362741524,-1.936204520597886
2.9354202211690366,1.0183270836588332,-12.690326250368907,-1.9523771504956344
2.9434186413902057,0.8929892019512812,-12.773298873322574,-1.9685497803933831
2.951417061611375,0.7676513202437293,-12.856271496276241,-1.9847224102911318
2.9594154818325435,0.6423134385361842,-12.939244119229903,-2.0008950401888796
2.9674139020537127,0.5169755568286322,-13.02221674218357,-2.0170676700866284
2.975412322274882,0.39163767512108016,-13.105189365137237,-2.033240299984377
2.983410742496051,0.2662997934135283,-13.188161988090904,-2.0494129298821258
2.9914091627172197,0.14096191170598327,-13.271134611044566,-2.065585559779873
2.999407582938389,0.015624029998431155,-13.354107233998233,-2.081758189677622
3.007406003159558,1.3741671777715827,-14.04978747328315,-3.2516546789331904
3.015404423380727,1.377460644921476,-13.907697890530613,-3.481256388811459
3.023402843601896,1.3807541120713689,-13.765608307778088,-3.7108580986897146
3.031401263823065,1.8056962043735023,-13.553218175771178,-3.7832173235220767
3.039399684044234,2.2646581857487473,-13.335155982372987,-3.8428897480668516
3.0473981042654033,2.723620167123992,-13.117093788974797,-3.902562172611627
3.055396524486572,3.182582148499211,-12.89903159557662,-3.9622345971563986
3.063394944707741,3.6415441298744557,-12.680969402178428,-4.021907021701173
3.0713933649289102,4.100506111249701,-12.462907208780239,-4.081579446245948
3.0793917851500794,4.559468092624946,-12.244845015382047,-4.1412518707907235
3.0873902053712485,5.01843007400019,-12.026782821983858,-4.200924295335498
3.0953886255924172,5.47739205537541,-11.808720628585679,-4.26059671988027
3.1033870458135864,6.209805687203795,-10.304497630331685,-3.575543443917876
3.1113854660347555,6.372319692877405,-8.2128734648117,-4.548711681869917
3.1193838862559247,6.321835040513681,-8.236352698364165,-4.637554349487849
3.1273823064770934,6.27135038814996,-8.259831931916628,-4.726397017105777
3.1353807266982625,6.220865735786237,-8.283311165469092,-4.81523968472371
3.1433791469194317,6.170381083422513,-8.306790399021557,-4.904082352341642
3.151377567140601,6.119896431058789,-8.330269632574021,-4.992925019959575
3.1593759873617695,6.069411778695069,-8.353748866126484,-5.081767687577503
3.1673744075829386,6.018927126331345,-8.377228099678948,-5.170610355195435
3.175372827804108,5.968442473967622,-8.400707333231413,-5.259453022813368
3.183371248025277,5.917957821603898,-8.424186566783877,-5.3482956904313
3.1913696682464456,5.867473169240178,-8.44766580033634,-5.437138358049228
3.199368088467615,5.816988516876454,-8.471145033888805,-5.525981025667161
3.207366508688784,5.852703001579808,-7.712959978936321,-5.646490784623566
3.215364928909953,5.795221563981061,-7.077342794054289,-6.64728339077983
3.2233633491311218,6.041172985781999,-7.10179251041218,-6.559846115180235
3.231361769352291,6.287124407582949,-7.126242226770072,-6.472408839580637
3.23936018957346,6.5330758293839,-7.150691943127963,-6.384971563981038
3.247358609794629,6.779027251184852,-7.175141659485855,-6.2975342883814385
3.255357030015798,7.024978672985789,-7.199591375843746,-6.210097012781844
3.263355450236967,7.27093009478674,-7.224041092201638,-6.1226597371822455
3.271353870458136,7.516881516587691,-7.248490808559531,-6.035222461582646
3.2793522906793053,7.762832938388643,-7.272940524917423,-5.947785185983047
3.287350710900474,8.00878436018958,-7.297390241275313,-5.860347910383453
3.295349131121643,8.254735781990531,-7.321839957633205,-5.772910634783854
3.3033475513428123,7.940229067930694,-5.3420647709321525,-3.8024802527652124
3.3113459715639815,8.86583342479421,-5.970331354452493,-6.440749413818897
3.31934439178515,8.802603808098446,-6.264420636900307,-6.155584684459966
3.3273428120063193,8.739374191402677,-6.558509919348137,-5.870419955101019
3.3353412322274885,8.676144574706907,-6.852599201795968,-5.585255225742072
3.3433396524486576,8.612914958011139,-7.146688484243798,-5.300090496383125
3.3513380726698268,8.549685341315369,-7.440777766691629,-5.014925767024177
3.3593364928909955,8.486455724619605,-7.734867049139443,-4.729761037665247
3.3673349131121646,8.423226107923835,-8.028956331587274,-4.4445963083063
3.3753333333333337,8.359996491228067,-8.323045614035104,-4.159431578947353
3.383331753554503,8.296766874532297,-8.617134896482934,-3.874266849588406
3.3913301737756716,8.233537257836531,-8.911224178930748,-3.5891021202294744
3.3993285939968407,8.170307641140763,-9.20531346137858,-3.3039373908705274
3.40732701421801,4.743620853080337,-8.064983412322158,-0.8973767772511074
3.415325434439179,4.156092153765166,-6.72374091627166,-0.4476800070212299
3.4233238546603477,4.256320425384348,-6.303125650213848,-0.1719301814819084
3.431322274881517,4.171166512541901,-6.217679112241358,0.16019934111664025
3.439320695102686,4.086012599699454,-6.132232574268868,0.4923288637151889
3.447319115323855,4.000858686857006,-6.0467860362963775,0.8244583863137376
3.455317535545024,3.915704774014564,-5.961339498323893,1.1565879089122677
3.463315955766193,3.8305508611721164,-5.875892960351402,1.4887174315108163
3.471314375987362,3.7453969483296694,-5.7904464223789125,1.820846954109365
3.4793127962085313,3.660243035487222,-5.704999884406423,2.152976476707914
3.4873112164297,3.57508912264478,-5.619553346433937,2.4851059993064437
3.495309636650869,3.4899352098023324,-5.534106808461447,2.8172355219049923
3.5033080568720383,3.1199842022116737,-5.784344391785188,2.2098262243285727
3.5113064770932074,3.4465287168685617,-7.988134263647544,1.9814088467614313
3.519304897314376,3.853826048797629,-8.111398806389333,1.7206603475513325
3.5273033175355453,4.261123380726719,-8.234663349131129,1.459911848341219
3.5353017377567144,4.668420712655808,-8.357927891872922,1.1991633491311058
3.5433001579778836,5.075718044584898,-8.481192434614718,0.9384148499209926
3.5512985781990523,5.483015376513965,-8.604456977356506,0.6776663507108938
3.5592969984202214,5.890312708443055,-8.727721520098301,0.41691785150078053
3.5672954186413905,6.297610040372144,-8.850986062840096,0.1561693522906673
3.5752938388625597,6.704907372301234,-8.974250605581892,-0.10457914691944614
3.583292259083729,7.112204704230324,-9.097515148323687,-0.36532764612955937
3.5912906793048975,7.51950203615939,-9.220779691065475,-0.6260761453396579
3.5992890995260667,7.9267993680884805,-9.34404423380727,-0.8868246445497712
3.607287519747236,5.349315231700899,-8.525051869404944,0.13435214257504494
3.615285939968405,5.400971695629283,-8.438402317008945,0.21108698657188635
3.6232843601895737,5.452628159557665,-8.35175276461295,0.28782183056872346
3.631282780410743,5.504284623486048,-8.265103212216951,0.3645566745655649
3.639281200631912,5.555941087414432,-8.178453659820953,0.4412915185624063
3.647279620853081,5.607597551342816,-8.091804107424954,0.5180263625592477
3.65527804107425,5.659254015271197,-8.005154555028959,0.5947612065560849
3.663276461295419,5.7109104791995815,-7.91850500263296,0.6714960505529263
3.671274881516588,5.762566943127966,-7.8318554502369615,0.7482308945497677
3.6792733017377572,5.81422340705635,-7.745205897840962,0.8249657385466092
3.687271721958926,5.865879870984731,-7.658556345444968,0.9017005825434462
3.695270142180095,5.917536334913114,-7.571906793048969,0.9784354265402877
3.7032685624012642,6.240718009478741,-6.84188467614518,0.450581358609651
3.7112669826224334,6.685864928909683,-6.920691153238596,-3.968496050552848
3.719265402843602,5.996851609740155,-6.987952987960994,-3.827374189682411
3.727263823064771,6.063045432260176,-6.902360698008023,-3.908277750540214
3.7352622432859404,6.129239254780196,-6.816768408055052,-3.989181311398017
3.7432606635071095,6.195433077300217,-6.731176118102081,-4.07008487225582
3.751259083728278,6.261626899820234,-6.645583828149114,-4.150988433113619
3.7592575039494474,6.327820722340254,-6.559991538196143,-4.231891993971422
3.7672559241706165,6.394014544860275,-6.474399248243172,-4.312795554829226
3.7752543443917856,6.460208367380296,-6.388806958290201,-4.393699115687029
3.7832527646129543,6.526402189900313,-6.303214668337234,-4.474602676544827
3.7912511848341235,6.5925960124203336,-6.217622378384263,-4.55550623740263
3.7992496050552926,6.658789834940355,-6.132030088431292,-4.636409798260433
3.807248025276462,7.232978409689367,-6.612929261014599,-4.702185887309154
3.8152464454976305,7.841829383886268,-6.784143534190922,-4.743486120514532
3.8232448657187996,7.953976026856235,-6.737289573459718,-4.25513973143759
3.8312432859399688,7.825801342812,-6.792478672985785,-4.017986571879925
3.839241706161138,7.697626658767764,-6.847667772511852,-3.7808334123222602
3.847240126382307,7.569451974723529,-6.902856872037919,-3.543680252764595
3.8552385466034758,7.4412772906793005,-6.958045971563983,-3.3065270932069435
3.863236966824645,7.3131026066350655,-7.01323507109005,-3.0693739336492785
3.871235387045814,7.1849279225908305,-7.068424170616117,-2.8322207740916134
3.879233807266983,7.0567532385465945,-7.123613270142184,-2.5950676145339484
3.887232227488152,6.928578554502367,-7.178802369668248,-2.3579144549762967
3.895230647709321,6.8004038704581315,-7.233991469194315,-2.1207612954186317
3.90322906793049,7.804575039494318,-7.249611374407645,-2.1544834123220657
3.9112274881516593,7.1022860418896165,-6.388495591907458,-1.7001053355755937
3.919225908372828,7.052231412118432,-6.424445480643463,-1.5824511542577575
3.927224328593997,7.002176782347244,-6.460395369379471,-1.4647969729399144
3.9352227488151663,6.952122152576057,-6.496345258115478,-1.3471427916220715
3.9432211690363355,6.902067522804869,-6.532295146851486,-1.2294886103042286
3.951219589257504,6.8520128930336845,-6.568245035587491,-1.1118344289863922
3.9592180094786733,6.801958263262497,-6.604194924323499,-0.9941802476685493
3.9672164296998425,6.75190363349131,-6.640144813059507,-0.8765260663507064
3.9752148499210116,6.701849003720121,-6.676094701795514,-0.7588718850328635
3.9832132701421803,6.6517943739489365,-6.71204459053152,-0.6412177037150271
3.9912116903633494,6.601739744177749,-6.747994479267527,-0.5235635223971842
3.9992101105845186,6.501838072669757,-6.754845181674527,-0.38105529225904594
4.007208530805688,6.175821800947899,-6.711750710900534,-1.2936398104265752
4.015206951026856,6.315172564507635,-6.915482499561174,-1.4599313147270485
4.023205371248026,6.337301527119537,-6.877445567842723,-1.5010787431981767
4.031203791469195,6.359430489731438,-6.839408636124276,-1.5422261716693002
4.039202211690363,6.381559452343338,-6.801371704405829,-1.5833736001404235
4.047200631911533,6.403688414955241,-6.763334772687378,-1.6245210286115517
4.055199052132702,6.4258173775671406,-6.725297840968931,-1.6656684570826752
4.06319747235387,6.4479463401790404,-6.687260909250485,-1.7068158855537987
4.07119589257504,6.470075302790943,-6.649223977532033,-1.7479633140249269
4.079194312796209,6.492204265402843,-6.611187045813587,-1.7891107424960502
4.087192733017378,6.5143332280147455,-6.573150114095136,-1.8302581709671784
4.095191153238547,6.536462190626646,-6.535113182376689,-1.8714055994383019
4.103189573459716,6.42283886255926,-6.79231042654027,-1.963620853080569
4.111187993680885,7.073207017543863,-6.816418391951441,-1.754546137856491
4.119186413902054,7.197561403508771,-6.720016379812091,-1.8198806019788798
4.127184834123224,7.3219157894736915,-6.623614367672731,-1.8852150661012759
4.135183254344392,7.446270175438599,-6.527212355533382,-1.9505495302236646
4.143181674565561,7.570624561403506,-6.4308103433940325,-2.015883994346053
4.151180094786731,7.694978947368428,-6.334408331254672,-2.081218458468449
4.159178515007899,7.819333333333335,-6.238006319115323,-2.1465529225908377
4.167176935229068,7.943687719298243,-6.141604306975974,-2.2118873867132267
4.1751753554502375,8.068042105263164,-6.0452022948366135,-2.2772218508356223
4.183173775671406,8.19239649122807,-5.948800282697265,-2.3425563149580113
4.191172195892576,8.316750877192993,-5.852398270557905,-2.4078907790804074
4.1991706161137445,8.4411052631579,-5.7559962584185556,-2.473225243202796
4.207169036334913,7.596421011058446,-5.47174644549763,-2.0100300157977844
4.215167456556083,7.330862990090478,-4.9708496337785535,-1.9568924673273058
4.2231658767772515,7.32431882809134,-5.0591958207669165,-1.9995204114605798
4.23116429699842,7.317774666092202,-5.14754200775528,-2.042148355593854
4.23916271721959,7.311230504093063,-5.235888194743652,-2.0847762997271326
4.2471611374407585,7.304686342093925,-5.3242343817320155,-2.127404243860407
4.255159557661928,7.2981421800947865,-5.412580568720389,-2.1700321879936855
4.263157977883097,7.291598018095648,-5.500926755708752,-2.2126601321269597
4.2711563981042655,7.285053856096511,-5.589272942697115,-2.2552880762602334
4.279154818325435,7.278509694097371,-5.677619129685489,-2.2979160203935125
4.287153238546604,7.271965532098234,-5.765965316673852,-2.3405439645267863
4.2951516587677725,7.265421370099095,-5.854311503662215,-2.3831719086600605
4.303150078988942,7.220429699841864,-5.882018957345729,-2.3173933649284675
4.311148499210111,6.148419298152191,-7.228262296536901,-3.2241242522676123
4.31914691943128,6.144375153096544,-7.069911550135768,-3.343381596464152
4.327145339652449,6.140331008040897,-6.911560803734654,-3.462638940660678
4.335143759873618,6.13628686298525,-6.75321005733354,-3.581896284857204
4.343142180094787,6.132242717929602,-6.594859310932407,-3.701153629053743
4.351140600315956,6.128198572873955,-6.436508564531293,-3.820410973250269
4.359139020537126,6.124154427818307,-6.278157818130161,-3.9396683174468086
4.367137440758294,6.12011028276266,-6.1198070717290465,-4.058925661643334
4.375135860979463,6.116066137707013,-5.961456325327932,-4.178183005839861
4.383134281200633,6.112021992651366,-5.8031055789268,-4.2974403500364
4.391132701421801,6.107977847595719,-5.6447548325256856,-4.4166976942329255
4.39913112164297,6.088340329496722,-5.5037980139923315,-4.4986533513879365
4.40712954186414,1.5354344391782677,-5.301717219589607,0.8577424960485862
4.415127962085308,2.251793439480278,-7.148311731189047,-10.65519314127485
4.423126382306478,2.346336563892305,-6.579255586914377,-10.90745792285713
4.431124802527647,2.440879688304321,-6.01019944263977,-11.159722704439382
4.439123222748815,2.535422812716337,-5.441143298365164,-11.411987486021633
4.447121642969985,2.6299659371283637,-4.872087154090495,-11.664252267603914
4.455120063191154,2.7245090615403798,-4.303031009815888,-11.916517049186167
4.463118483412322,2.819052185952396,-3.7339748655412817,-12.168781830768419
4.471116903633492,2.9135953103644225,-3.164918721266612,-12.421046612350699
4.479115323854661,3.0081384347764386,-2.5958625769920056,-12.673311393932952
4.48711374407583,3.1026815591884653,-2.0268064327173363,-12.925576175515232
4.495112164296999,3.1972246836004814,-1.45775028844273,-13.177840957097484
4.503110584518168,4.065949447077451,3.1361421800948097,-11.786357030015804
4.511109004739337,6.015974897140733,5.402965730951485,-7.9113883651893335
4.519107424960506,5.527104421644687,5.078722080447186,-8.156790444942114
4.527105845181675,5.03823394614864,4.754478429942886,-8.402192524694893
4.535104265402844,4.54936347065254,4.430234779438551,-8.6475946044477
4.543102685624013,4.060492995156493,4.10599112893425,-8.89299668420048
4.5511011058451825,3.5716225196603926,3.7817474784299145,-9.138398763953287
4.559099526066351,3.082752044164346,3.457503827925615,-9.383800843706068
4.56709794628752,2.5938815686682997,3.1332601774213154,-9.629202923458848
4.5750963665086894,2.105011093172199,2.8090165269169796,-9.874605003211656
4.583094786729858,1.6161406176761526,2.4847728764126797,-10.120007082964435
4.591093206951027,1.1272701421801061,2.1605292259083804,-10.365409162717214
4.599091627172196,0.6411045813585987,1.8009668246444008,-10.56116018957328
4.607090047393365,0.38835450236966246,-1.606360189573538,-6.472367772511754
4.615088467614535,3.6735839915745228,5.403371248025173,-12.505131121642977
4.623086887835703,3.816793801248782,3.8999539043104923,-12.60739663732792
4.631085308056872,3.9600036109230414,2.3965365605958118,-12.709662153012863
4.639083728278042,4.103213420597316,0.8931192168809643,-12.811927668697818
4.64708214849921,4.246423230271576,-0.6102981268337162,-12.91419318438276
4.65508056872038,4.389633039945851,-2.1137154705485637,-13.016458700067714
4.663078988941549,4.53284284962011,-3.617132814263245,-13.118724215752659
4.671077409162717,4.67605265929437,-5.120550157977926,-13.220989731437601
4.679075829383887,4.8192624689686445,-6.623967501692773,-13.323255247122555
4.687074249605056,4.962472278642904,-8.127384845407454,-13.425520762807498
4.695072669826224,5.105682088317163,-9.630802189122134,-13.527786278492442
4.703071090047394,7.282516587677316,-5.858563981042819,-4.347706161137137
4.711069510268563,4.108916730367424,-6.177825850617468,-1.5526945251320758
4.719067930489732,4.225538857463188,-6.429991098880579,-1.3628825527866855
4.727066350710901,4.342160984558937,-6.6821563471436605,-1.1730705804413164
4.73506477093207,4.458783111654688,-6.934321595406743,-0.9832586080959473
4.743063191153239,4.5754052387504505,-7.186486843669853,-0.7934466357505572
4.751061611374408,4.692027365846201,-7.438652091932935,-0.6036346634051881
4.759060031595577,4.808649492941951,-7.690817340196017,-0.41382269105981884
4.767058451816746,4.925271620037714,-7.942982588459127,-0.22401071871442868
4.775056872037915,5.041893747133464,-8.19514783672221,-0.03419874636905962
4.7830552922590845,5.158515874229227,-8.44731308498532,0.15561322597633054
4.791053712480253,5.275138001324978,-8.6994783332484,0.3454251983216996
4.799052132701422,5.348225118483597,-8.953545023696666,0.5215663507109543
4.8070505529225915,2.413812770728229,-7.506479811106016,0.38005007729028123
4.81504897314376,2.4352278958365194,-7.517746403030458,0.7078132973211836
4.823047393364929,2.4566430209448096,-7.5290129949549,1.035576517352086
4.8310458135860985,2.4780581460531024,-7.540279586879343,1.3633397373830247
4.839044233807267,2.499473271161393,-7.551546178803785,1.6911029574139271
4.847042654028437,2.5208883962696857,-7.562812770728228,2.018866177444866
4.8550410742496055,2.542303521377976,-7.57407936265267,2.3466293974757684
4.863039494470774,2.5637186464862665,-7.585345954577112,2.674392617506671
4.871037914691944,2.5851337715945593,-7.5966125465015555,3.0021558375376096
4.8790363349131125,2.60654889670285,-7.607879138425997,3.329919057568512
4.887034755134282,2.6279640218111426,-7.61914573035044,3.657682277599451
4.895033175355451,2.6493791469194328,-7.630412322274882,3.9854454976303533
4.9030315955766195,3.2679936808846,-8.542265402843503,3.1577756714060907
4.911030015797789,3.1123064770932336,-7.9146636734014955,3.559871954768435
4.919028436018958,3.353858767772529,-7.749306859565966,3.536971214766773
4.9270268562401265,3.595411058451824,-7.583950045730435,3.514070474765111
4.935025276461296,3.8369633491311466,-7.418593231894887,3.4911697347634467
4.943023696682465,4.078515639810442,-7.253236418059356,3.4682689947617846
4.951022116903634,4.320067930489764,-7.087879604223808,3.44536825476012
4.959020537124803,4.5616202211690595,-6.922522790388277,3.422467514758458
4.967018957345972,4.803172511848355,-6.757165976552747,3.3995667747567957
4.975017377567141,5.044724802527677,-6.591809162717198,3.3766660347551314
4.98301579778831,5.286277093206973,-6.426452348881668,3.3537652947534693
4.991014218009479,5.527829383886267,-6.261095535046138,3.330864554751807
4.999012638230648,5.7706480252765875,-6.098014533965399,3.304855608214609
5.007011058451817,6.813642022116916,-7.372962717219604,1.314848657187971
5.015009478672987,7.276463777928259,-8.930528097495085,-3.1196425186193397
5.023007898894155,3.9143613094166927,-8.264125022496845,-0.7530487531745818
5.031006319115324,4.011051072849807,-8.21127470154178,-0.9818643189953555
5.039004739336494,4.107740836282932,-8.158424380586712,-1.2106798848161544
5.047003159557662,4.204430599716047,-8.105574059631648,-1.4394954506369282
5.055001579778831,4.3011203631491615,-8.052723738676583,-1.668311016457702
5.063000000000001,4.397810126582287,-7.999873417721514,-1.8971265822785008
5.070998420221169,4.494499890015401,-7.947023096766451,-2.1259421480992744
5.078996840442339,4.591189653448527,-7.894172775811381,-2.3547577139200735
5.086995260663508,4.687879416881641,-7.841322454856317,-2.5835732797408473
5.094993680884676,4.784569180314756,-7.788472133901253,-2.812388845561621
5.102992101105846,5.953855450237225,-7.852386255924004,-3.7638538704581532
5.110990521327015,5.303228698195027,-7.035955581324984,-4.9925392759907306
5.118988941548183,5.43341575073107,-6.813105979630933,-5.112005041847334
5.126987361769353,5.563602803267128,-6.590256377936858,-5.2314708077039525
5.134985781990522,5.693789855803171,-6.367406776242808,-5.350936573560557
5.142984202211691,5.823976908339229,-6.144557174548732,-5.470402339417174
5.15098262243286,5.954163960875272,-5.9217075728546815,-5.589868105273779
5.158981042654029,6.0843510134113155,-5.69885797116063,-5.709333871130384
5.166979462875198,6.214538065947373,-5.476008369466555,-5.828799636987001
5.174977883096367,6.344725118483416,-5.253158767772505,-5.948265402843606
5.1829763033175364,6.474912171019474,-5.03030916607843,-6.067731168700224
5.190974723538705,6.605099223555517,-4.807459564384379,-6.1871969345568285
5.198973143759874,6.735286276091561,-4.584609962690328,-6.306662700413432
5.206971563981043,6.151331753554524,-4.498786729857729,-5.899184834123315
5.214969984202212,6.012611906724353,-4.463340390823544,-6.054122741946573
5.222968404423381,5.872726492204132,-4.430564255786798,-6.206788240950618
5.23096682464455,5.732841077683895,-4.397788120750049,-6.35945373995468
5.238965244865719,5.592955663163674,-4.365011985713304,-6.512119238958725
5.246963665086889,5.453070248643437,-4.332235850676554,-6.664784737962788
5.254962085308057,5.3131848341232155,-4.299459715639808,-6.817450236966833
5.262960505529226,5.173299419602994,-4.266683580603063,-6.970115735970878
5.270958925750396,5.033414005082757,-4.233907445566314,-7.122781234974941
5.278957345971564,4.893528590562536,-4.2011313105295685,-7.275446733978986
5.286955766192733,4.753643176042314,-4.168355175492823,-7.428112232983031
5.294954186413903,4.613757761522077,-4.135579040456074,-7.580777731987093
5.302952606635071,5.101428909952771,-3.9582914691943225,-6.810800947867447
5.310951026856241,6.915678388625601,-4.330382812006344,-9.647384549763046
5.31894944707741,6.992703175355455,-4.578173870458151,-9.772399857819913
5.326947867298578,7.06972796208531,-4.825964928909959,-9.897415165876781
5.334946287519748,7.146752748815174,-5.0737559873617935,-10.022430473933662
5.342944707740917,7.223777535545029,-5.321547045813601,-10.147445781990529
5.350943127962085,7.300802322274883,-5.569338104265409,-10.272461090047395
5.358941548183255,7.377827109004747,-5.817129162717244,-10.397476398104278
5.366939968404424,7.454851895734602,-6.06492022116905,-10.522491706161144
5.374938388625593,7.531876682464465,-6.312711279620885,-10.647507014218025
5.382936808846762,7.60890146919432,-6.560502338072693,-10.772522322274892
5.390935229067931,7.6859262559241746,-6.808293396524499,-10.89753763033176
5.3989336492891,7.762951042654039,-7.056084454976334,-11.02255293838864
5.406932069510269,7.304846761453184,-6.677077409162475,-10.899982622432765
5.4149304897314385,0.3738807266963311,-2.1167717219585236,-2.720124802523168
5.422928909952607,-1.7451250499628799,-1.62019556900588,2.8678750071375716
5.430927330173776,-1.609055539694322,-1.5846363272997201,3.330626981861095
5.4389257503949455,-1.472986029425749,-1.5490770855935563,3.79337895658467
5.446924170616114,-1.336916519157191,-1.5135178438873962,4.256130931308193
5.454922590837283,-1.2008470088886334,-1.4779586021812363,4.718882906031716
5.4629210110584525,-1.0647774986200602,-1.4423993604750724,5.18163488075529
5.470919431279621,-0.9287079883515025,-1.4068401187689126,5.644386855478814
5.478917851500791,-0.7926384780829296,-1.3712808770627487,6.107138830202388
5.4869162717219595,-0.6565689678143718,-1.3357216353565886,6.569890804925912
5.494914691943128,-0.520499457545814,-1.3001623936504287,7.032642779649434
5.502913112164298,-0.09295102685629558,-0.7053238546602052,12.160928909952883
5.5109115323854665,-3.5903878357033254,-10.432742496052484,8.92976224328414
5.518909952606635,-3.6497174374897563,-13.326795718254628,5.846034319333185
5.526908372827805,-3.189854242704814,-13.525652993408533,5.21406718599618
5.5349067930489735,-2.7299910479199228,-13.724510268562415,4.582100052659246
5.542905213270143,-2.27012785313498,-13.92336754371632,3.9501329193222428
5.550903633491312,-1.8102646583500888,-14.122224818870203,3.318165785985309
5.5589020537124805,-1.3504014635651975,-14.321082094024085,2.686198652648375
5.56690047393365,-0.8905382687802552,-14.51993936917799,2.0542315193113705
5.574898894154819,-0.43067507399536353,-14.718796644331873,1.4222643859744366
5.5828973143759875,0.02918812078952726,-14.917653919485755,0.7902972526375027
5.590895734597157,0.48905131557447046,-15.11651119463966,0.15833011930049867
5.598894154818326,0.9489145103593613,-15.315368469793542,-0.4736370140364352
5.606892575039495,2.7797619799896935,-15.527472880463424,-7.299120063191588
5.614890995260664,5.1601229623457,-8.162210978594853,-6.717551690016131
5.622889415481833,4.96402982483551,-7.938694686040655,-6.461778032394143
5.630887835703002,4.767936687325298,-7.7151783934864335,-6.206004374772127
5.638886255924171,4.5718435498151075,-7.491662100932237,-5.95023071715014
5.646884676145341,4.375750412304895,-7.268145808378014,-5.694457059528124
5.654883096366509,4.179657274794705,-7.044629515823816,-5.438683401906136
5.662881516587678,3.983564137284514,-6.821113223269619,-5.1829097442841485
5.670879936808848,3.787470999774302,-6.5975969307153965,-4.9271360866621325
5.678878357030016,3.5913778622641113,-6.3740806381612,-4.671362429040146
5.686876777251185,3.395284724753921,-6.150564345607002,-4.415588771418157
5.694875197472355,3.1991915872437087,-5.927048053052779,-4.159815113796142
5.702873617693523,3.003098449733518,-5.703531760498582,-3.9040414561741543
5.710872037914693,5.2839450236966,-6.200065402843598,-4.756143127962014
5.718870458135862,4.579875592417066,-6.169778692733023,-4.108292535545
5.72686887835703,4.633864928909954,-6.2320663902053735,-3.807751895734586
5.7348672985782,4.687854265402849,-6.294354087677732,-3.507211255924139
5.742865718799369,4.741843601895738,-6.3566417851500825,-3.2066706161137253
5.750864139020537,4.795832938388626,-6.418929482622434,-2.906129976303312
5.758862559241707,4.849822274881522,-6.481217180094792,-2.605589336492865
5.766860979462876,4.90381161137441,-6.543504877567143,-2.305048696682451
5.774859399684045,4.957800947867304,-6.6057925750395015,-2.004508056872004
5.782857819905214,5.011790284360194,-6.668080272511853,-1.7039674170615902
5.790856240126383,5.065779620853082,-6.730367969984203,-1.4034267772511768
5.798854660347552,4.8323894154815505,-6.4693483412319095,-0.22649605055201205
5.806853080568721,6.472653080568747,-4.095024644549759,0.8221962085307755
5.8148515007898895,7.176398797433668,-4.430592529902954,1.5372897926943296
5.822849921011059,7.243405970919181,-4.371747009704349,1.5563064448528245
5.830848341232228,7.310413144404686,-4.312901489505751,1.5753230970113177
5.838846761453397,7.3774203178901985,-4.254055969307146,1.5943397491698126
5.846845181674566,7.444427491375704,-4.195210449108547,1.6133564013283057
5.854843601895735,7.511434664861209,-4.136364928909949,1.6323730534867986
5.862842022116904,7.578441838346722,-4.077519408711344,1.6513897056452937
5.870840442338073,7.645449011832227,-4.018673888512746,1.6704063578037867
5.878838862559242,7.712456185317732,-3.959828368314147,1.6894230099622796
5.886837282780411,7.779463358803245,-3.900982848115542,1.7084396621207747
5.89483570300158,7.84647053228875,-3.842137327916944,1.7274563142792676
5.90283412322275,7.913477705774263,-3.783291807718339,1.7464729664377627
5.910832543443918,10.402954186414451,-3.696571879936822,-2.553003159558649
5.918830963665087,10.691603275771268,-3.44266535926349,-3.71558219389516
5.926829383886257,10.433539303807784,-3.2724920738682606,-3.8778489949338306
5.934827804107425,10.175475331844329,-3.10231878847305,-4.040115795972484
5.942826224328595,9.917411359880845,-2.9321455030778205,-4.202382597011154
5.950824644549764,9.65934738791739,-2.7619722176826103,-4.364649398049807
5.958823064770932,9.401283415953934,-2.5917989322874,-4.526916199088459
5.966821484992102,9.14321944399045,-2.4216256468921706,-4.68918300012713
5.974819905213271,8.885155472026995,-2.25145236149696,-4.851449801165783
5.982818325434439,8.627091500063539,-2.0812790761017492,-5.013716602204436
5.990816745655609,8.369027528100055,-1.91110579070652,-5.175983403243107
5.998815165876778,8.1109635561366,-1.7409325053113098,-5.33825020428176
6.006813586097947,6.467618423958282,-4.6900362839525105,-7.630763797584467
6.014812006319116,6.483529259882112,-4.7493794017224715,-7.6284416755847735
6.022810426540285,6.499440095805943,-4.808722519492433,-7.626119553585079
6.030808846761454,6.515350931729774,-4.868065637262401,-7.623797431585385
6.038807266982623,6.5312617676536044,-4.927408755032362,-7.621475309585691
6.046805687203792,6.547172603577435,-4.986751872802324,-7.619153187585996
6.054804107424961,6.563083439501266,-5.046094990572291,-7.616831065586302
6.06280252764613,6.578994275425097,-5.105438108342253,-7.614508943586608
6.0708009478672995,6.594905111348929,-5.16478122611222,-7.6121868215869135
6.078799368088468,6.610815947272759,-5.224124343882182,-7.609864699587219
6.086797788309637,6.626726783196589,-5.283467461652143,-7.607542577587525
6.0947962085308065,6.642637619120421,-5.342810579422111,-7.605220455587831
6.102794628751975,6.076493206950972,-7.530866982622638,-7.031011058451762
6.110793048973144,6.888510124946148,-9.71229671118771,-7.3100888984633015
6.1187914691943135,6.361568720378833,-10.722881516588124,-5.958426540283745
6.126789889415482,6.074925950366934,-10.843650508928752,-5.641171216029744
6.134788309636652,5.855121263023149,-10.861773511708364,-5.461662367268559
6.1427867298578205,5.635316575679388,-10.879896514487974,-5.282153518507395
6.150785150078989,5.415511888335627,-10.898019517267583,-5.102644669746231
6.158783570300159,5.1957072009918415,-10.916142520047195,-4.923135820985046
6.1667819905213275,4.975902513648081,-10.934265522826806,-4.743626972223882
6.174780410742497,4.756097826304296,-10.952388525606418,-4.5641181234626975
6.182778830963666,4.536293138960534,-10.970511528386028,-4.384609274701533
6.1907772511848345,4.316488451616774,-10.988634531165637,-4.205100425940368
6.198775671406004,3.875602685623832,-10.680381516587437,-4.158575039494557
6.206774091627173,2.6540714933951763,-5.058352593190139,2.1501878760377795
6.2147725118483415,2.59127538570132,-4.965264596148027,2.1375095290914587
6.222770932069511,2.528479278007457,-4.872176599105905,2.124831182145137
6.23076935229068,2.465683170313601,-4.779088602063792,2.1121528351988164
6.238767772511849,2.4028870626197376,-4.68600060502167,2.0994744882524943
6.246766192733018,2.3400909549258815,-4.592912607979558,2.086796141306174
6.254764612954187,2.2772948472320254,-4.499824610937447,2.074117794359853
6.262763033175356,2.214498739538162,-4.406736613895324,2.0614394474135316
6.270761453396525,2.151702631844306,-4.313648616853212,2.048761100467211
6.278759873617694,2.08890652415045,-4.2205606198111,2.03608275352089
6.286758293838863,2.0261104164565866,-4.127472622768978,2.0234044065745684
6.294756714060032,1.9633143087627303,-4.034384625726865,2.0107260596282477
6.302755134281202,7.24789731437667,-4.40769984202197,-6.880437598737545
6.31075355450237,8.268622567308656,-4.136505798124423,-9.695817888474371
6.318751974723539,8.215271402641925,-4.053798729454466,-10.00418251487347
6.326750394944709,8.161920237975187,-3.9710916607845004,-10.312547141272603
6.334748815165877,8.108569073308455,-3.8883845921145435,-10.620911767671702
6.342747235387046,8.055217908641724,-3.8056775234445865,-10.9292763940708
6.350745655608216,8.001866743974986,-3.7229704547746203,-11.237641020469933
6.358744075829384,7.948515579308255,-3.640263386104664,-11.546005646869032
6.366742496050554,7.895164414641518,-3.5575563174346976,-11.854370273268167
6.374740916271723,7.841813249974786,-3.4748492487647407,-12.162734899667264
6.382739336492891,7.788462085308055,-3.3921421800947837,-12.471099526066363
6.390737756714061,7.7351109206413176,-3.3094351114248175,-12.779464152465495
6.39873617693523,7.681759755974586,-3.2267280427548606,-13.087828778864594
6.406734597156399,6.396668649793287,-6.29398588282747,-6.526983765251574
6.414733017377568,6.418196312728986,-6.312365231420793,-6.379353349467236
6.4227314375987365,6.439723975664684,-6.330744580014118,-6.231722933682898
6.430729857819906,6.461251638600386,-6.349123928607444,-6.084092517898543
6.438728278041075,6.482779301536084,-6.367503277200767,-5.936462102114205
6.4467266982622435,6.504306964471783,-6.385882625794092,-5.788831686329867
6.454725118483413,6.525834627407485,-6.404261974387418,-5.641201270545512
6.462723538704582,6.547362290343183,-6.422641322980741,-5.493570854761174
6.470721958925751,6.568889953278885,-6.441020671574067,-5.345940438976819
6.47872037914692,6.590417616214583,-6.459400020167392,-5.198310023192481
6.486718799368089,6.611945279150282,-6.477779368760715,-5.050679607408143
6.494717219589258,6.633472942085983,-6.496158717354041,-4.903049191623788
6.502715639810427,6.476724591890459,-6.652619799894705,-3.5754870984728715
6.510714060031596,6.433807266982738,-7.179353870458144,-3.4187014218009777
6.518712480252765,6.2130178923265325,-7.419120045440849,-3.395310417665115
6.526710900473934,6.190640289685286,-7.605510197561117,-3.328537089301876
6.534709320695104,6.168262687044036,-7.791900349681405,-3.2617637609386287
6.542707740916272,6.145885084402789,-7.978290501801672,-3.1949904325753895
6.550706161137441,6.123507481761542,-8.16468065392194,-3.12821710421215
6.558704581358611,6.101129879120292,-8.351070806042227,-3.061443775848903
6.566703001579779,6.078752276479045,-8.537460958162495,-2.9946704474856634
6.574701421800948,6.056374673837798,-8.723851110282762,-2.9278971191224237
6.582699842022118,6.0339970711965485,-8.910241262403051,-2.861123790759177
6.590698262243286,6.011619468555301,-9.09663141452332,-2.794350462395937
6.598696682464456,5.989241865914051,-9.283021566643606,-2.7275771340326904
6.606695102685625,4.424644549762403,-7.7117219589250015,-0.5327962085303671
6.614693522906793,4.280328010165537,-7.294609897657806,-0.2976309155848618
6.622691943127963,4.502110292602534,-7.302521378528746,-0.31180202967236886
6.630690363349132,4.723892575039506,-7.310432859399684,-0.32597314375987435
6.6386887835703,4.945674857476478,-7.318344340270623,-0.3401442578473798
6.64668720379147,5.167457139913475,-7.3262558211415625,-0.3543153719348868
6.654685624012639,5.389239422350447,-7.334167302012501,-0.3684864860223923
6.662684044233808,5.6110217047874436,-7.342078782883441,-0.38265760010989935
6.670682464454977,5.832803987224416,-7.349990263754379,-0.39682871419740484
6.678680884676146,6.054586269661388,-7.357901744625318,-0.41099982828491033
6.686679304897315,6.2763685520983845,-7.365813225496257,-0.42517094237241737
6.694677725118484,6.498150834535357,-7.373724706367196,-0.43934205645992286
6.7026761453396535,7.8088641390202325,-8.047947867297337,-1.015763033174462
6.710674565560822,6.7849018584589,-8.302887746951386,-1.0963088378862873
6.718672985781991,6.605881037328922,-8.337128175089198,-1.0525422013951735
6.7266714060031605,6.426860216198926,-8.371368603227014,-1.0087755649040546
6.734669826224329,6.247839395068948,-8.405609031364826,-0.9650089284129407
6.742668246445498,6.068818573938971,-8.439849459502637,-0.9212422919218268
6.7506666666666675,5.889797752808974,-8.474089887640453,-0.877475655430708
6.758665086887836,5.710776931678996,-8.508330315778265,-0.8337090189395941
6.766663507109006,5.531756110548999,-8.54257074391608,-0.7899423824484753
6.7746619273301745,5.352735289419022,-8.576811172053892,-0.7461757459573614
6.782660347551343,5.173714468289045,-8.611051600191702,-0.7024091094662475
6.790658767772513,4.994693647159048,-8.64529202832952,-0.6586424729751286
6.7986571879936815,4.81567282602907,-8.67953245646733,-0.6148758364840148
6.80665560821485,5.48473459715638,-7.657022116903645,-0.42246761453397064
6.81465402843602,6.41886264312377,-5.86635956045799,0.004819150274721035
6.8226524486571885,6.440451299472942,-5.812423310824977,0.07446911043073849
6.830650868878358,6.462039955822116,-5.758487061191957,0.14411907058676368
6.838649289099527,6.483628612171289,-5.704550811558944,0.2137690307427811
6.846647709320695,6.505217268520461,-5.650614561925931,0.2834189908987985
6.854646129541865,6.5268059248696355,-5.5966783122929105,0.3530689510548237
6.862644549763034,6.548394581218807,-5.542742062659897,0.42271891121084115
6.870642969984202,6.56998323756798,-5.488805813026883,0.4923688713668586
6.878641390205372,6.591571893917155,-5.434869563393864,0.5620188315228838
6.886639810426541,6.613160550266326,-5.380933313760851,0.6316687916789012
6.89463823064771,6.634749206615501,-5.326997064127831,0.7013187518349264
6.902636650868879,6.656337862964673,-5.2730608144948174,0.7709687119909439
6.910635071090048,6.677926519313845,-5.219124564861804,0.8406186721469614
6.918633491311217,6.69951517566302,-5.165188315228784,0.9102686323029865
6.926631911532386,6.379308583464925,-4.910551342811969,1.2908141126909465
6.934630331753556,5.19522696155852,-4.743156924697238,1.898582938388672
6.942628751974724,2.0234115323852766,-8.794862559243121,0.47335308056869585
6.950627172195893,2.2969986582700677,-9.323852669393412,0.3316812092882207
6.958625592417063,2.6514491982081974,-9.37403453872623,0.19187320651818868
6.966624012638231,3.0058997381462875,-9.424216408059042,0.05206520374817214
6.9746224328594,3.360350278084378,-9.474398277391852,-0.0877427990218444
6.98262085308057,3.714800818022508,-9.52458014672467,-0.22755080179187642
6.990619273301738,4.0692513579605984,-9.574762016057482,-0.367358804561893
6.998617693522908,4.423701897898729,-9.6249438853903,-0.5071668073319251
7.006616113744077,4.778152437836819,-9.67512575472311,-0.6469748101019415
7.014614533965245,5.132602977774909,-9.725307624055922,-0.7867828128719581
7.022612954186415,5.470598736176746,-12.295546603475312,1.475968404424819
7.0306113744075835,5.4407844305757465,-12.532634930317629,-3.404662287081791
7.038609794628752,5.342110850421526,-12.17009267514426,-3.4220053962742263
7.046608214849922,5.243437270267296,-11.80755041997085,-3.439348505466663
7.0546066350710905,5.144763690113076,-11.44500816479748,-3.456691614659098
7.06260505529226,5.046090109958845,-11.082465909624071,-3.4740347238515352
7.070603475513429,4.9474165298046255,-10.719923654450701,-3.49137783304397
7.0786018957345975,4.848742949650406,-10.357381399277333,-3.5087209422364056
7.086600315955767,4.750069369496175,-9.994839144103922,-3.5260640514288424
7.094598736176936,4.651395789341955,-9.632296888930554,-3.5434071606212774
7.1025971563981045,4.552722209187735,-9.269754633757184,-3.560750269813713
7.110595576619274,4.454048629033505,-8.907212378583774,-3.5780933790061495
7.118593996840443,4.355375048879285,-8.544670123410405,-3.595436488198585
7.126592417061612,4.256701468725054,-8.182127868236995,-3.6127795973910217
7.134590837282781,5.7482710122032215,-7.752585273713852,-2.3661749662293667
7.14258925750395,5.792552121253749,-7.719896078027337,-2.3956184261739586
7.150587677725119,5.836833230304283,-7.687206882340818,-2.425061886118554
7.158586097946288,5.88111433935481,-7.654517686654302,-2.4545053460631463
7.166584518167458,5.925395448405344,-7.621828490967783,-2.4839488060077413
7.174582938388626,5.9696765574558714,-7.589139295281267,-2.5133922659523336
7.182581358609795,6.0139576665064,-7.556450099594752,-2.5428357258969254
7.190579778830965,6.058238775556933,-7.523760903908233,-2.572279185841521
7.198578199052133,6.102519884607461,-7.491071708221717,-2.601722645786113
7.206576619273302,6.293254344392078,-7.562195892575198,-1.0069115323852107
7.214575039494472,4.874548270055378,-7.530386715969664,-2.7073914726663664
7.22257345971564,4.858024061246809,-7.621973022238431,-2.8164688297484584
7.23057187993681,4.841499852438239,-7.713559328507208,-2.925546186830562
7.238570300157979,4.824975643629671,-7.8051456347759745,-3.0346235439126534
7.246568720379147,4.8084514348211025,-7.896731941044742,-3.143700900994745
7.254567140600317,4.7919272260125325,-7.988318247313519,-3.252778258076849
7.262565560821486,4.775403017203964,-8.079904553582285,-3.3618556151589405
7.270563981042654,4.758878808395395,-8.171490859851051,-3.470932972241032
7.278562401263824,4.742354599586825,-8.263077166119828,-3.580010329323136
7.286560821484993,4.725830390778257,-8.354663472388594,-3.6890876864052276
7.294559241706162,4.709306181969687,-8.446249778657371,-3.798165043487331
7.302557661927331,4.672479304897305,-8.43510742496047,-3.6713541864138173
7.3105560821485,4.551703159557655,-7.9991935229067685,-2.569171879936747
7.318554502369669,4.819480252764656,-8.112995576619294,-2.1091222748814547
7.326552922590838,5.246753554502599,-8.101646129541649,-1.863353870458352
7.334551342812007,3.8169832406071866,-8.565059069991069,-2.255143210385332
7.342549763033176,3.8854914485885086,-8.489595713991338,-2.395984957758101
7.350548183254345,3.953999656569823,-8.414132357991617,-2.5368267051308546
7.3585466034755145,4.022507864551145,-8.338669001991885,-2.6776684525036236
7.366545023696683,4.09101607253246,-8.263205645992164,-2.818510199876377
7.374543443917852,4.159524280513774,-8.18774228999244,-2.9593519472491305
7.3825418641390215,4.228032488495097,-8.11227893399271,-3.1001936946218995
7.39054028436019,4.296540696476411,-8.03681557799299,-3.2410354419946525
7.398538704581359,4.365048904457725,-7.961352221993266,-3.381877189367406
7.4065371248025285,4.121217022116878,-9.47761492891011,-3.9373836887836275
7.414535545023697,5.395365535104159,-7.892049652816045,-2.156071861567283
7.422533965244867,5.450145413130541,-7.84173400933171,-2.0963627245673897
7.4305323854660354,5.504925291156917,-7.791418365847382,-2.0366535875675025
7.438530805687204,5.559705169183293,-7.7411027223630535,-1.9769444505676155
7.446529225908374,5.6144850472096755,-7.690787078878719,-1.9172353135677218
7.454527646129542,5.669264925236051,-7.6404714353943906,-1.8575261765678346
7.462526066350712,5.724044803262434,-7.590155791910057,-1.7978170395679411
7.470524486571881,5.7788246812888096,-7.539840148425728,-1.738107902568054
7.478522906793049,5.833604559315186,-7.489524504941399,-1.678398765568167
7.486521327014219,5.888384437341569,-7.4392088614570655,-1.6186896285682733
7.494519747235388,5.9431643153679445,-7.388893217972736,-1.558980491568386
7.502518167456556,6.854583728278072,-7.044007898894169,-1.4189581358609908
7.510516587677726,6.513920978818058,-7.185294177386592,-2.261394428861572
7.518515007898895,6.456136473546758,-7.172153915594672,-2.1366843666376365
7.526513428120064,6.398351968275452,-7.1590136538027505,-2.011974304413687
7.534511848341233,6.3405674630041515,-7.145873392010831,-1.8872642421897516
7.542510268562402,6.282782957732852,-7.132733130218911,-1.7625541799658162
7.550508688783571,6.224998452461546,-7.11959286842699,-1.6378441177418668
7.55850710900474,6.167213947190246,-7.10645260663507,-1.5131340555179313
7.566505529225909,6.109429441918945,-7.09331234484315,-1.388423993293996
7.574503949447078,6.051644936647639,-7.080172083051229,-1.2637139310700465
7.582502369668247,5.993860431376339,-7.067031821259309,-1.1390038688461108
7.590500789889417,5.936075926105032,-7.053891559467387,-1.0142938066221616
7.598499210110585,5.878291420833733,-7.040751297675468,-0.889583744398226
7.606497630331754,6.823262243286135,-8.026499210110742,-1.9100000000000787
7.614496050552924,8.110261991957476,-7.905537806979771,-2.1207808056871884
7.622494470774092,7.9363872432859335,-8.162668838862569,-1.931818127962078
7.630492890995261,7.762512494614391,-8.419799870745367,-1.7428554502369678
7.6384913112164305,7.58863774594283,-8.676930902628193,-1.5538927725118366
7.646489731437599,7.414762997271287,-8.934061934510991,-1.3649300947867262
7.654488151658769,7.240888248599727,-9.191192966393817,-1.1759674170615948
7.6624865718799375,7.067013499928184,-9.448323998276617,-0.9870047393364845
7.670484992101106,6.893138751256642,-9.705455030159413,-0.7980420616113741
7.678483412322276,6.7192640025850805,-9.962586062042242,-0.6090793838862427
7.6864818325434445,6.545389253913538,-10.21971709392504,-0.4201167061611324
7.694480252764614,6.371514505241977,-10.476848125807866,-0.23115402843600097
7.702478672985783,1.4097345971571364,-3.0485260663525837,7.168592417060465
7.7104770932069515,6.667762183831883,-6.459492398376007,5.619434150401752
7.718475513428121,6.375346820907403,-5.546038407311038,5.863944996517722
7.72647393364929,6.082931457982956,-4.632584416246168,6.1084558426336635
7.7344723538704585,5.790516095058509,-3.7191304251812993,6.352966688749606
7.742470774091628,5.498100732134029,-2.8056764341163296,6.597477534865575
7.750469194312797,5.205685369209582,-1.8922224430514607,6.841988380981517
7.758467614533966,4.913270006285102,-0.9787684519864905,7.0864992270974865
7.766466034755135,4.620854643360655,-0.06531446092162163,7.331010073213429
7.774464454976304,4.328439280436207,0.8481395301432473,7.575520919329371
7.782462875197473,4.036023917511727,1.7615935212082183,7.82003176544534
7.790461295418642,3.7436085545872806,2.6750475122730863,8.064542611561283
7.798459715639811,3.3859407582937755,2.5931232227480856,8.53589099526085
7.80645813586098,3.779076280749215,-2.6633353644778466,9.731228616565097
7.814456556082149,1.4767976446933742,1.260800517018511,8.88572554933218
7.822454976303319,1.4115378069797406,1.0590221887117328,8.82955482550624
7.830453396524487,1.3462779692661142,0.8572438604049771,8.773384101680305
7.838451816745656,1.2810181315524878,0.6554655320982214,8.71721337785437
7.846450236966826,1.2157582938388543,0.45368720379144334,8.661042654028428
7.854448657187994,1.1504984561252278,0.25190887548468766,8.604871930202494
7.862447077409163,1.0852386184116014,0.05013054717793186,8.54870120637656
7.870445497630333,1.0199787806979679,-0.15164778112884614,8.492530482550618
7.878443917851501,0.9547189429843415,-0.35342610943560193,8.436359758724684
7.886442338072671,0.8894591052707078,-0.5552044377423799,8.380189034898743
7.89444075829384,0.8241992675570815,-0.7569827660491357,8.324018311072809
7.902439178515008,-2.1004968404423265,-5.80845550289683,5.042203528172498
7.910437598736178,5.263370806366654,-12.925393891521837,4.849456386213418
7.918436018957347,5.032534678693356,-12.768091627172186,4.473960658411025
7.926434439178515,4.801698551020056,-12.610789362822535,4.098464930608632
7.934432859399685,4.570862423346732,-12.453487098472866,3.7229692028061967
7.942431279620854,4.340026295673433,-12.296184834123215,3.347473475003804
7.950429699842023,4.109190168000109,-12.138882569773546,2.971977747201369
7.958428120063192,3.8783540403268097,-11.981580305423895,2.596482019398976
7.966426540284361,3.6475179126535107,-11.824278041074244,2.220986291596583
7.97442496050553,3.4166817849801863,-11.666975776724575,1.845490563794148
7.982423380726699,3.185845657306887,-11.509673512374924,1.4699948359917552
7.9904218009478685,2.955009529633563,-11.352371248025255,1.0944991081893205
7.998420221169037,2.724173401960264,-11.195068983675604,0.7190033803869271
8.006418641390207,6.087887045814593,-6.560059241704001,5.579753554503606
8.014417061611375,6.104736176934932,-4.4885976829911485,4.695248025275859
8.022415481832544,5.466426467817398,-4.320406206066855,3.956387466121758
8.030413902053713,5.193819760279401,-3.8439498528920995,4.225765453570476
8.038412322274882,4.921213052741403,-3.3674934997173436,4.495143441019194
8.046410742496052,4.648606345203345,-2.891037146542482,4.764521428467972
8.05440916271722,4.375999637665348,-2.4145807933677266,5.033899415916691
8.06240758293839,4.103392930127351,-1.9381244401929707,5.30327740336541
8.070406003159558,3.830786222589353,-1.4616680870182148,5.572655390814128
8.078404423380727,3.5581795150513553,-0.985211733843459,5.842033378262846
8.086402843601897,3.2855728075132973,-0.5087553806685978,6.111411365711625
8.094401263823066,3.0129660999752996,-0.03229902749384195,6.380789353160343
8.102399684044235,2.740359392437302,0.44415732568091393,6.650167340609061
8.110398104265403,2.4677526848993048,0.9206136788556698,6.919545328057779
8.118396524486572,2.195145977361307,1.3970700320304257,7.188923315506498
8.12639494470774,1.9600258030542659,1.6528567667191052,7.382335439705038
8.134393364928911,2.451867298576163,-3.4952227488150145,5.909194312795989
8.14239178515008,2.9576979255690876,-5.923543055447613,7.115219822339634
8.150390205371249,2.651660010877157,-5.436295030171172,7.226804340507086
8.158388625592417,2.3456220961852265,-4.94904700489473,7.338388858674539
8.166387045813586,2.0395841814932956,-4.461798979618289,7.4499733768419905
8.174385466034757,1.7335462668012973,-3.9745509543417397,7.561557895009467
8.182383886255925,1.4275083521093668,-3.4873029290652986,7.673142413176919
8.190382306477094,1.121470437417436,-3.000054903788857,7.784726931344371
8.198380726698263,1.0717614533966813,-2.2710142180093067,7.910417061611387
8.206379146919431,-0.9298600149663028,-7.260303317535574,4.912222000498823
8.214377567140602,-0.6573243701670537,-7.604235387045902,4.261824145672071
8.22237598736177,-0.3847887253678651,-7.948167456556154,3.611426290845462
8.23037440758294,-0.11225308056867667,-8.292099526066405,2.9610284360188537
8.238372827804108,0.1602825642305119,-8.636031595576657,2.310630581192245
8.246371248025277,0.43281820902970036,-8.97996366508691,1.6602327263656367
8.254369668246447,0.7053538538289494,-9.323895734597237,1.0098348715388843
8.262368088467616,0.9778894986281381,-9.667827804107489,0.3594370167122758
8.270366508688785,1.2504251434273268,-10.011759873617741,-0.2909608381143327
8.278364928909953,1.522960788226515,-10.355691943127992,-0.9413586929409412
8.286363349131122,1.7954964330257037,-10.699624012638244,-1.5917565477675497
8.29436176935229,2.0680320778248924,-11.043556082148497,-2.242154402594158
8.302360189573461,5.105852403521691,-14.03848341232329,-6.904418415709076
8.31035860979463,-1.2342935695820851,-9.354650078988847,5.57188638158842
8.318357030015799,-1.3523611589832014,-8.030911532385415,5.903911711905801
8.326355450236967,-1.470428748384318,-6.707172985781982,6.235937042223182
8.334353870458136,-1.5884963377854342,-5.383434439178551,6.567962372540563
8.342352290679306,-1.7065639271865767,-4.059695892574824,6.899987702858018
8.350350710900475,-1.8246315165876932,-2.735957345971392,7.232013033175399
8.358349131121644,-1.9426991059888095,-1.4122187993679596,7.56403836349278
8.366347551342812,-2.0607666953899257,-0.08848025276452809,7.896063693810161
8.374345971563981,-2.178834284791042,1.2352582938389052,8.228089024127542
8.382344391785152,-2.2969018741921845,2.5589968404426315,8.560114354444996
8.39034281200632,-2.414969463593301,3.882735387046063,8.892139684762379
8.398341232227489,-1.9984075829366508,4.915061611373637,9.584502369669476
8.406339652448658,2.5326176935227775,-7.366167456558481,9.312255924170156
8.414338072669826,5.376574249605207,-6.375577409162561,9.430262243285966
8.422336492890995,6.087292610145682,-4.5555852202913645,9.62600239892341
8.430334913112166,5.546658650751748,-3.474317301503497,9.642492969009034
8.438333333333334,5.0060246913579345,-2.3930493827158696,9.658983539094653
8.446331753554503,4.4653907319641215,-1.3117814639282428,9.675474109180273
8.454330173775672,3.9247567725703076,-0.2305135451406155,9.691964679265892
8.46232859399684,3.384122813176494,0.8507543736470113,9.70845524935151
8.470327014218011,2.8434888537825604,1.9320222924348789,9.724945819437135
8.47832543443918,2.302854894388747,3.013290211222505,9.741436389522754
8.486323854660348,1.7622209349949332,4.094558130010133,9.757926959608374
8.494322274881517,1.2215869756011193,5.17582604879776,9.774417529693993
8.502320695102686,-0.3911421800954553,-2.6903775671419305,8.781794628750902
8.510319115323856,-0.010808830475076501,-0.5840045764726914,11.922885767332772
8.518317535545025,-0.03909190404065256,-0.5389000830605337,11.859558069086818
8.526315955766194,-0.06737497760622863,-0.49379558964837594,11.796230370840863
8.534314375987362,-0.09565805117180468,-0.4486910962362182,11.732902672594909
8.542312796208531,-0.12394112473738073,-0.4035866028240605,11.669574974348954
8.550311216429701,-0.15222419830296308,-0.35848210941189274,11.606247276102986
8.55830963665087,-0.18050727186853913,-0.313377615999735,11.542919577857031
8.566308056872039,-0.20879034543411518,-0.2682731225875773,11.479591879611077
8.574306477093208,-0.23707341899969123,-0.22316862917541958,11.416264181365122
8.582304897314376,-0.2653564925652673,-0.17806413576326185,11.352936483119167
8.590303317535545,-0.29363956613084335,-0.13295964235110413,11.289608784873213
8.598301737756715,-0.3219226396964257,-0.08785514893893642,11.226281086627244
8.606300157977884,-0.9407519747235525,1.169859399682717,9.261862559242143
8.614298578199053,-2.104018957345971,-0.008568720379149394,7.580099526066349
8.622296998420222,-2.016771821830004,-0.22333090011076018,7.505171796408275
8.63029541864139,-1.929524686314037,-0.43809307984237095,7.4302440667502
8.63829383886256,-1.8422775507980507,-0.6528552595740295,7.355316337092109
8.64629225908373,-1.7550304152820837,-0.8676174393056403,7.280388607434034
8.654290679304898,-1.667783279766117,-1.082379619037251,7.205460877775959
8.662289099526067,-1.58053614425015,-1.2971417987688618,7.130533148117884
8.670287519747236,-1.493289008734183,-1.5119039785004724,7.05560541845981
8.678285939968406,-1.4060418732181967,-1.726666158232131,6.980677688801718
8.686284360189575,-1.31879473770223,-1.9414283379637416,6.905749959143643
8.694282780410743,-1.231547602186263,-2.1561905176953524,6.830822229485569
8.702281200631912,0.068549763033883,-0.129388625593706,9.688093206953047
8.71027962085308,1.7856132089894536,6.304997248127205,10.481672680018335
8.718278041074251,1.88804459053154,6.63525459919489,10.010023900524796
8.72627646129542,1.9904759720736038,6.965511950262501,9.538375121031365
8.734274881516589,2.0929073536156673,7.295769301330111,9.066726341537933
8.742273301737757,2.195338735157731,7.626026652397723,8.595077562044501
8.750271721958926,2.2977701166997946,7.956284003465333,8.12342878255107
8.758270142180095,2.4002014982418585,8.286541354532945,7.651780003057638
8.766268562401265,2.502632879783945,8.61679870560063,7.180131223564102
8.774266982622434,2.6050642613260084,8.94705605666824,6.70848244407067
8.782265402843603,2.7074956428680723,9.27731340773585,6.2368336645772375
8.790263823064771,2.809927024410136,9.607570758803462,5.765184885083806
8.79826224328594,2.521797788309653,9.42808214849923,5.864300157977859
8.80626066350711,1.3048041074246468,6.563005265929053,10.859804107425026
8.81425908372828,-1.9210052169440526,6.009733035747106,9.763314798486338
8.822257503949448,-1.9972692237040344,6.243082295455393,9.587442558506917
8.830255924170617,-2.0735332304640166,6.476431555163679,9.411570318527493
8.838254344391785,-2.149797237223998,6.709780814871965,9.235698078548072
8.846252764612956,-2.226061243983997,6.943130074580303,9.059825838568612
8.854251184834125,-2.302325250743979,7.176479334288589,8.88395359858919
8.862249605055293,-2.378589257503961,7.409828593996876,8.708081358609768
8.870248025276462,-2.454853264263943,7.643177853705161,8.532209118630346
8.87824644549763,-2.531117271023925,7.876527113413448,8.356336878650925
8.8862448657188,-2.607381277783907,8.109876373121734,8.180464638671502
8.89424328593997,-2.683645284543906,8.343225632830071,8.004592398692042
8.902241706161139,-3.9576398104257167,10.207727488151583,8.436926540285356
8.910240126382307,-4.813220115850437,9.138896787782977,9.17991100579257
8.918238546603476,-4.752500925784361,8.75867081146269,9.45452343338603
8.926236966824645,-4.691781735718284,8.3784448351424,9.729135860979488
8.934235387045815,-4.6310625456521946,7.998218858822027,10.003748288573007
8.942233807266984,-4.570343355586118,7.6179928825017384,10.278360716166466
8.950232227488153,-4.509624165520042,7.2377669061814505,10.552973143759925
8.958230647709321,-4.448904975453965,6.857540929861162,10.827585571353383
8.96622906793049,-4.388185785387889,6.477314953540873,11.102197998946842
8.97422748815166,-4.327466595321799,6.0970889772205,11.376810426540363
8.982225908372829,-4.266747405255723,5.7168630009002115,11.651422854133822
8.990224328593998,-4.206028215189646,5.3366370245799235,11.92603528172728
8.998222748815166,-4.018473933648597,4.617952606633191,12.426218009479928
9.006221169036335,-2.8987937260212098,1.8916567366283035,14.360913413074554
9.014219589257506,-2.7776747912434847,1.9670704129993397,14.455942262845127
9.022218009478674,-2.6565558564657867,2.042484089370359,14.55097111261568
9.030216429699843,-2.5354369216880888,2.117897765741379,14.645999962386233
9.038214849921012,-2.4143179869103912,2.1933114421123983,14.741028812156785
9.04621327014218,-0.8440518592781535,0.6770515858548667,11.133935563251896
9.05421169036335,-0.770989366873249,0.3789566168428565,10.981504131729242
9.06221011058452,-0.6979268744683285,0.08086164783078009,10.829072700206554
9.070208530805688,-0.624864382063424,-0.21723332118123018,10.676641268683902
9.078206951026857,-0.5518018896585195,-0.5153282901932403,10.524209837161248
9.086205371248026,-0.47873939725361503,-0.8134232592052506,10.371778405638596
9.094203791469194,-0.4056769048487106,-1.1115182282172607,10.219346974115942
9.102202211690365,-0.4114818325434946,-2.950553712480348,8.62922511848318
9.110200631911534,-0.7083959016891533,-4.199574128083598,8.4004258719164
9.118199052132702,-0.7295455705432049,-4.164196500182276,8.435803499817725
9.126197472353871,-0.7506952393972566,-4.128818872280953,8.471181127719047
9.13419589257504,-0.7718449082513082,-4.09344124437963,8.50655875562037
9.14219431279621,-0.7929945771053646,-4.058063616478299,8.541936383521701
9.150192733017379,-0.8141442459594163,-4.022685988576977,8.577314011423024
9.158191153238548,-0.8352939148134679,-3.987308360675654,8.612691639324346
9.166189573459716,-0.8564435836675196,-3.951930732774331,8.648069267225669
9.174187993680885,-0.8775932525215713,-3.916553104873008,8.683446895126991
9.182186413902054,-0.8987429213756228,-3.881175476971685,8.718824523028315
9.190184834123224,-0.9198925902296793,-3.8457978490703546,8.754202150929645
9.198183254344393,-0.9410422590837308,-3.8104202211690317,8.789579778830968
9.206181674565562,-0.9621919279377825,-3.775042593267709,8.824957406732292
9.21418009478673,-1.474142180094779,-2.4524578199052356,9.071333649289109
9.222178515007899,-2.214423380726744,-2.6065379146920806,8.882719589257615
9.23017693522907,-2.4010059545509828,-3.124908210799209,9.306768380119095
9.238175355450238,-2.425616478308425,-3.141622858184472,9.33107127232957
9.246173775671407,-2.4502270020658674,-3.158337505569735,9.355374164540045
9.254172195892576,-2.4748375258233097,-3.1750521529549975,9.379677056750518
9.262170616113744,-2.499448049580752,-3.1917668003402606,9.403979948960993
9.270169036334915,-2.5240585733381997,-3.2084814477255272,9.428282841171473
9.278167456556083,-2.548669097095642,-3.2251960951107903,9.452585733381946
9.286165876777252,-2.5732796208530844,-3.241910742496053,9.476888625592421
9.29416429699842,-2.5978901446105267,-3.258625389881316,9.501191517802896
9.30216271721959,-2.6805781990523054,-3.476281200632505,9.567794628752102
9.31016113744076,-2.8132877150008055,-6.729750998455751,10.668839980829617
9.318159557661929,-2.8359349273124295,-6.824473862648018,10.564411168503797
9.326157977883097,-2.858582139624053,-6.919196726840285,10.459982356177978
9.334156398104266,-2.8812293519356764,-7.013919591032552,10.355553543852158
9.342154818325435,-2.9038765642473003,-7.108642455224819,10.251124731526337
9.350153238546604,-2.926523776558924,-7.203365319417086,10.146695919200518
9.358151658767774,-2.9491709888705526,-7.298088183609374,10.042267106874675
9.366150078988943,-2.971818201182176,-7.392811047801641,9.937838294548854
9.374148499210111,-2.9944654134937996,-7.487533911993908,9.833409482223034
9.38214691943128,-3.017112625805423,-7.582256776186175,9.728980669897215
9.390145339652449,-3.039759838117047,-7.676979640378442,9.624551857571394
9.39814375987362,-3.0134810426534058,-7.578871248022823,9.582594786730636
9.406142180094788,-1.1524199354643023,-2.260502470505132,11.483467732177061
9.414140600315957,-0.9312721253066727,-1.9979160364357031,11.451729320022851
9.422139020537125,-0.7101243151490431,-1.7353296023662743,11.41999090786864
9.430137440758294,-0.4889765049914133,-1.4727431682968457,11.388252495714427
9.438135860979465,-0.2678286948337346,-1.2101567342273587,11.356514083560208
9.446134281200633,-0.04668088467610487,-0.9475703001579301,11.324775671405996
9.454132701421802,0.17446692548152476,-0.6849838660885013,11.293037259251786
9.46213112164297,0.3956147356391544,-0.42239743201907265,11.261298847097574
9.47012954186414,0.616762545796784,-0.15981099794964404,11.229560434943362
9.47812796208531,0.837910355954463,0.10277543611984319,11.197822022789143
9.486126382306479,1.0590581661120926,0.3653618701892718,11.166083610634933
9.494124802527647,1.2802059762697222,0.6279483042587004,11.134345198480721
9.502123222748816,0.4668436018956809,0.6090957345971574,10.22437914691937
9.510121642969985,-0.49940074831628517,-0.10201799284943283,8.998975638147495
9.518120063191153,-0.4599980044898965,-0.23470757462376743,8.93162052049555
9.526118483412324,-0.42059526066349906,-0.36739715639813153,8.864265402843587
9.534116903633493,-0.3811925168371103,-0.5000867381724661,8.796910285191641
9.542115323854661,-0.34178977301072166,-0.6327763199468007,8.729555167539695
9.55011374407583,-0.3023870291843329,-0.7654659017211353,8.662200049887748
9.558112164296999,-0.26298428535794427,-0.8981554834954699,8.594844932235802
9.566110584518169,-0.2235815415315468,-1.030845065269834,8.52748981458384
9.574109004739338,-0.1841787977051581,-1.1635346470441688,8.460134696931894
9.582107424960506,-0.1447760538787694,-1.2962242288185033,8.392779579279948
9.590105845181675,-0.10537331005238071,-1.4289138105928378,8.325424461628
9.598104265402844,-0.06597056622599201,-1.5616033923671724,8.258069343976054
9.606102685624014,-0.020324505157499048,-1.6928646036613901,8.167568069881941
9.614101105845183,0.06436465012546634,-1.8151933835145624,7.932320416318149
9.622099526066352,0.1726824644552592,-1.9495355450238518,7.690047393364815
9.63009794628752,1.0758975813808604,-1.9443729835569514,7.158592239058362
9.63809636650869,1.0962879202545441,-2.1209014974523233,7.051683777228938
9.646094786729858,1.1166782591282278,-2.297430011347695,6.9447753153995135
9.654093206951028,1.137068598001916,-2.473958525243106,6.837866853570065
9.662091627172197,1.1574589368755996,-2.650487039138478,6.730958391740641
9.670090047393366,1.1778492757492833,-2.82701555303385,6.624049929911217
9.678088467614534,1.198239614622967,-3.003544066929222,6.5171414680817925
9.686086887835703,1.2186299534966507,-3.1800725808245938,6.410233006252368
9.694085308056874,1.2390202923703388,-3.3566010947200047,6.30332454442292
9.702083728278042,1.1683617693521038,-2.748347551342577,5.689774091626687
9.710082148499211,0.6860907948155976,-2.6715757529429847,5.128332382068657
9.71808056872038,0.5933779238648464,-2.759042348264797,5.086362177037148
9.726078988941548,0.5006650529140952,-2.8465089435866098,5.044391972005639
9.734077409162719,0.40795218196332345,-2.9339755389084416,5.002421766974121
9.742075829383888,0.31523931101257224,-3.021442134230254,4.9604515619426115
9.750074249605056,0.2225264400618211,-3.1089087295520668,4.918481356911102
9.758072669826225,0.1298135691110699,-3.1963753248738795,4.876511151879594
9.766071090047394,0.03710069816031869,-3.283841920195692,4.834540946848085
9.774069510268564,-0.05561217279045316,-3.3713085155175238,4.792570741816567
9.782067930489733,-0.14832504374120437,-3.4587751108393365,4.750600536785058
9.790066350710902,-0.24103791469195557,-3.5462417061611493,4.7086303317535485
9.79806477093207,-0.34077251184842694,-3.6394770932070224,4.677363349131236
9.806063191153239,-0.6903538189436171,-4.53002187650252,5.412616182430106
9.814061611374408,-0.7832919843395878,-4.673124046981255,5.342021430043269
9.822060031595578,-0.8762301497355789,-4.816226217460022,5.271426677656417
9.830058451816747,-0.9691683151315496,-4.959328387938756,5.200831925269581
9.838056872037916,-1.06210648052752,-5.102430558417491,5.130237172882745
9.846055292259084,-1.1550446459234907,-5.245532728896226,5.059642420495908
9.854053712480253,-1.2479828113194613,-5.388634899374961,4.989047668109071
9.862052132701423,-1.3409209767154524,-5.531737069853728,4.91845291572222
9.870050552922592,-1.433859142111423,-5.674839240332462,4.847858163335383
9.87804897314376,-1.5267973075073935,-5.817941410811197,4.777263410948547
9.88604739336493,-1.619735472903364,-5.961043581289932,4.706668658561711
9.894045813586098,-1.7126736382993348,-6.104145751768667,4.636073906174874
9.902044233807269,-0.3978453586097859,-7.224864467614526,5.408123854660355
9.910042654028437,-0.36988288151658016,-7.200357308056865,5.430519431279627
9.918041074249606,-0.34192040442337435,-7.1758501484992046,5.452915007898899
9.926039494470775,-0.3139579273301686,-7.151342988941543,5.475310584518172
9.934037914691944,-0.2859954502369628,-7.126835829383882,5.497706161137444
9.942036334913112,-0.25803297314375706,-7.102328669826221,5.5201017377567165
9.950034755134283,-0.23007049605054505,-7.0778215102685555,5.542497314375994
9.958033175355451,-0.20210801895733926,-7.053314350710894,5.564892890995266
9.96603159557662,-0.1741455418641335,-7.028807191153233,5.587288467614538
9.974030015797789,-0.14618306477092774,-7.004300031595572,5.609684044233811
9.982028436018958,-0.11822058767772192,-6.979792872037912,5.632079620853084
9.990026856240128,-0.09025811058450994,-6.955285712480245,5.654475197472361
9.998025276461297,-0.06229563349130418,-6.930778552922584,5.676870774091633
10.006023696682465,-0.03433315639809842,-6.906271393364923,5.699266350710905
10.014022116903634,-0.006370679304892601,-6.881764233807263,5.721661927330177
10.022020537124803,0.02159179778831316,-6.857257074249602,5.74405750394945
10.030018957345973,0.05991706161138972,-6.801675355450207,5.798324644549792
10.038017377567142,0.11533468742948269,-6.694839313924605,5.905160686075395
10.04601579778831,-1.335277753841764,-5.808047967829963,5.859038201924462
10.05401421800948,-1.4759045239121262,-5.8323340801378745,5.878379836277469
10.062012638230648,-1.6165312939824883,-5.856620192445786,5.897721470630477
10.070011058451819,-1.7571580640528819,-5.880906304753704,5.917063104983488
10.078009478672987,-1.8977848341232442,-5.905192417061615,5.936404739336496
10.086007898894156,-2.0384116041936062,-5.9294785293695265,5.955746373689503
10.094006319115325,-2.1790383742639685,-5.953764641677438,5.975088008042511
10.102004739336493,-2.3939894681411036,-5.996992627698783,6.025826224328585
10.110003159557662,-3.126274881516647,-6.172992101106059,6.2957962085309775
10.118001579778833,-1.2202200841279738,-6.408025219360867,5.803553341327373
10.126000000000001,-1.1755060240963802,-6.4747108433735026,5.6771204819276955
10.13399842022117,-1.1307919640647865,-6.541396467386138,5.550687622528017
10.141996840442339,-1.086077904033193,-6.608082091398773,5.424254763128339
10.149995260663507,-1.0413638440015993,-6.6747677154114085,5.29782190372866
10.157993680884678,-0.9966497839699957,-6.7414533394240586,5.171389044328953
10.165992101105847,-0.9519357239384021,-6.808138963436694,5.044956184929275
10.173990521327015,-0.9072216639068085,-6.874824587449329,4.918523325529597
10.181988941548184,-0.8625076038752149,-6.9415102114619645,4.792090466129918
10.189987361769353,-0.8177935438436212,-7.0081958354745995,4.665657606730239
10.197985781990523,-0.7730794838120179,-7.07488145948725,4.5392247473305325
10.205984202211692,-2.2207972447297935,-9.673772851585731,5.425810732303951
10.21398262243286,-2.040359764901708,-9.712560889432474,5.554301482953694
10.22198104265403,-1.8599222850736226,-9.751348927279217,5.682792233603435
10.229979462875198,-1.6794848052455373,-9.79013696512596,5.811282984253178
10.237977883096367,-1.499047325417452,-9.828925002972703,5.9397737349029205
10.245976303317537,-1.3186098455893265,-9.867713040819453,6.0682644855526915
10.253974723538706,-1.138172365761241,-9.906501078666196,6.196755236202433
10.261973143759874,-0.9577348859331558,-9.945289116512939,6.325245986852176
10.269971563981043,-0.7772974061050704,-9.984077154359682,6.453736737501918
10.277969984202212,-0.5968599262769849,-10.022865192206424,6.582227488151661
10.285968404423382,-0.4164224464488595,-10.061653230053176,6.710718238801432
10.293966824644551,-0.23598496662077428,-10.10044126789992,6.839208989451174
10.30196524486572,0.2620537124802786,-8.129239336492603,6.832117693522766
10.309963665086888,0.13781862794527486,-6.736815233101407,5.925184968572481
10.317962085308057,0.10046430372088036,-6.723626348694161,5.886809569426235
10.325960505529228,0.06310997949647759,-6.710437464286911,5.8484341702799805
10.333958925750396,0.025755655272083094,-6.697248579879665,5.810058771133734
10.341957345971565,-0.011598668952311375,-6.684059695472419,5.771683371987489
10.349955766192734,-0.04895299317670587,-6.670870811065172,5.733307972841243
10.357954186413902,-0.08630731740110037,-6.657681926657926,5.694932573694997
10.365952606635073,-0.12366164162550317,-6.6444930422506765,5.656557174548743
10.373951026856242,-0.1610159658498976,-6.63130415784343,5.618181775402497
10.38194944707741,-0.1983702900742921,-6.618115273436183,5.5798063762562515
10.389947867298579,-0.2357246142986866,-6.604926389028938,5.541430977110005
10.397946287519748,-0.27307893852308107,-6.591737504621691,5.50305557796376
10.405944707740916,-0.24437253159557448,-9.012688849394419,5.318988744075827
10.413943127962087,-0.22212692535544412,-9.018521030805688,5.293493779620846
10.421941548183256,-0.19988131911531867,-9.024353212216958,5.267998815165871
10.429939968404424,-0.17763571287519325,-9.030185393628226,5.242503850710896
10.437938388625593,-0.1553901066350678,-9.036017575039496,5.21700888625592
10.445936808846762,-0.1331445003949424,-9.041849756450764,5.191513921800945
10.453935229067932,-0.11089889415481202,-9.047681937862034,5.1660189573459645
10.4619336492891,-0.0886532879146866,-9.053514119273304,5.140523992890989
10.46993206951027,-0.06640768167456115,-9.059346300684572,5.115029028436014
10.477930489731438,-0.04416207543443573,-9.065178482095842,5.089534063981039
10.485928909952607,-0.021916469194310284,-9.07101066350711,5.064039099526063
10.493927330173777,0.0003291370458200771,-9.07684284491838,5.038544135071083
10.501925750394946,-0.00036650868882036683,-9.091257503949464,4.878988941547935
10.509924170616115,-0.30291706161115656,-10.429037914692083,5.9074454976304995
10.517922590837284,0.0851792782718307,-10.606939329392759,6.147705291371566
10.525921011058452,0.1502450787226859,-10.552837655537214,6.118946926531409
10.533919431279623,0.21531087917355554,-10.498735981681657,6.090188561691246
10.541917851500791,0.2803766796244107,-10.444634307826112,6.061430196851089
10.54991627172196,0.3454424800752659,-10.390532633970567,6.032671832010932
10.557914691943129,0.4105082805261211,-10.33643096011502,6.003913467170775
10.565913112164298,0.4755740809769763,-10.282329286259476,5.975155102330618
10.573911532385466,0.5406398814278315,-10.22822761240393,5.946396737490462
10.581909952606637,0.6057056818787012,-10.174125938548373,5.917638372650298
10.589908372827805,0.6707714823295564,-10.120024264692827,5.888880007810141
10.597906793048974,0.7358372827804116,-10.065922590837282,5.860121642969984
10.605905213270143,-0.10404265402867263,-8.08990047393348,4.303857819905132
10.613903633491311,-0.8059806780896893,-8.218994149610268,4.437194208634972
10.621902053712482,-0.8650459351075629,-8.264172039650726,4.484921045778879
10.62990047393365,-0.9241111921254234,-8.309349929691171,4.532647882922775
10.63789889415482,-0.9831764491432838,-8.354527819731619,4.580374720066671
10.645897314375988,-1.0422417061611444,-8.399705709772066,4.6281015572105675
10.653895734597157,-1.101306963179005,-8.444883599812513,4.675828394354464
10.661894154818327,-1.1603722201968785,-8.49006148985297,4.723555231498371
10.669892575039496,-1.219437477214739,-8.535239379893417,4.771282068642266
10.677890995260665,-1.2785027342325992,-8.580417269933864,4.819008905786163
10.685889415481833,-1.3375679912504599,-8.62559515997431,4.866735742930059
10.693887835703002,-1.3966332482683201,-8.670773050014757,4.914462580073955
10.70188625592417,-1.0850758293838476,-9.909881516587733,6.2582559241706734
10.709884676145341,-0.3543892575038328,-9.492427172195756,6.349914060031545
10.71788309636651,-0.18967001208065823,-9.272382120620746,6.253046110956219
10.725881516587679,-0.17602564817395883,-9.214040702536927,6.20562018399776
10.733879936808847,-0.16238128426725942,-9.155699284453108,6.158194257039302
10.741878357030016,-0.14873692036056,-9.097357866369292,6.110768330080843
10.749876777251187,-0.13509255645385754,-9.03901644828546,6.063342403122373
10.757875197472355,-0.12144819254715815,-8.980675030201642,6.015916476163915
10.765873617693524,-0.10780382864045873,-8.922333612117823,5.968490549205456
10.773872037914693,-0.09415946473375932,-8.863992194034006,5.921064622246997
10.781870458135861,-0.08051510082705991,-8.805650775950188,5.873638695288539
10.789868878357032,-0.06687073692035747,-8.747309357866357,5.82621276833007
10.7978672985782,-0.05322637301365804,-8.688967939782538,5.778786841371611
10.80586571879937,-0.32388151658769815,-8.093785150078991,5.338996840442334
10.813864139020538,-0.5202920386494649,-8.162826775414223,5.403290128219279
10.821862559241707,-0.4743476248208914,-8.09772335500936,5.520383280061736
10.829860979462877,-0.42840321099230766,-8.032619934604485,5.63747643190422
10.837859399684046,-0.3824587971637341,-7.967516514199624,5.754569583746678
10.845857819905214,-0.3365143833351606,-7.902413093794762,5.871662735589135
10.853856240126383,-0.290569969506587,-7.837309673389901,5.988755887431593
10.861854660347552,-0.24462555567801347,-7.77220625298504,6.105849039274051
10.86985308056872,-0.1986811418494399,-7.707102832580178,6.222942191116508
10.877851500789891,-0.1527367280208562,-7.641999412175302,6.340035342958992
10.88584992101106,-0.10679231419228263,-7.576895991770441,6.45712849480145
10.893848341232228,-0.06084790036370907,-7.5117925713655795,6.574221646643907
10.901846761453397,0.10178199052133839,-7.206102685623933,6.850334913112154
10.909845181674566,0.23952039943765685,-6.837120077684537,6.5889659695349065
10.917843601895736,0.24296925953302395,-6.83044249749989,6.56702534892821
10.925842022116905,0.24641811962839028,-6.823764917315244,6.545084728321518
10.933840442338074,0.24986697972375657,-6.817087337130599,6.523144107714826
10.941838862559242,0.2533158398191229,-6.810409756945953,6.501203487108133
10.949837282780411,0.25676469991448925,-6.803732176761308,6.479262866501441
10.957835703001582,0.2602135600098563,-6.797054596576661,6.457322245894744
10.96583412322275,0.2636624201052226,-6.790377016392016,6.435381625288052
10.973832543443919,0.26711128020058894,-6.78369943620737,6.41344100468136
10.981830963665088,0.27056014029595526,-6.777021856022725,6.391500384074668
10.989829383886256,0.2740090003913216,-6.770344275838079,6.369559763467976
10.997827804107425,0.2774578604866879,-6.763666695653434,6.347619142861284
11.005826224328596,0.280906720582055,-6.756989115468787,6.325678522254586
11.013824644549764,0.2768530805687089,-6.785085308056927,6.2485497630330835
11.021823064770933,0.1349423380726684,-7.04545734597158,5.898745655608239
11.029821484992102,0.14009482885729427,-7.082092406529752,5.9565500789889425
11.03781990521327,0.14958628751974765,-7.085718357030016,5.967747867298579
11.04581832543444,0.15907774618220316,-7.08934430753028,5.978945655608217
11.05381674565561,0.16856920484465654,-7.092970258030543,5.990143443917853
11.061815165876778,0.17806066350710992,-7.096596208530806,6.001341232227489
11.069813586097947,0.18755212216956332,-7.10022215903107,6.012539020537125
11.077812006319116,0.1970435808320167,-7.103848109531333,6.023736808846761
11.085810426540286,0.20653503949447222,-7.107474060031596,6.0349345971564
11.093808846761455,0.2160264981569256,-7.111100010531859,6.046132385466035
11.101807266982624,0.28191456029489115,-6.745685492364401,6.309565429173251
11.109805687203792,0.26125197472353645,-6.693029225908367,6.344891785150083
11.117804107424961,0.326,-6.456,6.269
11.125802527646131,0.326,-6.456,6.269
11.1338009478673,0.326,-6.456,6.269
11.141799368088469,0.326,-6.456,6.269
11.149797788309638,0.326,-6.456,6.269
11.157796208530806,0.326,-6.456,6.269
11.165794628751975,0.326,-6.456,6.269
11.173793048973145,0.326,-6.456,6.269
11.181791469194314,0.326,-6.456,6.269
11.189789889415483,0.326,-6.456,6.269
11.197788309636652,0.326,-6.456,6.269
11.20578672985782,0.39349099526066594,-6.802799052132714,6.344720379146922
11.21378515007899,0.47397184483063126,-6.8489228014744565,6.382811865894337
11.22178357030016,0.5693307881341205,-6.8294599789362795,6.417116201509572
11.229781990521328,0.6646897314376097,-6.8099971563981025,6.451420537124807
11.237780410742497,0.7600486747410988,-6.7905343338599256,6.4857248727400405
11.245778830963665,0.8554076180445881,-6.771071511321748,6.520029208355275
11.253777251184836,0.9507665613480984,-6.751608688783566,6.554333543970518
11.261775671406005,1.0461255046515876,-6.732145866245389,6.588637879585753
11.269774091627173,1.1414844479550768,-6.712683043707212,6.622942215200987
11.277772511848342,1.2368433912585661,-6.693220221169034,6.657246550816222
11.28577093206951,1.3322023345620553,-6.673757398630857,6.691550886431457
11.293769352290681,1.4275612778655657,-6.654294576092676,6.725855222046699
11.30176777251185,1.4606682464455172,-6.988056872037994,6.816668246445517
11.309766192733019,1.5166912296794581,-7.210816168102059,6.871742479063684
11.317764612954187,1.5195293787901956,-7.2222547690635155,6.874666632692929
11.325763033175356,1.5223675279009328,-7.233693370024971,6.877590786322173
11.333761453396525,1.5252056770116702,-7.245131970986428,6.880514939951418
11.341759873617695,1.528043826122408,-7.256570571947887,6.883439093580663
11.349758293838864,1.5308819752331453,-7.268009172909343,6.886363247209907
11.357756714060033,1.5337201243438827,-7.2794477738708,6.889287400839152
11.365755134281201,1.53655827345462,-7.290886374832255,6.892211554468396
11.37375355450237,1.5393964225653571,-7.302324975793712,6.895135708097641
11.38175197472354,1.5422345716760952,-7.313763576755171,6.898059861726886
11.38975039494471,1.5450727207868324,-7.325202177716627,6.90098401535613
11.397748815165878,1.5479108698975697,-7.336640778678084,6.9039081689853745
11.405747235387047,1.6690184937152392,-7.852338484786065,7.161345731162831
11.413745655608215,1.7334405522357388,-7.973705817707276,7.025894223504344
11.421744075829386,1.797862610756253,-8.095073150628515,6.890442715845827
11.429742496050554,1.8622846692767525,-8.216440483549725,6.754991208187341
11.437740916271723,1.9267067277972523,-8.337807816470937,6.619539700528854
11.445739336492892,1.991128786317752,-8.459175149392149,6.4840881928703675
11.45373775671406,2.0555508448382516,-8.58054248231336,6.348636685211881
11.46173617693523,2.1199729033587515,-8.70190981523457,6.213185177553394
11.4697345971564,2.1843949618792653,-8.823277148155809,6.077733669894878
11.477733017377568,2.2488170203997653,-8.94464448107702,5.942282162236391
11.485731437598737,2.313239078920265,-9.066011813998232,5.8068306545779045
11.493729857819906,2.3776611374407643,-9.187379146919444,5.671379146919418
11.501728278041075,3.3725174653326375,-9.812755836405136,5.394682113393011
11.509726698262245,3.381746445497399,-10.59354423380776,5.217391785149978
11.517725118483414,3.3941248372480683,-10.656792823290454,5.206801416592886
11.525723538704582,3.4387753589222845,-10.654507560370119,5.209701942607156
11.533721958925751,3.4834258805965006,-10.652222297449786,5.212602468621426
11.54172037914692,3.5280764022707163,-10.64993703452945,5.215502994635696
11.54971879936809,3.572726923944942,-10.647651771609118,5.218403520649967
11.557717219589259,3.6173774456191583,-10.645366508688783,5.221304046664237
11.565715639810428,3.6620279672933744,-10.64308124576845,5.224204572678507
11.573714060031596,3.70667848896759,-10.640795982848115,5.2271050986927765
11.581712480252765,3.7513290106418062,-10.638510719927782,5.230005624707046
11.589710900473936,3.795979532316032,-10.636225457007447,5.232906150721317
11.597709320695104,3.840630053990248,-10.633940194087112,5.235806676735587
11.605707740916273,4.11937851500797,-11.421702369668335,4.594959241706006
11.613706161137442,5.133109220163719,-12.709131139595007,4.071205084015513
11.62170458135861,5.0447630331753555,-12.827744075829385,4.125012638230648
11.629703001579779,4.956416846186991,-12.946357012063762,4.178820192445784
11.63770142180095,4.868070659198607,-13.064969948298167,4.23262774666093
11.645699842022118,4.779724472210243,-13.183582884532544,4.286435300876066
11.653698262243287,4.691378285221878,-13.302195820766922,4.340242855091201
11.661696682464456,4.6030320982335144,-13.4208087570013,4.394050409306336
11.669695102685624,4.5146859112451505,-13.539421693235678,4.447857963521472
11.677693522906795,4.426339724256766,-13.658034629470082,4.501665517736619
11.685691943127964,4.337993537268402,-13.77664756570446,4.555473071951755
11.693690363349132,4.249647350280038,-13.895260501938838,4.60928062616689
11.701688783570301,4.1600315955764895,-13.047415481832093,5.650815165876892
11.70968720379147,3.703326066350727,-9.566519431279787,6.166782938388519
11.71768562401264,3.527860961712527,-9.07332823899031,6.475052416706637
11.725684044233809,3.360163746738358,-8.718791522445242,6.6946944281733405
11.733682464454978,3.192466531764189,-8.364254805900174,6.914336439640044
11.741680884676146,3.0247693167900205,-8.009718089355108,7.133978451106747
11.749679304897315,2.8570721018158514,-7.6551813728100395,7.353620462573451
11.757677725118484,2.6893748868416827,-7.300644656264972,7.573262474040154
11.765676145339654,2.5216776718674767,-6.946107939719827,7.792904485506907
11.773674565560823,2.353980456893308,-6.591571223174759,8.01254649697361
11.781672985781992,2.1862832419191394,-6.2370345066296915,8.232188508440313
11.78967140600316,2.0185860269449702,-5.882497790084624,8.451830519907016
11.797669826224329,1.8508888119708016,-5.527961073539556,8.67147253137372
11.8056682464455,1.9819810426534896,-4.4460568720377465,6.487767772510983
11.813666666666668,2.1091014492753497,-3.9633768115942005,5.849782608695655
11.821665086887837,2.009642832612122,-3.947032213750943,5.872317288275296
11.829663507109005,1.9101842159488935,-3.930687615907685,5.894851967854937
11.837661927330174,1.8107255992856657,-3.9143430180644274,5.917386647434577
11.845660347551345,1.7112669826224156,-3.897998420221166,5.939921327014222
11.853658767772513,1.6118083659591875,-3.8816538223779085,5.962456006593863
11.861657187993682,1.5123497492959594,-3.8653092245346508,5.984990686173504
11.86965560821485,1.4128911326327316,-3.848964626691393,6.0075253657531436
11.87765402843602,1.3134325159695033,-3.832620028848135,6.030060045332784
11.88565244865719,1.2139738993062532,-3.8162754310048737,6.05259472491243
11.893650868878359,1.1145152826430254,-3.799930833161616,6.0751294044920705
11.901649289099527,1.0150566659797973,-3.7835862353183582,6.0976640840717105
11.909647709320696,0.9155980493165692,-3.7672416374751005,6.120198763651351
11.917646129541865,0.8161394326533413,-3.750897039631843,6.142733443230991
11.925644549763033,1.1356982622432994,-3.429916271721943,6.540380200105353
11.933642969984204,1.2418159557661115,-3.1582298578196064,6.949190363349306
11.941641390205373,1.195872724775028,-2.976298166082802,6.862587093893823
11.949639810426541,1.0939798063053578,-2.8406727797238553,6.908404131465082
11.95763823064771,0.9920868878356877,-2.7050473933649086,6.954221169036342
11.965636650868879,0.8901939693660174,-2.569422007005962,7.000038206607602
11.97363507109005,0.7883010508963244,-2.433796620646985,7.045855244178871
11.981633491311218,0.6864081324266542,-2.2981712342880383,7.091672281750131
11.989631911532387,0.584515213956984,-2.1625458479290915,7.137489319321391
11.997630331753555,0.4826222954873137,-2.026920461570145,7.1833063568926505
12.005628751974724,0.38072937701764353,-1.891295075211198,7.22912339446391
12.013627172195894,0.2788364585479506,-1.7556696888522212,7.27494043203518
12.021625592417063,0.1769435400782804,-1.6200443024932745,7.3207574696064395
12.029624012638232,0.062407582938351726,-1.4981200631911589,7.3860884676145755
12.0376224328594,0.6389924960505468,-1.0198483412321697,7.772714718272792
12.04562085308057,1.3515260663511799,-1.349985781991059,7.955018957345982
12.05361927330174,1.6205958728277579,-1.7593379739336379,8.148213434702484
12.061617693522908,1.4321330963664705,-1.712847156398095,8.188372169562935
12.069616113744077,1.243670319905183,-1.6663563388625517,8.228530904423387
12.077614533965246,1.055207543443896,-1.6198655213270088,8.268689639283838
12.085612954186415,0.8667447669826085,-1.5733747037914658,8.30884837414429
12.093611374407583,0.6782819905213213,-1.5268838862559226,8.349007109004742
12.101609794628754,1.3105181345444994,-1.565279489204845,8.903809439178515
12.109608214849922,1.3304308682201176,-1.5689454318062142,8.9013099328594
12.117606635071091,1.3503436018957358,-1.5726113744075831,8.898810426540285
12.12560505529226,1.3702563355713542,-1.5762773170089521,8.896310920221168
12.133603475513429,1.3901690692469724,-1.5799432596103213,8.893811413902053
12.141601895734599,1.410081802922595,-1.5836092022116912,8.891311907582939
12.149600315955768,1.4299945365982134,-1.5872751448130602,8.888812401263824
12.157598736176936,1.4499072702738316,-1.5909410874144292,8.886312894944707
12.165597156398105,1.46982000394945,-1.5946070300157982,8.883813388625592
12.173595576619274,1.4897327376250682,-1.5982729726171674,8.881313882306477
12.181593996840444,1.5096454713006908,-1.6019389152185373,8.87881437598736
12.189592417061613,1.5295582049763092,-1.6056048578199063,8.876314869668246
12.197590837282782,1.8020600315961777,-1.5960015797788,8.912404423380817
12.20558925750395,2.211144813059558,-1.4938778304370797,9.105538177988441
12.213587677725119,2.1916877303844124,-1.3981258557135332,9.242220642443392
12.221586097946288,2.2083066701772855,-1.4116342987537294,9.246130981218185
12.229584518167458,2.2249256099701618,-1.4251427417939284,9.25004131999298
12.237582938388627,2.241544549763035,-1.4386511848341244,9.253951658767773
12.245581358609796,2.2581634895559075,-1.4521596278743205,9.257861997542566
12.253579778830964,2.27478242934878,-1.4656680709145165,9.26177233631736
12.261578199052133,2.2914013691416533,-1.4791765139547126,9.265682675092153
12.269576619273304,2.3080203089345295,-1.4926849569949117,9.269593013866947
12.277575039494472,2.324639248727402,-1.5061934000351076,9.273503352641741
12.285573459715641,2.3412581885202752,-1.5197018430753038,9.277413691416536
12.29357187993681,2.357877128313148,-1.5332102861154997,9.281324030191328
12.301570300157978,2.305586097946288,-1.59475766192733,9.344242022116903
12.309568720379149,1.8709146919429833,-1.4314123222744812,9.421265402843822
12.317567140600318,1.983758134085951,-1.3399049292649732,9.491879067042975
12.325565560821486,1.9977778369455275,-1.3914902461970047,9.498888918472764
12.333563981042655,2.011797539805104,-1.4430755631290364,9.505898769902553
12.341562401263824,2.0258172426646803,-1.494660880061068,9.51290862133234
12.349560821484994,2.03983694552426,-1.546246196993111,9.51991847276213
12.357559241706163,2.0538566483838365,-1.5978315139251427,9.526928324191918
12.365557661927332,2.067876351243413,-1.6494168308571742,9.533938175621707
12.3735560821485,2.0818960541029896,-1.7010021477892057,9.540948027051494
12.381554502369669,2.095915756962566,-1.7525874647212374,9.547957878481283
12.389552922590838,2.1099354598221427,-1.8041727816532689,9.554967729911072
12.397551342812008,2.1239551626817224,-1.855758098585312,9.56197758134086
12.405549763033177,2.031853080568707,-1.8173862559241225,9.615926540284352
12.413548183254346,2.128765443559549,-1.6687216983436775,9.616771208937966
12.421546603475514,2.119777528053288,-1.679853520300974,9.616441377176269
12.429545023696683,2.110789612547026,-1.6909853422582704,9.61611154541457
12.437543443917853,2.1018016970407625,-1.7021171642155692,9.615781713652872
12.445541864139022,2.0928137815345007,-1.713248986172866,9.615451881891175
12.45354028436019,2.083825866028239,-1.7243808081301624,9.615122050129477
12.46153870458136,2.0748379505219776,-1.7355126300874588,9.614792218367779
12.469537124802528,2.065850035015716,-1.7466444520447553,9.614462386606082
12.477535545023699,2.0568621195094523,-1.7577762740020544,9.614132554844383
12.485533965244867,2.0478742040031905,-1.7689080959593508,9.613802723082685
12.493532385466036,2.038886288496929,-1.7800399179166473,9.613472891320988
12.501530805687205,2.0298983729906674,-1.7911717398739437,9.61314305955929
12.509529225908373,1.9918341232227152,-1.7267598736177088,9.419720379146874
12.517527646129542,1.9976711488298615,-1.6038879091810871,9.442408078915465
12.525526066350713,2.000089275873471,-1.5849149123773805,9.434316653808
12.533524486571881,2.00250740291708,-1.565941915573678,9.42622522870054
12.54152290679305,2.004925529960689,-1.5469689187699756,9.418133803593078
12.549521327014219,2.0073436570042986,-1.5279959219662733,9.410042378485617
12.557519747235387,2.0097617840479076,-1.5090229251625709,9.401950953378156
12.565518167456558,2.012179911091517,-1.4900499283588642,9.393859528270692
12.573516587677727,2.0145980381351265,-1.4710769315551617,9.385768103163231
12.581515007898895,2.0170161651787355,-1.4521039347514593,9.37767667805577
12.589513428120064,2.0194342922223445,-1.4331309379477568,9.369585252948308
12.597511848341233,2.0218524192659535,-1.4141579411440544,9.361493827840848
12.605510268562403,1.996,-1.5404597156395419,9.422486571879848
12.613508688783572,1.98517576756645,-1.2822634109485422,9.353235249673745
12.62150710900474,1.9718740469812457,-1.239576189985566,9.35966876159077
12.62950552922591,1.9585723263960413,-1.1968889690225897,9.366102273507797
12.637503949447078,1.9452706058108369,-1.1542017480596136,9.372535785424825
12.645502369668248,1.9319688852256294,-1.1115145270966278,9.378969297341854
12.653500789889417,1.918667164640425,-1.0688273061336517,9.38540280925888
12.661499210110586,1.9053654440552208,-1.0261400851706755,9.391836321175907
12.669497630331755,1.8920637234700162,-0.9834528642076994,9.398269833092934
12.677496050552923,1.878762002884812,-0.9407656432447231,9.404703345009962
12.685494470774092,1.8654602822996076,-0.898078422281747,9.411136856926987
12.693492890995262,1.8521585617144,-0.8553912013187612,9.417570368844016
12.701491311216431,1.5506861506054037,-1.0826050552924156,9.400408636124263
12.7094897314376,2.2331912064895123,-1.236846583950164,9.526285070202533
12.717488151658769,2.180527450875975,-1.2950822727514817,9.54929176207466
12.725486571879937,2.1278636952624375,-1.3533179615527997,9.572298453946786
12.733484992101108,2.075199939648888,-1.4115536503541306,9.595305145818916
12.741483412322276,2.0225361840353506,-1.4697893391554484,9.618311837691042
12.749481832543445,1.9698724284218132,-1.5280250279567664,9.641318529563167
12.757480252764614,1.9172086728082756,-1.5862607167580842,9.664325221435293
12.765478672985783,1.8645449171947381,-1.6444964055594022,9.68733191330742
12.773477093206953,1.811881161581189,-1.7027320943607331,9.71033860517955
12.781475513428122,1.7592174059676515,-1.7609677831620512,9.733345297051676
12.78947393364929,1.706553650354114,-1.819203471963369,9.7563519889238
12.79747235387046,1.655819115323853,-1.7835442338071434,9.718483412322193
12.805470774091628,2.390702050315105,-0.9128881584535145,9.95245976660042
12.813469194312798,2.36189053661519,-0.89052698364164,9.976713040819453
12.821467614533967,2.333079022915281,-0.8681658088297705,10.00096631503848
12.829466034755136,2.3042675092153724,-0.845804634017901,10.025219589257508
12.837464454976304,2.2754559955154634,-0.8234434592060315,10.049472863476536
12.845462875197473,2.246644481815555,-0.801082284394162,10.073726137695564
12.853461295418642,2.217832968115646,-0.7787211095822925,10.09797941191459
12.861459715639812,2.1890214544157307,-0.756359934770418,10.122232686133623
12.869458135860981,2.160209940715822,-0.7339987599585486,10.146485960352651
12.87745655608215,2.131398427015913,-0.7116375851466791,10.170739234571679
12.885454976303318,2.1025869133160047,-0.6892764103348096,10.194992508790707
12.893453396524487,2.0737753996160957,-0.6669152355229401,10.219245783009734
12.901451816745658,2.440889415481292,-1.7470805687194313,10.051671406003846
12.909450236966826,2.5103497936095502,-0.9864725577128878,10.022942312592361
12.917448657187995,2.557824287825519,-0.985698517046323,9.99937707452139
12.925447077409164,2.6052987820414883,-0.9849244763797583,9.97581183645042
12.933445497630332,2.652773276257457,-0.9841504357131936,9.952246598379451
12.941443917851503,2.7002477704734367,-0.9833763950466288,9.928681360308476
12.949442338072672,2.747722264689406,-0.982602354380064,9.905116122237505
