gyro_time_list,gyro_x_list,gyro_y_list,gyro_z_list
0.0,0.2,0.0,-0.0
0.007992537313432836,0.0979948741142771,0.1,0.09899743705713855
0.015985074626865672,0.08184833408714005,0.1,0.09092416704357004
0.02397761194029851,0.06570179406000301,0.1,0.08285089703000151
0.031970149253731345,0.049555254032865974,0.1,0.074777627016433
0.03996268656716418,0.03340871400572892,0.1,0.06670435700286446
0.04795522388059702,0.01726217397859188,0.1,0.05863108698929594
0.05594776119402985,0.0011156339514548363,0.1,0.05055781697572742
0.06394029850746269,-0.015030906075682207,0.1,0.0424845469621589
0.07193283582089552,-0.031177446102819223,0.1,0.03441127694859039
0.07992537313432836,-0.04732398612995628,0.1,0.026338006935021863
0.0879179104477612,-0.06347052615709334,0.1,0.018264736921453334
0.09591044776119403,-0.07961706618423037,0.1,0.010191466907884819
0.10390298507462686,-0.0957636062113674,0.1,0.0021181968943163043
0.1118955223880597,-0.02089552238805914,0.1,0.1
0.11988805970149255,-0.0053482587064676715,0.1,0.1
0.12788059701492538,-0.02014925373134328,0.1,0.1
0.1358731343283582,-0.03495024875621889,0.1,0.1
0.14386567164179104,-0.049751243781094495,0.1,0.1
0.1518582089552239,-0.06455223880597015,0.1,0.1
0.15985074626865672,-0.07935323383084576,0.1,0.1
0.16784328358208955,-0.09415422885572138,0.1,0.1
0.1758358208955224,-0.0632835820895516,0.1,0.0
0.18382835820895524,-0.1,0.1,-0.002192525743376159
0.19182089552238807,-0.1,0.1,-0.008388291102626415
0.1998134328358209,-0.1,0.1,-0.01458405646187667
0.20780597014925373,-0.1,0.1,-0.020779821821126927
0.21579850746268658,-0.1,0.1,-0.0269755871803772
0.2237910447761194,-0.1,0.1,-0.03317135253962746
0.23178358208955224,-0.1,0.1,-0.039367117898877715
0.2397761194029851,-0.1,0.1,-0.04556288325812799
0.24776865671641793,-0.1,0.1,-0.05175864861737825
0.25576119402985076,-0.1,0.1,-0.057954413976628504
0.2637537313432836,-0.1,0.1,-0.06415017933587878
0.2717462686567164,-0.1,0.1,-0.07034594469512902
0.2797388059701493,-0.1,0.1,-0.07654171005437929
0.2877313432835821,-0.1,0.1,-0.08273747541362952
0.29572388059701493,-0.1,0.1,-0.0889332407728798
0.3037164179104478,-0.1,0.1,-0.09512900613213007
0.3117089552238806,-0.1,0.18544776119402956,-0.014552238805970438
0.31970149253731345,-0.10647896879240165,0.2,0.0
0.3276940298507463,-0.11556139755766626,0.2,0.0
0.3356865671641791,-0.1246438263229308,0.2,0.0
0.34367910447761196,-0.1337262550881954,0.2,0.0
0.3516716417910448,-0.14280868385346002,0.2,0.0
0.3596641791044776,-0.15189111261872457,0.2,0.0
0.3676567164179105,-0.16097354138398917,0.2,0.0
0.3756492537313433,-0.17005597014925372,0.2,0.0
0.38364179104477614,-0.17913839891451833,0.2,0.0
0.391634328358209,-0.18822082767978293,0.2,0.0
0.3996268656716418,-0.19730325644504748,0.2,0.0
0.40761940298507465,-0.29365671641791125,0.2,0.09365671641791126
0.41561194029850745,-2.0119402985074735,0.7835820895522421,0.6223880597014947
0.4236044776119403,-2.5252502194907818,0.9178928884986831,0.7357857769973662
0.43159701492537317,-2.6568920105355582,0.9366988586479369,0.7733977172958738
0.43958955223880597,-2.788533801580334,0.9555048287971906,0.811009657594381
0.4475820895522388,-2.9201755926251103,0.9743107989464443,0.8486215978928886
0.4555746268656717,-3.0518173836698868,0.9931167690956981,0.8862335381913962
0.4635671641791045,-3.1834591747146623,1.0119227392449517,0.9238454784899035
0.47155970149253734,-3.3151009657594384,1.0307287093942055,0.9614574187884111
0.4795522388059702,-3.4467427568042153,1.0495346795434592,0.9990693590869186
0.487544776119403,-3.5783845478489904,1.068340649692713,1.036681299385426
0.49553731343283586,-3.710026338893767,1.0871466198419668,1.0742932396839335
0.5035298507462687,-5.327487562189055,1.2,1.4509950248756218
0.5115223880597015,-4.695522388059699,1.4522388059701505,2.304477611940301
0.5195149253731344,-4.6256190637720485,1.4914603120759837,2.408539687924016
0.5275074626865672,-4.652866350067843,1.482377883310719,2.417622116689281
0.5355,-4.680113636363636,1.4732954545454546,2.4267045454545455
0.5434925373134328,-4.70736092265943,1.46421302578019,2.43578697421981
0.5514850746268657,-4.7346082089552235,1.4551305970149253,2.4448694029850744
0.5594776119402985,-4.761855495251018,1.4460481682496606,2.4539518317503393
0.5674701492537314,-4.789102781546812,1.436965739484396,2.4630342605156037
0.5754626865671642,-4.816350067842605,1.4278833107191315,2.472116689280868
0.583455223880597,-4.843597354138399,1.4188008819538669,2.481199118046133
0.5914477611940299,-4.870844640434193,1.4097184531886022,2.4902815468113975
0.5994402985074627,-4.898091926729987,1.4006360244233378,2.4993639755766623
0.6074328358208956,-5.00122500704027,1.59959166431991,3.5008166713601803
0.6154253731343284,-5.023845395663193,1.5920515347789355,3.5158969304421293
0.6234179104477612,-5.0464657842861165,1.5845114052379612,3.530977189524078
0.631410447761194,-5.0690861729090395,1.576971275696987,3.5460574486060263
0.6394029850746269,-5.0917065615319625,1.5694311461560124,3.5611377076879753
0.6473955223880598,-5.1143269501548865,1.561891016615038,3.5762179667699243
0.6553880597014926,-5.1369473387778095,1.5543508870740637,3.591298225851873
0.6633805970149254,-5.1595677274007326,1.5468107575330894,3.6063784849338214
0.6713731343283582,-5.182188116023656,1.539270627992115,3.6214587440157704
0.6793656716417911,-5.204808504646579,1.5317304984511404,3.6365390030977194
0.6873582089552239,-5.227428893269502,1.5241903689101661,3.651619262179668
0.6953507462686568,-5.250049281892425,1.5166502393691916,3.666699521261617
0.7033432835820896,-5.272669670515348,1.5091101098282174,3.6817797803435655
0.7113358208955224,-5.295290059138271,1.501569980287243,3.696860039425514
0.7193283582089552,-5.447761194029849,1.2238805970149247,3.8
0.7273208955223881,-5.219402985074625,1.1097014925373125,3.8
0.735313432835821,-4.811940298507418,0.9843283582089515,3.8
0.7433059701492538,-3.7279317697228134,0.8819829424307034,3.7819829424307034
0.7512985074626866,-3.6365884861407247,0.8591471215351812,3.759147121535181
0.7592910447761194,-3.545245202558635,0.8363113006396589,3.7363113006396587
0.7672835820895523,-3.4539019189765456,0.8134754797441364,3.7134754797441363
0.7752761194029851,-3.3625586353944557,0.790639658848614,3.690639658848614
0.783268656716418,-3.271215351812366,0.7678038379530916,3.6678038379530915
0.7912611940298507,-3.179872068230278,0.7449680170575694,3.6449680170575696
0.7992537313432836,-3.088528784648188,0.722132196162047,3.622132196162047
0.8072462686567164,-2.9507462686567205,0.6753731343283602,3.5630597014925405
0.8152388059701493,-7.5432835820896145,-0.18582089552240372,1.1761194029850643
0.8232313432835822,-7.803895775360482,-0.28774348596003013,1.0877434859600303
0.8312238805970149,-7.587149000758917,-0.2741968125474323,1.0741968125474324
0.8392164179104478,-7.370402226157348,-0.26065013913483426,1.0606501391348342
0.8472089552238806,-7.153655451555779,-0.24710346572223618,1.0471034657222362
0.8552014925373135,-6.936908676954211,-0.23355679230963816,1.0335567923096383
0.8631940298507463,-6.7201619023526415,-0.22001011889704009,1.02001011889704
0.8711865671641792,-6.503415127751073,-0.20646344548444207,1.006463445484442
0.8791791044776119,-1.4388059701492582,-0.021393034825870974,0.9606965174129355
0.8871716417910448,1.8497535259482407,0.20765438860742164,0.5961728056962892
0.8951641791044777,1.9450773654662472,0.22231959468711496,0.5888402026564425
0.9031567164179105,2.0404012049842537,0.23698480076680828,0.5815075996165958
0.9111492537313434,2.1357250445022604,0.25165000684650163,0.5741749965767492
0.9191417910447761,2.231048884020266,0.2663152129261947,0.5668423935369027
0.927134328358209,2.326372723538272,0.28098041900588805,0.559509790497056
0.9351268656716418,2.421696563056279,0.29564562508558134,0.5521771874572093
0.9431194029850747,2.5170204025742855,0.3103108311652747,0.5448445844173626
0.9511119402985075,2.6123442420922918,0.324976037244968,0.537511981377516
0.9591044776119404,2.7076680816102985,0.3396412433246613,0.5301793783376694
0.9670970149253731,2.802991921128304,0.3543064494043544,0.5228467752978228
0.975089552238806,2.8983157606463106,0.36897165548404776,0.5155141722579761
0.9830820895522389,2.993639600164317,0.38363686156374105,0.5081815692181295
0.9910746268656717,3.088963439682323,0.39830206764343434,0.5008489661782828
0.9990671641791046,2.879154646933399,0.5982628872444499,0.4965257744888999
1.0070597014925373,2.798557632008027,0.5915464693340022,0.4830929386680045
1.0150522388059702,2.7179606170826536,0.5848300514235545,0.46966010284710896
1.023044776119403,2.6373636021572806,0.5781136335131067,0.4562272670262134
1.031037313432836,2.556766587231907,0.5713972156026589,0.44279443120531786
1.0390298507462687,2.476169572306534,0.5646807976922111,0.4293615953844223
1.0470223880597016,2.3955725573811604,0.5579643797817634,0.41592875956352676
1.0550149253731345,2.3149755424557874,0.5512479618713156,0.4024959237426312
1.0630074626865673,2.234378527530414,0.5445315439608679,0.3890630879217357
1.071,2.1537815126050432,0.5378151260504203,0.3756302521008405
1.0789925373134328,2.07318449767967,0.5310987081399725,0.36219741627994495
1.0869850746268657,1.9925874827542964,0.5243822902295248,0.3487645804590494
1.0949776119402985,1.9119904678289232,0.5176658723190769,0.33533174463815385
1.1029701492537314,1.83139345290355,0.5109494544086292,0.32189890881725836
1.1109626865671642,1.7507964379781766,0.5042330364981814,0.30846607299636275
1.118955223880597,0.10895522388059925,0.5,0.18635394456289997
1.12694776119403,-1.241655359565816,0.5,0.1
1.1349402985074628,-1.8229308005427565,0.5,0.1
1.1429328358208957,-2.7137994239329672,0.2,-0.10689971196648361
1.1509253731343283,-2.741843414506415,0.2,-0.12092170725320756
1.1589179104477612,-2.7698874050798636,0.2,-0.13494370253993188
1.166910447761194,-2.7979313956533125,0.2,-0.1489656978266562
1.1749029850746269,-2.825975386226761,0.2,-0.16298769311338052
1.1828955223880597,-2.85401937680021,0.2,-0.17700968840010484
1.1908880597014926,-2.882063367373658,0.2,-0.19103168368682918
1.1988805970149254,-1.8955223880596883,0.28805970149253896,-0.1
1.2068731343283583,-0.7380597014924988,0.3,-0.14365671641791689
1.2148656716417912,-0.36227652944070776,0.3,-0.2
1.222858208955224,-0.3183614892570107,0.3,-0.2
1.2308507462686569,-0.27444644907331367,0.3,-0.2
1.2388432835820895,-0.23053140888961787,0.3,-0.2
1.2468358208955224,-0.18661636870592083,0.3,-0.2
1.2548283582089552,-0.14270132852222378,0.3,-0.2
1.262820895522388,-0.09878628833852676,0.3,-0.2
1.270813432835821,-0.054871248154829744,0.3,-0.2
1.2788059701492538,-0.010956207971132725,0.3,-0.2
1.2867985074626866,0.03295883221256429,0.3,-0.2
1.2947910447761195,0.07687387239626137,0.3,-0.2
1.3027835820895524,0.34432835820895247,0.14432835820895248,-0.2556716417910475
1.3107761194029852,-0.30283277490100524,-0.1,-0.4
1.318768656716418,-0.31098842522083475,-0.1,-0.4
1.3267611940298507,-0.319144075540664,-0.1,-0.4
1.3347537313432836,-0.32729972586049344,-0.1,-0.4
1.3427462686567164,-0.3354553761803229,-0.1,-0.4
1.3507388059701493,-0.34361102650015235,-0.1,-0.4
1.3587313432835821,-0.3517666768199818,-0.1,-0.4
1.366723880597015,-0.35992232713981126,-0.1,-0.4
1.3747164179104479,-0.3680779774596407,-0.1,-0.4
1.3827089552238807,-0.37623362777947017,-0.1,-0.4
1.3907014925373136,-0.3843892780992996,-0.1,-0.4
1.3986940298507464,-0.39254492841912914,-0.1,-0.4
1.4066865671641793,-0.46865671641793627,-0.13432835820896816,-0.4
1.414679104477612,-0.6954157782515983,-0.2,-0.4
1.4226716417910448,-0.2900766438079872,-0.3049616780960064,-0.4049616780960064
1.4306641791044776,-0.26847519160952005,-0.31576240419524,-0.41576240419523997
1.4386567164179105,-0.2468737394110529,-0.32656313029447354,-0.42656313029447357
1.4466492537313433,-0.22527228721258574,-0.33736385639370714,-0.4373638563937071
1.4546417910447762,-0.2036708350141186,-0.34816458249294074,-0.4481645824929407
1.462634328358209,-0.1820693828156514,-0.3589653085921743,-0.4589653085921743
1.470626865671642,-0.16046793061718426,-0.3697660346914079,-0.4697660346914079
1.4786194029850748,-0.1388664784187171,-0.38056676079064145,-0.4805667607906414
1.4866119402985076,-0.11726502622024992,-0.39136748688987505,-0.491367486889875
1.4946044776119403,-0.08765786452353716,-0.4,-0.5246842709529257
1.5025970149253731,-0.02617680826636086,-0.4,-0.6476463834672783
1.510589552238806,0.9589552238806078,-0.4,-1.1384328358209117
1.5185820895522388,0.6365671641791045,-0.5,-1.5146268656716417
1.5265746268656717,0.6809701492537314,-0.5,-1.5323880597014925
1.5345671641791045,0.7253731343283585,-0.5,-1.5501492537313433
1.5425597014925374,0.7697761194029854,-0.5,-1.567910447761194
1.5505522388059703,0.8141791044776123,-0.5,-1.5856716417910448
1.5585447761194031,0.8585820895522394,-0.5,-1.6034328358208956
1.566537313432836,0.9029850746268662,-0.5,-1.6211940298507463
1.5745298507462688,0.9473880597014932,-0.5,-1.6389552238805973
1.5825223880597015,0.9917910447761189,-0.5,-1.6567164179104474
1.5905149253731343,1.036194029850746,-0.5,-1.6744776119402982
1.5985074626865672,1.0805970149253727,-0.5,-1.692238805970149
1.6065,0.44999999999999996,-0.4,-1.8
1.614492537313433,0.6879284894210266,-0.3939642447105133,-1.8
1.6224850746268658,0.6703624733475477,-0.3851812366737739,-1.8
1.6304776119402986,0.6527964572740689,-0.3763982286370345,-1.8
1.6384701492537315,0.6352304412005901,-0.36761522060029506,-1.8
1.6464626865671643,0.6176644251271113,-0.3588322125635557,-1.8
1.6544552238805972,0.6000984090536325,-0.35004920452681626,-1.8
1.6624477611940298,0.5825323929801541,-0.3412661964900771,-1.8
1.6704402985074627,0.5649663769066754,-0.3324831884533377,-1.8
1.6784328358208955,0.5474003608331965,-0.32370018041659826,-1.8
1.6864253731343284,0.5298343447597178,-0.31491717237985883,-1.8
1.6944179104477612,0.512268328686239,-0.30613416434311946,-1.8
1.702410447761194,0.6820895522388195,-0.2589552238805902,-1.7
1.710402985074627,1.0033038690044922,-0.1,-1.6966961309955078
1.7183955223880598,1.0110636139689901,-0.1,-1.6889363860310098
1.7263880597014927,1.018823358933488,-0.1,-1.681176641066512
1.7343805970149255,1.026583103897986,-0.1,-1.6734168961020142
1.7423731343283584,1.0343428488624837,-0.1,-1.6656571511375162
1.750365671641791,1.0421025938269814,-0.1,-1.6578974061730185
1.7583582089552239,1.0498623387914794,-0.1,-1.6501376612085206
1.7663507462686567,1.0576220837559773,-0.1,-1.6423779162440226
1.7743432835820896,1.0653818287204753,-0.1,-1.6346181712795247
1.7823358208955224,1.0731415736849732,-0.1,-1.6268584263150268
1.7903283582089553,1.0809013186494711,-0.1,-1.619098681350529
1.7983208955223882,1.088661063613969,-0.1,-1.611338936386031
1.806313432835821,1.096420808578467,-0.1,-1.6035791914215332
1.8143059701492539,1.1,-0.023134328358203157,-1.2462686567164063
1.8222985074626867,0.9959277685645842,0.004072231435415784,-0.7877833056937527
1.8302910447761196,0.9860604385480004,0.013939561451999564,-0.7581813156440014
1.8382835820895522,0.9761931085314169,0.02380689146858307,-0.7285793255942509
1.846276119402985,0.9663257785148331,0.03367422148516685,-0.6989773355444995
1.854268656716418,0.9564584484982493,0.043541551501750625,-0.6693753454947482
1.8622611940298508,0.9465911184816655,0.0534088815183344,-0.6397733554449968
1.8702537313432837,0.9367237884650819,0.06327621153491818,-0.6101713653952454
1.8782462686567165,0.9268564584484981,0.07314354155150196,-0.5805693753454941
1.8862388059701494,0.9169891284319143,0.08301087156808575,-0.5509673852957429
1.8942313432835822,0.9071217984153305,0.09287820158466951,-0.5213653952459915
1.902223880597015,0.7388059701492471,0.2,-0.055223880596988406
1.910216417910448,0.39723541383989114,0.30138229308005443,0.8055291723202178
1.9182089552238808,0.37907055630936193,0.31046472184531904,0.8418588873812762
1.9262014925373134,0.3609056987788332,0.31954715061058336,0.8781886024423335
1.9341940298507463,0.34274084124830406,0.328629579375848,0.914518317503392
1.9421865671641791,0.32457598371777485,0.3377120081411126,0.9508480325644504
1.950179104477612,0.30641112618724564,0.34679443690637723,0.9871777476255088
1.9581716417910449,0.28824626865671643,0.3558768656716418,1.0235074626865672
1.9661641791044777,0.2700814111261872,0.36495929443690645,1.0598371777476256
1.9741567164179106,0.251916553595658,0.374041723202171,1.096166892808684
1.9821492537313434,0.2337516960651288,0.38312415196743566,1.1324966078697425
1.9901417910447763,0.2155868385345996,0.3922065807327002,1.168826322930801
1.9981343283582091,-0.005373134328365712,0.4,1.5080597014925485
2.006126865671642,-0.5126865671641981,0.5563432835820991,2.269029850746297
2.0141194029850746,-0.6159986583934258,0.607999329196713,2.423997987590139
2.0221119402985077,-0.6339594164011406,0.6169797082005704,2.450939124601711
2.0301044776119404,-0.6519201744088545,0.6259600872044272,2.4778802616132816
2.0380970149253734,-0.6698809324165693,0.6349404662082846,2.5048213986248538
2.046089552238806,-0.687841690424283,0.6439208452121415,2.5317625356364246
2.0540820895522387,-0.7058024484319969,0.6529012242159984,2.5587036726479955
2.062074626865672,-0.7237632064397117,0.6618816032198558,2.5856448096595677
2.0700671641791044,-0.7417239644474254,0.6708619822237126,2.612585946671138
2.0780597014925375,-0.7596847224551403,0.67984236122757,2.6395270836827103
2.08605223880597,-0.7776454804628541,0.688822740231427,2.666468220694281
2.094044776119403,-0.7956062384705689,0.6978031192352844,2.6934093577058533
2.102037313432836,-0.1996234424209214,0.7,2.5998288374640555
2.110029850746269,-0.11896480898260589,0.7,2.563165822264821
2.1180223880597016,-0.038306175544294885,0.7,2.526502807065589
2.1260149253731346,0.04235245789402062,0.7,2.489839791866354
2.1340074626865673,0.12301109133233162,0.7,2.453176776667122
2.142,0.20366972477064266,0.7,2.4165137614678898
2.149992537313433,0.28432835820895813,0.7,2.3798507462686556
2.1579850746268656,0.36498699164726917,0.7,2.343187731069423
2.1659776119402987,0.44564562508558464,0.7,2.306524715870189
2.1739701492537313,0.5263042585238957,0.7,2.2698617006709565
2.1819626865671644,0.6069628919622112,0.7,2.2331986854717223
2.189955223880597,0.6876215254005222,0.7,2.19653567027249
2.19794776119403,0.7682801588388377,0.7,2.1598726550732557
2.2059402985074628,0.8489387922771487,0.7,2.1232096398740232
2.213932835820896,1.8776119402986244,0.7,1.611194029850688
2.2219253731343285,0.5186567164179308,0.35186567164179305,-0.11100746268655182
2.229917910447761,-0.7397388059701131,0.07807835820896608,-0.6479477611940226
2.237910447761194,-1.738805970149247,-0.22164179104477416,-0.8477611940298495
2.245902985074627,-2.120060713382237,-0.3100050594485197,-0.9700354161396381
2.25389552238806,-2.2826207943334187,-0.3235517328611182,-1.0648621300278276
2.2618880597014925,-2.4451808752845916,-0.33709840627371596,-1.1596888439160118
2.2698805970149256,-2.607740956235774,-0.3506450796863145,-1.2545155578042015
2.2778731343283583,-2.7703010371869468,-0.3641917530989123,-1.3493422716923857
2.2858656716417913,-2.932861118138129,-0.37773842651151074,-1.4441689855805753
2.293858208955224,-3.095421199089302,-0.39128509992410854,-1.5389956994687595
2.3018507462686566,-3.1524875621890573,-0.4,-1.742537313432828
2.3098432835820897,-0.05485074626862474,-0.20783582089551783,-1.7078358208955178
2.3178358208955223,0.053426051560379,-0.19109565807327017,-1.6821913161465403
2.3258283582089554,0.10792062415196813,-0.18201322930800531,-1.6640264586160105
2.333820895522388,0.16241519674355423,-0.17293080054274096,-1.6458616010854819
2.341813432835821,0.21690976933514336,-0.16384837177747613,-1.627696743554952
2.3498059701492537,0.27140434192672946,-0.15476594301221178,-1.6095318860244234
2.357798507462687,0.3258989145183186,-0.14568351424694692,-1.5913670284938939
2.3657910447761195,0.38039348710990467,-0.13660108548168257,-1.573202170963365
2.3737835820895525,0.4348880597014938,-0.1275186567164177,-1.5550373134328355
2.381776119402985,0.48938263229307993,-0.11843622795115336,-1.5368724559023066
2.389768656716418,0.543877204884666,-0.10935379918588901,-1.518707598371778
2.397761194029851,0.5983717774762551,-0.10027137042062416,-1.5005427408412482
2.4057537313432835,0.5970068137573006,-0.09700681375730055,-0.8940136275146011
2.4137462686567166,0.5883192731992211,-0.08831927319922113,-0.8766385463984423
2.4217388059701492,0.5796317326411422,-0.07963173264114219,-0.8592634652822844
2.4297313432835823,0.5709441920830627,-0.07094419208306277,-0.8418883841661255
2.437723880597015,0.5622566515249838,-0.062256651524983816,-0.8245133030499676
2.445716417910448,0.5535691109669044,-0.05356911096690439,-0.8071382219338088
2.4537089552238807,0.5448815704088255,-0.04488157040882545,-0.7897631408176509
2.4617014925373137,0.536194029850746,-0.03619402985074602,-0.772388059701492
2.4696940298507464,0.5275064892926671,-0.02750648929266708,-0.7550129785853341
2.477686567164179,0.5188189487345881,-0.018818948734588142,-0.7376378974691762
2.485679104477612,0.5101314081765087,-0.010131408176508705,-0.7202628163530174
2.4936716417910447,0.5014438676184297,-0.0014438676184297672,-0.7028877352368594
2.501664179104478,0.5952025586354001,0.09520255863540013,-0.41439232409379967
2.5096567164179104,0.19731644806271686,0.3,0.10268355193728317
2.5176492537313435,0.18924317804914806,0.3,0.11075682195085196
2.525641791044776,0.18116990803557972,0.3,0.11883009196442029
2.5336343283582092,0.17309663802201095,0.3,0.12690336197798907
2.541626865671642,0.1650233680084426,0.3,0.1349766319915574
2.549619402985075,0.1569500979948738,0.3,0.1430499020051262
2.5576119402985076,0.14887682798130547,0.3,0.15112317201869455
2.56560447761194,0.14080355796773714,0.3,0.15919644203226288
2.5735970149253733,0.13273028795416836,0.3,0.16726971204583166
2.581589552238806,0.12465701794060001,0.3,0.17534298205940002
2.589582089552239,0.11658374792703123,0.3,0.1834162520729688
2.5975746268656716,0.10851047791346288,0.3,0.19148952208653713
2.6055671641791047,0.1004372078998941,0.3,0.1995627921001059
2.6135597014925374,-1.7723202170963233,0.1767299864314798,0.5767299864314798
2.6215522388059704,-2.93487109905026,0.10407055630935877,0.5040705563093587
2.629544776119403,-3.067709529276695,0.07098163030998786,0.5193455797933414
2.637537313432836,-3.1394374282434017,0.0402411021813992,0.5398392652124006
2.645529850746269,-3.2111653272101046,0.009500574052812252,0.5603329506314585
2.6535223880597014,-3.2828932261768076,-0.021239954075774697,0.5808266360505164
2.6615149253731345,-3.3546211251435145,-0.051980482204363354,0.6013203214695755
2.669507462686567,-3.4263490241102175,-0.08272101033295029,0.6218140068886335
2.6775,-3.4980769230769244,-0.11346153846153895,0.6423076923076926
2.685492537313433,-3.5698048220436274,-0.1442020665901259,0.6628013777267505
2.693485074626866,-3.641532721010334,-0.17494259471871457,0.6832950631458097
2.7014776119402986,-2.665671641791017,-0.22388059701492735,1.0716417910447822
2.7094701492537316,0.013139091775169056,-0.0973721816449662,1.6
2.7174626865671643,0.05565258812321485,-0.08886948237535704,1.6
2.7254552238805974,0.098166084471263,-0.08036678310574741,1.6
2.73344776119403,0.1406795808193088,-0.07186408383613824,1.6
2.7414402985074626,0.18319307716735458,-0.0633613845665291,1.6
2.7494328358208957,0.22570657351540274,-0.05485868529691945,1.6
2.7574253731343283,0.26822006986344854,-0.046355986027310295,1.6
2.7654179104477614,0.3107335662114967,-0.03785328675770066,1.6
2.773410447761194,0.3532470625595425,-0.029350587488091495,1.6
2.781402985074627,0.39576055890759065,-0.020847888218481866,1.6
2.7893955223880598,0.43827405525563645,-0.01234518894887271,1.6
2.797388059701493,0.48078755160368464,-0.003842489679263081,1.6
2.8053805970149255,1.2,0.2,1.085820895522391
2.8133731343283586,1.0885677993013645,0.19428389965068224,0.48856779930136446
2.821365671641791,1.0715624007621463,0.18578120038107307,0.4715624007621461
2.829358208955224,1.0545570022229278,0.17727850111146393,0.45455700222292783
2.837350746268657,1.0375516036837087,0.16877580184185428,0.43755160368370855
2.8453432835820895,1.0205462051444902,0.1602731025722451,0.4205462051444902
2.8533358208955226,1.0035408066052711,0.1517704033026355,0.403540806605271
2.8613283582089553,0.9865354080660527,0.14326770403302633,0.38653540806605263
2.8693208955223883,0.9695300095268334,0.13476500476341668,0.36953000952683335
2.877313432835821,0.9525246109876151,0.12626230549380754,0.35252461098761506
2.885305970149254,0.9355192124483959,0.11775960622419791,0.3355192124483958
2.8932985074626867,0.9185138139091775,0.10925690695458874,0.31851381390917743
2.9012910447761193,0.9015084153699592,0.10075420768497959,0.30150841536995915
2.9092835820895524,-0.0012342135476466163,-0.1987657864523534,-0.20493685419058646
2.917276119402985,-0.008919345579793375,-0.19108065442020664,-0.2356773823191735
2.925268656716418,-0.01660447761194056,-0.18339552238805945,-0.26641791044776225
2.9332611940298507,-0.02428960964408732,-0.17571039035591268,-0.29715843857634927
2.941253731343284,-0.03197474167623451,-0.1680252583237655,-0.327898966704938
2.9492462686567165,-0.03965987370838126,-0.16034012629161876,-0.35863949483352503
2.9572388059701495,-0.04734500574052845,-0.15265499425947157,-0.38938002296211377
2.965231343283582,-0.05503013777267521,-0.1449698622273248,-0.4201205510907008
2.9732238805970153,-0.0627152698048224,-0.13728473019517762,-0.45086107921928953
2.981216417910448,-0.07040040183696915,-0.12959959816303085,-0.48160160734787655
2.9892089552238805,-0.0780855338691159,-0.12191446613088411,-0.5123421354764636
2.9972014925373136,-0.08577066590126309,-0.11422933409873692,-0.5430826636050523
3.0051940298507462,-0.09345579793340986,-0.10654420206659015,-0.5738231917336394
3.0131865671641793,0.09776119402987726,-0.060447761194024556,-0.7582089552239017
3.021179104477612,1.2809235074626864,0.0161847014925373,-1.5809235074626864
3.029171641791045,1.4058069029850782,0.04116138059701565,-1.7058069029850782
3.0371641791044777,1.530690298507463,0.06613805970149261,-1.8306902985074631
3.0451567164179107,1.6555736940298549,0.09111473880597096,-1.9555736940298547
3.0531492537313434,1.9081357916300852,0.0,-2.3162715832601704
3.0611417910447765,1.9238074334211304,0.0,-2.3476148668422607
3.069134328358209,1.9394790752121747,0.0,-2.3789581504243493
3.0771268656716417,1.955150717003219,0.0,-2.410301434006438
3.085119402985075,1.9708223587942642,0.0,-2.4416447175885283
3.0931119402985074,1.9864940005853087,0.0,-2.4729880011706173
3.1011044776119405,2.0736318407960264,0.03681592039801312,-2.5
3.109097014925373,2.4951492537313418,0.2,-2.2951492537313416
3.1170895522388062,2.193941009239517,0.2,-2.193941009239517
3.125082089552239,2.1844260838663825,0.2,-2.1844260838663825
3.133074626865672,2.174911158493248,0.2,-2.174911158493248
3.1410671641791046,2.1653962331201138,0.2,-2.1653962331201138
3.1490597014925377,2.1558813077469794,0.2,-2.1558813077469794
3.1570522388059703,2.146366382373845,0.2,-2.146366382373845
3.165044776119403,2.136851457000711,0.2,-2.136851457000711
3.173037313432836,2.1273365316275763,0.2,-2.1273365316275763
3.1810298507462687,2.1178216062544424,0.2,-2.1178216062544424
3.1890223880597017,2.1083066808813076,0.2,-2.1083066808813076
3.1970149253731344,1.7962686567164245,0.09850746268656982,-1.899253731343285
3.2050074626865674,0.3938623210478215,-0.1,-1.5938623210478216
3.213,0.377551020408163,-0.1,-1.577551020408163
3.220992537313433,0.36123971976850366,-0.1,-1.5612397197685037
3.228985074626866,0.3449284191288452,-0.1,-1.5449284191288453
3.236977611940299,0.32861711848918584,-0.1,-1.528617118489186
3.2449701492537315,0.3123058178495274,-0.1,-1.5123058178495274
3.252962686567164,0.2959945172098689,-0.1,-1.4959945172098688
3.260955223880597,0.27968321657020956,-0.1,-1.4796832165702094
3.26894776119403,0.2633719159305511,-0.1,-1.463371915930551
3.276940298507463,0.2470606152908917,-0.1,-1.4470606152908916
3.2849328358208956,0.23074931465123324,-0.1,-1.4307493146512331
3.2929253731343286,0.21443801401157386,-0.1,-1.4144380140115738
3.3009179104477613,-0.0753731343283463,-0.1,-1.1246268656716538
3.3089104477611944,-2.0923582089552224,0.3019104477611944,0.21146268656716655
3.316902985074627,-2.060388059701492,0.30990298507462705,0.2594179104477623
3.3248955223880596,-2.0284179104477613,0.3178955223880597,0.3073731343283581
3.3328880597014927,-1.996447761194029,0.32588805970149276,0.35532835820895653
3.3408805970149253,-1.9644776119402985,0.3338805970149254,0.4032835820895523
3.3488731343283584,-1.9325074626865661,0.3418731343283585,0.45123880597015076
3.356865671641791,-1.9005373134328356,0.34986567164179105,0.4991940298507465
3.364858208955224,-1.8685671641791035,0.35785820895522413,0.5471492537313449
3.3728507462686568,-1.836597014925373,0.36585074626865677,0.5951044776119407
3.38084328358209,-1.8046268656716407,0.37384328358208985,0.6430597014925392
3.3888358208955225,-1.7726567164179101,0.3818358208955225,0.6910149253731349
3.3968283582089556,-1.7406865671641778,0.38982835820895556,0.7389701492537333
3.404820895522388,-1.7087164179104473,0.3978208955223882,0.7869253731343291
3.412813432835821,-1.2511533242876505,0.22327001356852422,2.004613297150602
3.420805970149254,-1.3964721845318926,0.005291723202161147,2.5858887381275704
3.4287985074626866,-1.7579850746268664,0.1420149253731337,2.742014925373134
3.4367910447761196,-1.8122291766971605,0.09388541165141971,2.7
3.4447835820895523,-1.8380115551275884,0.08099422243620584,2.7
3.4527761194029853,-1.8637939335580176,0.06810303322099126,2.7
3.460768656716418,-1.8895763119884452,0.05521184400577738,2.7
3.468761194029851,-1.9153586904188744,0.042320654790562795,2.7
3.4767537313432837,-1.9411410688493023,0.029429465575348923,2.7
3.4847462686567168,-1.9669234472797312,0.016538276360134344,2.7
3.4927388059701494,-1.992705825710159,0.0036470871449204717,2.7
3.500731343283582,-3.2512437810945287,-0.5024875621890575,2.6878109452736325
3.508723880597015,-2.8355641149093147,0.15020863424810696,2.6292890386775842
3.5167164179104478,-2.6464933397528445,0.004108489809016458,2.7152303001123435
3.524708955223881,-2.457422564596364,-0.14199165463008218,2.801171561547107
3.5327014925373135,-2.268351789439894,-0.28809179906917265,2.8871128229818663
3.5406940298507465,-2.0792810142834135,-0.43419194350827134,2.9730540844166304
3.548686567164179,-1.8902102391269433,-0.5802920879473619,3.0589953458513897
3.5566791044776123,-1.7011394639704627,-0.7263922323864604,3.1449366072861533
3.564671641791045,-1.5120686888139925,-0.872492376825551,3.2308778687209125
3.572664179104478,-1.3229979136575118,-1.0185925212646496,3.316819130155676
3.5806567164179106,-1.1339271385010417,-1.1646926657037402,3.4027603915904354
3.5886492537313432,-0.9448563633445717,-1.3107928101428306,3.4887016530251946
3.5966417910447763,-0.755785588188091,-1.4568929545819294,3.5746429144599583
3.604634328358209,-1.4774253731343432,-0.8,3.477425373134343
3.612626865671642,-1.7210864283235003,-0.4915654286705999,2.7915654286705998
3.6206194029850747,-1.7675546685178762,-0.4729781325928495,2.7729781325928493
3.6286119402985078,-1.8140229087122546,-0.45439083651509815,2.754390836515098
3.6366044776119404,-1.8604911489066305,-0.4358035404373478,2.7358035404373475
3.6445970149253735,-1.906959389101009,-0.4172162443595964,2.717216244359596
3.652589552238806,-1.953427629295385,-0.39862894828184603,2.698628948281846
3.660582089552239,-1.9998958694897633,-0.3800416522040947,2.680041652204095
3.668574626865672,-2.046364109684139,-0.36145435612634436,2.6614543561263444
3.6765671641791045,-2.092832349878515,-0.342867060048594,2.642867060048594
3.6845597014925375,-2.1393005900728936,-0.32427976397084257,2.6242797639708426
3.69255223880597,-2.1857688302672695,-0.30569246789309223,2.605692467893092
3.7005447761194032,-1.8303482587064537,-0.2575870646766134,2.2575870646766134
3.708537313432836,-1.0703430897460737,-0.09670478774956374,1.9967047877495638
3.716529850746269,-0.9769238224462065,-0.08632486916068961,1.9863248691606896
3.7245223880597016,-0.8835045551463445,-0.07594495057181605,1.975944950571816
3.7325149253731347,-0.7900852878464772,-0.06556503198294192,1.9655650319829419
3.7405074626865673,-0.6966660205466153,-0.055185113394068355,1.9551851133940683
3.7485000000000004,-0.603246753246748,-0.044805194805194216,1.944805194805194
3.756492537313433,-0.509827485946886,-0.03442527621632066,1.9344252762163205
3.7644850746268657,-0.41640821864702393,-0.024045357627447098,1.924045357627447
3.7724776119402987,-0.32298895134715677,-0.013665439038572966,1.913665439038573
3.7804701492537314,-0.22956968404729472,-0.003285520449699403,1.9032855204496992
3.7884626865671645,0.38828932261772325,0.042020665901265956,1.815958668197468
3.796455223880597,1.2606965174129665,0.1,1.674709784411264
3.80444776119403,2.3263681592040033,0.1,1.2306799336649985
3.812440298507463,2.36481512890095,-1.1078188602442334,-0.5508225915875165
3.820432835820896,2.283073270013566,-1.1259837177747631,-0.6688941655359602
3.8284253731343285,2.2013314111261866,-1.144148575305292,-0.7869657394843973
3.8364179104477616,2.119589552238802,-1.1623134328358218,-0.905037313432841
3.8444104477611942,2.0378476933514227,-1.1804782903663507,-1.0231088873812781
3.852402985074627,1.9561058344640432,-1.1986431478968793,-1.1411804613297152
3.86039552238806,1.8743639755766592,-1.216808005427409,-1.259252035278159
3.8683880597014926,1.7926221166892795,-1.234972862957938,-1.3773236092265964
3.8763805970149257,1.7108802578018953,-1.2531377204884677,-1.4953951831750398
3.8843731343283583,1.6291383989145158,-1.2713025780189966,-1.613466757123477
3.8923656716417914,1.547396540027132,-1.2894674355495264,-1.7315383310719208
3.900358208955224,0.19253731343276026,-0.29626865671638014,-4.854477611940513
3.908350746268657,-0.03750380749314928,-0.19249923850137016,-5.482508376484929
3.9163432835820897,-0.07828205909229524,-0.18434358818154095,-5.57222053000305
3.9243358208955224,-0.11906031069144121,-0.17618793786171177,-5.6619326835211705
3.9323283582089554,-0.15983856229058946,-0.16803228754188212,-5.751644837039297
3.940320895522388,-0.20061681388973543,-0.15987663722205292,-5.8413569905574185
3.948313432835821,-0.24139506548888365,-0.15172098690222327,-5.931069144075544
3.956305970149254,-0.2821733170880296,-0.14356533658239407,-6.020781297593666
3.964298507462687,-0.32295156868717784,-0.13540968626256444,-6.110493451111791
3.9722910447761195,-0.36372982028632383,-0.12725403594273524,-6.200205604629913
3.9802835820895526,-0.40450807188547205,-0.11909838562290559,-6.2899177581480386
3.988276119402985,-0.44528632348461805,-0.1109427353030764,-6.37962991166616
3.9962686567164183,-0.48606457508376627,-0.10278708498324675,-6.469342065184286
4.004261194029851,-1.184701492537152,1.1152985074628483,-7.2
4.012253731343284,1.0149253731346128,1.7,-6.486567164178995
4.020246268656717,1.5981265547263723,1.6849036069651735,-6.254710820895521
4.028238805970149,1.7063588308457724,1.6682524875621887,-6.204757462686566
4.036231343283582,1.8145911069651728,1.651601368159204,-6.154804104477613
4.044223880597015,1.922823383084585,1.6349502487562177,-6.104850746268653
4.052216417910448,2.031055659203985,1.618299129353233,-6.0548973880596995
4.060208955223881,2.1392879353233853,1.6016480099502484,-6.004944029850745
4.068201492537313,2.2475202114427852,1.5849968905472638,-5.9549906716417915
4.076194029850747,2.3557524875621976,1.5683457711442772,-5.905037313432832
4.0841865671641795,2.463984763681598,1.5516946517412926,-5.855083955223878
4.092179104477612,2.572217039800998,1.535043532338308,-5.805130597014924
4.100171641791045,2.680449315920398,1.5183924129353235,-5.75517723880597
4.108164179104477,2.788681592039798,1.5017412935323387,-5.705223880597016
4.116156716417911,4.9640547263681505,0.492164179104452,-4.428109452736301
4.124149253731344,4.830845771144278,0.09253731343283533,-4.1616915422885565
4.132141791044776,4.740288142620234,-0.02559079601989938,-4.0744092039801005
4.140134328358209,4.6625829187396395,-0.05889303482586866,-4.041106965174131
4.148126865671642,4.584877694859036,-0.09219527363184164,-4.007804726368158
4.156119402985075,4.507172470978441,-0.12549751243781093,-3.9745024875621886
4.164111940298508,4.429467247097846,-0.1587997512437802,-3.9412002487562194
4.17210447761194,4.351762023217251,-0.19210199004974948,-3.9078980099502503
4.180097014925373,4.274056799336655,-0.22540422885571876,-3.874595771144281
4.188089552238806,4.1963515754560525,-0.25870646766169175,-3.841293532338308
4.196082089552239,4.118646351575457,-0.29200870646766103,-3.807991293532339
4.204074626865672,3.60298507462686,-0.35522388059701554,-3.634328358208953
4.212067164179104,2.1932835820895864,-0.3822139303482644,-3.128855721393058
4.220059701492538,1.2949143173023756,-0.3,-2.487285793255939
4.2280522388059705,1.275179657269209,-0.3,-2.437949143173022
4.236044776119403,1.255444997236042,-0.3,-2.3886124930901045
4.244037313432836,1.235710337202875,-0.3,-2.3392758430071874
4.252029850746269,1.215975677169706,-0.3,-2.2899391929242645
4.260022388059702,1.196241017136539,-0.3,-2.2406025428413474
4.2680149253731345,1.176506357103372,-0.3,-2.1912658927584303
4.276007462686567,1.1567716970702053,-0.3,-2.1419292426755128
4.284,1.1370370370370384,-0.3,-2.0925925925925957
4.291992537313433,1.1173023770038693,-0.3,-2.043255942509673
4.299985074626866,1.0014925373133865,-0.3,-1.5074626865669323
4.307977611940299,1.0853944562899789,0.0707889125799577,-0.38763326226012684
4.315970149253731,1.1859525899912196,0.3,0.5772607550482917
4.323962686567165,1.1671466198419642,0.3,0.6806935908691962
4.331955223880597,1.148340649692711,0.3,0.7841264266900891
4.33994776119403,1.1295346795434578,0.3,0.887559262510982
4.347940298507463,1.1107287093942044,0.3,0.9909920983318752
4.355932835820895,1.0919227392449513,0.3,1.094424934152768
4.363925373134329,1.073116769095696,0.3,1.1978577699736725
4.3719179104477615,1.0543107989464426,0.3,1.3012906057945655
4.379910447761194,1.0355048287971893,0.3,1.4047234416154586
4.387902985074627,1.0166988586479362,0.3,1.5081562774363515
4.39589552238806,0.5522388059698111,0.3895522388060378,2.4059701492543395
4.403888059701493,-0.8076001571091924,1.6152003142183848,3.807600157109192
4.4118805970149255,-0.8286331500392783,1.6572663000785566,3.828633150039278
4.419873134328358,-0.8496661429693642,1.6993322859387283,3.849666142969364
4.427865671641792,-0.8706991358994525,1.741398271798905,3.8706991358994522
4.435858208955224,-0.8917321288295383,1.7834642576590767,3.891732128829538
4.443850746268657,-0.9127651217596242,1.8255302435192484,3.912765121759624
4.45184328358209,-0.9337981146897102,1.8675962293794204,3.9337981146897096
4.459835820895522,-0.9548311076197961,1.9096622152395921,3.9548311076197957
4.467828358208956,-0.9758641005498843,1.9517282010997685,3.975864100549884
4.475820895522388,-0.9968970934799702,1.9937941869599405,3.9968970934799697
4.483813432835821,-1.0179300864100562,2.0358601728201124,4.017930086410056
4.491805970149254,-1.038963079340142,2.077926158680284,4.038963079340141
4.499798507462687,-1.0599960722702302,2.1199921445404604,4.05999607227023
4.50779104477612,-1.0810290652003163,2.1620581304006325,4.081029065200315
4.515783582089552,-1.1,2.3175373134328745,4.217537313432874
4.523776119402985,-1.50922659430122,1.697693351424695,4.397693351424695
4.531768656716418,-1.5507462686567142,1.6873134328358215,4.387313432835822
4.539761194029851,-1.592265943012213,1.6769335142469468,4.3769335142469465
4.547753731343284,-1.6337856173677072,1.6665535956580733,4.366553595658074
4.5557462686567165,-1.6753052917232014,1.6561736770691997,4.3561736770692
4.563738805970149,-1.7168249660786956,1.6457937584803262,4.345793758480326
4.571731343283583,-1.7583446404341945,1.6354138398914515,4.3354138398914515
4.579723880597015,-1.7998643147896887,1.625033921302578,4.325033921302578
4.587716417910448,-1.8413839891451829,1.6146540027137044,4.314654002713704
4.595708955223881,-1.882903663500677,1.6042740841248309,4.30427408412483
4.603701492537313,-2.3402985074626415,1.4649253731343397,4.029850746268679
4.611694029850747,-3.9837050043898223,0.8780772607550466,3.174091308165055
4.619686567164179,-4.378630377524141,0.7746444249341535,3.051852502194909
4.627679104477612,-4.773555750658459,0.6712115891132606,2.9296136962247625
4.635671641791045,-5.168481123792778,0.5677787532923676,2.8073748902546165
4.643664179104478,-5.56340649692714,0.46434591747146314,2.6851360842844567
4.651656716417911,-5.958331870061459,0.3609130816505701,2.5628972783143102
4.659649253731343,-6.3532572431957774,0.2574802458296772,2.4406584723441638
4.667641791044776,-6.748182616330096,0.1540474100087842,2.3184196663740178
4.67563432835821,-7.143107989464458,0.050614574187879735,2.196180860403858
4.683626865671642,-7.538033362598776,-0.052818261633013286,2.0739420544337115
4.691619402985075,-7.932958735733095,-0.1562510974539063,1.9517032484635655
4.6996119402985075,-4.0022388059699905,-0.347014925373073,-0.44701492537307297
4.70760447761194,-2.904042971953414,0.0,-0.06371166147285451
4.715597014925374,-2.6669017549614313,0.0,-0.01979662128915391
4.723589552238806,-2.429760537969474,0.0,0.02411841889454179
4.731582089552239,-2.1926193209775175,0.0,0.06803345907823749
4.7395746268656715,-1.9554781039855607,0.0,0.1119484992619332
4.747567164179105,-1.7183368869935776,0.0,0.15586353944563378
4.755559701492538,-1.4811956700016207,0.0,0.19977857962932946
4.76355223880597,-1.2440544530096638,0.0,0.2436936198130252
4.771544776119403,-1.006913236017707,0.0,0.2876086599967209
4.779537313432836,-0.76977201902575,0.0,0.33152370018041655
4.787529850746269,-0.5326308020337671,0.0,0.3754387403641172
4.795522388059702,2.952238805970182,0.008706467661696993,0.917412935323394
4.803514925373134,3.2962550881953856,0.30093622795115355,1.199531886024423
4.811507462686567,3.238127544097694,0.3154681139755765,1.1922659430122118
4.819500000000001,3.1799999999999957,0.330000000000001,1.1849999999999994
4.827492537313433,3.121872455902304,0.344531886024424,1.177734056987788
4.835485074626866,3.063744911804612,0.3590637720488469,1.1704681139755766
4.8434776119402985,3.0056173677069205,0.37359565807326983,1.163202170963365
4.851470149253732,2.947489823609222,0.3881275440976944,1.155936227951153
4.859462686567165,2.8893622795115306,0.4026594301221173,1.1486702849389414
4.867455223880597,2.831234735413839,0.41719131614654026,1.14140434192673
4.87544776119403,2.7731071913161474,0.43172320217096316,1.1341383989145184
4.8834402985074625,2.7149796472184553,0.4462550881953861,1.1268724559023071
4.891432835820896,2.6568521031207575,0.46078697421981063,1.1196065128900947
4.899425373134329,2.598724559023066,0.4753188602442336,1.1123405698778832
4.907417910447761,2.540597014925374,0.48985074626865655,1.105074626865672
4.915410447761194,1.5358208955224133,0.6,1.2
4.9234029850746275,0.5,0.4017639077340496,0.8526458616010744
4.93139552238806,0.4965282284231017,0.3,0.6895846852693049
4.939388059701493,0.4849448410123297,0.3,0.6548345230369892
4.947380597014925,0.4733614536015578,0.3,0.6200843608046733
4.955373134328358,0.4617780661907859,0.3,0.5853341985723575
4.9633656716417915,0.4501946787800126,0.3,0.5505840363400378
4.971358208955224,0.4386112913692407,0.3,0.515833874107722
4.979350746268657,0.42702790395846874,0.3,0.48108371187540616
4.9873432835820894,0.4154445165476968,0.3,0.44633354964309035
4.995335820895523,0.40386112913692357,0.3,0.41158338741077066
5.003328358208956,0.2,0.17721916732128468,-0.0911233307148613
5.011320895522388,0.2,0.13515318146111321,-0.25938727415554724
5.019313432835821,0.06865671641792173,-0.11567164179103914,-0.8470149253731175
5.027305970149254,-0.10808457711442881,-0.2,-1.1323383084577152
5.035298507462687,-0.11833141982395778,-0.2,-1.1733256792958313
5.04329104477612,-0.12857826253348678,-0.2,-1.2143130501339472
5.051283582089552,-0.13882510524301575,-0.2,-1.255300420972063
5.059276119402985,-0.14907194795254475,-0.2,-1.296287791810179
5.0672686567164185,-0.15931879066207486,-0.2,-1.3372751626482995
5.075261194029851,-0.16956563337160385,-0.2,-1.3782625334864154
5.083253731343284,-0.17981247608113282,-0.2,-1.4192499043245312
5.091246268656716,-0.1900593187906618,-0.2,-1.4602372751626471
5.09923880597015,-0.12835820895505287,-0.17611940298501763,-1.5955223880599294
5.1072313432835825,4.194760241346457,-0.1013099396633858,-2.4026198793267715
5.115223880597015,4.160749444268021,-0.10981263893299496,-2.4196252778659897
5.123216417910448,4.126738647189583,-0.11831533820260412,-2.4366306764052084
5.13120895522388,4.092727850111147,-0.1268180374722133,-2.4536360749444266
5.139201492537314,4.058717053032707,-0.13532073674182338,-2.4706414734836466
5.147194029850747,4.0247062559542695,-0.14382343601143255,-2.4876468720228653
5.155186567164179,3.990695458875833,-0.15232613528104172,-2.5046522705620835
5.163179104477612,3.9566846617973965,-0.16082883455065086,-2.5216576691013017
5.171171641791045,3.922673864718956,-0.16933153382026095,-2.538663067640522
5.179164179104478,3.8886630676405196,-0.17783423308987012,-2.5556684661797404
5.187156716417911,3.8546522705620827,-0.1863369323594793,-2.5726738647189586
5.195149253731343,3.8206414734836462,-0.19483963162908846,-2.589679263258177
5.203141791044776,5.3,-0.3283582089551417,-2.8
5.2111343283582094,5.324449182658138,-0.6097796730632553,-2.685330490405117
5.219126865671642,5.3625088841506745,-0.6250035536602699,-2.662494669509595
5.227119402985075,5.400568585643211,-0.6402274342572846,-2.639658848614073
5.235111940298507,5.438628287135748,-0.6554513148542992,-2.616823027718551
5.243104477611941,5.476687988628289,-0.6706751954513155,-2.593987206823027
5.2510970149253735,5.514747690120825,-0.6858990760483301,-2.571151385927505
5.259089552238806,5.552807391613362,-0.7011229566453447,-2.548315565031983
5.267082089552239,5.590867093105898,-0.7163468372423594,-2.525479744136461
5.275074626865672,5.6289267945984385,-0.7315707178393757,-2.5026439232409365
5.283067164179105,5.666986496090975,-0.7467945984363903,-2.4798081023454146
5.291059701492538,5.705046197583512,-0.7620184790334048,-2.4569722814498927
5.29905223880597,5.743105899076048,-0.7772423596304194,-2.4341364605543707
5.307044776119403,5.781165600568585,-0.7924662402274341,-2.4113006396588488
5.315037313432836,5.532089552238781,-1.1358208955224376,-2.232089552238781
5.323029850746269,5.716303099885207,-1.3081515499426033,-2.091848450057397
5.331022388059702,6.001119402985095,-1.4505597014925473,-1.9747201492537263
5.339014925373134,6.296696843650599,-1.603303156349401,-1.896696843650599
5.347007462686568,6.2835943234646425,-1.6164056765353576,-1.8835943234646424
5.355,6.270491803278687,-1.6295081967213128,-1.8704918032786872
5.362992537313433,6.257389283092732,-1.642610716907268,-1.857389283092732
5.370985074626866,6.2442867629067775,-1.655713237093223,-1.844286762906777
5.378977611940298,6.231184242720822,-1.668815757279178,-1.831184242720822
5.386970149253732,6.2180817225348655,-1.6819182774651347,-1.8180817225348653
5.3949626865671645,6.204979202348911,-1.6950207976510898,-1.8049792023489102
5.402955223880597,5.581791044776127,-1.8,-1.52268656716419
5.41094776119403,3.5737976782752945,-1.596724709784412,-1.0934494195688236
5.418940298507463,3.502752902155885,-1.5878441127694858,-1.0756882255389713
5.426932835820896,3.431708126036484,-1.5789635157545605,-1.057927031509121
5.4349253731343286,3.3606633499170826,-1.5700829187396355,-1.0401658374792706
5.442917910447761,3.2896185737976813,-1.5612023217247102,-1.0224046434494203
5.450910447761195,3.218573797678272,-1.552321724709784,-1.004643449419568
5.458902985074627,3.1475290215588707,-1.5434411276948587,-0.9868822553897177
5.46689552238806,3.0764842454394694,-1.5345605306799337,-0.9691210613598673
5.474888059701493,3.005439469320068,-1.5256799336650084,-0.951359867330017
5.482880597014925,2.9343946932006664,-1.5167993366500834,-0.9335986733001667
5.490873134328359,2.8633499170812575,-1.5079187396351572,-0.9158374792703143
5.498865671641791,2.540298507462615,-1.4134328358208716,-0.9
5.506858208955224,0.20988409018736248,-0.9940695458875826,-0.3
5.514850746268657,0.2523975865354083,-0.968561448078755,-0.3
5.52284328358209,0.2949110828834588,-0.9430533502699248,-0.3
5.530835820895523,0.3374245792315046,-0.9175452524610972,-0.3
5.5388283582089555,0.3799380755795504,-0.8920371546522697,-0.3
5.546820895522388,0.42245157192759614,-0.8665290568434423,-0.3
5.554813432835821,0.46496506827564194,-0.8410209590346148,-0.3
5.562805970149254,0.5074785646236925,-0.8155128612257845,-0.3
5.570798507462687,0.5499920609717383,-0.790004763416957,-0.3
5.5787910447761195,0.5925055573197839,-0.7644966656081296,-0.3
5.586783582089552,0.6350190536678297,-0.738988567799302,-0.3
5.594776119402986,0.6775325500158803,-0.7134804699904718,-0.3
5.602768656716418,0.9847014925372852,-0.26156716417909504,-0.2847014925372851
5.610761194029851,0.7176340519624114,-0.09118297401879433,0.013225538971808518
5.618753731343284,0.7472360420121616,-0.07638197899391914,0.035427031509121285
5.626746268656717,0.7768380320619154,-0.061580983969042324,0.057628524046436515
5.63473880597015,0.8064400221116657,-0.04677998894416715,0.07983001658374927
5.642731343283582,0.836042012161416,-0.03197899391929197,0.10203150912106204
5.650723880597015,0.8656440022111664,-0.01717799889441679,0.12423300165837481
5.658716417910448,0.8952459922609168,-0.002377003869541622,0.14643449419568758
5.666708955223881,0.9248479823106704,0.012423991155335198,0.1686359867330028
5.674701492537314,0.9544499723604207,0.02722498618021038,0.19083747927031555
5.6826940298507465,0.9840519624101711,0.04202598120508555,0.21303897180762832
5.690686567164179,1.0136539524599215,0.056826976229960746,0.23524046434494109
5.698679104477613,1.0432559425096752,0.07162797125483755,0.25744195688225635
5.706671641791045,1.0728579325594256,0.08642896627971272,0.2796434494195691
5.714664179104478,0.9671641791044916,0.1,0.20037313432836865
5.7226567164179105,0.628035498184753,0.08200887454618828,-0.03598225090762345
5.730649253731343,0.5416296893908865,0.06040742234772165,-0.0791851553045567
5.738641791044777,0.45522388059701047,0.038805970149252626,-0.12238805970149476
5.746634328358209,0.3688180718031439,0.017204517950785994,-0.16559096409842802
5.754626865671642,0.3,0.0,-0.03731343283579902
5.762619402985075,0.2802093428959099,0.0,0.0
5.770611940298508,0.25944950571816044,0.0,0.0
5.778604477611941,0.23868966854041335,0.0,0.0
5.786597014925373,0.21792983136266625,0.0,0.0
5.794589552238806,0.19716999418491912,0.0,0.0
5.802582089552239,0.176410157007172,0.0,0.0
5.810574626865672,0.1556503198294226,0.0,0.0
5.818567164179105,0.13489048265167547,0.0,0.0
5.826559701492537,0.11413064547392837,0.0,0.0
5.83455223880597,0.05522388059702553,0.05522388059702553,-0.08955223880594895
5.842544776119404,0.28861940298509053,0.1,0.09430970149254528
5.850537313432836,0.3,0.1,0.2
5.858529850746269,0.3,0.1,0.2
5.8665223880597015,0.3,0.1,0.2
5.874514925373135,0.3,0.1,0.2
5.882507462686568,0.3,0.1,0.2
5.8905,0.3,0.1,0.2
5.898492537313433,0.15074626865669255,0.1,0.3
5.906485074626866,-0.20537752414398602,0.08386742756804194,0.20537752414398602
5.914477611940299,-0.21321334503950906,0.06035996488147282,0.21321334503950906
5.922470149253732,-0.22104916593503124,0.03685250219490631,0.22104916593503124
5.930462686567164,-0.2288849868305534,0.013345039508339804,0.2288849868305534
5.938455223880597,-0.23672080772607557,-0.010162423178226687,0.23672080772607557
5.9464477611940305,-0.2445566286215986,-0.0336698858647958,0.2445566286215986
5.954440298507463,-0.25239244951712075,-0.057177348551362306,0.25239244951712075
5.962432835820896,-0.26022827041264296,-0.08068481123792881,0.26022827041264296
5.970425373134328,-0.2680640913081651,-0.10419227392449532,0.2680640913081651
5.978417910447761,-0.27589991220368726,-0.12769973661106182,0.27589991220368726
5.986410447761195,-0.2837357330992103,-0.15120719929763096,0.2837357330992103
5.994402985074627,-0.29157155399473245,-0.17471466198419747,0.29157155399473245
6.00239552238806,-0.2994073748902546,-0.19822212467076397,0.2994073748902546
6.0103880597014925,-0.18159203980101563,-0.04278606965177745,-0.18358208955228528
6.018380597014926,0.39649912203687354,0.292998244073747,0.2
6.026373134328359,0.3847453906935902,0.26949078138718036,0.2
6.034365671641791,0.3729916593503068,0.24598331870061363,0.2
6.042358208955224,0.3612379280070235,0.22247585601404693,0.2
6.050350746268657,0.3494841966637388,0.19896839332747762,0.2
6.05834328358209,0.3377304653204555,0.1754609306409109,0.2
6.066335820895523,0.3259767339771721,0.15195346795434422,0.2
6.074328358208955,0.31422300263388875,0.1284460052677775,0.2
6.082320895522388,0.3024692712906054,0.1049385425812108,0.2
6.0903134328358215,0.22108208955222677,0.021082089552226776,0.2
6.098305970149254,0.2,0.05732700135685839,0.2
6.106298507462687,0.2,0.19952617863065575,0.2
6.114291044776119,0.2,0.1868396114664769,0.2
6.122283582089553,0.2,0.17415304430229664,0.2
6.130276119402986,0.2,0.1614664771381178,0.2
6.138268656716418,0.2,0.14877990997393897,0.2
6.146261194029851,0.2,0.1360933428097601,0.2
6.1542537313432835,0.2,0.12340677564558128,0.2
6.162246268656717,0.2,0.11072020848140103,0.2
6.17023880597015,0.13805970149251942,0.03805970149251942,0.13805970149251942
6.178231343283582,0.1,0.0,0.003358208955223728
6.186223880597015,0.1,0.0,0.00970149253731315
6.194216417910448,0.1,0.0,0.016044776119403276
6.202208955223881,0.1,0.0,0.022388059701492696
6.210201492537314,0.1,0.0,0.028731343283582116
6.218194029850746,0.1,0.0,0.03507462686567154
6.226186567164179,0.1,0.0,0.041417910447760956
6.2341791044776125,0.1,0.0,0.04776119402985109
6.242171641791045,0.1,0.0,0.0541044776119405
6.250164179104478,0.1,0.0,0.06044776119402993
6.25815671641791,0.1,0.0,0.06679104477611934
6.266149253731344,0.1,0.0,0.07313432835820947
6.2741417910447765,0.1,0.0,0.0794776119402989
6.282134328358209,0.1,0.0,0.08582089552238831
6.290126865671642,0.1,0.0,0.09216417910447773
6.298119402985075,0.1,0.0,0.09850746268656786
6.306111940298508,0.005597014925396499,0.005597014925396499,0.005597014925396499
6.314104477611941,0.0,0.1,0.0029287524640949653
6.322097014925373,0.0,0.1,0.01046888200506916
6.330089552238806,0.0,0.1,0.01800901154604335
6.338082089552239,0.0,0.1,0.025549141087018383
6.346074626865672,0.0,0.1,0.03308927062799258
6.354067164179105,0.0,0.1,0.040629400168966774
6.362059701492537,0.0,0.1,0.04816952970994096
6.370052238805971,0.0,0.1,0.055709659250916
6.3780447761194035,0.0,0.1,0.0632497887918902
6.386037313432836,0.0,0.1,0.07078991833286438
6.394029850746269,0.0,0.1,0.07833004787383858
6.402022388059701,0.0,0.1,0.08587017741481277
6.410014925373135,0.0,0.1,0.09341030695578781
6.4180074626865675,-0.10074626865678171,0.1,0.1
6.426,-0.1,0.1,0.0
