accel_time_list,vertical_Accel_x,vertical_Accel_y,vertical_Accel_z
0.0,2.433,5.867,7.533
0.00799403578528827,2.161844930417495,5.285268389662028,7.950489065606362
0.01598807157057654,2.0970796913434646,5.266299491188462,7.908351012568656
0.023982107355864812,2.0323144522694343,5.247330592714897,7.86621295953095
0.03197614314115308,1.9675492131954038,5.228361694241332,7.824074906493244
0.03997017892644135,1.9027839741213735,5.209392795767767,7.781936853455538
0.047964214711729625,1.838018735047343,5.190423897294201,7.739798800417832
0.05595825049701789,1.7732534959733126,5.171454998820636,7.697660747380127
0.06395228628230616,1.7084882568992823,5.15248610034707,7.65552269434242
0.07194632206759444,1.643723017825252,5.133517201873505,7.613384641304714
0.0799403578528827,1.5789577787512217,5.114548303399939,7.571246588267009
0.08793439363817097,1.5141925396771911,5.095579404926374,7.529108535229303
0.09592842942345925,1.4494273006031606,5.076610506452808,7.486970482191596
0.10392246520874751,1.3846620615291303,5.057641607979243,7.444832429153891
0.11191650099403579,1.3198968224551,5.038672709505677,7.402694376116185
0.11991053677932405,1.2551315833810697,5.019703811032112,7.3605563230784785
0.12790457256461232,2.415965208747516,5.6945844930417495,7.919129224652087
0.13589860834990058,2.2018881811173774,5.594502900961578,7.988496815028198
0.14389264413518887,2.1994410273055545,5.566115916744431,7.977484622874996
0.15188667992047714,2.1969938734937315,5.537728932527285,7.966472430721792
0.1598807157057654,2.1945467196819086,5.509341948310139,7.955460238568588
0.1678747514910537,2.1920995658700857,5.480954964092993,7.944448046415386
0.17586878727634195,2.1896524120582628,5.452567979875846,7.933435854262182
0.1838628230616302,2.18720525824644,5.424180995658701,7.922423662108979
0.1918568588469185,2.184758104434617,5.395794011441555,7.911411469955776
0.19985089463220676,2.182310950622794,5.3674070272244085,7.900399277802573
0.20784493041749502,2.179863796810971,5.339020043007262,7.8893870856493695
0.21583896620278328,2.1774166429991477,5.310633058790116,7.878374893496166
0.22383300198807157,2.174969489187325,5.282246074572971,7.867362701342963
0.23182703777335983,2.4311421471172934,5.6690497017892625,7.775324055666005
0.2398210735586481,2.614000589867389,5.586503397199222,7.671834662355537
0.24781510934393639,2.5742061040351296,5.5807055250912105,7.65663720970878
0.25580914512922465,2.5344116182028706,5.5749076529832,7.641439757062024
0.26380318091451294,2.4946171323706112,5.569109780875189,7.626242304415267
0.27179721669980117,2.4548226465383522,5.563311908767177,7.61104485176851
0.27979125248508946,2.4150281607060933,5.557514036659166,7.595847399121753
0.28778528827037775,2.375233674873834,5.551716164551155,7.580649946474996
0.295779324055666,2.335439189041575,5.545918292443143,7.565452493828239
0.30377335984095427,2.2956447032093155,5.540120420335132,7.550255041181482
0.31176739562624256,2.2558502173770565,5.534322548227121,7.535057588534726
0.3197614314115308,2.2160557315447975,5.528524676119109,7.519860135887969
0.3277554671968191,2.262240556660039,5.473969184890656,7.424615308151094
0.3357495029821074,2.1001449484908727,5.925206217242002,6.835445689499367
0.3437435387673956,2.281445564706996,6.186450653223517,6.650974652087475
0.3517375745526839,2.2972433020922085,6.170177080374894,6.605008946322068
0.3597316103379722,2.313041039477421,6.153903507526271,6.55904324055666
0.3677256461232604,2.3288387768626335,6.137629934677649,6.513077534791252
0.3757196819085487,2.344636514247846,6.121356361829026,6.4671118290258445
0.383713717693837,2.360434251633059,6.105082788980403,6.421146123260437
0.39170775347912523,2.3762319890182715,6.088809216131781,6.37518041749503
0.3997017892644135,2.392029726403484,6.0725356432831585,6.329214711729622
0.40769582504970175,2.4078274637886965,6.056262070434536,6.2832490059642145
0.41568986083499004,2.423625201173909,6.039988497585913,6.237283300198807
0.42368389662027833,2.4394229385591215,6.02371492473729,6.191317594433399
0.43167793240556657,1.1418946322067707,1.2029821073558495,3.4320874751490935
0.43967196819085486,0.3781829448838886,1.810811683092932,4.053312719428113
0.44766600397614315,0.0872510680597266,1.6979597098261494,4.129171016454465
0.4556600397614314,-0.2036808087644334,1.5851077365593678,4.205029313480817
0.46365407554671967,-0.4946126855885953,1.4722557632925852,4.28088761050717
0.47164811133200796,-0.7855445624127573,1.3594037900258027,4.356745907533522
0.4796421471172962,-1.0764764392369173,1.246551816759021,4.432604204559874
0.4876361829025845,-1.3674083160610793,1.1336998434922385,4.5084625015862265
0.49563021868787277,-1.6583401928852415,1.020847870225456,4.58432079861258
0.5036242544731611,-1.9492720697094033,0.9079958969586734,4.660179095638933
0.5116182902584493,-2.2402039465335633,0.7951439236918918,4.736037392665285
0.5196123260437375,-2.5311358233577232,0.6822919504251099,4.811895689691637
0.5276063618290259,-3.103180914512923,1.1849681908548728,5.130608349900597
0.5356003976143141,-3.134232604373733,-1.8580556660039078,3.999801192842963
0.5435944333996023,-3.2845403412856204,-2.754958913187539,3.769859592445328
0.5515884691848907,-3.196689218853545,-3.005438701126574,3.738133262922465
0.5595825049701789,-3.1088380964214712,-3.255918489065605,3.7064069333996024
0.5675765407554672,-3.0209869739893978,-3.506398277004637,3.6746806038767397
0.5755705765407555,-2.9331358515573225,-3.7568780649436717,3.6429542743538765
0.5835646123260437,-2.8452847291252485,-4.007357852882703,3.611227944831014
0.591558648111332,-2.757433606693175,-4.257837640821735,3.579501615308151
0.5995526838966203,-2.6695824842611,-4.508317428760769,3.547775285785288
0.6075467196819085,-2.581731361829026,-4.758797216699801,3.5160489562624253
0.6155407554671968,-2.4938802393969524,-5.009277004638832,3.484322626739563
0.6235347912524851,-2.406029116964877,-5.259756792577868,3.4525962972167
0.6315288270377734,-2.318177994532803,-5.5102365805168985,3.420869967693837
0.6395228628230616,-1.7832076572821145,-10.112382671711664,0.34174947091643926
0.6475168986083499,-1.6640707368691074,-10.240545116398383,-0.013727249406786324
0.6555109343936382,-1.5449338164561022,-10.368707561085102,-0.3692039697300069
0.6635049701789264,-1.4257968960430967,-10.49687000577182,-0.7246806900532277
0.6714990059642147,-1.3066599756300896,-10.62503245045854,-1.080157410376453
0.679493041749503,-1.1875230552170843,-10.753194895145258,-1.4356341306996738
0.6874870775347912,-1.0683861348040788,-10.881357339831975,-1.7911108510228944
0.6954811133200796,-0.9492492143910718,-11.009519784518696,-2.14658757134612
0.7034751491053678,0.5582166998012579,-12.390379721669994,-3.887493041749538
0.711469184890656,2.2407955900957885,-13.702698716790167,-5.528489246340141
0.7194632206759444,3.207524100678947,-15.712350613301316,-7.438450654563193
0.7274572564612326,3.49447981919802,-14.747259330807603,-8.17299696162647
0.7354512922465208,3.781435537717093,-13.78216804831389,-8.907543268689748
0.7434453280318092,4.06839125623617,-12.817076765820165,-9.642089575753037
0.7514393638170974,4.355346974755243,-11.851985483326452,-10.376635882816313
0.7594333996023857,4.642302693274316,-10.886894200832739,-11.11118218987959
0.767427435387674,4.929258411793393,-9.921802918339013,-11.845728496942879
0.7754214711729622,5.216214130312466,-8.956711635845302,-12.580274804006155
0.7834155069582505,5.503169848831539,-7.991620353351588,-13.314821111069433
0.7914095427435387,5.7901255673506125,-7.026529070857876,-14.04936741813271
0.799403578528827,6.0770812858696885,-6.061437788364149,-14.783913725195998
0.8073976143141153,6.364037004388762,-5.096346505870438,-15.518460032259275
0.8153916500994035,6.650992722907835,-4.131255223376725,-16.253006339322553
0.8233856858846919,6.9379484414269115,-3.166163940882999,-16.987552646385844
0.8313797216699801,7.942870454043416,-2.3921052272225234,-16.95662084061289
0.8393737574552683,7.66582462798964,-2.1085188264353287,-16.891861075968432
0.8473677932405567,7.3887788019358585,-1.8249324256481303,-16.827101311323975
0.8553618290258449,7.111732975882082,-1.5413460248609359,-16.76234154667952
0.8633558648111331,6.834687149828305,-1.2577596240737414,-16.697581782035062
0.8713499005964215,6.557641323774524,-0.974173223286543,-16.632822017390605
0.8793439363817097,6.280595497720747,-0.6905868224993483,-16.56806225274615
0.887337972166998,6.0035496716669705,-0.4070004217121541,-16.503302488101692
0.8953320079522863,5.726503845613189,-0.12341402092495546,-16.438542723457235
0.9033260437375745,5.449458019559414,0.16017237986223876,-16.37378295881278
0.9113200795228628,5.172412193505636,0.4437587806494334,-16.309023194168322
0.9193141153081511,4.895366367451855,0.7273451814366321,-16.244263429523865
0.9273081510934393,4.533627236580539,0.8510089463221031,-15.880782306163093
0.9353021868787276,2.732242544731611,-0.4044824387011249,-11.658231941683235
0.9432962226640159,2.659296968190855,-0.5230606361829021,-11.637913767395627
0.9512902584493041,2.5863513916501,-0.6416388336646778,-11.61759559310802
0.9592842942345924,2.5134058151093446,-0.7602170311464533,-11.597277418820411
0.9672783300198807,2.4404602385685883,-0.8787952286282307,-11.576959244532803
0.975272365805169,2.367514662027833,-0.9973734261100063,-11.556641070245195
0.9832664015904572,2.294569085487078,-1.115951623591782,-11.536322895957587
0.9912604373757455,2.2216235089463217,-1.2345298210735591,-11.51600472166998
0.9992544731610338,2.1486779324055663,-1.3531080185553348,-11.495686547382372
1.0072485089463221,2.07573235586481,-1.4716862160371122,-11.475368373094764
1.0152425447316102,2.002786779324056,-1.5902644135188861,-11.455050198807157
1.0232365805168986,1.9298412027832996,-1.7088426110006636,-11.434732024519548
1.031230616302187,1.921266401590487,-2.022791252485184,-11.14471769383685
1.039224652087475,1.8655001355503344,-4.1570106632929695,-8.689219184890657
1.0472186878727634,1.849330381348274,-4.225323332730888,-8.679226640159046
1.0552127236580517,1.8331606271462135,-4.293636002168806,-8.669234095427436
1.0632067594433399,1.8169908729441533,-4.361948671606723,-8.659241550695825
1.0712007952286282,1.8008211187420928,-4.430261341044641,-8.649249005964215
1.0791948310139166,1.7846513645400324,-4.49857401048256,-8.639256461232605
1.0871888667992047,1.7684816103379724,-4.566886679920477,-8.629263916500994
1.095182902584493,1.7523118561359117,-4.635199349358395,-8.619271371769385
1.1031769383697814,1.7361421019338512,-4.703512018796314,-8.609278827037773
1.1111709741550695,1.7199723477317912,-4.77182468823423,-8.599286282306164
1.1191650099403578,1.7038025935297307,-4.840137357672148,-8.589293737574554
1.1271590457256462,1.614634194831012,-5.027099403578532,-8.533061630218686
1.1351530815109343,1.356818091451292,-5.304745526838963,-8.336665009940358
1.1431471172962226,1.382132538104705,-5.552560636182902,-8.353985420808483
1.151141153081511,1.0666652741777183,-5.812499962251805,-8.099487807333215
1.1591351888667991,1.0505760122807462,-5.799952361778695,-8.067612854518458
1.1671292246520875,1.0344867503837734,-5.787404761305584,-8.035737901703701
1.1751232604373758,1.0183974884868006,-5.7748571608324735,-8.003862948888944
1.183117296222664,1.0023082265898282,-5.7623095603593635,-7.971987996074188
1.1911113320079523,0.9862189646928555,-5.749761959886253,-7.940113043259431
1.1991053677932406,0.9701297027958828,-5.737214359413142,-7.908238090444674
1.2070994035785287,0.9540404408989105,-5.724666758940031,-7.876363137629917
1.215093439363817,0.9379511790019377,-5.71211915846692,-7.84448818481516
1.2230874751491054,0.921861917104965,-5.699571557993809,-7.812613232000403
1.2310815109343936,0.93508389662028,-5.823384493041747,-7.901894234592443
1.239075546719682,0.865671588446847,-5.949796948645208,-7.353110103424397
1.2470695825049702,0.8856117675966674,-5.95446762123886,-7.361193959836487
1.2550636182902584,0.9055519467464872,-5.959138293832511,-7.369277816248576
1.2630576540755467,0.9254921258963076,-5.963808966426162,-7.3773616726606654
1.271051689860835,0.945432305046128,-5.968479639019814,-7.385445529072754
1.2790457256461232,0.9653724841959478,-5.973150311613465,-7.393529385484844
1.2870397614314115,0.9853126633457682,-5.977820984207117,-7.401613241896933
1.2950337972166999,1.0052528424955884,-5.982491656800769,-7.409697098309023
1.303027833001988,1.0251930216454084,-5.98716232939442,-7.4177809547211115
1.3110218687872763,1.0451332007952288,-5.991833001988072,-7.425864811133201
1.3190159045725647,1.0650733799450491,-5.9965036745817235,-7.43394866754529
1.3270099403578528,1.1750606361829061,-6.095188866799204,-7.481556660039759
1.3350039761431411,1.0611557108959142,-5.5328138053400036,-7.810937557450992
1.3429980119284295,1.114793112293978,-5.417888796254729,-7.879961328801385
1.3509920477137176,1.1684305136920403,-5.302963787169459,-7.948985100151776
1.358986083499006,1.222067915090104,-5.1880387780841835,-8.018008871502168
1.3669801192842943,1.2757053164881678,-5.073113768998909,-8.087032642852561
1.3749741550695824,1.32934271788623,-4.9581887599136385,-8.156056414202952
1.3829681908548708,1.3829801192842939,-4.843263750828363,-8.225080185553345
1.3909622266401591,1.4366175206823575,-4.728338741743089,-8.294103956903738
1.3989562624254472,1.4902549220804198,-4.613413732657818,-8.36312772825413
1.4069502982107356,1.5438923234784836,-4.498488723572544,-8.432151499604522
1.414944333996024,1.5975297248765474,-4.38356371448727,-8.501175270954915
1.422938369781312,1.6511671262746095,-4.268638705401998,-8.570199042305306
1.4309324055666004,1.5157011265738913,-4.144081510934394,-8.826284956925114
1.4389264413518887,1.4396348499909635,-3.5705034565335265,-9.239126988071572
1.4469204771371769,1.4422692481474788,-3.6763335893728524,-9.198157554671969
1.4549145129224652,1.4449036463039941,-3.782163722212181,-9.157188121272366
1.4629085487077536,1.4475380444605097,-3.88799385505151,-9.116218687872763
1.4709025844930417,1.450172442617025,-3.9938239878908357,-9.075249254473162
1.47889662027833,1.4528068407735406,-4.099654120730165,-9.034279821073559
1.4868906560636184,1.4554412389300562,-4.205484253569494,-8.993310387673956
1.4948846918489065,1.4580756370865715,-4.311314386408819,-8.952340954274355
1.5028787276341948,1.4607100352430868,-4.417144519248148,-8.911371520874752
1.5108727634194832,1.4633444333996024,-4.522974652087477,-8.87040208747515
1.5188667992047713,1.4659788315561177,-4.628804784926803,-8.829432654075546
1.5268608349900596,1.495912524850896,-4.652314115308148,-8.86499005964215
1.534854870775348,1.4331973161033784,-4.501375745526836,-9.043461729622269
1.5428489065606361,1.2984269383697813,-4.216932902584492,-9.309279821073558
1.5508429423459245,1.395279428691012,-4.063750601653238,-9.243265616825363
1.5588369781312126,1.4051667887412367,-4.0496558543475984,-9.227067175892016
1.566831013916501,1.4150541487914619,-4.035561107041959,-9.21086873495867
1.5748250497017893,1.4249415088416868,-4.021466359736319,-9.194670294025322
1.5828190854870774,1.4348288688919115,-4.0073716124306795,-9.178471853091974
1.5908131212723657,1.4447162289421367,-3.9932768651250394,-9.162273412158628
1.598807157057654,1.4546035889923616,-3.9791821178193993,-9.14607497122528
1.6068011928429422,1.4644909490425866,-3.9650873705137597,-9.129876530291932
1.6147952286282306,1.4743783090928115,-3.9509926232081196,-9.113678089358585
1.622789264413519,1.4842656691430367,-3.9368978759024795,-9.097479648425239
1.630783300198807,1.4866322067594393,-4.39034194831011,-9.039272365805129
1.6387773359840954,1.488787530138319,-4.4488743707964975,-9.12969870140857
1.6467713717693837,1.483429825303498,-4.454912419102406,-9.148918404466817
1.6547654075546718,1.4780721204686773,-4.460950467408316,-9.168138107525062
1.6627594433399602,1.4727144156338565,-4.466988515714225,-9.18735781058331
1.6707534791252485,1.4673567107990355,-4.4730265640201345,-9.206577513641555
1.6787475149105366,1.461999005964215,-4.479064612326043,-9.225797216699801
1.686741550695825,1.456641301129394,-4.485102660631953,-9.245016919758047
1.6947355864811133,1.4512835962945732,-4.491140708937862,-9.264236622816293
1.7027296222664015,1.4459258914597524,-4.497178757243772,-9.283456325874539
1.7107236580516898,1.4405681866249314,-4.50321680554968,-9.302676028932785
1.7187176938369781,1.4352104817901106,-4.50925485385559,-9.321895731991033
1.7267117296222663,1.324016898608364,-4.550802186878723,-9.295918489065611
1.7347057654075546,1.226766401590458,-4.220050695825046,-9.123176938369781
1.742699801192843,1.2101118938542657,-4.299877474284726,-9.118582591408073
1.750693836978131,1.2126317529604977,-4.287799528913475,-9.119277724954621
1.7586878727634194,1.21515161206673,-4.275721583542225,-9.119972858501168
1.7666819085487078,1.2176714711729621,-4.263643638170974,-9.120667992047714
1.774675944333996,1.2201913302791945,-4.251565692799724,-9.12136312559426
1.7826699801192842,1.2227111893854266,-4.2394877474284725,-9.122058259140807
1.7906640159045726,1.2252310484916589,-4.227409802057222,-9.122753392687354
1.7986580516898607,1.227750907597891,-4.215331856685972,-9.1234485262339
1.806652087475149,1.230270766704123,-4.203253911314721,-9.124143659780447
1.8146461232604374,1.2327906258103554,-4.1911759659434695,-9.124838793326994
1.8226401590457255,1.2353104849165875,-4.179098020572219,-9.12553392687354
1.8306341948310139,1.1935357852882724,-4.067607852882709,-9.146415009940357
1.8386282306163022,2.563360993132116,-5.158963469184891,-8.373250835893728
1.8466222664015903,2.5111272365805175,-5.261886679920476,-8.315566600397615
1.8546163021868787,2.4588934800289177,-5.364809890656063,-8.2578823649015
1.862610337972167,2.4066597234773175,-5.467733101391651,-8.200198129405386
1.8706043737574551,2.354425966925719,-5.570656312127235,-8.142513893909273
1.8785984095427435,2.3021922103741193,-5.6735795228628225,-8.084829658413158
1.8865924453280318,2.2499584538225195,-5.776502733598409,-8.027145422917043
1.89458648111332,2.197724697270921,-5.8794259443339945,-7.96946118742093
1.9025805168986083,2.145490940719321,-5.982349155069581,-7.911776951924815
1.9105745526838966,2.093257184167721,-6.085272365805169,-7.854092716428701
1.9185685884691848,2.0410234276161225,-6.188195576540753,-7.7964084809325875
1.926562624254473,2.003687872763419,-6.2681351888667995,-7.72825347912525
1.9345566600397615,2.0276699801192843,-6.25347945659377,-7.617003147779987
1.9425506958250496,2.0691013916500993,-6.171123923127894,-7.383805831676604
1.950544731610338,2.074,-6.314,-7.463
1.9585387673956263,2.074,-6.314,-7.463
1.9665328031809144,2.074,-6.314,-7.463
1.9745268389662027,2.074,-6.314,-7.463
1.982520874751491,2.074,-6.314,-7.463
1.9905149105367792,2.074,-6.314,-7.463
1.9985089463220675,2.074,-6.314,-7.463
2.0065029821073557,2.074,-6.314,-7.463
2.0144970178926442,2.074,-6.314,-7.463
2.0224910536779324,2.074,-6.314,-7.463
2.0304850894632205,2.000111332007951,-6.449707753479122,-7.325170974155069
2.038479125248509,2.0937166998012047,-6.685877733598454,-7.4011739562624435
2.046473161033797,2.165268413051105,-6.971350812770436,-7.5102122324874285
2.0544671968190853,2.160660086539586,-6.97548890188282,-7.503064624020583
2.062461232604374,2.156051760028067,-6.979626990995206,-7.4959170155537365
2.070455268389662,2.151443433516548,-6.98376508010759,-7.488769407086891
2.07844930417495,2.1468351070050287,-6.987903169219974,-7.481621798620044
2.0864433399602387,2.1422267804935093,-6.992041258332359,-7.474474190153199
2.094437375745527,2.1376184539819905,-6.996179347444743,-7.467326581686353
2.102431411530815,2.1330101274704716,-7.000317436557127,-7.460178973219507
2.1104254473161035,2.1284018009589523,-7.0044555256695125,-7.453031364752661
2.1184194831013916,2.1237934744474334,-7.008593614781897,-7.445883756285815
2.1264135188866797,2.113639165009941,-7.088330019880714,-7.302181908548711
2.1344075546719683,1.6821669980118967,-7.9515089463221145,-7.735212723658099
2.1424015904572564,1.639235212381624,-7.752324803864982,-7.47872224716219
2.1503956262425445,1.6432752089612859,-7.720262703349794,-7.412191239658823
2.158389662027833,1.647315205540948,-7.688200602834605,-7.3456602321554545
2.1663836978131212,1.6513552021206095,-7.6561385023194175,-7.279129224652089
2.1743777335984094,1.6553951987002713,-7.6240764018042295,-7.212598217148723
2.182371769383698,1.6594351952799333,-7.59201430128904,-7.146067209645354
2.190365805168986,1.6634751918595951,-7.559952200773852,-7.079536202141988
2.198359840954274,1.6675151884392567,-7.527890100258665,-7.013005194638622
2.2063538767395627,1.6715551850189188,-7.495827999743475,-6.946474187135253
2.214347912524851,1.6755951815985806,-7.463765899228287,-6.879943179631887
2.222341948310139,1.6796351781782424,-7.431703798713099,-6.813412172128522
2.2303359840954275,1.6956918489065622,-7.039608349900551,-6.4513916500993655
2.2383300198807157,1.6531953224473435,-6.541252239372751,-5.467723859092634
2.246324055666004,1.4891828579087354,-6.583288292715614,-5.5285324234369035
2.2543180914512924,1.3251703933701182,-6.62532434605848,-5.589340987781178
2.2623121272365805,1.1611579288315101,-6.6673603994013435,-5.6501495521254474
2.2703061630218686,0.9971454642929021,-6.7093964527442065,-5.710958116469718
2.278300198807157,0.8331329997542849,-6.751432506087072,-5.771766680813992
2.2862942345924453,0.6691205352156768,-6.793468559429936,-5.832575245158262
2.2942882703777334,0.5051080706770688,-6.835504612772799,-5.893383809502533
2.302282306163022,0.3410956061384516,-6.8775406661156655,-5.954192373846806
2.31027634194831,0.1770831415998435,-6.9195767194585285,-6.0150009381910765
2.3182703777335982,0.013070677061235436,-6.9616127728013915,-6.075809502535347
2.326264413518887,-0.09275745526838763,-7.30931013916503,-6.223727634194837
2.334258449304175,0.09203702783300212,-7.6706466202783306,-6.357121023856859
2.342252485089463,0.22896437467151118,-7.430203605950504,-6.212080985352254
2.3502465208747516,0.2252889559196544,-7.391887365462397,-6.223015356139028
2.3582405566600397,0.22161353716779778,-7.353571124974292,-6.233949726925801
2.366234592445328,0.21793811841594118,-7.315254884486187,-6.244884097712575
2.3742286282306164,0.21426269966408437,-7.276938643998079,-6.255818468499349
2.3822226640159045,0.21058728091222778,-7.238622403509974,-6.266752839286123
2.3902166998011927,0.20691186216037116,-7.200306163021869,-6.277687210072896
2.3982107355864812,0.20323644340851438,-7.161989922533762,-6.28862158085967
2.4062047713717694,0.19956102465665776,-7.123673682045657,-6.299555951646443
2.4141988071570575,0.19588560590480117,-7.085357441557552,-6.310490322433217
2.422192842942346,0.19221018715294436,-7.047041201069445,-6.321424693219991
2.430186878727634,0.2568230616302215,-6.2512895957588075,-6.009406891981453
2.4381809145129223,0.21218825508487535,-5.799361829025845,-5.8652214066031165
2.446174950298211,0.21710766172197601,-5.815349900596422,-5.865563032064026
2.454168986083499,0.2220270683590764,-5.831337972166998,-5.865904657524936
2.462163021868787,0.2269464749961768,-5.847326043737574,-5.866246282985846
2.4701570576540757,0.23186588163327745,-5.863314115308151,-5.866587908446755
2.478151093439364,0.23678528827037784,-5.879302186878728,-5.8669295339076655
2.486145129224652,0.24170469490747823,-5.895290258449304,-5.867271159368575
2.4941391650099405,0.24662410154457887,-5.911278330019881,-5.867612784829485
2.5021332007952286,0.25154350818167925,-5.927266401590457,-5.867954410290395
2.5101272365805167,0.25646291481877964,-5.9432544731610335,-5.868296035751304
2.5181212723658053,0.2613823214558803,-5.959242544731611,-5.868637661212214
2.5261153081510934,0.2663017280929807,-5.975230616302187,-5.868979286673124
2.5341093439363815,0.2712211347300811,-5.991218687872763,-5.869320912134033
2.54210337972167,0.27614054136718175,-6.00720675944334,-5.869662537594944
2.5500974155069582,0.28372763419483515,-6.048912524850934,-5.884125248508968
2.5580914512922464,0.4212303210440323,-6.6913880676338025,-6.124995964805227
2.566085487077535,0.4595383737180884,-6.613663878117432,-6.1982086687794045
2.574079522862823,0.4978464263921424,-6.535939688601067,-6.271421372753578
2.582073558648111,0.5361544790661964,-6.458215499084701,-6.344634076727751
2.5900675944333997,0.5744625317402525,-6.38049130956833,-6.417846780701929
2.598061630218688,0.6127705844143065,-6.302767120051965,-6.491059484676103
2.606055666003976,0.6510786370883604,-6.225042930535599,-6.564272188650276
2.6140497017892645,0.6893866897624166,-6.147318741019229,-6.637484892624453
2.6220437375745527,0.7276947424364706,-6.069594551502863,-6.710697596598627
2.630037773359841,0.7660027951105246,-5.991870361986497,-6.7839103005728
2.6380318091451294,0.8043108477845806,-5.914146172470128,-6.8571230045469775
2.6460258449304175,0.8426189004586346,-5.836421982953762,-6.9303357085211506
2.6540198807157056,0.8809269531326887,-5.758697793437396,-7.0035484124953244
2.662013916500994,0.9450450629556026,-5.303444665341258,-7.426227965540118
2.6700079522862823,1.0609443339960234,-5.116278330019883,-8.005721669980117
2.6780019880715704,1.0760159045725621,-5.439526010603044,-8.179545891318746
2.685996023856859,1.2188111332008045,-5.6736898608350055,-8.593451292246547
2.693990059642147,1.4398161937466132,-5.732351647689621,-8.565066299174648
2.7019840954274352,1.66074227363094,-5.7907323332730885,-8.53611819989156
2.709978131212724,1.8816683535152792,-5.84911301885656,-8.50717010060847
2.717972166998012,2.102594433399606,-5.907493704440028,-8.478222001325381
2.7259662027833,2.323520513283933,-5.965874390023496,-8.449273902042291
2.7339602385685886,2.5444465931682716,-6.024255075606966,-8.420325802759201
2.7419542743538767,2.7653726730525987,-6.082635761190434,-8.391377703476113
2.749948310139165,2.986298752936926,-6.141016446773902,-8.362429604193023
2.7579423459244534,2.935110479977279,-6.485400738426583,-8.911073274637886
2.7659363817097415,2.943561317807441,-6.467471258165294,-8.894971002556092
2.7739304174950297,2.9520121556376027,-6.449541777904005,-8.878868730474297
2.7819244532803182,2.9604629934677646,-6.431612297642715,-8.862766458392501
2.7899184890656064,2.9689138312979266,-6.413682817381426,-8.846664186310708
2.7979125248508945,2.977364669128088,-6.395753337120137,-8.830561914228912
2.805906560636183,2.98581550695825,-6.377823856858847,-8.814459642147117
2.813900596421471,2.994266344788412,-6.359894376597558,-8.798357370065322
2.8218946322067593,3.0027171826185737,-6.341964896336269,-8.782255097983528
2.829888667992048,2.9766679920477133,-6.646897017892648,-9.174915308151098
2.837882703777336,2.689687738736122,-6.795493086425268,-10.120541827685571
2.845876739562624,2.652771461120915,-6.735852190229411,-10.072128509839837
2.8538707753479127,2.6158551835057064,-6.67621129403355,-10.023715191994102
2.861864811133201,2.5789389058904995,-6.616570397837693,-9.975301874148368
2.869858846918489,2.5420226282752925,-6.556929501641835,-9.926888556302634
2.8778528827037775,2.5051063506600832,-6.497288605445974,-9.878475238456899
2.8858469184890656,2.4681900730448763,-6.4376477092501165,-9.830061920611165
2.8938409542743537,2.4312737954296693,-6.3780068130542595,-9.781648602765431
2.9018349900596423,2.3943575178144605,-6.318365916858398,-9.733235284919694
2.9098290258449304,2.3574412401992535,-6.258725020662541,-9.68482196707396
2.9178230616302185,2.3205249625840465,-6.199084124466683,-9.636408649228226
2.925817097415507,1.9912703777335965,-5.166316103379715,-8.414252485089456
2.9338111332007952,1.1104453703312045,-5.978181041411108,-9.266568207774629
2.9418051689860834,1.0605251681400967,-6.0042892221141235,-9.268184023518463
2.949799204771372,1.010604965948986,-6.03039740281714,-9.269799839262298
2.95779324055666,0.9606847637578783,-6.056505583520156,-9.271415655006134
2.965787276341948,0.9107645615667704,-6.082613764223171,-9.273031470749968
2.9737813121272367,0.8608443593756598,-6.108721944926188,-9.274647286493803
2.981775347912525,0.810924157184552,-6.134830125629204,-9.276263102237639
2.989769383697813,0.7610039549934442,-6.160938306332219,-9.277878917981473
2.9977634194831015,0.7110837528023337,-6.187046487035236,-9.279494733725308
3.0057574552683897,0.6611635506112259,-6.213154667738252,-9.281110549469142
3.013751491053678,0.6112433484201181,-6.239262848441267,-9.282726365212978
3.0217455268389664,0.5613231462290075,-6.2653710291442835,-9.284342180956813
3.0297395626242545,0.28822332670643264,-6.03902186878728,-9.079618952948977
3.0377335984095426,0.15181059099945793,-5.370966925718417,-8.397923007410085
3.045727634194831,0.278537624254474,-5.291580119284293,-8.280772614314115
3.0537216699801193,0.3064168240556663,-5.254008151093439,-8.278274478131213
3.0617157057654074,0.3342960238568586,-5.2164361829025845,-8.27577634194831
3.069709741550696,0.36217522365805244,-5.178864214711728,-8.273278205765408
3.077703777335984,0.39005442345924474,-5.141292246520874,-8.270780069582505
3.0856978131212722,0.41793362326043704,-5.10372027833002,-8.268281933399603
3.0936918489065603,0.44581282306162934,-5.066148310139166,-8.2657837972167
3.101685884691849,0.4736920228628232,-5.02857634194831,-8.263285661033798
3.109679920477137,0.5015712226640155,-4.991004373757455,-8.260787524850896
3.117673956262425,0.5294504224652078,-4.953432405566601,-8.258289388667992
3.1256679920477137,0.5426421471172947,-4.7950874751490895,-8.24731610337972
3.133662027833002,0.15242458293715588,-5.065411357939322,-7.170248768260006
3.14165606361829,0.26990215230356385,-5.043340867836461,-7.14739625291728
3.1496500994035785,0.3873797216699783,-5.0212703777335985,-7.124543737574553
3.1576441351888667,0.5048572910363862,-4.999199887630739,-7.101691222231827
3.165638170974155,0.6223348604027942,-4.977129397527878,-7.078838706889101
3.1736322067594434,0.7398124297692087,-4.955058907425015,-7.055986191546374
3.1816262425447315,0.8572899991356167,-4.9329884173221545,-7.033133676203648
3.1896202783300196,0.9747675685020246,-4.910917927219294,-7.010281160860923
3.197614314115308,1.092245137868439,-4.888847437116432,-6.987428645518196
3.2056083499005963,1.2097227072348469,-4.866776947013571,-6.96457613017547
3.2136023856858844,1.3272002766012547,-4.844706456910711,-6.941723614832744
3.221596421471173,1.4446778459676692,-4.822635966807849,-6.918871099490016
3.229590457256461,1.4595559973492402,-4.874641484426774,-6.595187541418158
3.2375844930417492,1.5298362633189633,-4.611144280385104,-6.205429713851722
3.245578528827038,1.498399043938615,-4.682731319945497,-6.172735005696159
3.253572564612326,1.4669618245582683,-4.754318359505886,-6.140040297540599
3.261566600397614,1.4355246051779218,-4.825905399066275,-6.107345589385039
3.2695606361829026,1.4040873857975735,-4.897492438626668,-6.074650881229477
3.2775546719681907,1.3726501664172268,-4.969079478187058,-6.041956173073916
3.285548707753479,1.3412129470368803,-5.040666517747447,-6.009261464918356
3.2935427435387674,1.309775727656532,-5.11225355730784,-5.976566756762794
3.3015367793240555,1.2783385082761853,-5.183840596868229,-5.943872048607234
3.3095308151093437,1.2469012888958388,-5.255427636428618,-5.9111773404516725
3.3175248508946322,1.2154640695154906,-5.327014675989012,-5.878482632296111
3.3255188866799203,1.3904930417494843,-5.404745526838964,-6.003129224652073
3.3335129224652085,1.3863956262425012,-6.008940357852713,-6.418318091451251
3.341506958250497,1.6953889472155845,-6.887952196930774,-6.974267161078474
3.349500994035785,1.774341278173655,-6.858850313847253,-7.061752451582639
3.3574950298210733,1.8532936091317254,-6.829748430763733,-7.149237742086804
3.365489065606362,1.9322459400898,-6.80064654768021,-7.236723032590973
3.37348310139165,2.0111982710478706,-6.771544664596689,-7.324208323095137
3.381477137176938,2.0901506020059406,-6.7424427815131684,-7.411693613599302
3.3894711729622267,2.1691029329640155,-6.713340898429646,-7.499178904103471
3.397465208747515,2.248055263922086,-6.684239015346125,-7.586664194607636
3.405459244532803,2.3270075948801563,-6.655137132262604,-7.6741494851117995
3.4134532803180915,2.405959925838231,-6.626035249179082,-7.76163477561597
3.4214473161033796,2.484912256796301,-6.596933366095561,-7.8491200661201335
3.4294413518886677,2.466703777335989,-6.839821868787253,-7.991039363817088
3.4374353876739563,1.910941020543406,-8.344547382372436,-9.537676607024526
3.4454294234592444,2.18588469184886,-8.73711729622267,-9.659821073558696
3.4534234592445325,2.173707225004411,-8.721503485416616,-9.349997030475386
3.461417495029821,2.037707426328109,-8.723122530638951,-9.145390190502557
3.4694115308151092,1.9017076276518141,-8.72474157586129,-8.940783350529738
3.4774055666003973,1.7657078289755197,-8.726360621083625,-8.73617651055692
3.485399602385686,1.6297080302992175,-8.727979666305963,-8.53156967058409
3.493393638170974,1.4937082316229229,-8.729598711528299,-8.326962830611272
3.501387673956262,1.3577084329466285,-8.731217756750636,-8.122355990638454
3.5093817097415507,1.2217086342703263,-8.732836801972972,-7.917749150665625
3.517375745526839,1.0857088355940316,-8.73445584719531,-7.713142310692806
3.525369781312127,1.0102099403578282,-8.599402783300262,-7.438570974155105
3.5333638170974155,2.3003941351888293,-6.652651590457266,-5.925056660039797
3.5413578528827037,0.5138138147857035,-7.93970003236396,-7.732095150030051
3.549351888667992,0.5403056775625305,-7.816629062832314,-7.793444726986913
3.5573459244532804,0.5667975403393589,-7.693558093300663,-7.854794303943779
3.5653399602385685,0.5932894031161859,-7.570487123769017,-7.916143880900641
3.5733339960238566,0.6197812658930129,-7.447416154237372,-7.977493457857504
3.581328031809145,0.6462731286698413,-7.32434518470572,-8.03884303481437
3.5893220675944333,0.6727649914466682,-7.201274215174075,-8.100192611771233
3.5973161033797214,0.6992568542234953,-7.078203245642429,-8.161542188728095
3.60531013916501,0.7257487170003236,-6.955132276110778,-8.22289176568496
3.613304174950298,0.7522405797771506,-6.832061306579132,-8.284241342641822
3.621298210735586,0.7787324425539777,-6.708990337047487,-8.345590919598685
3.629292246520875,0.1690914512922636,-5.89618091451291,-6.720544731610315
3.637286282306163,0.8438071570576541,-5.05458449304175,-6.33148310139165
3.645280318091451,0.8499202432464038,-5.041339472966126,-6.349900732857756
3.6532743538767396,0.8560333294351539,-5.0280944528905005,-6.368318364323861
3.6612683896620277,0.8621464156239036,-5.014849432814875,-6.386735995789966
3.669262425447316,0.8682595018126533,-5.001604412739251,-6.405153627256071
3.6772564612326044,0.8743725880014034,-4.988359392663626,-6.423571258722177
3.6852504970178925,0.8804856741901531,-4.975114372588002,-6.441988890188282
3.6932445328031807,0.8865987603789028,-4.961869352512378,-6.460406521654387
3.7012385685884692,0.8927118465676529,-4.948624332436752,-6.478824153120493
3.7092326043737573,0.8988249327564026,-4.935379312361127,-6.497241784586597
3.7172266401590455,0.9049380189451524,-4.922134292285503,-6.515659416052703
3.725220675944334,0.9110511051339025,-4.908889272209878,-6.534077047518808
3.733214711729622,0.9048687872763521,-4.872166998011949,-6.580019880715682
3.7412087475149103,0.5318275111237332,-4.821950108870584,-7.39213679825807
3.749202783300199,0.543913731894348,-4.854687588753195,-7.3996549985799485
3.757196819085487,0.5559999526649623,-4.887425068635803,-7.407173198901827
3.765190854870775,0.5680861734355765,-4.9201625485184115,-7.414691399223705
3.7731848906560637,0.5801723942061914,-4.9529000284010225,-7.4222095995455835
3.781178926441352,0.5922586149768057,-4.985637508283631,-7.429727799867462
3.78917296222664,0.6043448357474199,-5.018374988166239,-7.43724600018934
3.7971669980119285,0.6164310565180348,-5.05111246804885,-7.4447642005112185
3.8051610337972166,0.628517277288649,-5.0838499479314585,-7.452282400833097
3.8131550695825047,0.6406034980592633,-5.116587427814067,-7.459800601154974
3.8211491053677933,0.6526897188298781,-5.149324907696678,-7.4673188014768535
3.8291431411530814,0.7653603379721651,-5.688711729622268,-7.592309642147117
3.8371371769383695,0.8552932405566563,-5.6167654075546745,-7.595640490390988
3.845131212723658,1.1036658100179413,-5.800992823546525,-7.399503588226738
3.853125248508946,1.1130246811812052,-5.8035275178199095,-7.3982362410900455
3.8611192842942343,1.1223835523444694,-5.806062212093294,-7.396968893953353
3.869113320079523,1.1317424235077342,-5.808596906366677,-7.395701546816661
3.877107355864811,1.1411012946709982,-5.811131600640062,-7.394434199679969
3.885101391650099,1.1504601658342624,-5.813666294913446,-7.393166852543277
3.8930954274353877,1.1598190369975272,-5.81620098918683,-7.391899505406585
3.901089463220676,1.1691779081607911,-5.818735683460214,-7.390632158269892
3.909083499005964,1.1785367793240553,-5.821270377733598,-7.3893648111332
3.9170775347912525,1.1878956504873202,-5.823805072006982,-7.388097463996508
3.9250715705765407,1.139742544731618,-6.107823061630179,-7.540770377733577
3.933065606361829,1.0100857649800115,-7.647213749759512,-8.932434468458066
3.9410596421471173,1.0336380854657004,-7.543549156672866,-9.007647170739007
3.9490536779324055,1.0571904059513881,-7.439884563586227,-9.082859873019943
3.9570477137176936,1.0807427264370757,-7.336219970499587,-9.15807257530088
3.965041749502982,1.1042950469227646,-7.232555377412941,-9.233285277581821
3.9730357852882703,1.1278473674084522,-7.128890784326302,-9.308497979862757
3.9810298210735584,1.1513996878941397,-7.025226191239662,-9.383710682143695
3.989023856858847,1.1749520083798286,-6.921561598153017,-9.458923384424635
3.997017892644135,1.1985043288655162,-6.817897005066378,-9.534136086705573
4.005011928429424,1.222056649351205,-6.714232411979732,-9.609348788986512
4.013005964214711,1.2456089698368915,-6.610567818893099,-9.684561491267445
4.021,1.2691612903225802,-6.506903225806453,-9.759774193548386
4.0289940357852885,3.4952385685891896,-7.260890656063526,-12.686536779324323
4.036988071570576,3.493358184227966,-7.159149105367797,-12.55886547382373
4.044982107355865,3.476703943008615,-7.059223658051691,-12.42563154406892
4.052976143141153,3.4600497017892637,-6.959298210735583,-12.292397614314112
4.060970178926441,3.4433954605699144,-6.859372763419487,-12.159163684559317
4.0689642147117295,3.4267412193505633,-6.759447316103381,-12.025929754804507
4.076958250497018,3.410086978131212,-6.659521868787273,-11.892695825049698
4.084952286282306,3.393432736911863,-6.559596421471177,-11.759461895294903
4.092946322067594,3.3767784956925118,-6.45967097415507,-11.626227965540094
4.100940357852883,3.3601242544731607,-6.359745526838964,-11.492994035785285
4.108934393638171,3.3434700132538113,-6.259820079522868,-11.35976010603049
4.116928429423459,3.32681577203446,-6.159894632206761,-11.226526176275682
4.124922465208748,3.310161530815109,-6.059969184890654,-11.093292246520871
4.132916500994035,-0.006459202233404798,-5.882343640285936,-8.99875343682586
4.140910536779324,-0.05008622731694799,-5.983884903345879,-8.91847290723743
4.1489045725646125,-0.09371325240049119,-6.085426166405822,-8.838192377649
4.1568986083499,-0.13734027748402955,-6.186967429465753,-8.757911848060578
4.164892644135189,-0.18096730256757274,-6.288508692525696,-8.677631318472148
4.172886679920477,-0.22459432765111595,-6.390049955585638,-8.597350788883716
4.180880715705765,-0.2682213527346543,-6.491591218645569,-8.517070259295295
4.188874751491054,-0.31184837781819746,-6.593132481705512,-8.436789729706865
4.196868787276342,-0.3554754029017407,-6.6946737447654545,-8.356509200118435
4.20486282306163,-0.39910242798527906,-6.796215007825386,-8.276228670530013
4.212856858846918,-0.4427294530688222,-6.897756270885329,-8.195948140941583
4.220850894632207,-0.48635647815236543,-6.999297533945271,-8.115667611353151
4.228844930417495,-0.5228469184890562,-7.010630715705779,-7.483517892644171
4.236838966202783,-0.6853923127899175,-6.784799204771385,-6.863980119284331
4.244833001988072,-0.6793903247183564,-6.346005798542079,-6.179528827037771
4.2528270377733595,-0.4562817829862929,-5.539097938683687,-5.435397509678769
4.260821073558648,-0.4493395940148582,-5.540044600816155,-5.487569111645914
4.268815109343937,-0.4423974050434234,-5.540991262948624,-5.53974071361306
4.276809145129224,-0.4354552160719894,-5.5419379250810925,-5.591912315580201
4.284803180914513,-0.42851302710055467,-5.54288458721356,-5.644083917547347
4.292797216699801,-0.4215708381291199,-5.543831249346029,-5.696255519514493
4.300791252485089,-0.4146286491576859,-5.544777911478497,-5.748427121481633
4.308785288270378,-0.40768646018625115,-5.545724573610966,-5.800598723448779
4.316779324055666,-0.40074427121481637,-5.5466712357434345,-5.852770325415926
4.324773359840954,-0.3938020822433824,-5.547617897875902,-5.904941927383066
4.3327673956262425,-0.7265109343936339,-5.196607355864828,-7.273062624254429
4.340761431411531,-0.6601584426028101,-5.25995065561686,-7.213115888936046
4.348755467196819,-0.6589907744543974,-5.252944646726384,-7.207726651327987
4.356749502982107,-0.6578231063059844,-5.245938637835906,-7.202337413719928
4.364743538767396,-0.6566554381575714,-5.238932628945428,-7.196948176111868
4.3727375745526835,-0.6554877700091586,-5.231926620054952,-7.191558938503809
4.380731610337972,-0.6543201018607457,-5.224920611164474,-7.186169700895749
4.388725646123261,-0.6531524337123328,-5.217914602273996,-7.1807804632876895
4.396719681908548,-0.6519847655639199,-5.21090859338352,-7.175391225679631
4.404713717693837,-0.6508170974155071,-5.203902584493042,-7.17000198807157
4.4127077534791255,-0.6496494292670941,-5.1968965756025645,-7.164612750463511
4.420701789264413,-0.6484817611186813,-5.189890566712088,-7.159223512855452
4.428695825049702,-0.7298415222947986,-5.207124964498721,-7.112725078102814
4.43668986083499,-0.7098677932405556,-5.177537773359837,-6.352146123260442
4.444683896620278,-0.7836501461817361,-5.452895333879088,-5.965754812302649
4.4526779324055665,-0.7523323353993703,-5.358847854052163,-6.028484481347207
4.460671968190855,-0.7210145246170045,-5.2648003742252385,-6.091214150391766
4.468666003976143,-0.6896967138346421,-5.1707528943983245,-6.153943819436318
4.476660039761431,-0.6583789030522763,-5.076705414571401,-6.216673488480876
4.48465407554672,-0.6270610922699105,-4.982657934744476,-6.279403157525435
4.492648111332008,-0.5957432814875482,-4.888610454917562,-6.342132826569986
4.500642147117296,-0.5644254707051823,-4.794562975090638,-6.404862495614545
4.508636182902585,-0.5331076599228166,-4.700515495263714,-6.467592164659103
4.516630218687872,-0.5017898491404542,-4.6064680154368,-6.530321833703654
4.524624254473161,-0.4704720383580884,-4.512420535609875,-6.593051502748214
4.5326182902584495,-0.2707761939004272,-6.04361126855887,-8.23532172919927
4.540612326043737,-0.2696706357599087,-6.189885114842856,-8.197392580686097
4.548606361829026,-0.26856507761939,-6.336158961126859,-8.159463432172918
4.556600397614314,-0.2674595194788714,-6.482432807410863,-8.121534283659742
4.564594433399602,-0.2663539613383529,-6.62870665369485,-8.083605135146568
4.572588469184891,-0.26524840319783427,-6.774980499978852,-8.045675986633391
4.580582504970179,-0.26414284505731567,-6.921254346262856,-8.007746838120212
4.588576540755467,-0.2630372869167971,-7.067528192546842,-7.96981768960704
4.596570576540755,-0.2619317287762785,-7.2138020388308455,-7.931888541093862
4.604564612326044,-0.26082617063575986,-7.360075885114848,-7.893959392580684
4.612558648111332,-0.25972061249524137,-7.506349731398835,-7.856030244067511
4.62055268389662,-0.25861505435472276,-7.652623577682839,-7.818101095554334
4.628546719681909,-0.23768696909452267,-7.8778033616483,-7.823116754021328
4.6365407554671965,-0.08198210735595227,-8.106727634194888,-7.727129224652204
4.644534791252485,-0.5497645555239983,-10.319676701694593,-8.558287513017136
4.652528827037774,-0.5120783868219239,-10.26590729432926,-8.689998769289033
4.660522862823061,-0.4743922181198536,-10.212137886963932,-8.821710025560915
4.66851689860835,-0.43670604941777913,-10.158368479598598,-8.953421281832812
4.676510934393638,-0.3990198807157047,-10.104599072233265,-9.085132538104709
4.684504970178926,-0.36133371201363446,-10.050829664867939,-9.21684379437659
4.692499005964215,-0.32364754331156,-9.997060257502605,-9.348555050648487
4.700493041749503,-0.28596137460948556,-9.943290850137272,-9.480266306920385
4.708487077534791,-0.2482752059074153,-9.889521442771944,-9.611977563192266
4.7164811133200795,-0.2105890372053409,-9.83575203540661,-9.743688819464163
4.724475149105368,-0.17290286850326647,-9.781982628041277,-9.875400075736058
4.732469184890656,-0.2027025347912474,-9.33088344930423,-9.79257604373759
4.740463220675944,2.2399972868670326,-5.56884200678283,-7.619441445444976
4.748457256461233,2.2572079756753594,-5.635145480060812,-7.661574716407438
4.7564512922465205,2.274418664483685,-5.701448953338787,-7.703707987369895
4.764445328031809,2.291629353292012,-5.767752426616768,-7.745841258332358
4.772439363817098,2.308840042100339,-5.83405589989475,-7.78797452929482
4.780433399602385,2.3260507309086647,-5.900359373172724,-7.830107800257276
4.788427435387674,2.343261419716992,-5.966662846450705,-7.872241071219738
4.7964214711729625,2.3604721085253186,-6.032966319728687,-7.914374342182201
4.80441550695825,2.377682797333644,-6.099269793006661,-7.956507613144658
4.812409542743539,2.3948934861419713,-6.1655732662846425,-7.99864088410712
4.820403578528827,2.4121041749502985,-6.231876739562624,-8.040774155069583
4.828397614314115,1.2559085487077806,-5.94646322067596,-5.768123260437606
4.8363916500994035,1.3689561982941068,-5.8292301032514615,-4.918463541332649
4.844385685884692,1.3614779067530305,-5.7880565210885235,-4.913220141516493
4.85237972166998,1.3539996152119549,-5.74688293892559,-4.9079767417003355
4.860373757455268,1.3465213236708784,-5.705709356762652,-4.902733341884179
4.868367793240557,1.339043032129802,-5.664535774599715,-4.897489942068022
4.876361829025845,1.3315647405887263,-5.623362192436781,-4.892246542251866
4.884355864811133,1.32408644904765,-5.582188610273843,-4.8870031424357085
4.892349900596422,1.3166081575065736,-5.541015028110905,-4.881759742619551
4.900343936381709,1.309129865965498,-5.499841445947972,-4.876516342803395
4.908337972166998,1.3016515744244215,-5.458667863785034,-4.871272942987238
4.9163320079522865,1.2941732828833452,-5.417494281622096,-4.866029543171081
4.924326043737574,1.2074453280319404,-5.430493041749417,-4.883497017892607
4.932320079522863,2.1948095892728716,-5.817804111501205,-5.685056046698537
4.940314115308151,2.132132946998854,-5.803346812740577,-5.8437461613299035
4.948308151093439,2.0694563047248433,-5.78888951397995,-6.0024362759612515
4.956302186878728,2.0067796624508256,-5.774432215219322,-6.161126390592617
4.964296222664016,1.9441030201768081,-5.7599749164586935,-6.319816505223984
4.972290258449304,1.8814263779027975,-5.745517617698067,-6.478506619855333
4.980284294234592,1.81874973562878,-5.731060318937439,-6.6371967344866984
4.988278330019881,1.7560730933547624,-5.7166030201768105,-6.795886849118064
4.996272365805169,1.6933964510807518,-5.702145721416184,-6.954576963749413
5.004266401590457,1.630719808806734,-5.687688422655556,-7.113267078380779
5.012260437375746,1.5680431665327164,-5.673231123894928,-7.271957193012145
5.0202544731610335,1.5053665242587058,-5.658773825134301,-7.430647307643493
5.028248508946322,1.3432310139164967,-8.004192842942388,-7.467897017892582
5.036242544731611,2.1698892264391203,-8.886035517233676,-4.757400585252532
5.044236580516898,2.342883753657819,-8.757592020908266,-4.927251390533196
5.052230616302187,2.5158782808765365,-8.629148524582842,-5.0971021958138785
5.060224652087475,2.6888728080952538,-8.500705028257418,-5.266953001094562
5.068218687872763,2.8618673353139523,-8.37226153193201,-5.4368038063752255
5.076212723658052,3.03486186253267,-8.243818035606585,-5.606654611655908
5.08420675944334,3.207856389751387,-8.115374539281161,-5.77650541693659
5.092200795228628,3.3808509169700858,-7.986931042955751,-5.946356222217254
5.1001948310139165,3.553845444188803,-7.858487546630328,-6.116207027497937
5.108188866799205,3.7268399714075207,-7.730044050304905,-6.28605783277862
5.116182902584493,3.8998344986262192,-7.601600553979495,-6.455908638059284
5.124176938369781,4.320517892644474,-7.459544731610316,-6.783810139165228
5.13217097415507,4.283348560809039,-10.363243625205287,-5.138765839744143
5.1401650099403575,4.019110921427956,-10.327878706024721,-5.127817486386032
5.148159045725646,3.7548732820468427,-10.292513786844152,-5.11686913302792
5.156153081510935,3.4906356426657297,-10.257148867663583,-5.105920779669807
5.164147117296222,3.226398003284646,-10.221783948483017,-5.094972426311696
5.172141153081511,2.962160363903533,-10.186419029302447,-5.084024072953583
5.1801351888667995,2.69792272452242,-10.151054110121876,-5.0730757195954705
5.188129224652087,2.4336850851413367,-10.11568919094131,-5.062127366237359
5.196123260437376,2.1694474457602237,-10.080324271760741,-5.051179012879246
5.204117296222664,1.9052098063791107,-10.044959352580172,-5.040230659521134
5.212111332007952,1.6409721669980275,-10.009594433399606,-5.029282306163022
5.2201053677932405,1.3767345276169145,-9.974229514219035,-5.01833395280491
5.228099403578529,-3.0053469184891273,-7.508889662027792,-5.811364811133224
5.236093439363817,-3.6647609824921434,-5.042698839222733,-6.179536651061375
5.244087475149105,-3.6847890506423826,-4.863305799610934,-6.12701669552577
5.252081510934394,-3.7048171187926218,-4.683912759999136,-6.074496739990164
5.260075546719682,-3.7248451869428587,-4.504519720387358,-6.021976784454564
5.26806958250497,-3.7448732550930974,-4.3251266807755595,-5.9694568289189585
5.276063618290259,-3.7649013232433366,-4.145733641163761,-5.916936873383353
5.284057654075546,-3.7849293913935735,-3.966340601551982,-5.864416917847754
5.292051689860835,-3.8049574595438127,-3.7869475619401842,-5.811896962312148
5.3000457256461235,-3.824985527694052,-3.607554522328386,-5.759377006776543
5.308039761431411,-3.8450135958442884,-3.4281614827166074,-5.706857051240943
5.3160337972167,-3.8650416639945275,-3.248768443104809,-5.654337095705337
5.324027833001988,-3.8878667992048155,-3.0645864811132366,-5.592592445327887
5.332021868787276,-3.022042412193519,0.12902319416830932,-3.9530298210735624
5.340015904572565,-2.397841451292261,0.7772062624254327,-3.7811580516898644
5.348009940357853,-2.3282516624391585,0.8746457119352851,-3.7788543223418114
5.356003976143141,-2.336521354630835,0.8947686296016989,-3.8003555220401712
5.363998011928429,-2.3447910468225133,0.9148915472681151,-3.8218567217385337
5.371992047713718,-2.353060739014191,0.9350144649345311,-3.8433579214368963
5.379986083499006,-2.3613304312058676,0.9551373826009449,-3.864859121135256
5.387980119284294,-2.3696001233975457,0.9752603002673611,-3.8863603208336186
5.395974155069583,-2.3778698155892233,0.9953832179337772,-3.907861520531981
5.4039681908548705,-5.275401590457155,-1.348815109343898,-7.745775347912635
5.411962226640159,-4.8073574072804535,-2.2519052923836362,-4.92854987317474
5.419956262425448,-4.760909302803864,-2.4689847124151783,-4.7683935010625795
5.427950298210735,-4.714461198327278,-2.686064132446696,-4.608237128950438
5.435944333996024,-4.668013093850688,-2.903143552478238,-4.448080756838278
5.443938369781312,-4.6215649893740975,-3.12022297250978,-4.287924384726118
5.4519324055666,-4.575116884897513,-3.3373023925412975,-4.127768012613976
5.459926441351889,-4.528668780420922,-3.5543818125728395,-3.967611640501816
5.467920477137177,-4.482220675944332,-3.7714612326043815,-3.8074552683896563
5.475914512922465,-4.435772571467747,-3.9885406526358995,-3.6472988962775146
5.4839085487077535,-4.389324466991157,-4.2056200726674415,-3.487142524165354
5.491902584493042,-4.342876362514566,-4.4226994926989835,-3.3269861520531947
5.49989662027833,-4.296428258037982,-4.639778912730502,-3.1668297799410525
5.507890656063618,-4.249980153561392,-4.856858332762044,-3.0066734078288926
5.515884691848907,-4.203532049084801,-5.073937752793585,-2.8465170357167326
5.5238787276341945,-4.036489065606386,-7.306600397613932,-2.705212723658055
5.531872763419483,-2.1090326043737564,-12.660643214397837,-0.369654012765502
5.539866799204772,-2.0818528827037754,-13.032912838756957,-0.08254190645598197
5.547860834990059,-2.0546731610337976,-13.405182463116034,0.2045701998535061
5.555854870775348,-2.0274934393638167,-13.777452087475154,0.4916823061630262
5.5638489065606365,-2.0003137176938357,-14.149721711834275,0.7787944124725463
5.571842942345924,-1.9731339960238579,-14.521991336193352,1.0659065187820345
5.579836978131213,-1.945954274353877,-14.894260960552472,1.3530186250915543
5.587831013916501,-1.918774552683896,-15.266530584911592,1.6401307314010742
5.595825049701789,-1.891594831013918,-15.638800209270672,1.9272428377105626
5.6038190854870775,-1.864415109343937,-16.01106983362979,2.2143549440200827
5.611813121272366,-1.837235387673956,-16.38333945798891,2.5014670503296026
5.619807157057654,-1.8100556660039782,-16.755609082347988,2.7885791566390905
5.627801192842942,-3.5229316103380803,-20.84421908548729,-1.388943141153291
5.635795228628231,-1.1879781312136355,-17.182675944334157,-4.177693836978955
5.643789264413519,-3.041632206759443,-17.506044596060004,-6.252356068136642
5.651783300198807,-3.017650099403577,-17.49314512922465,-6.70138469184893
5.659777335984096,-2.9936679920477114,-17.4802456623893,-7.150413315561218
5.667771371769383,-2.9696858846918484,-17.467346195553947,-7.599441939273456
5.675765407554672,-2.9457037773359827,-17.454446728718597,-8.048470562985745
5.6837594433399605,-2.9217216699801174,-17.441547261883244,-8.497499186698033
5.691753479125248,-2.8977395626242544,-17.428647795047894,-8.94652781041027
5.699747514910537,-2.8737574552683887,-17.41574832821254,-9.395556434122557
5.707741550695825,-2.849775347912523,-17.40284886137719,-9.844585057834847
5.715735586481113,-2.82579324055666,-17.38994939454184,-10.293613681547084
5.723729622266402,-2.8018111332007942,-17.377049927706487,-10.742642305259373
5.73172365805169,-1.006302186878736,-13.292711729622244,-6.718713717694026
5.739717693836978,-0.8686074462317014,-12.60497957708296,-7.46515796132297
5.747711729622266,0.03506958250496654,-11.485188866799195,-7.389475149105381
5.755705765407555,0.10077665713038732,-11.635515734859135,-7.134835862871555
5.763699801192843,0.16648373175580078,-11.785842602919057,-6.880196576637757
5.771693836978131,0.23219080638122153,-11.936169470978996,-6.625557290403931
5.77968787276342,0.29789788100664233,-12.086496339038934,-6.370918004170104
5.7876819085487075,0.3636049556320558,-12.236823207098857,-6.116278717936305
5.795675944333996,0.42931203025747655,-12.387150075158797,-5.861639431702479
5.803669980119285,0.49501910488289735,-12.537476943218735,-5.607000145468652
5.811664015904572,0.5607261795083108,-12.687803811278657,-5.352360859234855
5.819658051689861,0.6264332541337315,-12.838130679338596,-5.097721573001028
5.827652087475149,0.6921403287591523,-12.988457547398536,-4.843082286767201
5.835646123260437,-2.7321643472499364,-14.15117826375061,-4.768986746189375
5.843640159045726,-2.543850555756376,-14.43827912073016,-4.799795047894454
5.851634194831014,-2.4118581239833725,-14.599704138803542,-4.7336625700343395
5.859628230616302,-2.279865692210384,-14.761129156876908,-4.667530092174233
5.8676222664015905,-2.147873260437381,-14.922554174950292,-4.601397614314118
5.875616302186879,-2.015880828664378,-15.083979193023676,-4.5352651364540035
5.883610337972167,-1.8838883968913895,-15.245404211097041,-4.469132658593897
5.891604373757455,-1.7518959651183863,-15.406829229170425,-4.403000180733782
5.899598409542744,-1.6199035333453833,-15.568254247243809,-4.3368677028736675
5.9075924453280315,-1.487911101572395,-15.729679265317175,-4.27073522501356
5.91558648111332,-1.3559186697993917,-15.891104283390558,-4.204602747153446
5.923580516898609,-1.2239262380263887,-16.05252930146394,-4.1384702692933315
5.931574552683896,1.0506265265549544,-13.080549356919708,-4.307546983405686
5.939568588469185,1.087170690144845,-13.04645234714164,-4.356897918610784
5.9475626242544735,1.1237148537347357,-13.012355337363573,-4.406248853815882
5.955556660039761,1.1602590173246223,-12.97825832758551,-4.455599789020974
5.96355069582505,1.196803180914513,-12.94416131780744,-4.504950724226072
5.971544731610338,1.2333473445044036,-12.910064308029373,-4.55430165943117
5.979538767395626,1.26989150809429,-12.87596729825131,-4.603652594636262
5.9875328031809145,1.3064356716841807,-12.841870288473242,-4.65300352984136
5.995526838966203,1.3429798352740714,-12.807773278695175,-4.702354465046458
6.003520874751491,1.379523998863958,-12.77367626891711,-4.75170540025155
6.011514910536779,1.4160681624538487,-12.739579259139042,-4.801056335456648
6.019508946322068,1.4526123260437394,-12.705482249360974,-4.850407270661746
6.027502982107356,1.489156489633626,-12.67138523958291,-4.8997582058668385
6.035497017892644,1.9165815444412182,-10.622860008488395,-4.035201040945339
6.043491053677933,1.8937671052337652,-10.636692385015749,-4.038434583510175
6.05148508946322,1.870952666026315,-10.6505247615431,-4.0416681260750105
6.059479125248509,1.848138226818862,-10.664357138070454,-4.044901668639846
6.0674731610337975,1.8253237876114092,-10.678189514597808,-4.0481352112046824
6.075467196819085,1.8025093484039587,-10.692021891125158,-4.051368753769518
6.083461232604374,1.779694909196506,-10.705854267652512,-4.0546022963343535
6.091455268389662,1.756880469989053,-10.719686644179866,-4.057835838899189
6.09944930417495,1.7340660307816027,-10.733519020707217,-4.061069381464025
6.107443339960239,1.7112515915741497,-10.74735139723457,-4.06430292402886
6.115437375745527,1.688437152366697,-10.761183773761923,-4.067536466593697
6.123431411530815,1.6656227131592465,-10.775016150289275,-4.070770009158531
6.131425447316103,2.173199179920472,-8.418182529821076,-3.3029076789264407
6.139419483101392,2.577397614314125,-8.133894632206752,-3.356367793240558
6.14741351888668,3.020879568741401,-7.902901208135799,-3.714858311668451
6.155407554671968,2.884468522200131,-7.947585818422796,-3.7084015904572567
6.163401590457256,2.7480574756588765,-7.992270428709789,-3.701944869246063
6.1713956262425445,2.6116464291176067,-8.036955038996787,-3.695488148034868
6.179389662027833,2.4752353825763374,-8.081639649283783,-3.6890314268236737
6.187383697813121,2.3388243360350827,-8.126324259570776,-3.68257470561248
6.195377733598409,2.202413289493813,-8.171008869857774,-3.676117984401285
6.203371769383698,2.066002242952543,-8.215693480144772,-3.6696612631900902
6.2113658051689855,1.9295911964112884,-8.260378090431765,-3.6632045419788963
6.219359840954274,1.7931801498700186,-8.30506270071876,-3.656747820767702
6.227353876739563,1.414443339960221,-7.553960238568533,-3.3501689860834976
6.23534791252485,1.5562842301032467,-7.2021560315526205,-3.4755002244596986
6.243341948310139,1.641382030398254,-7.191411359798201,-3.3881675324397715
6.2513359840954275,1.7264798306932614,-7.180666688043781,-3.300834840419845
6.259330019880715,1.8115776309882594,-7.1699220162893615,-3.213502148399928
6.267324055666004,1.8966754312832668,-7.159177344534942,-3.1261694563800013
6.275318091451292,1.9817732315782741,-7.148432672780521,-3.0388367643600747
6.28331212723658,2.066871031873272,-7.137688001026103,-2.9515040723401573
6.2913061630218685,2.1519688321682793,-7.126943329271682,-2.8641713803202307
6.299300198807157,2.2370666324632866,-7.116198657517262,-2.776838688300304
6.307294234592445,2.3221644327582847,-7.105453985762843,-2.689505996280387
6.315288270377733,2.407262233053292,-7.094709314008423,-2.60217330426046
6.323282306163022,2.4923600333482994,-7.083964642254003,-2.5148406122405333
6.33127634194831,4.734283417772921,-5.73596594625794,-3.0539894824600746
6.339270377733598,4.829266316081995,-5.706052780093635,-3.08261328801385
6.347264413518887,4.924249214391068,-5.676139613929329,-3.1112370935676252
6.355258449304174,5.019232112700132,-5.646226447765026,-3.139860899121397
6.363252485089463,5.114215011009206,-5.616313281600721,-3.1684847046751723
6.3712465208747515,5.20919790931828,-5.586400115436415,-3.1971085102289476
6.379240556660039,5.304180807627343,-5.556486949272113,-3.22573231578272
6.387234592445328,5.399163705936417,-5.526573783107807,-3.2543561213364947
6.395228628230616,5.494146604245491,-5.496660616943502,-3.28297992689027
6.403222664015904,5.589129502554554,-5.4667474507791995,-3.311603732444042
6.411216699801193,5.6841124008636275,-5.436834284614894,-3.3402275379978175
6.419210735586481,5.779095299172702,-5.4069211184505885,-3.3688513435515928
6.427204771371769,5.867599403578485,-5.686153081511034,-3.5784900596420988
6.435198807157057,7.056860489238477,-4.556994986602126,-5.251218601434875
6.443192842942346,7.205097718039589,-4.576024267438845,-5.097420304261387
6.451186878727634,7.353334946840685,-4.595053548275563,-4.943622007087917
6.459180914512922,7.5015721756417975,-4.614082829112282,-4.7898237099144305
6.467174950298211,7.649809404442911,-4.633112109949002,-4.636025412740943
6.4751689860834984,7.798046633244006,-4.65214139078572,-4.482227115567473
6.483163021868787,7.946283862045119,-4.671170671622439,-4.328428818393986
6.491157057654076,8.094521090846232,-4.690199952459158,-4.174630521220498
6.499151093439363,8.242758319647328,-4.709229233295876,-4.0208322240470284
6.507145129224652,8.39099554844844,-4.7282585141325955,-3.8670339268735416
6.51513916500994,8.539232777249552,-4.747287794969315,-3.7132356297000544
6.523133200795228,8.685266401590457,-4.742956262425498,-3.568726640159031
6.531127236580517,8.144232965841333,-4.119208386047362,-3.0914959334899867
6.539121272365805,7.575872763419502,-3.6683618290258506,-2.084149105367801
6.547115308151093,6.7764691848907175,-3.4285407554672154,-1.7643876739562872
6.5551093439363814,6.608487600711523,-3.4191185518468132,-1.6838182484043127
6.56310337972167,6.519080621533953,-3.438367348540337,-1.633014047295176
6.571097415506958,6.429673642356393,-3.457616145233859,-1.5822098461860448
6.579091451292246,6.340266663178824,-3.4768649419273827,-1.531405645076908
6.587085487077535,6.250859684001253,-3.4961137386209065,-1.480601443967771
6.5950795228628225,6.161452704823693,-3.5153625353144284,-1.42979724285864
6.603073558648111,6.072045725646124,-3.534611332007952,-1.378993041749503
6.6110675944334,5.982638746468553,-3.553860128701476,-1.3281888406403664
6.619061630218687,5.8932317672909935,-3.573108925394998,-1.2773846395312352
6.627055666003976,6.1024314115308265,-3.7175009940357926,-0.5585407554672235
6.6350497017892645,4.869313208981405,-2.5457592094491877,1.1289922816044913
6.643043737574552,4.929150918021279,-2.535413986668227,1.0993673254590133
6.651037773359841,4.98898862706116,-2.525068763887265,1.069742369313532
6.659031809145129,5.04882633610104,-2.5147235411063034,1.0401174131680506
6.667025844930417,5.108664045140915,-2.504378318325343,1.0104924570225726
6.6750198807157055,5.168501754180796,-2.4940330955443812,0.9808675008770913
6.683013916500994,5.228339463220677,-2.4836878727634195,0.95124254473161
6.691007952286282,5.288177172260551,-2.4733426499824587,0.921617588586132
6.69900198807157,5.350011928429325,-2.4629025844930466,0.8913658051690171
6.706996023856859,6.760274022531489,-2.5242939032471936,2.2602740225314886
6.714990059642147,6.928085451890428,-2.6917906718978157,2.4413333978430294
6.722984095427435,6.923416369042383,-2.7106792343285417,2.457887418849733
6.730978131212724,6.918747286194338,-2.7295677967592678,2.4744414398564367
6.738972166998011,6.914078203346294,-2.7484563591899915,2.4909954608631386
6.7469662027833,6.90940912049825,-2.7673449216207175,2.5075494818698423
6.7549602385685885,6.904740037650205,-2.7862334840514436,2.524103502876546
6.762954274353876,6.900070954802161,-2.8051220464821673,2.540657523883248
6.770948310139165,6.895401871954117,-2.8240106089128933,2.5572115448899515
6.778942345924453,6.890732789106072,-2.8428991713436194,2.573765565896655
6.786936381709741,6.886063706258028,-2.861787733774343,2.590319586903357
6.79493041749503,6.881394623409983,-2.880676296205069,2.6068736079100607
6.802924453280318,6.876725540561939,-2.899564858635795,2.6234276289167644
6.810918489065606,6.872056457713894,-2.9184534210665194,2.6399816499234663
6.818912524850894,6.867387374865849,-2.9373419834972454,2.65653567093017
6.826906560636183,7.036107355864799,-2.9180914512922485,2.6798449304174943
6.834900596421471,9.447343145428501,-3.6787836208555125,1.8006217105966393
6.842894632206759,9.492384809423031,-3.6754312832681335,1.7168992282861977
6.850888667992048,9.53742647341756,-3.672078945680754,1.6331767459757562
6.858882703777335,9.582468137412084,-3.6687266080933756,1.549454263665324
6.866876739562624,9.627509801406614,-3.6653742705059966,1.4657317813548822
6.874870775347913,9.672551465401142,-3.662021932918617,1.3820092990444408
6.8828648111332,9.717593129395667,-3.6586695953312387,1.2982868167340085
6.890858846918489,9.762634793390196,-3.6553172577438597,1.2145643344235668
6.898852882703777,9.807676457384725,-3.6519649201564803,1.1308418521131252
6.906846918489065,9.85271812137925,-3.648612582569102,1.047119369802693
6.914840954274354,9.897759785373779,-3.6452602449817224,0.9633968874922515
6.922834990059642,9.942801449368307,-3.6419079073943434,0.87967440518181
6.93082902584493,9.506147659497564,-3.379291523585759,1.5349347551057253
6.9388230616302184,9.252870775347937,-3.3191928429423543,1.6668389662027912
6.946817097415507,9.205958250497018,-3.2984512922465212,1.6158807157057653
6.954811133200795,9.649871658935277,-3.1809419041307723,1.3527300640600879
6.962805168986083,9.669412635299315,-3.155183344378176,1.286557212281866
6.970799204771372,9.688953611663354,-3.1294247846255794,1.220384360503644
6.9787932405566595,9.70849458802739,-3.103666224872986,1.1542115087254294
6.986787276341948,9.72803556439143,-3.0779076651203896,1.0880386569472076
6.994781312127237,9.747576540755468,-3.052149105367793,1.0218658051689855
7.002775347912524,9.767117517119505,-3.0263905456151994,0.955692953390771
7.010769383697813,9.786658493483543,-3.000631985862603,0.889520101612549
7.0187634194831015,9.806199469847583,-2.9748734261100065,0.823347249834327
7.026757455268389,13.287260437374975,-3.8914433399599995,-0.875807157057416
7.034751491053678,10.709468389662032,-3.384093439363817,0.21375546719681773
7.042745526838966,10.182572608791677,-3.438275237464106,0.46645582063177343
7.050739562624254,9.655676827921381,-3.492457035564389,0.719156174066701
7.0587335984095425,9.128781047051028,-3.5466388336646784,0.9718565275016566
7.066727634194831,8.601885266180673,-3.600820631764968,1.2245568809366123
7.074721669980119,8.074989485310379,-3.655002429865251,1.47725723437154
7.082715705765407,7.548093704440024,-3.7091842279655403,1.7299575878064957
7.090709741550696,7.0211979235696695,-3.7633660260658295,1.9826579412414513
7.098703777335984,6.494302142699374,-3.817547824166113,2.235358294676379
7.106697813121272,5.9674063618290205,-3.871729622266402,2.4880586481113345
7.114691848906561,5.440510580958667,-3.9259114203666914,2.7407590015462904
7.122685884691848,4.9136148000883715,-3.9800932184669744,2.993459354981218
7.130679920477137,1.350457637155791,-4.674428492872551,11.144620405228208
7.1386739562624255,1.2029931897973833,-4.761767585973522,10.975555052662745
7.146667992047713,1.0555287424389919,-4.849106679074484,10.806489700097298
7.154662027833002,0.9080642950805841,-4.936445772175455,10.637424347531836
7.16265606361829,0.7605998477221763,-5.023784865276427,10.468358994966371
7.170650099403578,0.6131354003637849,-5.111123958377389,10.299293642400926
7.178644135188867,0.4656709530053772,-5.1984630514783605,10.130228289835461
7.186638170974155,0.3182065056469694,-5.285802144579332,9.961162937269997
7.194632206759443,0.1707420582885779,-5.3731412376802945,9.792097584704551
7.202626242544731,0.023277610930170223,-5.460480330781266,9.623032232139089
7.21062027833002,-0.12418683642823747,-5.547819423882237,9.453966879573624
7.218614314115308,-0.27165128378662895,-5.635158516983199,9.284901527008179
7.226608349900596,-0.31660934393625423,-4.416682902584606,8.894939363817052
7.234602385685885,-0.6196676908247475,-2.564711970600644,10.787125569813442
7.242596421471172,-0.6434075546719656,-2.432204771371784,10.754341948310142
7.250590457256461,-0.6671474185191864,-2.2996975721429087,10.721558326806838
7.25858449304175,-0.6908872823664072,-2.1671903729140336,10.688774705303533
7.266578528827037,-0.7146271462136252,-2.034683173685173,10.655991083800231
7.274572564612326,-0.738367010060846,-1.902175974456298,10.623207462296927
7.282566600397614,-0.7621068739080668,-1.7696687752274232,10.590423840793623
7.290560636182902,-0.7858467377552849,-1.6371615759985627,10.55764021929032
7.298554671968191,-0.8095866016025057,-1.5046543767696878,10.524856597787016
7.306548707753479,-0.8333264654497264,-1.3721471775408127,10.492072976283712
7.314542743538767,-0.8570663292969445,-1.2396399783119523,10.45928935478041
7.3225367793240554,-0.8808061931441653,-1.1071327790830774,10.426505733277105
7.330530815109344,-0.6203777335984001,0.5061630218687998,9.746918489065601
7.338524850894632,-0.39473902851547504,0.828209875077873,10.161384469303586
7.34651888667992,-0.38280763182101457,1.1189780125218758,10.073808017566247
7.354512922465209,-0.37087623512655404,1.4097461499658785,9.986231565828906
7.3625069582504965,-0.35894483843209485,1.7005142874098491,9.898655114091575
7.370500994035785,-0.3470134417376343,1.991282424853852,9.811078662354236
7.378495029821074,-0.3350820450431738,2.282050562297855,9.723502210616894
7.386489065606361,-0.3231506483487146,2.572818699741825,9.635925758879564
7.39448310139165,-0.31121925165425407,2.863586837185828,9.548349307142225
7.4024771371769384,-0.3,3.1508369781312124,9.414469184890656
7.410471172962226,-0.33806572330721324,3.2658022453514164,9.216311834873116
7.418465208747515,-0.3850894632206756,3.3532664015904565,9.174695825049703
7.426459244532803,-0.43211320313413804,3.4407305578294967,9.133079815226289
7.434453280318091,-0.47913694304759524,3.5281947140685275,9.091463805402878
7.4424473161033795,0.1695884200967038,3.30807269960484,9.228624769899122
7.450441351888668,0.16179176791105201,3.3195209483837718,9.226552242102937
7.458435387673956,0.15399511572540112,3.3309691971627022,9.224479714306751
7.466429423459244,0.14619846353974933,3.342417445941634,9.222407186510566
7.474423459244533,0.13840181135409757,3.353865694720566,9.22033465871438
7.482417495029821,0.13060515916844667,3.3653139434994963,9.218262130918195
7.490411530815109,0.12280850698279488,3.376762192278428,9.21618960312201
7.498405566600398,0.1150118547971431,3.3882104410573595,9.214117075325822
7.506399602385685,0.1072152026114922,3.39965868983629,9.212044547529636
7.514393638170974,0.09941855042584043,3.4111069386152217,9.209972019733451
7.5223876739562625,0.14142842942344472,3.470265407554658,9.197338966202787
7.53038170974155,-1.0205009940357987,3.951291394490207,7.720571996591872
7.538375745526839,-0.8514842374325546,3.888154826145173,7.788113441798187
7.546369781312127,-0.6824674808293103,3.825018257800138,7.855654887004503
7.554363817097415,-0.513450724226085,3.761881689455111,7.923196332210812
7.562357852882704,-0.3444339676228406,3.698745121110077,7.990737777417127
7.570351888667992,-0.1754172110195964,3.6356085527650426,8.058279222623444
7.57834592445328,-0.006400454416370938,3.572471984420015,8.125820667829752
7.586339960238568,0.16261630218687317,3.509335416074981,8.193362113036066
7.594333996023857,0.3316330587901175,3.4461988477299466,8.260903558242383
7.602328031809145,0.500649815393343,3.3830622793849194,8.32844500344869
7.610322067594433,0.6696665719965873,3.319925711039885,8.395986448655007
7.618316103379722,0.8386833285998314,3.256789142694851,8.463527893861322
7.626310139165009,0.8797743538767668,3.3815238568587986,8.620225646123233
7.634304174950298,1.096777669980122,3.8367070854870744,8.076471093439364
7.642298210735587,1.0034712842942337,3.9513735347912537,8.005803817097414
7.650292246520874,0.9101648986083559,4.06603998409542,7.935136540755471
7.658286282306163,0.8168585129224677,4.1807064333996,7.86446926441352
7.666280318091451,0.7235521272365796,4.295372882703779,7.793801988071569
7.674274353876739,0.6302457415507018,4.410039332007945,7.723134711729626
7.682268389662028,0.5369393558648137,4.524705781312124,7.652467435387675
7.690262425447316,0.44363297017892545,4.639372230616304,7.5818001590457245
7.698256461232604,0.35032658449304765,4.75403867992047,7.511132882703781
7.706250497017892,0.25702019880715954,4.868705129224649,7.440465606361831
7.714244532803181,0.16371381312127142,4.983371578528828,7.369798330019879
7.722238568588469,0.07040742743539363,5.098038027832994,7.299131053677936
7.730232604373757,-0.022898958250494594,5.212704477137174,7.228463777335985
7.738226640159046,-0.1162053439363826,5.327370926441353,7.157796500994035
7.7462206759443335,-0.2095117296222604,5.442037375745519,7.087129224652092
7.754214711729622,-0.3028181153081486,5.5567038250496985,7.016461948310141
7.762208747514911,-0.11592842942344586,5.831819085487076,6.6813499005964125
7.770202783300198,0.14925894632207026,5.951677932405562,6.580524105367789
7.778196819085487,0.23404833742642422,6.027146844423655,6.675277784274744
7.7861908548707754,0.42794289166959926,6.022757962031731,6.706470198417341
7.794184890656063,0.6218374459127527,6.018369079639808,6.737662612559934
7.802178926441352,0.8157320001559277,6.013980197247885,6.76885502670253
7.81017296222664,1.0096265543991028,6.009591314855962,6.800047440845127
7.818166998011928,1.2035211086422564,6.005202432464039,6.83123985498772
7.8261610337972165,1.4049686878727623,6.00713245526839,6.858862326043737
7.834155069582505,0.8989920477138202,5.8909483101392,6.883029821073648
7.842149105367793,1.6811483969744763,6.129428875025707,7.272085349969151
7.850143141153081,1.6441185530495193,6.148724823472955,7.2489302118324535
7.85813717693837,1.607088709124562,6.168020771920204,7.225775073695756
7.866131212723658,1.570058865199609,6.187316720367449,7.202619935559061
7.874125248508946,1.533029021274652,6.206612668814698,7.179464797422363
7.882119284294235,1.4959991773496948,6.225908617261946,7.156309659285665
7.890113320079522,1.4589693334247418,6.245204565709192,7.13315452114897
7.898107355864811,1.4219394894997848,6.26450051415644,7.109999383012273
7.9061013916500995,1.3849096455748275,6.2837964626036875,7.086844244875575
7.914095427435387,1.3478798016498745,6.303092411050934,7.063689106738879
7.922089463220676,1.3108499577249175,6.322388359498182,7.0405339686021815
7.930083499005964,1.108197103095711,6.167959954558364,7.177527690996876
7.938077534791252,1.2757404462116178,6.453309255577644,7.307992599955821
7.946071570576541,1.3016766512038873,6.473738458140049,7.311811972608792
7.954065606361829,1.3276128561961569,6.494167660702453,7.315631345261763
7.962059642147117,1.3535490611884238,6.514596863264854,7.319450717914734
7.970053677932405,1.3794852661806933,6.5350260658272585,7.323270090567705
7.978047713717694,1.405421471172963,6.555455268389663,7.327089463220676
7.986041749502982,1.4313576761652296,6.575884470952064,7.330908835873647
7.99403578528827,1.4572938811574994,6.5963136735144685,7.334728208526618
8.002029821073558,1.483230086149766,6.616742876076871,7.338547581179589
8.010023856858847,1.5091662911420385,6.637172078639277,7.342366953832561
8.018017892644135,1.5351024961343052,6.6576012812016785,7.346186326485531
8.026011928429423,1.5543916500997206,6.675948310139264,7.34748310139177
8.034005964214712,1.4075501536237118,6.540900957889029,7.1123282125429235
8.042,1.292,6.53,6.943
