accel_time_list,accel_x_list,accel_y_list,accel_z_list
0.0,-0.5,0.8,9.6
0.007998805256869773,-0.6850035842293907,0.37500597371565114,10.30499880525687
0.015997610513739546,-0.6610071684587813,0.3350119474313023,10.31299761051374
0.02399641577060932,-0.637010752688172,0.2950179211469534,10.32099641577061
0.03199522102747909,-0.6130143369175627,0.25502389486260457,10.32899522102748
0.039994026284348866,-0.5890179211469534,0.2150298685782557,10.33699402628435
0.04799283154121864,-0.5650215053763441,0.17503584229390684,10.34499283154122
0.05599163679808841,-0.5410250896057347,0.135041816009558,10.35299163679809
0.06399044205495819,-0.5170286738351254,0.09504778972520911,10.360990442054959
0.07198924731182796,-0.4930322580645161,0.055053763440860215,10.368989247311829
0.07998805256869773,-0.4690358422939068,0.015059737156511377,10.376988052568699
0.0879868578255675,-0.4450394265232975,-0.02493428912783746,10.384986857825568
0.09598566308243728,-0.4210430107526882,-0.06492831541218635,10.392985663082438
0.10398446833930705,-0.25232974910394157,-0.24767025089605843,10.301553166069294
0.11198327359617682,-1.050836320191159,1.0525089605734768,9.54916367980884
0.1199820788530466,-0.9920658194851744,0.8682632779406974,9.592065819485175
0.12798088410991637,-0.9829762680569132,0.8319050722276529,9.582976268056912
0.13597968936678614,-0.9738867166286521,0.7955468665146085,9.573886716628651
0.14397849462365592,-0.964797165200391,0.7591886608015641,9.56479716520039
0.1519772998805257,-0.9557076137721299,0.7228304550885196,9.55570761377213
0.15997610513739546,-0.9466180623438688,0.6864722493754752,9.54661806234387
0.16797491039426524,-0.9375285109156077,0.6501140436624309,9.537528510915607
0.175973715651135,-0.9284389594873466,0.6137558379493864,9.528438959487346
0.18397252090800478,-0.9193494080590855,0.5773976322363419,9.519349408059085
0.19197132616487456,-0.9102598566308244,0.5410394265232976,9.510259856630825
0.19997013142174433,-0.9011703052025632,0.5046812208102531,9.501170305202564
0.2079689366786141,-0.3062126642771776,0.3015531660692944,9.5
0.21596774193548388,-0.3173211781206171,0.3086605890603086,9.491339410939691
0.22396654719235365,-0.33470988520076883,0.3173549426003844,9.482645057399615
0.23196535244922342,-0.3520985922809205,0.32604929614046024,9.47395070385954
0.2399641577060932,-0.36948729936107216,0.3347436496805361,9.465256350319464
0.24796296296296297,-0.3868760064412239,0.3434380032206119,9.456561996779389
0.25596176821983274,-0.40426471352137555,0.35213235676068777,9.447867643239313
0.26396057347670254,-0.4216534206015273,0.36082671030076363,9.439173289699237
0.2719593787335723,-0.43904212768167894,0.3695210638408395,9.430478936159162
0.27995818399044203,-0.45643083476183055,0.3782154173809153,9.421784582619084
0.28795698924731183,-0.4738195418419823,0.38690977092099116,9.413090229079009
0.29595579450418164,-0.491208248922134,0.395604124461067,9.404395875538933
0.3039545997610514,-0.5,0.5318199920350463,9.334090003982478
0.3119534050179211,-0.5032102228455665,0.4871591086177342,9.203210222845566
0.3199522102747909,-0.5119045763856424,0.45238169445743076,9.211904576385642
0.32795101553166073,-0.5205989299257182,0.41760428029712726,9.220598929925718
0.3359498207885305,-0.529293283465794,0.38282686613682404,9.229293283465793
0.3439486260454002,-0.5379876370058698,0.3480494519765208,9.237987637005869
0.35194743130227,-0.5466819905459457,0.3132720378162174,9.246681990545946
0.3599462365591398,-0.5553763440860215,0.2784946236559139,9.255376344086022
0.36794504181600957,-0.5640706976260973,0.24371720949561065,9.264070697626098
0.3759438470728793,-0.5727650511661732,0.20893979533530738,9.272765051166173
0.3839426523297491,-0.581459404706249,0.17416238117500393,9.281459404706249
0.3919414575866189,-0.5901537582463249,0.13938496701470043,9.290153758246326
0.39994026284348866,-0.5988481117864006,0.10460755285439721,9.298848111786402
0.4079390681003584,-0.009139784946235685,-0.3,10.296953405017922
0.4159378733572282,-0.008535347695944332,-0.31707069539188865,10.308535347695946
0.423936678614098,-0.017136213563546266,-0.33427242712709254,10.317136213563547
0.43193548387096775,-0.02573707943114814,-0.35147415886229627,10.325737079431148
0.4399342891278375,-0.03433794529875001,-0.3686758905975,10.334337945298751
0.4479330943847073,-0.042938811166351946,-0.3858776223327039,10.342938811166352
0.4559318996415771,-0.05153967703395388,-0.40307935406790774,10.351539677033955
0.46393070489844684,-0.06014054290155576,-0.4202810858031115,10.360140542901556
0.4719295101553166,-0.06874140876915763,-0.43748281753831525,10.368741408769159
0.4799283154121864,-0.07734227463675956,-0.4546845492735191,10.37734227463676
0.4879271206690562,-0.0859431405043615,-0.471886281008723,10.385943140504361
0.49592592592592594,-0.09454400637196338,-0.48908801274392677,10.394544006371964
0.5039247311827957,-0.21698924731182717,-0.44150537634408643,10.341505376344086
0.5119235364396655,-0.40102615159962834,-0.2,9.7
0.5199223416965353,-0.4099137129961503,-0.2,9.7
0.5279211469534051,-0.41880127439267234,-0.2,9.7
0.5359199522102748,-0.4276888357891942,-0.2,9.7
0.5439187574671446,-0.4365763971857162,-0.2,9.7
0.5519175627240144,-0.4454639585822382,-0.2,9.7
0.5599163679808841,-0.4543515199787601,-0.2,9.7
0.5679151732377539,-0.4632390813752821,-0.2,9.7
0.5759139784946237,-0.4721266427718041,-0.2,9.7
0.5839127837514935,-0.4810142041683261,-0.2,9.7
0.5919115890083633,-0.4899017655648481,-0.2,9.7
0.599910394265233,-0.49878932696136996,-0.2,9.7
0.6079091995221028,-0.3,-0.19545997610513882,9.5
0.6159080047789726,-0.2914967690548682,-0.20850323094513182,9.508503230945133
0.6239068100358423,-0.2828959031872664,-0.21710409681273363,9.517104096812734
0.631905615292712,-0.2742950373196644,-0.22570496268033557,9.525704962680335
0.6399044205495819,-0.2656941714520625,-0.23430582854793752,9.534305828547938
0.6479032258064517,-0.25709330558446053,-0.24290669441553944,9.542906694415539
0.6559020310633215,-0.2484924397168586,-0.25150756028314136,9.551507560283142
0.6639008363201911,-0.2398915738492568,-0.2601084261507432,9.560108426150743
0.671899641577061,-0.23129070798165485,-0.26870929201834515,9.568709292018346
0.6798984468339307,-0.2226898421140529,-0.2773101578859471,9.577310157885947
0.6878972520908004,-0.21408897624645112,-0.2859110237535489,9.585911023753548
0.6958960573476702,-0.20548811037884918,-0.2945118896211508,9.59451188962115
0.70389486260454,-0.27897252090801605,-0.310513739545992,9.5
0.7118936678614098,-0.2607088809239342,-0.33929111907606585,9.778582238152131
0.7198924731182796,-0.20738351254480222,-0.39261648745519784,9.885232974910396
0.7278912783751493,-0.19296808329066392,-0.4070319167093361,9.93515958354668
0.7358900836320191,-0.18480603711018453,-0.41519396288981547,9.975969814449078
0.7438888888888889,-0.17664399092970515,-0.42335600907029486,10.016780045351474
0.7518876941457586,-0.16848194474922587,-0.43151805525077414,10.05759027625387
0.7598864994026284,-0.16031989856874648,-0.4396801014312535,10.098400507156269
0.7678853046594982,-0.1521578523882671,-0.4478421476117329,10.139210738058665
0.775884109916368,-0.1439958062077877,-0.4560041937922123,10.180020968961061
0.7838829151732378,-0.1358337600273083,-0.4641662399726917,10.22083119986346
0.7918817204301075,-0.12767171384682902,-0.472328286153171,10.261641430765856
0.7998805256869773,-0.11950966766634964,-0.48049033233365035,10.302451661668252
0.8078793309438471,-0.11134762148587025,-0.4886523785141298,10.343261892570649
0.8158781362007168,-0.10318557530539098,-0.496814424694609,10.384072123473045
0.8238769414575866,-0.1,-0.5,10.312305854241336
0.8318757467144564,-0.11403213615195194,-0.5719357276960961,10.085967863848047
0.8398745519713262,-0.1303562285129107,-0.5392875429741786,10.069643771487089
0.847873357228196,-0.14668032087386945,-0.506639358252261,10.05331967912613
0.8558721624850657,-0.163004413234828,-0.47399117353034403,10.036995586765173
0.8638709677419355,-0.17932850559578678,-0.4413429888084265,10.020671494404214
0.8718697729988053,-0.19565259795674553,-0.40869480408650893,10.004347402043255
0.879868578255675,-0.36955111793821416,-0.33044888206178585,9.830448882061786
0.8878673835125448,-0.4,-0.4,9.804124901281819
0.8958661887694146,-0.4,-0.4,9.81090354980459
0.9038649940262844,-0.4,-0.4,9.81768219832736
0.9118637992831542,-0.4,-0.4,9.824460846850132
0.9198626045400239,-0.4,-0.4,9.831239495372902
0.9278614097968937,-0.4,-0.4,9.838018143895674
0.9358602150537635,-0.4,-0.4,9.844796792418444
0.9438590203106332,-0.4,-0.4,9.851575440941215
0.951857825567503,-0.4,-0.4,9.858354089463987
0.9598566308243728,-0.4,-0.4,9.865132737986757
0.9678554360812426,-0.4,-0.4,9.871911386509527
0.9758542413381124,-0.4,-0.4,9.8786900350323
0.9838530465949821,-0.4,-0.4,9.88546868355507
0.9918518518518519,-0.4,-0.4,9.892247332077842
0.9998506571087217,-0.4,-0.4,9.899025980600612
1.0078494623655914,-0.19247311827956787,-0.3,9.507526881720432
1.0158482676224612,-0.2165226686788656,-0.29173866566056716,9.508261334339434
1.023847072879331,-0.23336225869332836,-0.28331887065333583,9.516681129346663
1.0318458781362008,-0.2502018487077911,-0.27489907564610444,9.525100924353895
1.0398446833930706,-0.26704143872225383,-0.26647928063887305,9.533520719361126
1.0478434886499404,-0.2838810287367166,-0.2580594856316417,9.541940514368358
1.0558422939068102,-0.30072061875117934,-0.24963969062441033,9.55036030937559
1.0638410991636797,-0.3175602087656416,-0.24121989561717921,9.558780104382821
1.0718399044205495,-0.3343997987801044,-0.23280010060994782,9.567199899390053
1.0798387096774194,-0.35123938879456706,-0.22438030560271646,9.575619694397282
1.0878375149342892,-0.36807897880902984,-0.2159605105954851,9.584039489404514
1.095836320191159,-0.3849185688234926,-0.2075407155882537,9.592459284411746
1.1038351254480288,-0.31648745519713206,-0.03297491039426412,9.6
1.1118339307048986,-0.2,0.33194942254082044,9.568050577459179
1.1198327359617681,-0.2,0.3986061330147336,9.501393866985266
1.127831541218638,-0.09261830225488883,0.41476339549022234,9.385236604509778
1.1358303464755077,-0.08249323230948401,0.435013535381032,9.364986464618967
1.1438291517323775,-0.0723681623640792,0.45526367527184164,9.344736324728158
1.1518279569892473,-0.06224309241867438,0.47551381516265123,9.32448618483735
1.1598267622461171,-0.05211802247326956,0.4957639550534609,9.304236044946538
1.167825567502987,-0.041992952527864745,0.5160140949442705,9.28398590505573
1.1758243727598567,-0.03186788258245993,0.5362642348350801,9.26373576516492
1.1838231780167265,-0.021742812637055103,0.5565143747258898,9.24348562527411
1.1918219832735961,-0.01161774269165057,0.5767645146166989,9.2232354853833
1.199820788530466,-0.00149267274624576,0.5970146545075085,9.202985345492491
1.2078195937873357,0.02706093189963621,0.790979689366788,8.536081242532848
1.2158183990442055,1.7267688835789192,1.4053537767157838,8.160801805389621
1.2238172043010753,1.7712066905615294,1.4142413381123058,7.929725209080049
1.2318160095579451,1.8156444975441393,1.4231288995088278,7.6986486127704765
1.239814814814815,1.8600823045267494,1.4320164609053498,7.467572016460903
1.2478136200716845,1.9045201115093584,1.4409040223018716,7.236495420151337
1.2558124253285543,1.9489579184919683,1.4497915836983937,7.005418823841765
1.263811230585424,1.9933957254745784,1.4586791450949157,6.774342227532193
1.271810035842294,2.0378335324571886,1.4675667064914377,6.543265631222621
1.2798088410991637,2.0822713394397985,1.4764542678879597,6.312189034913048
1.2878076463560335,2.126709146422409,1.4853418292844818,6.081112438603475
1.2958064516129033,2.1711469534050187,1.4942293906810038,5.850035842293903
1.303805256869773,2.649462365591513,-0.3734169653524906,4.909737156511347
1.311804062126643,3.120442817560183,-0.4459963395104114,6.684667886829863
1.3198028673835125,3.1544802867383512,-0.5225806451612903,6.659139784946237
1.3278016726403823,3.1885177559165205,-0.5991649508121712,6.63361168306261
1.335800477897252,3.22255522509469,-0.6757492564630523,6.608083581178983
1.343799283154122,3.256592694272859,-0.7523335621139333,6.582555479295356
1.3517980884109917,3.2906301634510284,-0.8289178677648144,6.557027377411729
1.3597968936678615,3.3246676326291977,-0.9055021734156954,6.531499275528102
1.3677956989247313,3.3587051018073675,-0.9820864790665763,6.5059711736444745
1.3757945041816009,3.3927425709855354,-1.0586707847174552,6.480443071760849
1.3837933094384707,3.426780040163705,-1.1352550903683363,6.454914969877222
1.3917921146953405,3.4608175093418745,-1.2118393960192173,6.429386867993594
1.3997909199522103,3.494854978520044,-1.2884237016700983,6.403858766109968
1.40778972520908,3.790988223246292,-2.269960744154308,6.4
1.4157885304659499,3.509506353861193,-1.9095063538611925,6.087324861518409
1.4237873357228197,3.536775008145976,-1.936775008145976,6.0509666558053645
1.4317861409796895,3.5640436624307594,-1.9640436624307596,6.014608450092321
1.4397849462365593,3.591312316715543,-1.991312316715543,5.978250244379276
1.4477837514934289,3.6185809710003256,-2.018580971000326,5.941892038666232
1.4557825567502987,3.645849625285109,-2.045849625285109,5.9055338329531875
1.4637813620071685,3.6731182795698927,-2.0731182795698926,5.869175627240143
1.4717801672640383,3.700386933854676,-2.100386933854676,5.832817421527099
1.479778972520908,3.7276555881394593,-2.1276555881394597,5.796459215814054
1.4877777777777779,3.754924242424243,-2.154924242424243,5.7601010101010095
1.4957765830346477,3.7821928967090264,-2.1821928967090267,5.723742804387965
1.5037753882915172,3.9281959378733577,-2.6634408602150557,5.9
1.511774193548387,4.219061583577711,-3.3178885630498502,5.9
1.5197729988052568,4.725766626841896,-4.996521969998674,5.616155582105403
1.5277718040621266,4.929176884864492,-6.187530654593475,5.492705778783877
1.5357706093189964,5.013374834936806,-6.4401245048104165,5.4716562912657984
1.5437694145758663,5.0975727850091195,-6.692718355027357,5.45060680374772
1.551768219832736,5.181770735081433,-6.945312205244298,5.4295573162296416
1.5597670250896059,5.265968685153747,-7.197906055461239,5.4085078287115635
1.5677658303464757,5.35016663522606,-7.45049990567818,5.387458341193485
1.5757646356033452,5.434364585298372,-7.703093755895114,5.366408853675407
1.583763440860215,5.518562535370685,-7.955687606112055,5.345359366157329
1.5917622461170848,5.602760485442999,-8.208281456328995,5.32430987863925
1.5997610513739546,5.686958435515312,-8.460875306545937,5.303260391121172
1.6077598566308244,7.2,-12.515949820788519,1.7320788530466134
1.6157586618876942,7.241713235955345,-12.583314705617862,1.583314705617862
1.623757467144564,7.284717565293355,-12.566112973882658,1.5661129738826582
1.6317562724014336,7.327721894631363,-12.548911242147454,1.548911242147455
1.6397550776583034,7.370726223969373,-12.53170951041225,1.531709510412251
1.6477538829151732,7.413730553307382,-12.514507778677046,1.5145077786770471
1.655752688172043,7.456734882645392,-12.497306046941842,1.497306046941843
1.6637514934289128,7.499739211983402,-12.480104315206638,1.4801043152066393
1.6717502986857826,7.5427435413214114,-12.462902583471436,1.4629025834714353
1.6797491039426524,7.5857478706594215,-12.445700851736232,1.4457008517362315
1.6877479091995222,7.6287521999974315,-12.428499120001028,1.4284991200010275
1.695746714456392,7.671756529335441,-12.411297388265824,1.4112973882658237
1.7037455197132616,9.221863799283131,-12.274551971326161,0.5017921146953539
1.7117443249701314,8.395260348139075,-9.938384525807963,1.1284379111655554
1.7197431302270012,8.385135278193669,-9.806758616517701,1.1891883308379843
1.727741935483871,8.375010208248264,-9.675132707227439,1.2499387505104131
1.7357407407407408,8.36488513830286,-9.543506797937175,1.310689170182842
1.7437395459976106,8.354760068357455,-9.411880888646913,1.371439589855271
1.7517383512544804,8.344634998412051,-9.28025497935665,1.4321900095276998
1.75973715651135,8.334509928466646,-9.148629070066391,1.492940429200127
1.7677359617682198,8.324384858521242,-9.01700316077613,1.5536908488725558
1.7757347670250896,8.314259788575837,-8.885377251485865,1.6144412685449847
1.7837335722819594,8.304134718630431,-8.753751342195603,1.6751916882174136
1.7917323775388292,8.873237753882915,-5.747192353643966,3.6330943847072885
1.799731182795699,9.205458269329236,-4.772708653353814,4.116374807987711
1.8077299880525688,9.213076179097683,-4.7346191045115775,4.139228537293054
1.8157287933094386,9.220694088866132,-4.69652955566934,4.162082266598396
1.8237275985663084,9.22831199863458,-4.658440006827103,4.184935995903738
1.831726403823178,9.235929908403026,-4.620350457984867,4.2077897252090795
1.8397252090800478,9.243547818171473,-4.582260909142629,4.230643454514422
1.8477240143369176,9.251165727939922,-4.544171360300393,4.253497183819764
1.8557228195937874,9.258783637708369,-4.506081811458155,4.276350913125107
1.8637216248506572,9.266401547476816,-4.467992262615918,4.299204642430449
1.871720430107527,9.274019457245265,-4.429902713773681,4.322058371735792
1.8797192353643968,9.281637367013712,-4.391813164931444,4.344912101041134
1.8877180406212664,9.289255276782159,-4.353723616089208,4.3677658303464755
1.8957168458781362,9.296873186550606,-4.315634067246971,4.390619559651818
1.903715651135006,9.342869555772783,-4.085652221136091,4.357130444227218
1.9117144563918758,9.413188126091352,-3.7208712434518847,4.24724749563459
1.9197132616487456,9.474717397298043,-3.351695616211744,4.001130410807829
1.9277120669056154,9.523858566610711,-3.1940353583473224,3.9
1.9357108721624852,9.56435884639233,-3.1839102884019175,3.9
1.943709677419355,9.604859126173949,-3.173785218456513,3.9
1.9517084826762248,9.645359405955569,-3.163660148511108,3.9
1.9597072879330943,9.685859685737187,-3.1535350785657035,3.9
1.9677060931899641,9.726359965518807,-3.1434100086202985,3.9
1.975704898446834,9.766860245300427,-3.1332849386748935,3.9
1.9837037037037037,9.807360525082045,-3.123159868729489,3.9
1.9917025089605735,9.847860804863664,-3.113034798784084,3.9
1.9997013142174433,9.888361084645284,-3.102909728838679,3.9
2.007700119474313,9.885005973715648,-3.1149940262843523,3.2599761051374094
2.0156989247311827,11.22453567937439,-3.290799120234604,2.5938660801564026
2.0236977299880525,11.297252090800479,-3.2635304659498203,2.5756869772998803
2.0316965352449223,11.369968502226566,-3.2362618116650372,2.5575078744433584
2.039695340501792,11.442684913652656,-3.2089931573802537,2.539328771586836
2.047694145758662,11.515401325078745,-3.18172450309547,2.5211496687303137
2.0556929510155317,11.588117736504834,-3.154455848810687,2.5029705658737913
2.0636917562724015,11.660834147930924,-3.1271871945259035,2.484791463017269
2.0716905615292713,11.733550559357013,-3.09991854024112,2.466612360160747
2.079689366786141,11.806266970783101,-3.072649885956337,2.4484332573042247
2.087688172043011,11.87898338220919,-3.0453812316715534,2.4302541544477023
2.0956869772998807,11.95169979363528,-3.0181125773867703,2.41207505159118
2.1036857825567505,12.284289127837525,-2.8,1.7314217443249518
2.1116845878136203,10.555147563486615,-2.795016395942957,2.3149508121711277
2.1196833930704897,10.478563257835738,-2.7865070286484155,2.3404789140547537
2.1276821983273595,10.401978952184857,-2.777997661353873,2.3660070159383806
2.1356810035842293,10.325394646533976,-2.7694882940593306,2.391535117822008
2.143679808841099,10.248810340883095,-2.760978926764788,2.4170632197056348
2.151678614097969,10.172226035232214,-2.752469559470246,2.442591321589262
2.1596774193548387,10.095641729581333,-2.7439601921757037,2.468119423472889
2.1676762246117085,10.019057423930452,-2.7354508248811613,2.4936475253565162
2.1756750298685783,9.942473118279569,-2.726941457586619,2.519175627240143
2.183673835125448,9.865888812628688,-2.718432090292077,2.5447037291237704
2.191672640382318,9.789304506977807,-2.7099227229975344,2.5702318310073973
2.1996714456391877,9.712720201326926,-2.701413355702992,2.5957599328910246
2.2076702508960575,7.594145758661879,-1.5388291517323758,1.8553166069295028
2.2156690561529273,7.816490140013156,-1.4876323949901333,1.6
2.223667861409797,7.852439826560885,-1.460670130079336,1.6
2.231666666666667,7.888389513108614,-1.433707865168539,1.6
2.2396654719235363,7.924339199656342,-1.4067456002577434,1.6
2.247664277180406,7.960288886204071,-1.3797833353469464,1.6
2.255663082437276,7.996238572751801,-1.3528210704361494,1.6
2.2636618876941457,8.032188259299529,-1.3258588055253522,1.6
2.2716606929510155,8.068137945847258,-1.2988965406145552,1.6
2.2796594982078853,8.10408763239499,-1.271934275703758,1.6
2.287658303464755,8.140037318942719,-1.244972010792961,1.6
2.295657108721625,8.175987005490448,-1.218009745882164,1.6
2.3036559139784947,8.244265232974907,-1.1557347670250915,1.6442652329749086
2.3116547192353645,8.377578653922738,-1.0224213460772615,1.7775786539227385
2.3196535244922343,8.455446037435284,-1.277230187176421,1.8554460374352841
2.327652329749104,8.323178016726388,-1.6768219832736126,2.076821983273613
2.335651135005974,7.752243929526982,-1.5840813098423274,2.507959345078836
2.3436499402628437,7.684648392144983,-1.5615494640483278,2.5192252679758362
2.3516487455197135,7.617052854762984,-1.5390176182543283,2.530491190872836
2.3596475507765833,7.549457317380986,-1.5164857724603287,2.541757113769836
2.367646356033453,7.4818617799989875,-1.493953926666329,2.5530230366668354
2.3756451612903224,7.414266242616993,-1.4714220808723308,2.5642889595638345
2.3836439665471922,7.346670705234994,-1.4488902350783313,2.5755548824608345
2.391642771804062,7.279075167852995,-1.4263583892843317,2.586820805357834
2.399641577060932,7.211479630470997,-1.4038265434903323,2.598086728254834
2.4076403823178016,6.985615292712069,-1.1928076463560342,2.3
2.4156391875746714,7.919741223722006,-1.7049353059305015,2.0148059177915045
2.4236379928315412,7.953778692900176,-1.713444673225044,2.0403340196751314
2.431636798088411,7.987816162078345,-1.7219540405195861,2.0658621215587587
2.439635603345281,8.021853631256516,-1.7304634078141286,2.0913902234423856
2.4476344086021506,8.055891100434684,-1.738972775108671,2.116918325326013
2.4556332138590204,8.089928569612853,-1.7474821424032132,2.1424464272096397
2.4636320191158902,8.123966038791023,-1.7559915096977556,2.1679745290932666
2.47163082437276,8.158003507969193,-1.764500876992298,2.193502630976894
2.47962962962963,8.192040977147363,-1.7730102442868403,2.2190307328605208
2.4876284348864997,8.22607844632553,-1.7815196115813827,2.244558834744148
2.495627240143369,8.260115915503699,-1.7900289788759247,2.2700869366277736
2.503626045400239,8.294153384681868,-1.798538346170467,2.2956150385114005
2.5116248506571086,8.524970131421728,-1.718757467144568,3.037514934289136
2.5196236559139784,8.68565905521324,-1.7171318110426481,3.008565905521324
2.527622461170848,8.775533271582564,-1.7351066543165128,3.0175533271582564
2.535621266427718,8.865407487951888,-1.7530814975903775,3.0265407487951888
2.543620071684588,8.95528170432121,-1.7710563408642421,3.035528170432121
2.5516188769414576,9.045155920690535,-1.789031184138107,3.0445155920690534
2.5596176821983274,9.135030137059859,-1.8070060274119717,3.0535030137059858
2.567616487455197,9.224904353429181,-1.8249808706858364,3.062490435342918
2.575615292712067,9.314778569798506,-1.842955713959701,3.071477856979851
2.583614097968937,9.40465278616783,-1.8609305572335657,3.080465278616783
2.5916129032258066,9.494527002537152,-1.8789054005074306,3.0894527002537155
2.5996117084826764,9.584401218906477,-1.8968802437812953,3.098440121890648
2.607610513739546,11.564208909370208,-1.803157535415602,2.951578767707801
2.615609318996416,12.185174323883999,-2.0970348647768002,3.2
2.623608124253286,12.139726566742693,-2.087945313348539,3.2
2.631606929510155,12.09427880960139,-2.0788557619202783,3.2
2.639605734767025,12.048831052460084,-2.069766210492017,3.2
2.647604540023895,12.003383295318779,-2.060676659063756,3.2
2.6556033452807646,11.957935538177473,-2.051587107635495,3.2
2.6636021505376344,11.912487781036168,-2.0424975562072336,3.2
2.671600955794504,11.867040023894862,-2.0334080047789724,3.2
2.679599761051374,11.821592266753557,-2.0243184533507113,3.2
2.687598566308244,11.776144509612251,-2.0152289019224505,3.2
2.6955973715651136,11.730696752470944,-2.0061393504941893,3.2
2.7035961768219834,12.11732377538834,-2.498088410991671,3.1788530465950022
2.711594982078853,12.090505605124681,-2.8993670403416454,4.298734080683291
2.719593787335723,11.962865095706546,-2.890857673047103,4.281715346094206
2.727592592592593,11.835224586288412,-2.8823483057525605,4.264696611505121
2.7355913978494626,11.707584076870276,-2.8738389384580185,4.247677876916037
2.7435902031063324,11.579943567452142,-2.865329571163476,4.230659142326952
2.7515890083632017,11.452303058034014,-2.856820203868934,4.213640407737868
2.7595878136200716,11.32466254861588,-2.8483108365743917,4.196621673148783
2.7675866188769414,11.197022039197744,-2.8398014692798497,4.179602938559699
2.775585424133811,11.06938152977961,-2.8312921019853072,4.1625842039706145
2.783584229390681,10.941741020361475,-2.822782734690765,4.14556546938153
2.7915830346475508,10.81410051094334,-2.8142733673962224,4.128546734792445
2.7995818399044206,10.686460001525205,-2.8057640001016804,4.111528000203361
2.8075806451612904,9.825806451612925,-2.6967741935483898,3.79032258064517
2.81557945041816,10.603738389794582,-1.696261610205418,1.5990654025513547
2.82357825567503,10.655343585000194,-1.6446564149998062,1.5861641037499516
2.8315770609318998,10.706948780205805,-1.5930512197941944,1.5732628049485486
2.8395758661887696,10.758553975411417,-1.5414460245885828,1.5603615061471456
2.8475746714456394,10.810159170617029,-1.489840829382971,1.5474602073457429
2.855573476702509,10.86176436582264,-1.4382356341773592,1.5345589085443399
2.863572281959379,10.913369561028253,-1.3866304389717474,1.5216576097429368
2.8715710872162488,10.964974756233865,-1.3350252437661356,1.5087563109415338
2.8795698924731186,9.879569892472894,-1.2215053763440689,1.7569892473118625
2.887568697729988,7.4842458698965935,-1.5039385325258516,1.4960614674741484
2.8955675029868577,7.456663782803939,-1.5108340542990153,1.4891659457009847
2.9035663082437275,7.429081695711284,-1.517729576072179,1.482270423927821
2.9115651135005973,7.4014996086186295,-1.5246250978453426,1.4753749021546574
2.919563918757467,7.373917521525976,-1.531520619618506,1.468479380381494
2.927562724014337,7.346335434433321,-1.5384161413916697,1.4615838586083303
2.9355615292712067,7.3187533473406665,-1.5453116631648334,1.4546883368351666
2.9435603345280765,7.291171260248012,-1.552207184937997,1.447792815062003
2.9515591397849463,7.263589173155357,-1.5591027067111607,1.4408972932888393
2.959557945041816,7.236007086062703,-1.5659982284843244,1.4340017715156756
2.967556750298686,7.208424998970049,-1.5728937502574878,1.4271062497425122
2.9755555555555557,7.180842911877394,-1.5797892720306514,1.4202107279693486
2.9835543608124255,7.15326082478474,-1.586684793803815,1.413315206196185
2.9915531660692953,7.125678737692085,-1.5935803155769788,1.4064196844230212
2.999551971326165,7.320788530466034,-1.710394265233017,1.4551971326165085
3.0075507765830345,8.34946236559138,-1.8,1.4056152927120689
3.0155495818399043,8.157774920783334,-1.6120643083476185,1.3
3.023548387096774,8.096914446002804,-1.6294530154277702,1.3
3.031547192353644,8.036053971222273,-1.646841722507922,1.3
3.0395459976105137,7.975193496441742,-1.6642304295880737,1.3
3.0475448028673835,7.914333021661211,-1.6816191366682254,1.3
3.0555436081242533,7.853472546880679,-1.699007843748377,1.3
3.063542413381123,7.792612072100149,-1.7163965508285288,1.3
3.071541218637993,7.731751597319618,-1.7337852579086805,1.3
3.0795400238948627,7.670891122539087,-1.7511739649888323,1.3
3.0875388291517325,7.610030647758556,-1.768562672068984,1.3
3.0955376344086023,7.549170172978025,-1.7859513791491357,1.3
3.103536439665472,7.115890083631984,-2.030465949820809,1.453643966547206
3.111535244922342,7.007048984468351,-2.126762246117088,2.053524492234175
3.1195340501792117,8.701775635479757,-2.3063609772174845,1.9936390227825151
3.1275328554360815,8.848880099973915,-2.3155550062483696,1.9844449937516304
3.1355316606929513,8.99598456446807,-2.3247490352792544,1.9752509647207455
3.1435304659498207,9.143089028962219,-2.3339430643101386,1.9660569356898612
3.1515292712066905,9.290193493456377,-2.3431370933410234,1.9568629066589764
3.1595280764635603,9.437297957950534,-2.352331122371908,1.9476688776280915
3.16752688172043,9.58440242244469,-2.361525151402793,1.9384748485972068
3.1755256869773,9.731506886938847,-2.370719180433678,1.929280819566322
3.1835244922341697,9.878611351433005,-2.3799132094645628,1.920086790535437
3.1915232974910395,10.02571581592716,-2.3891072384954475,1.9108927615045523
3.1995221027479093,10.172820280421318,-2.398301267526332,1.9016987324736674
3.207520908004779,12.687455197132637,-2.7,1.2718637992831592
3.215519713261649,12.416171426369138,-2.7727714186611165,1.2565999922919793
3.2235185185185187,12.433373158104342,-2.850179211469534,1.3168060533651929
3.2315173237753885,12.450574889839546,-2.9275870042779513,1.3770121144384064
3.2395161290322583,12.467776621574748,-3.004994797086369,1.43721817551162
3.247514934289128,12.484978353309952,-3.0824025898947864,1.4974242365848336
3.255513739545998,12.502180085045156,-3.1598103827032036,1.5576302976580472
3.2635125448028672,12.51938181678036,-3.2372181755116167,1.6178363587312574
3.271511350059737,12.536583548515564,-3.3146259683200343,1.678042419804471
3.279510155316607,12.553785280250766,-3.392033761128452,1.7382484808776846
3.2875089605734766,12.57098701198597,-3.4694415539368695,1.7984545419508982
3.2955077658303464,12.588188743721174,-3.5468493467452866,1.8586606030241117
3.3035065710872162,10.394743130226914,-4.1233572281959106,2.874014336917546
3.311505376344086,6.743136582017846,-3.1287577213452304,1.9335506749027689
3.319504181600956,6.819720887668727,-3.1798139251124846,1.9931162459645653
3.3275029868578256,6.896305193319608,-3.230870128879739,2.052681817026362
3.3355017921146954,6.972889498970489,-3.281926332646993,2.112247388088158
3.3435005973715652,7.04947380462137,-3.332982536414247,2.1718129591499546
3.351499402628435,7.126058110272251,-3.3840387401815013,2.2313785302117513
3.359498207885305,7.202642415923132,-3.4350949439487555,2.290944101273548
3.3674970131421746,7.279226721574013,-3.4861511477160096,2.3505096723353445
3.3754958183990444,7.355811027224895,-3.5372073514832634,2.4100752433971406
3.3834946236559142,7.432395332875776,-3.588263555250518,2.4696408144589372
3.391493428912784,7.508979638526657,-3.6393197590177717,2.529206385520734
3.3994922341696534,7.585563944177534,-3.6903759627850232,2.588771956582527
3.407491039426523,8.170908004778973,-2.741816009557945,3.012724014336918
3.415489844683393,8.104251294305056,-2.6085025886101154,2.812753882915173
3.423488649940263,7.22883847655681,-3.0835781099746487,3.089052073316432
3.4314874551971326,7.102028149313751,-3.0543141883031737,3.0695427922021157
3.4394862604540024,6.975217822070693,-3.0250502666316987,3.050033511087799
3.447485065710872,6.848407494827636,-2.995786344960224,3.0305242299734823
3.455483870967742,6.721597167584577,-2.9665224232887484,3.0110149488591658
3.463482676224612,6.594786840341519,-2.937258501617274,2.9915056677448493
3.4714814814814816,6.467976513098462,-2.9079945799457985,2.9719963866305323
3.4794802867383514,6.341166185855403,-2.878730658274324,2.952487105516216
3.487479091995221,6.214355858612345,-2.8494667366028485,2.9329778244018994
3.495477897252091,6.087545531369287,-2.820202814931374,2.9134685432875824
3.503476702508961,6.552544802867429,-1.5379211469533578,2.9951254480286433
3.5114755077658306,10.504274227108588,-1.6144255164914871,2.0967943296685587
3.5194743130227,10.576173600204044,-1.8570859006886473,2.0428697998469674
3.5274731182795698,10.648072973299502,-2.0997462848858213,1.9889452700253731
3.5354719235364396,10.719972346394961,-2.3424066690829948,1.935020740203779
3.5434707287933094,10.791871719490421,-2.5850670532801687,1.8810962103821849
3.551469534050179,10.86377109258588,-2.8277274374773427,1.8271716805605906
3.559468339307049,10.935670465681339,-3.070387821674516,1.7732471507389964
3.567467144563919,11.007569838776798,-3.3130482058716906,1.7193226209174022
3.5754659498207886,11.079469211872256,-3.555708590068864,1.665398091095808
3.5834647550776584,11.151368584967715,-3.798368974266038,1.611473561274214
3.591463560334528,11.223267958063175,-4.041029358463211,1.5575490314526197
3.599462365591398,11.295167331158634,-4.2836897426603855,1.5036245016310255
3.607461170848268,12.746117084826762,-3.9385902031063296,3.4
3.6154599761051376,12.766587450002593,-3.364891434211209,3.3368045815801755
3.6234587813620074,12.601394732741152,-3.3214196665108293,3.258555399719493
3.631457586618877,12.436202015479711,-3.2779478988104502,3.18030621785881
3.639456391875747,12.271009298218269,-3.2344761311100707,3.1020570359981274
3.647455197132617,12.105816580956828,-3.191004363409691,3.0238078541374445
3.655454002389486,11.940623863695397,-3.1475325957093143,2.945558672276766
3.663452807646356,11.775431146433954,-3.1040608280089352,2.8673094904160834
3.6714516129032257,11.610238429172513,-3.0605890603085557,2.789060308555401
3.6794504181600955,11.445045711911071,-3.0171172926081766,2.710811126694718
3.6874492234169653,11.27985299464963,-2.973645524907797,2.632561944834035
3.695448028673835,11.11466027738819,-2.930173757207418,2.5543127629733524
3.703446833930705,8.070191158900894,-3.117025089605725,1.7170250896057249
3.7114456391875748,6.046196734368785,-3.4369573874950277,2.1184786937475137
3.7194444444444446,5.9279569892473125,-3.3119474313022708,2.108004778972521
3.7274432497013144,5.850549196438895,-3.2173379067586496,2.116605644840123
3.735442054958184,5.773141403630477,-3.122728382215028,2.125206510707725
3.743440860215054,5.69573361082206,-3.028118857671407,2.133807376575327
3.7514396654719238,5.618325818013643,-2.9335093331277857,2.1424082424429285
3.7594384707287936,5.540918025205225,-2.838899808584164,2.1510091083105305
3.7674372759856634,5.463510232396808,-2.744290284040543,2.1596099741781325
3.7754360812425327,5.386102439588394,-2.6496807594969267,2.168210840045734
3.7834348864994025,5.308694646779977,-2.5550712349533056,2.176811705913336
3.7914336917562723,5.231286853971559,-2.460461710409684,2.185412571780938
3.799432497013142,5.153879061163142,-2.365852185866063,2.19401343764854
3.807431302270012,4.2853046594981965,-3.8450418160096214,1.998088410991581
3.8154301075268817,3.642741935483859,-4.981093189964173,0.17589605734763913
3.8234289127837515,2.0802040253653122,-7.8159467573446095,-1.1978004472628123
3.8314277180406213,1.7110283981251668,-8.113338234843615,-1.1567809331250185
3.839426523297491,1.3418527708850214,-8.410729712342622,-1.1157614189872245
3.847425328554361,0.9726771436448762,-8.708121189841627,-1.0747419048494307
3.8554241338112307,0.6035015164047308,-9.005512667340634,-1.0337223907116366
3.8634229390681005,0.2343258891645854,-9.302904144839639,-0.9927028765738428
3.8714217443249703,-0.13484973807556022,-9.600295622338646,-0.9516833624360489
3.87942054958184,-0.5040253653157056,-9.89768709983765,-0.910663848298255
3.88741935483871,-0.8732009925558506,-10.195078577336657,-0.8696443341604609
3.8954181600955797,-1.242376619795996,-10.492470054835664,-0.8286248200226671
3.9034169653524495,-2.9996415770605385,-10.824731182795404,2.4712066905619388
3.911415770609319,26.72549330315036,-3.349141671382756,-2.214431239388799
3.9194145758661887,27.803227064075976,-3.1807457712381284,-2.5933220147142113
3.9274133811230585,28.880960825001598,-3.0123498710935004,-2.9722127900396242
3.9354121863799283,29.958694585927216,-2.8439539709488724,-3.3511035653650367
3.943410991636798,31.036428346852833,-2.675558070804245,-3.7299943406904497
3.951409796893668,32.114162107778455,-2.5071621706596168,-4.108885116015863
3.9594086021505377,33.19189586870407,-2.3387662705149888,-4.487775891341275
3.9674074074074075,34.26962962962969,-2.170370370370361,-4.866666666666687
3.9754062126642773,35.34736339055531,-2.0019744702257336,-5.2455574419921
3.983405017921147,36.42509715148093,-1.8335785700811056,-5.6244482173175125
3.991403823178017,37.502830912406544,-1.6651826699364778,-6.0033389926429255
3.9994026284348867,38.58056467333216,-1.49678676979185,-6.382229767968338
4.007401433691756,23.247491039427032,-4.219713261648804,-5.0080645161294255
4.015400238948626,24.59234741052413,-3.4311266947171624,2.2114788842138062
4.023399044205496,24.57843644486001,-3.3059280037400702,2.2323453327099885
4.0313978494623655,24.564525479195886,-3.180729312762978,2.2532117812061703
4.039396654719235,24.550614513531766,-3.0555306217858855,2.2740782297023525
4.047395459976105,24.536703547867646,-2.9303319308087934,2.2949446781985348
4.055394265232975,24.52279258220352,-2.805133239831701,2.3158111266947166
4.063393070489845,24.5088816165394,-2.6799345488546087,2.336677575190899
4.0713918757467145,24.49497065087528,-2.5547358578775166,2.3575440236870806
4.079390681003584,24.481059685211157,-2.429537166900424,2.378410472183263
4.087389486260454,24.467148719547037,-2.304338475923332,2.3992769206794446
4.095388291517324,24.453237753882913,-2.1791397849462397,2.420143369175627
4.103387096774194,24.439326788218793,-2.053941093969147,2.4410098176718087
4.1113859020310635,24.425415822554672,-1.9287424029920548,2.461876266167991
4.119384707287933,24.41150485689055,-1.8035437120149624,2.482742714664173
4.127383512544803,19.77132616487367,0.3767025089606661,0.2973118279565029
4.135382317801673,10.898530465949804,-1.828991295442913,-2.2758405871309058
4.143381123058543,10.658566308243712,-1.8975524833589397,-2.21870626386755
4.1513799283154125,10.418602150537618,-1.966113671274966,-2.161571940604195
4.159378733572282,10.178637992831526,-2.034674859190993,-2.1044376173408392
4.167377538829152,9.938673835125432,-2.1032360471070195,-2.047303294077484
4.175376344086022,9.69870967741934,-2.1717972350230457,-1.9901689708141284
4.183375149342892,9.458745519713247,-2.2403584229390723,-1.933034647550773
4.1913739545997615,9.218781362007153,-2.308919610855099,-1.8759003242874175
4.199372759856631,8.97881720430106,-2.3774807987711255,-1.818766001024062
4.207371565113501,7.225137395459965,-0.9919872560732512,-0.09198725607325131
4.215370370370371,6.905185185185166,-0.2454320987653873,0.6545679012346126
4.223369175627241,4.120788530465856,3.636917562724041,3.3738351254480823
4.23136798088411,3.8903052883103824,3.6127475947934413,3.4321370181726762
4.239366786140979,3.879780544551343,3.5180249009620876,3.3584638118594015
4.247365591397849,3.8692558007923035,3.4233022071307344,3.2847906055461267
4.255364396654719,3.8587310570332645,3.3285795132993807,3.211117399232852
4.263363201911589,3.848206313274225,3.2338568194680275,3.1374441929195767
4.271362007168459,3.837681569515186,3.139134125636674,3.063770986606302
4.279360812425328,3.8271568257561466,3.0444114318053206,2.990097780293027
4.287359617682198,3.816632081997107,2.9496887379739674,2.9164245739797523
4.295358422939068,3.806107338238068,2.8549660441426137,2.8427513676664775
4.303357228195938,3.6,0.5463560334529167,2.1642771804062253
4.311356033452808,4.234187447571112,-1.6455832634281493,2.4259271969292575
4.319354838709677,4.285243651338366,-1.7136582017844877,2.3153054221002076
4.327353643966547,4.3362998551056195,-1.7817331401408263,2.2046836472711573
4.335352449223417,4.387356058872873,-1.8498080784971647,2.0940618724421074
4.343351254480287,4.438412262640128,-1.9178830168535033,1.983440097613057
4.351350059737157,4.489468466407382,-1.9859579552098419,1.8728183227840072
4.359348864994026,4.540524670174635,-2.0540328935661805,1.7621965479549568
4.367347670250896,4.591580873941889,-2.1221078319225186,1.651574773125907
4.375346475507766,4.642637077709143,-2.190182770278857,1.5409529982968568
4.383345280764636,4.6936932814763965,-2.258257708635196,1.4303312234678067
4.391344086021506,4.74474948524365,-2.326332646991534,1.3197094486387566
4.399342891278375,4.795805689010905,-2.3944075853478726,1.2090876738097065
4.407341696535245,6.1842992958641485,-6.88001728564528,3.2071366836981148
4.415340501792115,6.090696255624183,-6.760886143521687,3.249683520170826
4.423339307048985,5.997093215384218,-6.641755001398095,3.292230356643538
4.431338112305855,5.903490175144252,-6.5226238592745025,3.334777193116249
4.439336917562724,5.809887134904287,-6.40349271715091,3.377324029588961
4.447335722819594,5.716284094664321,-6.284361575027318,3.4198708660616726
4.455334528076464,5.622681054424356,-6.1652304329037255,3.462417702534384
4.463333333333334,5.52907801418439,-6.046099290780133,3.5049645390070956
4.471332138590204,5.435474973944425,-5.926968148656541,3.5475113754798073
4.4793309438470725,5.3418719337044696,-5.807837006532962,3.590058211952514
4.487329749103942,5.248268893464504,-5.688705864409369,3.6326050484252255
4.495328554360812,5.154665853224539,-5.569574722285776,3.675151884897937
4.503327359617682,7.526463560334648,-6.196415770609381,3.36726403823177
4.511326164874552,9.367437468686168,-6.081392839249238,3.4767410490615482
4.5193249701314215,9.307231407612955,-6.04698937577883,3.4337367197235382
4.527323775388291,9.24702534653974,-6.012585912308423,3.3907323903855286
4.535322580645161,9.186819285466527,-5.978182448838015,3.347728061047519
4.543321385902031,9.126613224393314,-5.943778985367607,3.304723731709509
4.551320191158901,9.066407163320099,-5.9093755218972,3.2617194023714995
4.5593189964157705,9.006201102246886,-5.874972058426792,3.21871507303349
4.56731780167264,8.945995041173672,-5.840568594956384,3.1757107436954803
4.57531660692951,8.885788980100457,-5.806165131485977,3.1327064143574703
4.58331541218638,8.825582919027244,-5.771761668015569,3.0897020850194608
4.59131421744325,8.765376857954031,-5.737358204545161,3.046697755681451
4.5993130227001195,8.705170796880818,-5.702954741074754,3.0036934263434416
4.607311827956989,8.395340501792106,-5.456272401433686,2.3906810035842145
4.615310633213859,8.047201543975735,-5.274533590662623,1.89813436265049
4.623309438470729,7.678025916735587,-5.213004319455932,1.6520172778237252
4.631308243727599,7.829259427532947,-5.386995809985357,2.206502095007322
4.6393070489844686,7.930652733605943,-5.3419321183973585,2.229033940801321
4.647305854241338,8.03204603967894,-5.29686842680936,2.2515657865953203
4.655304659498208,8.133439345751937,-5.251804735221362,2.2740976323893194
4.663303464755078,8.234832651824933,-5.206741043633363,2.2966294781833185
4.671302270011948,8.33622595789793,-5.1616773520453645,2.3191613239773177
4.6793010752688176,8.437619263970927,-5.116613660457366,2.3416931697713173
4.687299880525687,8.539012570043923,-5.071549968869367,2.3642250155653164
4.695298685782557,8.640405876116919,-5.026486277281369,2.3867568613593155
4.703297491039427,9.249581839904442,-4.670250896057334,2.454958183990444
4.711296296296297,11.135185185185152,-4.364814814814847,3.9592592592593876
4.719295101553167,11.075130335614205,-4.391710111871402,4.091710111871401
4.727293906810036,11.04786168132942,-4.38262056044314,4.08262056044314
4.735292712066906,11.020593027044637,-4.373531009014879,4.073531009014879
4.743291517323775,10.993324372759856,-4.3644414575866195,4.064441457586619
4.751290322580645,10.966055718475074,-4.355351906158358,4.055351906158358
4.759289127837515,10.93878706419029,-4.346262354730097,4.046262354730096
4.7672879330943845,10.911518409905508,-4.3371728033018355,4.037172803301836
4.775286738351254,10.884249755620724,-4.328083251873575,4.028083251873574
4.783285543608124,10.85698110133594,-4.318993700445313,4.018993700445313
4.791284348864994,10.829712447051158,-4.309904149017052,4.009904149017052
4.799283154121864,10.802443792766374,-4.300814597588791,4.000814597588791
4.8072819593787335,10.454699322978893,-3.4265033851055358,3.7093986459577857
4.815280764635603,10.814581176158237,-3.210935882118677,3.8927094119208823
4.823279569892473,10.850131421744324,-3.2375985663082427,3.874934289127838
4.831278375149343,10.885681667330411,-3.264261250497809,3.857159166334794
4.839277180406213,10.9212319129165,-3.290923934687375,3.83938404354175
4.8472759856630825,10.956782158502588,-3.317586618876941,3.821608920748706
4.855274790919952,10.992332404088677,-3.344249303066507,3.803833797955662
4.863273596176822,11.027882649674764,-3.370911987256073,3.786058675162618
4.871272401433692,11.063432895260853,-3.397574671445639,3.768283552369574
4.879271206690562,11.09898314084694,-3.424237355635205,3.75050842957653
4.8872700119474315,11.134533386433027,-3.450900039824771,3.7327333067834862
4.895268817204301,11.170083632019116,-3.477562724014337,3.714958183990442
4.903267622461171,12.087335722819768,-3.6901433691756647,3.7
4.911266427718041,12.035585738539885,-3.492842859837765,4.073757152738471
4.919265232974911,11.808251273344636,-3.4675834748160708,3.981139407658926
4.9272640382317805,11.58091680814939,-3.4423240897943765,3.8885216625793806
4.93526284348865,11.353582342954143,-3.4170647047726823,3.7959039174998352
4.94326164874552,11.126247877758894,-3.3918053197509885,3.70328617242029
4.95126045400239,10.898913412563648,-3.3665459347292943,3.610668427340745
4.95925925925926,10.671578947368399,-3.3412865497076,3.5180506822611997
4.9672580645161295,10.444244482173152,-3.316027164685906,3.4254329371816543
4.975256869772999,10.216910016977904,-3.2907677796642116,3.332815192102109
4.983255675029869,9.989575551782657,-3.2655083946425174,3.2401974470225636
4.991254480286738,9.762241086587434,-3.2402490096208263,3.1475797019430285
4.999253285543608,9.534906621392187,-3.214989624599132,3.054961956863483
5.007252090800478,8.963440860214888,-3.2,1.8747909199522472
5.015250896057347,10.209552575409768,-3.3047762877048843,1.7952237122951153
5.023249701314217,10.227527418683634,-3.313763709341817,1.786236290658183
5.031248506571087,10.245502261957498,-3.3227511309787494,1.7772488690212507
5.039247311827957,10.263477105231363,-3.3317385526156817,1.7682614473843181
5.047246117084827,10.281451948505229,-3.340725974252614,1.7592740257473858
5.055244922341696,10.299426791779092,-3.3497133958895464,1.7502866041104532
5.063243727598566,10.317401635052958,-3.3587008175264788,1.741299182473521
5.071242532855436,10.335376478326824,-3.3676882391634115,1.7323117608365886
5.079241338112306,10.353351321600687,-3.376675660800344,1.723324339199656
5.087240143369176,10.371326164874553,-3.385663082437276,1.7143369175627237
5.095238948626045,10.389301008148419,-3.3946505040742085,1.7053494959257913
5.103237753882915,9.443010752688226,-3.0524492234169895,1.5381123058542474
5.111236559139785,9.01822175974101,-2.5954445600647476,1.0863336801942425
5.119235364396655,9.052625223211418,-2.5868436941971455,1.0605310825914367
5.127234169653525,9.087028686681826,-2.5782428283295435,1.034728484988631
5.135232974910394,9.121432150152234,-2.5696419624619415,1.0089258873858251
5.143231780167264,9.15583561362264,-2.56104109659434,0.9831232897830193
5.151230585424134,9.190239077093048,-2.552440230726738,0.9573206921802135
5.159229390681004,9.224642540563456,-2.543839364859136,0.9315180945774076
5.167228195937874,9.259046004033864,-2.535238498991534,0.9057154969746019
5.175227001194743,9.293449467504272,-2.526637633123932,0.879912899371796
5.183225806451613,9.32785293097468,-2.51803676725633,0.8541103017689902
5.191224611708483,9.362256394445089,-2.509435901388728,0.8283077041661844
5.199223416965353,9.396659857915497,-2.500835035521126,0.8025051065633786
5.207222222222223,9.403106332138599,-6.59402628434885,-1.095698924731172
5.215221027479092,9.514917588417424,-6.3790046376588005,-0.940883339114337
5.223219832735962,9.626728844696249,-6.163982990968752,-0.786067753497502
5.231218637992832,9.738540100975074,-5.948961344278704,-0.6312521678806671
5.239217443249702,9.8503513572539,-5.733939697588656,-0.47643658226383223
5.247216248506572,9.962162613532724,-5.518918050898607,-0.3216209966469973
5.255215053763441,10.073973869811537,-5.303896404208582,-0.16680541103017954
5.26321385902031,10.185785126090362,-5.088874757518534,-0.01198982541334459
5.27121266427718,10.297596382369187,-4.8738531108284855,0.14282576020349036
5.27921146953405,10.409407638648013,-4.658831464138437,0.2976413458203251
5.28721027479092,10.521218894926838,-4.443809817448388,0.45245693143716004
5.29520908004779,10.633030151205663,-4.228788170758341,0.607272517053995
5.303207885304659,10.137634408602164,-5.079211469534055,1.1519713261648628
5.311206690561529,9.61960007545746,-4.873866566056718,1.6653335848582045
5.319205495818399,9.644859460479156,-4.840187386027793,1.7495315349305174
5.327204301075269,9.670118845500848,-4.806508205998868,1.8337294850028307
5.335203106332139,9.695378230522543,-4.772829025969942,1.9179274350751438
5.343201911589008,9.720637615544238,-4.739149845941017,2.002125385147457
5.351200716845878,9.74589700056593,-4.705470665912093,2.08632333521977
5.359199522102748,9.771156385587625,-4.671791485883167,2.170521285292083
5.367198327359618,9.796415770609318,-4.638112305854242,2.254719235364396
5.375197132616488,9.821675155631013,-4.604433125825317,2.3389171854367095
5.383195937873357,9.846934540652708,-4.570753945796391,2.423115135509023
5.391194743130227,9.8721939256744,-4.537074765767466,2.5073130855813357
5.399193548387097,9.897453310696095,-4.503395585738541,2.5915110356536486
5.407192353643967,8.761529271206664,-6.8577060931900045,3.7596176821983343
5.415191158900837,9.327084307308713,-5.972915692691288,4.227084307308712
5.423189964157706,9.368817204301077,-5.931182795698924,4.268817204301076
5.431188769414576,9.41055010129344,-5.88944989870656,4.31055010129344
5.439187574671446,9.452282998285805,-5.847717001714196,4.352282998285804
5.447186379928316,9.494015895278169,-5.805984104721832,4.3940158952781685
5.455185185185186,9.535748792270534,-5.764251207729468,4.435748792270532
5.463183990442055,9.577481689262896,-5.722518310737104,4.477481689262897
5.471182795698925,9.61921458625526,-5.68078541374474,4.51921458625526
5.479181600955795,9.660947483247625,-5.6390525167523755,4.560947483247625
5.487180406212665,9.70268038023999,-5.597319619760012,4.602680380239988
5.495179211469535,9.744413277232354,-5.555586722767647,4.644413277232353
5.5031780167264035,9.786146174224713,-5.513853825775288,4.686146174224712
5.511176821983273,9.827879071217076,-5.472120928782924,4.727879071217076
5.519175627240143,9.86961196820944,-5.43038803179056,4.76961196820944
5.527174432497013,11.217443249701278,-5.59127837514936,5.909318996415343
5.535173237753883,6.361808044603709,-2.737793707686163,7.434249303066477
5.5431720430107525,6.1107045418070935,-2.5785909163858123,6.9323864548226535
5.551170848267622,6.122643057115854,-2.5547138857682907,6.633923572103631
5.559169653524492,6.134581572424615,-2.5308368551507687,6.33546068938461
5.567168458781362,6.146520087733377,-2.506959824533247,6.036997806665588
5.575167264038232,6.1584586030421375,-2.483082793915725,5.738534923946567
5.5831660692951015,6.170397118350898,-2.4592057632982036,5.440072041227545
5.591164874551971,6.182335633659659,-2.4353287326806816,5.1416091585085235
5.599163679808841,6.19427414896842,-2.41145170206316,4.843146275789502
5.607162485065711,7.2,-1.1937873357230133,5.141218637992669
5.615161290322581,4.902764976958526,-0.9930875576036856,6.908294930875578
5.6231600955794505,4.921809751379644,-0.9454756215508894,6.965429254138933
5.63115890083632,4.940854525800763,-0.8978636854980933,7.0225635774022885
5.63915770609319,4.959899300221881,-0.8502517494452971,7.079697900665644
5.64715651135006,4.978944074643,-0.802639813392501,7.136832223928999
5.65515531660693,4.997988849064118,-0.7550278773397049,7.193966547192354
5.6631541218637995,5.017033623485236,-0.7074159412869088,7.251100870455709
5.671152927120669,5.036078397906355,-0.6598040052341125,7.308235193719065
5.679151732377539,5.055123172327473,-0.6121920691813165,7.365369516982421
5.687150537634409,5.074167946748592,-0.5645801331285203,7.422503840245776
5.695149342891279,5.09321272116971,-0.5169681970757242,7.479638163509131
5.7031481481481485,4.584015594541904,-1.316569200779728,6.950292397660816
5.711146953405018,4.289322769288808,-1.3586681758158845,6.823995472552347
5.719145758661888,4.00033507738365,-1.3993298452326997,6.700502616075475
5.727144563918758,4.01872313544542,-1.3625537291091603,6.72808470316813
5.735143369175628,4.037111193507189,-1.3257776129856207,6.7556667902607845
5.7431421744324975,4.05549925156896,-1.2890014968620813,6.783248877353439
5.751140979689367,4.073887309630729,-1.252225380738542,6.810830964446094
5.759139784946237,4.0922753676924986,-1.2154492646150026,6.8384130515387485
5.767138590203106,4.110663425754266,-1.1786731484914672,6.8659951386313995
5.775137395459976,4.129051483816037,-1.1418970323679278,6.893577225724054
5.783136200716846,4.147439541877806,-1.1051209162443885,6.921159312816709
5.791135005973715,4.1658275999395755,-1.0683448001208489,6.9487413999093635
5.799133811230585,4.184215658001345,-1.0315686839973095,6.976323487002018
5.807132616487455,4.596415770609292,-1.0,7.792831541218585
5.815131421744325,4.995100179898103,-0.42449910050948403,9.282850629643361
5.823130227001195,4.976712121836334,-0.5164393908183317,9.218492426427169
5.8311290322580644,4.9583240637745645,-0.6083796811271792,9.154134223210974
5.839127837514934,4.939936005712795,-0.7003199714360269,9.089776019994781
5.847126642771804,4.921547947651025,-0.7922602617448744,9.025417816778589
5.855125448028674,4.903159889589255,-0.8842005520537222,8.961059613562394
5.863124253285544,4.884771831527486,-0.9761408423625697,8.896701410346202
5.8711230585424135,4.866383773465716,-1.0680811326714172,8.832343207130007
5.879121863799283,4.847995715403947,-1.160021422980265,8.767985003913815
5.887120669056153,4.829607657342177,-1.2519617132891125,8.70362680069762
5.895119474313023,4.811219599280408,-1.34390200359796,8.639268597481427
5.903118279569893,4.4881720430107634,-1.4623655913978473,8.475268817204306
5.9111170848267625,2.904964821452277,1.2925527678215847,9.488829151732377
5.919115890083632,2.940515067038365,1.2392273994424525,9.408841099163679
5.927114695340502,2.976065312624453,1.1859020310633204,9.32885304659498
5.935113500597372,3.011615558210541,1.1325766626841882,9.248864994026283
5.943112305854242,3.047165803796629,1.0792512943050563,9.168876941457585
5.9511111111111115,3.082716049382717,1.0259259259259241,9.088888888888887
5.959109916367981,3.118266294968805,0.972600557546792,9.008900836320187
5.967108721624851,3.1538165405548932,0.9192751891676598,8.928912783751489
5.975107526881721,3.1893667861409813,0.8659498207885278,8.848924731182791
5.983106332138591,3.2249170317270694,0.8126244524093957,8.768936678614093
5.9911051373954605,3.2604672773131576,0.7592990840302636,8.688948626045395
5.99910394265233,3.2960175228992457,0.7059737156511314,8.608960573476697
6.0071027479092,1.3989297092791624,0.5,8.3
6.015101553166069,1.315608821186778,0.5,8.3
6.023100358422939,1.2322879330943843,0.5,8.3
6.031099163679809,1.1489670450019907,0.5,8.3
6.039097968936678,1.065646156909597,0.5,8.3
6.047096774193548,0.9823252688172033,0.5,8.3
6.055095579450418,0.8990043807248096,0.5,8.3
6.063094384707288,0.8156834926324159,0.5,8.3
6.071093189964158,0.7323626045400222,0.5,8.3
6.079091995221027,0.6490417164476285,0.5,8.3
6.087090800477897,0.5657208283552349,0.5,8.3
6.095089605734767,0.48239994026284116,0.5,8.3
6.103088410991637,0.3990790521704475,0.5,8.3
6.111087216248507,0.3157581640780538,0.5,8.3
6.119086021505376,0.2324372759856601,0.5,8.3
6.127084826762246,0.14911638789326642,0.5,8.3
6.135083632019116,0.06579549980087274,0.5,8.3
6.143082437275986,-0.01752538829152095,0.5,8.3
6.151081242532856,-0.07562724014326921,0.48375149342884616,8.32437275985673
6.159080047789725,1.010727535685044,1.1336854681506696,9.439577438219196
6.167078853046595,-0.5469345406527486,1.3441803433314525,9.186983588002256
6.175077658303465,-0.20079243166801203,0.900792431668012,8.401109404335218
6.183076463560335,-0.2824128934728053,0.9824128934728052,8.515378050861928
6.191075268817205,-0.3640333552775985,1.0640333552775985,8.629646697388639
6.199074074074074,-0.44565381708239177,1.1456538170823918,8.743915343915349
6.207072879330944,-0.527274278887185,1.227274278887185,8.85818399044206
6.215071684587814,-0.6088947406919782,1.3088947406919782,8.97245263696877
6.223070489844684,-0.6905152024967716,1.3905152024967715,9.08672128349548
6.231069295101554,0.49847143158337354,0.49979619087778315,9.100815236488867
6.239068100358423,0.32202719797595275,0.47627029306346036,9.194918827746159
6.247066905615293,0.14558296436853196,0.45274439524913757,9.28902241900345
6.255065710872163,-0.030861269238888767,0.4292184974348148,9.38312601026074
6.263064516129033,-0.20730550284630955,0.40569259962049203,9.477229601518031
6.271063321385903,-0.38374973645373034,0.3821667018061693,9.571333192775324
6.2790621266427715,-0.5601939700611316,0.3586408039918491,9.665436784032604
6.287060931899641,-0.7366382036685524,0.3351149061775264,9.759540375289895
6.295059737156511,-0.9130824372759732,0.3115890083632036,9.853643966547185
6.303058542413381,-1.1994203721447427,0.20028981392762868,9.100057962785526
6.311057347670251,-1.1202242804925664,0.2398878597537168,9.107977571950743
6.3190561529271205,-1.04102818884039,0.2794859055798049,9.11589718111596
6.32705495818399,-0.9618320971882138,0.3190839514058931,9.123816790281179
6.33505376344086,-0.8826360055360376,0.3586819972319812,9.131736399446396
6.34305256869773,-0.8034399138838613,0.3982800430580693,9.139656008611613
6.3510513739546,-0.724243822231685,0.43787808888415747,9.14757561777683
6.3590501792114695,-0.6450477305795088,0.4774761347102456,9.15549522694205
6.367048984468339,-0.5658516389273326,0.5170741805363337,9.163414836107266
6.375047789725209,-0.48665554727515625,0.5566722263624219,9.171334445272484
6.383046594982079,-0.40745945562298,0.59627027218851,9.1792540544377
6.391045400238949,-0.3282633639708038,0.6358683180145981,9.18717366360292
6.3990442054958185,-0.24906727231862746,0.6754663638406863,9.195093272768137
6.407043010752688,0.7783602150536633,-0.37822580645164827,9.552150537634432
6.415041816009558,-2.0602747909197965,-0.03345280764648719,10.302090800477906
6.423040621266428,0.2628448619179005,-0.7560238399318646,10.511756547055013
6.431039426523298,0.18929262967082244,-0.471008939974437,10.337069995468203
6.4390382317801675,0.11574039742374434,-0.18599404001700937,10.162383443881392
6.447037037037037,0.04218816517666624,0.0990208599404182,9.987696892294583
6.455035842293907,-0.031364067070411894,0.3840357598978458,9.813010340707772
6.463034647550777,-0.10491629931748997,0.6690506598552736,9.63832378912096
6.471033452807647,-0.17846853156456804,0.9540655598127011,9.46363723753415
6.4790322580645165,-0.2520207638116461,1.239080459770129,9.28895068594734
6.487031063321386,-0.3255729960587243,1.5240953597275566,9.114264134360528
6.495029868578256,-0.3991252283058024,1.8091102596849842,8.939577582773719
6.503028673835126,-0.47267746055288046,2.0941251596424117,8.764891031186908
6.511027479091996,2.116985264834543,0.4261449621664939,10.173855037833507
6.5190262843488656,-0.21599960175256694,0.759428514536081,9.84057148546392
6.5270250896057345,-0.6721373325787615,0.6,10.284078475759292
6.535023894862604,-0.5984641262654867,0.6,10.241979500723136
6.543022700119474,-0.5247909199522118,0.6,10.199880525686979
6.551021505376344,-0.451117713638937,0.6,10.157781550650821
6.559020310633214,-0.37744450732566215,0.6,10.115682575614665
6.5670191158900835,-0.3037713010123873,0.6,10.073583600578507
6.575017921146953,-0.23009809469911247,0.6,10.031484625542351
6.583016726403823,-0.15642488838583768,0.6,9.989385650506193
6.591015531660693,-0.08275168207256278,0.6,9.947286675470036
6.599014336917563,-0.009078475759287885,0.6,9.90518770043388
6.6070131421744325,-0.4945965750696928,0.004052568697730398,9.70405256869773
6.615011947431302,-0.4519362803663873,0.03604778972520952,9.736047789725209
6.623010752688172,-0.40927598566308176,0.06804301075268865,9.768043010752688
6.631009557945042,-0.3666156909597763,0.10003823178016777,9.800038231780167
6.639008363201912,-0.3239553962564708,0.1320334528076469,9.832033452807647
6.6470071684587815,-0.2812951015531653,0.16402867383512604,9.864028673835126
6.655005973715651,-0.23863480684985977,0.19602389486260516,9.896023894862605
6.663004778972521,-0.19597451214655426,0.22801911589008428,9.928019115890084
6.671003584229391,-0.1533142174432488,0.2600143369175634,9.960014336917563
6.679002389486261,-0.11065392273994329,0.2920095579450425,9.992009557945043
6.6870011947431305,0.057176992660877536,0.28564601467824496,9.742823007339123
6.695,-1.0,0.3,9.7
