gyro_time_list,gyro_x_list,gyro_y_list,gyro_z_list
0.0,0.1,0.0,0.1
0.007996268656716418,-0.0033665939963105824,0.19663340600368942,0.1
0.015992537313432836,-0.012351165520711051,0.18764883447928896,0.1
0.023988805970149255,-0.021335737045111523,0.1786642629548885,0.1
0.03198507462686567,-0.030320308569511994,0.16967969143048803,0.1
0.03998134328358209,-0.03930488009391247,0.16069511990608754,0.1
0.04797761194029851,-0.04828945161831294,0.15171054838168707,0.1
0.05597388059701493,-0.05727402314271341,0.1427259768572866,0.1
0.06397014925373135,-0.06625859466711388,0.13374140533288614,0.1
0.07196641791044776,-0.07524316619151435,0.12475683380848566,0.1
0.07996268656716418,-0.08422773771591481,0.1157722622840852,0.1
0.0879589552238806,-0.09321230924031529,0.10678769075968472,0.1
0.09595522388059702,-0.19776119402985082,0.1,0.1
0.10395149253731344,-0.10161280374984583,0.2,0.1
0.11194776119402985,-0.1082212902429999,0.2,0.1
0.11994402985074627,-0.11482977673615395,0.2,0.1
0.1279402985074627,-0.12143826322930802,0.2,0.1
0.13593656716417912,-0.1280467497224621,0.2,0.1
0.14393283582089553,-0.13465523621561615,0.2,0.1
0.15192910447761193,-0.1412637227087702,0.2,0.1
0.15992537313432836,-0.1478722092019243,0.2,0.1
0.1679216417910448,-0.15448069569507836,0.2,0.1
0.1759179104477612,-0.1610891821882324,0.2,0.1
0.1839141791044776,-0.16769766868138647,0.2,0.1
0.19191044776119404,-0.17430615517454054,0.2,0.1
0.19990671641791047,-0.1809146416676946,0.2,0.1
0.20790298507462687,-0.18752312816084865,0.2,0.1
0.21589925373134328,-0.19413161465400272,0.2,0.1
0.2238955223880597,-0.2,0.2,0.1
0.23189179104477614,-0.5068277035873265,0.10341385179366328,0.20341385179366328
0.23988805970149255,-0.5208562450903378,0.1104281225451689,0.2104281225451689
0.24788432835820895,-0.534884786593349,0.11744239329667451,0.2174423932966745
0.2558805970149254,-0.5489133280963603,0.12445666404818015,0.22445666404818015
0.2638768656716418,-0.5629418695993715,0.1314709347996858,0.23147093479968578
0.27187313432835825,-0.5769704111023828,0.13848520555119143,0.23848520555119143
0.2798694029850746,-0.590998952605394,0.14549947630269702,0.24549947630269703
0.28786567164179105,-0.6050274941084053,0.15251374705420268,0.25251374705420265
0.2958619402985075,-0.6190560356114165,0.1595280178057083,0.2595280178057083
0.30385820895522386,-0.6330845771144278,0.16654228855721392,0.2665422885572139
0.3118544776119403,-0.647113118617439,0.17355655930871955,0.2735565593087195
0.3198507462686567,-0.6611416601204503,0.18057083006022517,0.28057083006022515
0.32784701492537316,-0.6751702016234615,0.18758510081173085,0.28758510081173083
0.3358432835820896,-0.6891987431264729,0.19459937156323648,0.29459937156323646
0.34383955223880597,-0.7,0.2,0.4839552238805991
0.3518358208955224,-1.6603903559127458,0.1,0.8115958668197482
0.35983208955223883,-2.0909586681974766,0.1,0.9961251435132041
0.3678283582089552,-2.07825456053068,0.1,1.01087271973466
0.37582462686567164,-2.0560427031509123,0.1,1.021978648424544
0.3838208955223881,-2.0338308457711443,0.1,1.033084577114428
0.3918171641791045,-2.011618988391376,0.1,1.044190505804312
0.39981343283582094,-1.9894071310116084,0.1,1.0552964344941957
0.4078097014925373,-1.9671952736318408,0.1,1.0664023631840798
0.41580597014925375,-1.944983416252073,0.1,1.0775082918739636
0.4238022388059702,-1.9227715588723049,0.1,1.0886142205638476
0.43179850746268655,-1.9005597014925373,0.1,1.0997201492537314
0.439794776119403,-2.0014995775837794,0.10299915516755843,1.4
0.4477910447761194,-2.016586876936074,0.13317375387214875,1.4
0.45578731343283585,-2.0316741762883694,0.16334835257673908,1.4
0.4637835820895523,-2.0467614756406647,0.19352295128132938,1.4
0.47177985074626866,-2.06184877499296,0.22369754998591948,1.4
0.4797761194029851,-2.076936074345255,0.2538721486905098,1.4
0.4877723880597015,-2.09202337369755,0.2840467473951001,1.4
0.4957686567164179,-1.9947761194029852,0.1992537313432836,1.1992537313432836
0.5037649253731343,-1.9404325460078249,0.19149036371540357,1.1914903637154035
0.5117611940298508,-1.8860889726126646,0.18372699608752352,1.1837269960875234
0.5197574626865672,-1.8317453992175046,0.1759636284596435,1.1759636284596435
0.5277537313432836,-1.7774018258223443,0.16820026083176348,1.1682002608317634
0.5357500000000001,-1.723058252427184,0.16043689320388343,1.1604368932038835
0.5437462686567165,-1.6687146790320238,0.1526735255760034,1.1526735255760034
0.5517425373134328,-1.6143711056368644,0.14491015794812348,1.1449101579481236
0.5597388059701492,-1.560027532241704,0.13714679032024346,1.1371467903202435
0.5677350746268657,-1.5056839588465438,0.12938342269236341,1.1293834226923634
0.5757313432835821,-1.4513403854513838,0.12162005506448338,1.1216200550644835
0.5837276119402985,-1.3969968120562233,0.11385668743660335,1.1138566874366034
0.591723880597015,-1.3426532386610632,0.10609331980872332,1.1060933198087235
0.5997201492537314,-1.2139925373134286,0.18600746268657137,1.0139925373134286
0.6077164179104477,-1.622459132906894,0.633688699360341,1.1149727552712627
0.6157126865671642,-1.660536602700782,0.6908049040511727,1.1403577351338545
0.6237089552238806,-1.6986140724946697,0.7479211087420043,1.1657427149964465
0.631705223880597,-1.7366915422885574,0.805037313432836,1.1911276948590384
0.6397014925373135,-1.7747690120824453,0.8621535181236677,1.2165126747216302
0.6476977611940299,-1.812846481876333,0.9192697228144993,1.241897654584222
0.6556940298507463,-1.8509239516702207,0.976385927505331,1.2672826344468138
0.6636902985074628,-1.8890014214641084,1.0335021321961626,1.2926676143094056
0.6716865671641792,-1.9270788912579964,1.0906183368869944,1.3180525941719976
0.6796828358208955,-1.9651563610518836,1.147734541577825,1.343437574034589
0.6876791044776119,-2.0032338308457716,1.2048507462686568,1.3688225538971808
0.6956753731343284,-2.0413113006396593,1.2619669509594886,1.3942075337597726
0.7036716417910448,-2.079388770433547,1.3190831556503202,1.4195925136223646
0.7116679104477612,-2.1174662402274347,1.3761993603411518,1.4449774934849564
0.7196641791044777,-2.1555437100213224,1.4333155650319833,1.4703624733475482
0.7276604477611941,-2.19362117981521,1.490431769722815,1.49574745321014
0.7356567164179104,-2.2291044776119384,1.8485074626865643,2.9074626865671656
0.7436529850746268,-2.6948100407055637,2.7248643147896883,2.362432157394844
0.7516492537313433,-2.1859565807327,2.3613975576662143,2.1806987788331074
0.7596455223880597,-1.677103120759837,1.9979308005427403,1.9989654002713702
0.7676417910447761,-1.1682496607869737,1.6344640434192665,1.8172320217096334
0.7756380597014926,-0.6593962008141103,1.2709972862957928,1.6354986431478964
0.783634328358209,-0.1505427408412472,0.9075305291723188,1.4537652645861594
0.7916305970149254,0.3583107191316164,0.5440637720488448,1.2720318860244224
0.7996268656716419,0.8671641791044795,0.18059701492537084,1.0902985074626854
0.8076231343283582,1.376017639077336,-0.18286974219809782,0.9085651289009511
0.8156194029850746,1.6522388059701285,0.619029850746266,-0.8380597014925322
0.8236156716417911,1.3120808296181417,0.6296714479550303,-0.7703285520449697
0.8316119402985075,1.1147703043225414,0.6608257414227566,-0.7391742585772434
0.8396082089552239,0.9174597790269414,0.691980034890483,-0.7080199651095171
0.8476044776119404,0.7201492537313413,0.7231343283582092,-0.6768656716417908
0.8556007462686568,0.5228387284357412,0.7542886218259356,-0.6457113781740644
0.8635970149253731,0.32552820314014386,0.7854429152936615,-0.6145570847063385
0.8715932835820895,0.12821767784454385,0.8165972087613879,-0.5834027912386122
0.879589552238806,-0.06909284745105637,0.8477515022291142,-0.5522484977708858
0.8875858208955224,-0.2664033727466564,0.8789057956968405,-0.5210942043031594
0.8955820895522388,-1.2955223880597044,0.5044776119402956,-0.35820895522388174
0.9035783582089553,-1.3620888277061292,0.0837523547311983,-0.4945841182437328
0.9115746268656717,-1.3077452543109689,0.060462251847558164,-0.4868207506158527
0.9195708955223881,-1.2534016809158086,0.037172148963918045,-0.4790573829879727
0.9275671641791046,-1.1990581075206483,0.013882046080277918,-0.47129401536009263
0.9355634328358209,-1.1447145341254887,-0.009408056803361889,-0.4635306477322127
0.9435597014925373,-1.0903709607303287,-0.032698159687002015,-0.45576728010433265
0.9515559701492537,-1.0360273873351682,-0.05598826257064213,-0.44800391247645266
0.9595522388059702,-0.9816838139400079,-0.07927836545428227,-0.4402405448485726
0.9675485074626866,-0.9273402405448476,-0.10256846833792238,-0.43247717722069257
0.975544776119403,-0.8729966671496874,-0.12585857122156252,-0.4247138095928125
0.9835410447761195,-0.8186530937545271,-0.14914867410520263,-0.41695044196493247
0.9915373134328358,-0.7643095203593676,-0.17243877698884244,-0.40918707433705254
0.9995335820895522,-0.7099659469642073,-0.19572887987248258,-0.4014237067091725
1.0075298507462687,0.0,-0.1,0.1
1.0155261194029852,0.0,-0.1,0.1
1.0235223880597015,0.0,-0.1,0.1
1.0315186567164178,0.0,-0.1,0.1
1.0395149253731344,0.0,-0.1,0.1
1.0475111940298507,0.0,-0.1,0.1
1.0555074626865673,0.0,-0.1,0.1
1.0635037313432836,0.0,-0.1,0.1
1.0715000000000001,0.0,-0.1,0.1
1.0794962686567164,0.0,-0.1,0.1
1.087492537313433,0.0,-0.1,0.1
1.0954888059701493,0.0,-0.1,0.1
1.1034850746268656,0.0,-0.1,0.1
1.1114813432835822,0.0,-0.1,0.1
1.1194776119402985,0.0,-0.1,0.1
1.127473880597015,0.0,-0.1,0.1
1.1354701492537314,0.0,-0.1,0.1
1.143466417910448,0.0,-0.1,0.1
1.1514626865671642,-0.04971297359357115,-0.1,0.1
1.1594589552238805,-0.2,-0.09929391504018384,0.0
1.167455223880597,-0.2,-0.08699196326061992,0.0
1.1754514925373134,-0.2,-0.07469001148105633,0.0
1.18344776119403,-0.2,-0.06238805970149241,0.0
1.1914440298507463,-0.2,-0.05008610792192883,0.0
1.1994402985074628,-0.2,-0.037784156142364904,0.0
1.2074365671641791,-0.2,-0.025482204362801325,0.0
1.2154328358208955,-0.2,-0.01318025258323774,0.0
1.223429104477612,-0.2,-0.0008783008036738205,0.0
1.2314253731343283,-0.1,0.04253731343282687,-0.1
1.2394216417910449,-0.08121103344039271,0.1,-0.09060551672019636
1.2474179104477612,-0.06096731532212354,0.1,-0.08048365766106177
1.2554141791044777,-0.040723597203853795,0.1,-0.0703617986019269
1.263410447761194,-0.020479879085584615,0.1,-0.06023993954279231
1.2714067164179106,-0.00023616096731488012,0.1,-0.05011808048365744
1.279402985074627,0.0200075571509543,0.1,-0.03999622142452285
1.2873992537313432,0.04025127526922348,0.1,-0.029874362365388263
1.2953955223880598,0.06049499338749323,0.1,-0.01975250330625339
1.303391791044776,0.0807387115057624,0.1,-0.009630644247118805
1.3113880597014926,0.0889125799573518,0.1,0.0
1.319384328358209,-0.4384328358209007,-0.1,0.01921641791045035
1.3273805970149255,-0.6,-0.10797574626865694,0.1
1.3353768656716418,-0.6,-0.11797108208955233,0.1
1.3433731343283584,-0.6,-0.127966417910448,0.1
1.3513694029850747,-0.6,-0.1379617537313434,0.1
1.359365671641791,-0.6,-0.1479570895522388,0.1
1.3673619402985075,-0.6,-0.15795242537313445,0.1
1.3753582089552239,-0.6,-0.16794776119402985,0.1
1.3833544776119404,-0.6,-0.1779430970149255,0.1
1.3913507462686567,-0.6,-0.1879384328358209,0.1
1.3993470149253733,-0.6,-0.19793376865671658,0.1
1.4073432835820896,-0.19552238805970107,-0.09850746268656703,-0.0014925373134329796
1.415339552238806,-0.16886815920398002,-0.08962271973466002,-0.010377280265339996
1.4233358208955225,-0.14221393034825824,-0.08073797678275274,-0.019262023217247258
1.4313320895522388,-0.11555970149253718,-0.07185323383084573,-0.028146766169154278
1.4393283582089553,-0.08890547263681539,-0.06296849087893847,-0.03703150912106154
1.4473246268656716,-0.06225124378109434,-0.054083747927031446,-0.04591625207296856
1.4553208955223882,-0.03559701492537254,-0.045199004975124184,-0.05480099502487582
1.4633171641791045,-0.008942786069651515,-0.036314262023217164,-0.06368573797678284
1.4713134328358208,0.017711442786069537,-0.02742951907131015,-0.07257048092868985
1.4793097014925374,0.04436567164179134,-0.01854477611940289,-0.08145522388059712
1.4873059701492537,0.07101990049751239,-0.009660033167495877,-0.09033996683250413
1.4953022388059702,0.09767412935323416,-0.0007752902155886143,-0.09922470978441139
1.5032985074626866,0.17298507462686558,0.0,-0.1
1.511294776119403,0.2,0.1,-0.1
1.5192910447761194,0.2,0.1,-0.1
1.527287313432836,0.2,0.1,-0.1
1.5352835820895523,0.2,0.1,-0.1
1.5432798507462686,0.2,0.1,-0.1
1.5512761194029852,0.2,0.1,-0.1
1.5592723880597015,0.2,0.1,-0.1
1.567268656716418,0.2,0.1,-0.1
1.5752649253731343,0.2,0.1,-0.1
1.5832611940298509,0.2,0.1,-0.1
1.5912574626865672,0.2,0.1,-0.1
1.5992537313432837,0.2,0.1,0.0
1.60725,0.2,0.1,0.0
1.6152462686567164,0.2,0.1,0.0
1.623242537313433,0.2,0.1,0.0
1.6312388059701493,0.2,0.1,0.0
1.6392350746268658,0.2,0.1,0.0
1.6472313432835821,0.2,0.1,0.0
1.6552276119402987,0.2,0.1,0.0
1.663223880597015,0.2,0.1,0.0
1.6712201492537313,0.2,0.1,0.0
1.6792164179104478,0.2,0.1,0.0
1.6872126865671642,0.2,0.1,0.0
1.6952089552238807,0.2,0.1,0.0
1.703205223880597,0.2,0.1,0.0
1.7112014925373136,0.2,0.1,0.0
1.71919776119403,0.2,0.1,0.0
1.7271940298507462,0.1,0.0,-0.1
1.7351902985074628,0.1,0.0,-0.1
1.743186567164179,0.1,0.0,-0.1
1.7511828358208956,0.1,0.0,-0.1
1.759179104477612,0.1,0.0,-0.1
1.7671753731343285,0.1,0.0,-0.1
1.7751716417910448,0.1,0.0,-0.1
1.7831679104477614,0.1,0.0,-0.1
1.7911641791044777,0.1,0.0,-0.1
1.799160447761194,0.1,0.0,-0.1
1.8071567164179105,0.1,0.0,-0.1
1.8151529850746269,0.1,0.0,-0.1
1.8231492537313434,0.1,0.0,-0.1
1.8311455223880597,0.1,0.0,-0.1
1.8391417910447763,0.1,0.0,-0.1
1.8471380597014926,0.03179933665008296,0.0,-0.1
1.8551343283582091,-0.1,-0.1,-0.1
1.8631305970149254,-0.1,-0.1,-0.1
1.8711268656716418,-0.1,-0.1,-0.1
1.8791231343283583,-0.1,-0.1,-0.1
1.8871194029850746,-0.1,-0.1,-0.1
1.8951156716417912,-0.1,-0.1,-0.1
1.9031119402985075,-0.1,-0.1,-0.1
1.911108208955224,-0.1,-0.1,-0.1
1.9191044776119404,-0.1,-0.1,-0.044776119402978286
1.9271007462686567,-0.1060305092186127,-0.0939694907813873,0.0
1.9350970149253732,-0.11778972783143114,-0.08221027216856887,0.0
1.9430932835820895,-0.12954894644424925,-0.07045105355575076,0.0
1.951089552238806,-0.1413081650570677,-0.05869183494293232,0.0
1.9590858208955224,-0.15306738366988581,-0.04693261633011421,0.0
1.967082089552239,-0.16482660228270424,-0.03517339771729577,0.0
1.9750783582089553,-0.17658582089552233,-0.02341417910447767,0.0
1.9830746268656716,-0.18834503950834047,-0.011654960491659552,0.0
1.9910708955223881,-0.2,0.0,0.0
1.9990671641791045,-0.09680503731343286,-0.1,-0.003194962686567148
2.007063432835821,-0.0884755907960198,-0.1,-0.011524409203980207
2.0150597014925373,-0.08014614427860697,-0.1,-0.019853855721393036
2.0230559701492536,-0.07181669776119415,-0.1,-0.028183302238805864
2.0310522388059704,-0.06348725124378085,-0.1,-0.036512748756219154
2.0390485074626867,-0.055157804726368026,-0.1,-0.04484219527363198
2.047044776119403,-0.046828358208955194,-0.1,-0.05317164179104481
2.0550410447761194,-0.03849891169154237,-0.1,-0.06150108830845764
2.0630373134328357,-0.030169465174129537,-0.1,-0.06983053482587047
2.0710335820895525,-0.021840018656716254,-0.1,-0.07815998134328375
2.079029850746269,-0.013510572139303428,-0.1,-0.08648942786069658
2.087026119402985,-0.005181125621890589,-0.1,-0.09481887437810942
2.0950223880597014,0.0,-0.1,-0.1
2.103018656716418,0.0,-0.1,-0.1
2.1110149253731345,0.0,-0.1,-0.1
2.119011194029851,0.0,-0.1,-0.1
2.127007462686567,0.0,-0.1,-0.1
2.1350037313432835,0.0,-0.1,-0.1
2.1430000000000002,0.0,-0.1,-0.1
2.1509962686567166,0.0,-0.1,-0.1
2.158992537313433,0.0,-0.1,-0.1
2.166988805970149,0.0,-0.1,-0.1
2.174985074626866,0.0,-0.1,-0.1
2.1829813432835823,0.0,-0.1,-0.1
2.1909776119402986,0.0,-0.1,-0.1
2.198973880597015,0.0,-0.1,-0.1
2.2069701492537313,0.0,-0.1,-0.1
2.214966417910448,0.0,-0.1,-0.1
2.2229626865671643,0.0,-0.1,-0.1
2.2309589552238807,0.0,-0.1,-0.1
2.238955223880597,0.0,-0.1,-0.1
2.2469514925373133,0.0,-0.1,-0.1
2.25494776119403,0.0,-0.1,-0.1
2.2629440298507464,0.0,-0.1,-0.1
2.2709402985074627,0.0,-0.1,-0.1
2.278936567164179,0.0,-0.1,-0.1
2.286932835820896,0.0,-0.1,-0.1
2.294929104477612,0.0,-0.1,-0.1
2.3029253731343284,0.0,-0.06728855721392918,-0.1
2.3109216417910448,0.0,-0.0006529850746265498,-0.1
2.318917910447761,0.0,0.0,-0.1
2.326914179104478,0.0,0.0,-0.1
2.334910447761194,0.0,0.0,-0.1
2.3429067164179105,0.0,0.0,-0.1
2.350902985074627,0.0,0.0,-0.1
2.3588992537313436,0.0,0.0,-0.1
2.36689552238806,0.0,0.0,-0.1
2.374891791044776,0.0,0.0,-0.1
2.3828880597014925,0.0,0.0,-0.1
2.390884328358209,0.0,0.0,-0.1
2.3988805970149256,0.0,0.0,-0.1
2.406876865671642,0.0,0.0,-0.1
2.4148731343283583,0.0,0.0,-0.1
2.4228694029850746,0.0,0.0,0.0
2.430865671641791,0.0,0.0,0.0
2.4388619402985077,0.0,0.0,0.0
2.446858208955224,0.0,0.0,0.0
2.4548544776119403,0.0,0.0,0.0
2.4628507462686566,0.0,0.0,0.0
2.4708470149253734,0.0,0.0,0.0
2.4788432835820897,0.0,0.0,0.0
2.486839552238806,0.0,0.0,0.0
2.4948358208955224,0.0,0.0,0.0
2.5028320895522387,0.0,0.0,0.0
2.5108283582089554,0.002481015972767932,0.0,0.0
2.5188246268656718,0.009495286724273484,0.0,0.0
2.526820895522388,0.016509557475779035,0.0,0.0
2.5348171641791044,0.02352382822728459,0.0,0.0
2.542813432835821,0.03053809897879053,0.0,0.0
2.5508097014925375,0.03755236973029608,0.0,0.0
2.558805970149254,0.04456664048180164,0.0,0.0
2.56680223880597,0.051580911233307186,0.0,0.0
2.5747985074626865,0.05859518198481274,0.0,0.0
2.5827947761194032,0.06560945273631869,0.0,0.0
2.5907910447761195,0.07262372348782424,0.0,0.0
2.598787313432836,0.07963799423932978,0.0,0.0
2.606783582089552,0.08665226499083534,0.0,0.0
2.614779850746269,0.09366653574234128,0.0,0.0
2.6227761194029853,0.061194029850735,0.0,0.0
2.6307723880597016,0.0,0.0,0.0
2.638768656716418,0.0,0.0,0.0
2.6467649253731342,0.0,0.0,0.0
2.654761194029851,0.0,0.0,0.0
2.6627574626865673,0.0,0.0,0.0
2.6707537313432836,0.0,0.0,0.0
2.67875,0.0,0.0,0.0
2.6867462686567167,0.0,0.0,0.0
2.694742537313433,0.0,0.0,0.0
2.7027388059701494,0.0,0.0,0.0
2.7107350746268657,0.0,0.0,0.0
2.718731343283582,0.0,0.0,0.0
2.726727611940299,0.1,0.0,0.07276119402988802
2.734723880597015,0.1,0.0,0.0988509831793411
2.7427201492537314,0.1,0.0,0.08615849324804538
2.7507164179104477,0.1,0.0,0.07346600331674967
2.758712686567164,0.1,0.0,0.060773513385453955
2.766708955223881,0.1,0.0,0.04808102345415753
2.774705223880597,0.1,0.0,0.03538853352286182
2.7827014925373135,0.1,0.0,0.0226960435915661
2.79069776119403,0.1,0.0,0.010003553660270392
2.7986940298507466,0.1,0.0,0.0
2.806690298507463,0.004078520441272035,0.0,0.004078520441272035
2.814686567164179,0.011031797534068851,0.0,0.011031797534068851
2.8226828358208955,0.017985074626865664,0.0,0.017985074626865664
2.830679104477612,0.02493835171966248,0.0,0.02493835171966248
2.8386753731343286,0.03189162881245968,0.0,0.03189162881245968
2.846671641791045,0.038844905905256494,0.0,0.038844905905256494
2.8546679104477612,0.04579818299805331,0.0,0.04579818299805331
2.8626641791044776,0.052751460090850126,0.0,0.052751460090850126
2.8706604477611943,0.05970473718364733,0.0,0.05970473718364733
2.8786567164179107,0.06665801427644415,0.0,0.06665801427644415
2.886652985074627,0.07361129136924095,0.0,0.07361129136924095
2.8946492537313433,0.08056456846203777,0.0,0.08056456846203777
2.9026455223880596,0.08751784555483459,0.0,0.08751784555483459
2.9106417910447764,0.09447112264763179,0.0,0.09447112264763179
2.9186380597014927,0.1819029850746353,0.0,0.018097014925364724
2.926634328358209,0.3,0.0,0.1
2.9346305970149253,0.3,0.0,0.1
2.9426268656716417,0.3,0.0,0.1
2.9506231343283584,0.3,0.0,0.1
2.9586194029850748,0.3,0.0,0.1
2.966615671641791,0.3,0.0,0.1
2.9746119402985074,0.3,0.0,0.1
2.982608208955224,0.3,0.0,0.1
2.9906044776119405,0.3,0.0,0.1
2.998600746268657,0.3,0.0,0.1
3.006597014925373,0.1771855010660971,0.0,0.1
3.0145932835820894,0.07406716417910511,0.0,0.1
3.022589552238806,0.0,0.0,0.1
3.0305858208955225,0.0,0.0,0.0920149253731343
3.038582089552239,0.0,0.0,0.08359780047132762
3.046578358208955,0.0,0.0,0.07518067556952095
3.054574626865672,0.0,0.0,0.0667635506677138
3.0625708955223883,0.0,0.0,0.05834642576590713
3.0705671641791046,0.0,0.0,0.049929300864100454
3.078563432835821,0.0,0.0,0.04151217596229378
3.0865597014925372,0.0,0.0,0.0330950510604871
3.094555970149254,0.0,0.0,0.02467792615867996
3.1025522388059703,0.0,0.0,0.016260801256873278
3.1105485074626866,0.0,0.0,0.007843676355066609
3.118544776119403,0.0,0.0,0.0
3.1265410447761197,0.10597505891594715,0.0,0.0
3.134537313432836,0.11649646504320546,0.0,0.0
3.1425335820895524,0.12701787117046376,0.0,0.0
3.1505298507462687,0.13753927729772208,0.0,0.0
3.158526119402985,0.14806068342498038,0.0,0.0
3.1665223880597018,0.15858208955223926,0.0,0.0
3.174518656716418,0.1691034956794976,0.0,0.0
3.1825149253731344,0.1796249018067559,0.0,0.0
3.1905111940298507,0.1901463079340142,0.0,0.0
3.1985074626865675,0.183084577114416,0.0,0.0
3.206503731343284,0.0,0.0,0.0
3.2145,0.0,0.0,0.0
3.2224962686567165,0.0,0.0,0.0
3.2304925373134328,0.0,0.0,0.0
3.2384888059701495,0.0,0.0,0.0
3.246485074626866,0.0,0.0,0.0
3.254481343283582,0.0,0.0,0.0
3.2624776119402985,0.0,0.0,0.0
3.270473880597015,0.0,0.0,0.0
3.2784701492537316,0.0,0.0,0.0
3.286466417910448,0.0,0.0,0.0
3.2944626865671642,0.0,0.0,0.0
3.3024589552238806,0.0,0.0,0.0
3.3104552238805973,0.0,0.0,0.0
3.3184514925373136,-0.1,0.0,0.0
3.32644776119403,-0.1,0.0,0.0
3.3344440298507463,-0.1,0.0,0.0
3.3424402985074626,-0.1,0.0,0.0
3.3504365671641794,-0.1,0.0,0.0
3.3584328358208957,-0.1,0.0,0.0
3.366429104477612,-0.1,0.0,0.0
3.3744253731343283,-0.1,0.0,0.0
3.382421641791045,-0.1,0.0,0.0
3.3904179104477614,-0.1,0.0,0.0
3.3984141791044777,-0.1,0.0,0.0
3.406410447761194,-0.1,0.0,0.0
3.4144067164179104,-0.1,0.0,0.0
3.422402985074627,-0.1,0.0,0.0
3.4303992537313435,-0.1,0.0,0.0
3.43839552238806,-0.017827529021557514,0.0,-0.08217247097844249
3.446391791044776,0.0,0.0,-0.1
3.4543880597014924,-0.0022032693674485394,-0.0022032693674485394,-0.1
3.462384328358209,-0.014895759298744959,-0.014895759298744959,-0.1
3.4703805970149255,-0.027588249230040673,-0.027588249230040673,-0.1
3.478376865671642,-0.04028073916133639,-0.04028073916133639,-0.1
3.486373134328358,-0.05297322909263211,-0.05297322909263211,-0.1
3.494369402985075,-0.06566571902392852,-0.06566571902392852,-0.1
3.5023656716417912,-0.07835820895522425,-0.07835820895522425,-0.1
3.5103619402985076,-0.09105069888651995,-0.09105069888651995,-0.1
3.518358208955224,-0.2,-0.1,-0.1
3.52635447761194,-0.19922092832540572,-0.1,-0.1
3.534350746268657,-0.18164671149745681,-0.1,-0.1
3.5423470149253733,-0.1640724946695089,-0.1,-0.1
3.5503432835820896,-0.14649827784156097,-0.1,-0.1
3.558339552238806,-0.12892406101361303,-0.1,-0.1
3.5663358208955227,-0.11134984418566415,-0.1,-0.1
3.574332089552239,-0.09377562735771623,-0.1,-0.1
3.5823283582089553,-0.07620141052976831,-0.1,-0.1
3.5903246268656717,-0.0586271937018204,-0.1,-0.1
3.598320895522388,-0.041052976873872465,-0.1,-0.1
3.6063171641791048,-0.023478760045923586,-0.1,-0.1
3.614313432835821,-0.00590454321797565,-0.1,-0.1
3.6223097014925374,0.1,0.0,-0.1
3.6303059701492537,0.1,0.0,-0.1
3.6383022388059705,0.1,0.0,-0.1
3.646298507462687,0.1,0.0,-0.1
3.654294776119403,0.1,0.0,-0.1
3.6622910447761194,0.1,0.0,-0.1
3.6702873134328358,0.1,0.0,-0.1
3.6782835820895525,0.1,0.0,-0.1
3.686279850746269,0.1,0.0,-0.1
3.694276119402985,0.1,0.0,-0.1
3.7022723880597015,0.1,0.0,-0.1
3.7102686567164183,0.1,0.0,-0.1
3.7182649253731346,0.1,0.0,-0.1
3.726261194029851,-0.1,-0.03694029850745259,-0.1
3.734257462686567,-0.1,-0.0062564333504890905,-0.1
3.7422537313432835,-0.1,-0.013149768399382466,-0.1
3.7502500000000003,-0.1,-0.02004310344827622,-0.1
3.7582462686567166,-0.1,-0.026936438497169597,-0.1
3.766242537313433,-0.1,-0.03382977354606297,-0.1
3.7742388059701493,-0.1,-0.04072310859495634,-0.1
3.7822350746268656,-0.1,-0.04761644364384972,-0.1
3.7902313432835824,-0.1,-0.054509778692743475,-0.1
3.7982276119402987,-0.1,-0.06140311374163685,-0.1
3.806223880597015,-0.1,-0.06829644879053022,-0.1
3.8142201492537313,-0.1,-0.0751897838394236,-0.1
3.822216417910448,-0.1,-0.08208311888831736,-0.1
3.8302126865671644,-0.1,-0.08897645393721074,-0.1
3.8382089552238807,-0.1,-0.09586978898610411,-0.1
3.846205223880597,-0.07086160108548147,-0.07086160108548147,-0.1
3.8542014925373134,0.020149253731329697,0.0,-0.1
3.86219776119403,0.0950034981343279,0.0,0.0
3.8701940298507465,0.08250932835820866,0.0,0.0
3.8781902985074628,0.07001515858208943,0.0,0.0
3.886186567164179,0.05752098880597018,0.0,0.0
3.894182835820896,0.04502681902985025,0.0,0.0
3.902179104477612,0.032532649253731005,0.0,0.0
3.9101753731343285,0.020038479477611768,0.0,0.0
3.918171641791045,0.00754430970149253,0.0,0.0
3.926167910447761,0.0,-0.1,0.0
3.934164179104478,0.0,-0.1,0.0
3.9421604477611942,0.0,-0.1,0.0
3.9501567164179106,0.0,-0.1,0.0
3.958152985074627,0.0,-0.1,0.0
3.966149253731343,0.0,-0.1,0.0
3.97414552238806,0.0,-0.1,0.0
3.9821417910447763,0.0,-0.1,0.0
3.9901380597014926,0.0,-0.1,0.0
3.998134328358209,0.0,-0.1,0.0
4.006130597014925,0.0,-0.1,0.0
4.014126865671642,0.0,-0.1,0.0
4.022123134328359,0.2671175373134657,-0.010960820895511411,0.0
4.030119402985075,0.8,-0.19596136962247565,-0.00403863037752435
4.038115671641791,0.8,-0.18812189054726317,-0.01187810945273684
4.046111940298507,0.8,-0.18028241147205154,-0.01971758852794846
4.054108208955224,0.8,-0.17244293239683905,-0.027557067603160953
4.062104477611941,0.8,-0.16460345332162657,-0.03539654667837344
4.070100746268657,0.8,-0.15676397424641494,-0.04323602575358507
4.0780970149253735,0.8,-0.14892449517120246,-0.05107550482879756
4.086093283582089,0.8,-0.14108501609599083,-0.05891498390400918
4.094089552238806,0.8,-0.13324553702077835,-0.06675446297922166
4.102085820895523,0.8,-0.12540605794556586,-0.07459394205443416
4.110082089552239,0.8,-0.11756657887035422,-0.08243342112964579
4.1180783582089555,0.8,-0.10972709979514174,-0.09027290020485827
4.126074626865671,0.8,-0.10188762071993011,-0.0981123792800699
4.134070895522388,0.6,0.0,-0.0998756218905477
4.142067164179105,0.6,0.0,-0.0858470803875357
4.150063432835821,0.6,0.0,-0.07181853888452527
4.158059701492538,0.6,0.0,-0.057789997381513275
4.166055970149253,0.6,0.0,-0.04376145587850284
4.17405223880597,0.6,0.0,-0.029732914375490846
4.182048507462687,0.6,0.0,-0.015704372872478847
4.190044776119403,0.6,0.0,-0.0016758313694684168
4.19804104477612,0.3439620081411019,0.0,0.06400949796472453
4.206037313432836,-0.2674958540630282,-0.1,0.1
4.214033582089552,-0.4,-0.09798655238658167,0.10201344761341834
4.222029850746269,-0.4,-0.09006945470666408,0.10993054529333593
4.230026119402985,-0.4,-0.08215235702674738,0.11784764297325263
4.238022388059702,-0.4,-0.07423525934682978,0.12576474065317023
4.246018656716418,-0.4,-0.06631816166691219,0.13368183833308783
4.254014925373134,-0.4,-0.05840106398699548,0.14159893601300452
4.262011194029851,-0.4,-0.05048396630707789,0.14951603369292213
4.270007462686567,-0.4,-0.04256686862716118,0.15743313137283882
4.278003731343284,-0.4,-0.034649770947243586,0.16535022905275643
4.2860000000000005,-0.4,-0.026732673267325993,0.17326732673267403
4.293996268656716,-0.4,-0.01881557558740929,0.18118442441259072
4.301992537313433,-0.4,-0.010898477907491697,0.1891015220925083
4.309988805970149,-0.4,-0.0029813802275749784,0.19701861977242502
4.317985074626866,-0.1,-0.1,0.1
4.3259813432835825,-0.0850816013390974,-0.1,0.0925408006695487
4.333977611940298,-0.07013530478448832,-0.1,0.08506765239224416
4.341973880597015,-0.055189008229877566,-0.1,0.07759450411493879
4.349970149253732,-0.040242711675266815,-0.1,0.0701213558376334
4.357966417910448,-0.025296415120657736,-0.1,0.06264820756032888
4.365962686567165,-0.010350118566046979,-0.1,0.05517505928302349
4.3739589552238805,0.0045961779885621,-0.1,0.04770191100571895
4.381955223880597,0.019542474543172844,-0.1,0.04022876272841358
4.389951492537314,0.03448877109778359,-0.1,0.03275561445110821
4.39794776119403,0.049435067652392695,-0.1,0.025282466173803655
4.405944029850747,0.06438136420700344,-0.1,0.017809317896498283
4.4139402985074625,0.07932766076161252,-0.1,0.010336169619193744
4.421936567164179,0.09427395731622326,-0.1,0.002863021341888372
4.429932835820896,0.3,-0.19776119402987727,0.09776119402987726
4.437929104477612,0.10518853102906536,-0.30518853102906535,0.30518853102906535
4.445925373134329,0.1136056559308725,-0.3136056559308725,0.3136056559308725
4.4539216417910446,0.12202278083267872,-0.3220227808326787,0.3220227808326787
4.461917910447761,0.13043990573448586,-0.33043990573448584,0.33043990573448584
4.469914179104478,0.138857030636293,-0.338857030636293,0.338857030636293
4.477910447761194,0.14727415553809922,-0.3472741555380992,0.3472741555380992
4.485906716417911,0.15569128043990635,-0.35569128043990633,0.35569128043990633
4.493902985074627,0.16410840534171256,-0.36410840534171257,0.36410840534171257
4.501899253731343,0.17252553024351971,-0.3725255302435197,0.3725255302435197
4.50989552238806,0.18094265514532687,-0.3809426551453269,0.3809426551453269
4.517891791044776,0.18935978004713305,-0.38935978004713306,0.38935978004713306
4.525888059701493,0.1977769049489402,-0.3977769049489402,0.3977769049489402
4.5338843283582095,-0.8884328358209611,-1.1648187633262634,-0.1412046908315659
4.541880597014925,-0.8938847429519095,-1.5036691542288543,-0.004892205638472463
4.549876865671642,-0.8383550995024875,-1.5369869402985075,-0.04931592039801001
4.557873134328358,-0.7828254560530717,-1.5703047263681569,-0.09373963515754262
4.565869402985075,-0.7272958126036498,-1.60362251243781,-0.13816334991708018
4.573865671641792,-0.6717661691542278,-1.6369402985074633,-0.18258706467661773
4.5818619402985075,-0.6162365257048121,-1.6702580845771127,-0.22701077943615033
4.589858208955224,-0.5607068822553902,-1.7035758706467659,-0.2714344941956879
4.59785447761194,-0.5051772388059744,-1.7368936567164153,-0.3158582089552205
4.605850746268657,-0.44964759535655247,-1.7702114427860685,-0.36028192371475803
4.613847014925374,-0.2789978678038227,-1.8726012793177065,-0.37579957356076454
4.6218432835820895,0.3783582089554178,-1.8156716417910834,0.5108208955222912
4.629839552238806,-0.18560094265514512,-1.7215985860172822,0.8
4.637835820895522,-0.1687666928515327,-1.746849960722701,0.8
4.645832089552239,-0.15193244304791842,-1.7721013354281223,0.8
4.653828358208956,-0.1350981932443041,-1.7973527101335438,0.8
4.661824626865672,-0.1182639434406917,-1.8226040848389624,0.8
4.669820895522388,-0.10142969363707742,-1.847855459544384,0.8
4.677817164179104,-0.084595443833465,-1.8731068342498025,0.8
4.685813432835821,-0.0677611940298507,-1.898358208955224,0.8
4.693809701492538,-0.05092694422623642,-1.9236095836606453,0.8
4.701805970149254,-0.034092694422624,-1.948860958366064,0.8
4.70980223880597,-0.017258444619009716,-1.9741123330714854,0.8
4.717798507462687,-0.00042419481539543447,-1.9993637077769069,0.8
4.725794776119403,-0.08820895522387151,-1.6558955223880643,2.2117910447761284
4.73379104477612,0.04454649827784624,-1.7,2.3063637854682635
4.741787313432836,0.10605625717566056,-1.7,2.315150893882237
4.749783582089552,0.16756601607348168,-1.7,2.3239380022962117
4.757779850746269,0.22907577497130283,-1.7,2.332725110710186
4.765776119402985,0.2905855338691171,-1.7,2.3415122191241595
4.773772388059702,0.35209529276693824,-1.7,2.350299327538134
4.781768656716418,0.4136050516647526,-1.7,2.3590864359521073
4.7897649253731345,0.4751148105625737,-1.7,2.367873544366082
4.797761194029851,0.5366245694603948,-1.7,2.3766606527800564
4.805757462686567,0.5981343283582091,-1.7,2.3854477611940297
4.813753731343284,0.6596440872560303,-1.7,2.3942348696080042
4.82175,0.9062499999999625,-1.5625000000000249,2.262500000000025
4.8297462686567165,1.0884535655058156,-1.6791873963515727,1.2895936981757865
4.837742537313433,1.2772543532338503,-1.6347636815920352,1.2673818407960176
4.845738805970149,1.4660551409618638,-1.5903399668325027,1.2451699834162513
4.853735074626866,1.6548559286898983,-1.545916252072965,1.2229581260364826
4.861731343283582,1.843656716417912,-1.5014925373134325,1.2007462686567163
4.869727611940299,2.0324575041459467,-1.457068822553895,1.1785344112769476
4.877723880597015,2.221258291873981,-1.4126451077943574,1.1563225538971789
4.885720149253731,2.4100590796019947,-1.3682213930348248,1.1341106965174124
4.893716417910448,2.598859867330029,-1.3237976782752874,1.1118988391376436
4.901712686567165,3.5425373134330043,-2.0218283582087446,0.8
4.909708955223881,3.8745439469320084,-1.8490878938640174,0.8745439469320088
4.917705223880597,3.858507462686564,-1.931119402985077,0.8948134328358205
4.925701492537313,3.8003527815468123,-1.9747354138398907,0.8875440976933515
4.93369776119403,3.7421981004070544,-2.018351424694709,0.8802747625508818
4.941694029850747,3.684043419267296,-2.061967435549528,0.873005427408412
4.949690298507463,3.6258887381275446,-2.1055834464043417,0.8657360922659431
4.957686567164179,3.5677340569877862,-2.14919945725916,0.8584667571234733
4.965682835820895,3.5095793758480345,-2.1928154681139738,0.8511974219810043
4.973679104477612,3.4514246947082765,-2.2364314789687927,0.8439280868385346
4.981675373134329,3.3932700135685185,-2.280047489823611,0.8366587516960649
4.989671641791045,3.335115332428767,-2.3236635006784248,0.8293894165535959
4.9976679104477615,3.2769606512890084,-2.3672795115332437,0.8221200814111261
5.005664179104477,3.218805970149257,-2.4108955223880573,0.8148507462686572
5.013660447761194,3.1606512890094987,-2.4545115332428757,0.8075814111261874
5.021656716417911,3.1024966078697407,-2.4981275440976947,0.8003120759837177
5.029652985074627,0.6970846317861246,-3.829153682138754,1.0825077907167475
5.0376492537313435,0.6882975233721501,-3.9170247662784985,1.0297851402329008
5.04564552238806,0.6795104149581757,-4.004895850418243,0.9770624897490542
5.053641791044776,0.6707233065442022,-4.092766934557978,0.9243398392652133
5.061638059701493,0.6619361981302277,-4.180638018697723,0.8716171887813666
5.069634328358209,0.6531490897162543,-4.268509102837457,0.8188945382975258
5.077630597014926,0.6443619813022798,-4.356380186977201,0.7661718878136792
5.085626865671642,0.6355748728883054,-4.444251271116946,0.7134492373298325
5.093623134328358,0.6267877644743319,-4.53212235525668,0.6607265868459915
5.101619402985075,0.6180006560603575,-4.619993439396425,0.6080039363621448
5.109615671641791,0.609213547646384,-4.70786452353616,0.555281285878304
5.117611940298508,0.6004264392324096,-4.795735607675905,0.5025586353944573
5.125608208955224,-2.0226368159212944,-4.281467661691041,0.9824626865674013
5.13360447761194,-3.2356486796785315,-1.9455223880596983,0.7435706084959826
5.141600746268657,-3.3147326554043013,-1.6028251599146948,0.8402288010497014
5.149597014925373,-3.3938166311300626,-1.2601279317697294,0.9368869936034097
5.15759328358209,-3.4729006068558324,-0.9174307036247258,1.0335451861571285
5.1655895522388064,-3.5519845825816025,-0.5747334754797224,1.1302033787108474
5.173585820895522,-3.631068558307364,-0.2320362473347568,1.2268615712645556
5.181582089552239,-3.7101525340331336,0.11066098081024656,1.3235197638182745
5.189578358208955,-3.789236509758895,0.45335820895521195,1.4201779563719827
5.197574626865672,-3.8683204854846647,0.7960554371002155,1.5168361489257018
5.2055708955223885,-3.947404461210435,1.1387526652452191,1.6134943414794207
5.213567164179104,-4.026488436936196,1.4814498933901845,1.710152534033129
5.221563432835821,-4.297201492537391,2.377518656716644,2.4479477611942837
5.229559701492538,4.7126567164178645,9.72375373134319,6.217335820895478
5.237555970149254,4.264865671641777,8.820175373134301,5.793533582089539
5.2455522388059705,3.817074626865641,7.916597014925312,5.369731343283553
5.253548507462686,3.369283582089554,7.013018656716422,4.945929104477614
5.261544776119403,2.9214925373134175,6.109440298507433,4.522126865671628
5.26954104477612,2.4737014925372813,5.205861940298443,4.098324626865642
5.277537313432836,2.0259104477611944,4.3022835820895535,3.674522388059702
5.285533582089553,1.5781194029850583,3.3987052238805644,3.250720149253716
5.2935298507462685,1.1303283582089714,2.4951268656716747,2.8269179104477766
5.301526119402985,0.6825373134328352,1.5915485074626847,2.4031156716417903
5.309522388059702,0.23474626865669812,0.6879701492536956,1.979313432835804
5.317518656716418,-0.21304477611938832,-0.21560820895519406,1.5555111940298652
5.325514925373135,-0.6608358208955245,-1.1191865671641832,1.1317089552238784
5.3335111940298505,-3.656506529850908,-6.864575559701551,-6.2941697761193796
5.341507462686567,-1.6074626865672386,-6.114925373134355,-6.594029850746257
5.349503731343284,4.06473880597013,1.1985607675906176,0.6870469083155579
5.3575,3.505000000000013,1.1757142857142862,0.4814285714285764
5.365496268656717,2.945261194029835,1.1528678038379525,0.27581023454157216
5.3734925373134335,2.3855223880596568,1.1300213219616186,0.07019189765456779
5.381488805970149,1.8257835820895405,1.1071748400852874,-0.1354264392324136
5.389485074626866,1.2660447761193625,1.0843283582089536,-0.34104477611941797
5.397481343283582,0.7063059701492462,1.0614818763326224,-0.5466631130063995
5.405477611940299,0.1465671641790678,1.0386353944562885,-0.7522814498934036
5.4134738805970155,-0.4131716417911102,1.0157889125799546,-0.957899786780408
5.421470149253731,0.31156716417926367,0.6706467661691071,-1.635199004975201
5.429466417910448,0.9820771144278552,3.7918532338308433,4.022810945273639
5.437462686567164,0.8843449419568832,3.7474295190713103,4.147197346600331
5.445458955223881,0.7866127694859003,3.703005804311773,4.271583747927036
5.453455223880598,0.6888805970149174,3.658582089552235,4.395970149253742
5.461451492537313,0.5911484245439454,3.6141583747927024,4.520356550580433
5.46944776119403,0.4934162520729626,3.5697346600331645,4.644742951907139
5.477444029850746,0.3956840796019906,3.525310945273632,4.76912935323383
5.485440298507463,0.2979519071310077,3.480887230514094,4.893515754560536
5.49343656716418,0.20021973466002485,3.4364635157545567,5.017902155887241
5.5014328358208955,0.10248756218905286,3.392039800995024,5.1422885572139325
5.509429104477612,0.004755389718070102,3.3476160862354862,5.266674958540638
5.517425373134328,-0.092976782752902,3.3031923714759537,5.391061359867329
5.525421641791045,1.4835009733939095,2.000611075059485,2.4024443002379394
5.533417910447762,1.1706035042180358,2.012199870214147,2.448799480856587
5.5414141791044775,0.8577060350421969,2.0237886653688077,2.49515466147523
5.549410447761194,0.5448085658663233,2.0353774605234696,2.5415098420938778
5.557406716417911,0.23191109669044963,2.0469662556781314,2.587865022712526
5.565402985074627,-0.0809863724853892,2.0585550508327923,2.634220203331169
5.573399253731344,-0.3938838416612629,2.070143845987454,2.6805753839498165
5.58139552238806,-0.7067813108371017,2.081732641142115,2.7269305645684594
5.589391791044776,-1.0196787800129754,2.093321436296777,2.773285745187107
5.597388059701493,-0.4582089552234576,1.7537313432835675,3.3149253731342703
5.605384328358209,-1.765747434701492,0.8102757695895524,1.938345382462686
5.613380597014926,-1.7032765858208925,0.8290170242537324,1.8258978544776063
5.621376865671642,-1.6408057369402997,0.8477582789179101,1.7134503264925396
5.629373134328358,-1.5783348880597001,0.86649953358209,1.60100279850746
5.637369402985075,-1.5158640391791005,0.88524078824627,1.4885552705223808
5.645365671641791,-1.4533931902985078,0.9039820429104477,1.3761077425373136
5.653361940298508,-1.390922341417908,0.9227232975746277,1.2636602145522344
5.661358208955224,-1.3284514925373152,0.9414645522388054,1.1512126865671675
5.6693544776119404,-1.2659806436567156,0.9602058069029854,1.038765158582088
5.677350746268657,-1.203509794776116,0.9789470615671653,0.9263176305970087
5.685347014925373,-1.1410389458955232,0.9976883162313431,0.8138701026119417
5.69334328358209,-1.0785680970149234,1.016429570895523,0.7014225746268623
5.701339552238806,-1.0160972481343307,1.035170825559701,0.5889750466417953
5.7093358208955225,-0.9536263992537312,1.0539120802238808,0.47652751865671594
5.717332089552239,-0.8911555503731314,1.0726533348880607,0.36407999067163654
5.725328358208955,-0.8286847014925387,1.0913945895522386,0.2516324626865696
5.733324626865672,1.8350746268655884,0.7062810945273286,-1.0808043117744934
5.741320895522389,0.2358208955222172,0.03992537313425726,-1.7027363184080266
5.7493171641791045,-1.2954690831556446,-0.5990938166311289,-2.2981876332622577
5.757313432835821,-1.181236673773977,-0.5762473347547954,-2.2524946695095904
5.765309701492537,-1.067004264392322,-0.5534008528784644,-2.2068017057569285
5.773305970149254,-0.9527718550106545,-0.5305543710021309,-2.1611087420042616
5.781302238805971,-0.838539445628987,-0.5077078891257973,-2.1154157782515948
5.789298507462687,-0.724307036247332,-0.4848614072494664,-2.069722814498933
5.797294776119403,-0.6100746268656644,-0.4620149253731329,-2.0240298507462655
5.805291044776119,-0.4958422174840095,-0.4391684434968019,-1.9783368869936035
5.813287313432836,-0.3816098081023418,-0.4163219616204684,-1.9326439232409367
5.821283582089553,1.798507462687059,-0.07164179104470586,-1.428358208955294
5.829279850746269,0.7976001571091909,0.20239984289080917,0.014399057344854893
5.837276119402985,0.7891830322073837,0.2108169677926163,0.06490180675569775
5.845272388059701,0.7807659073055775,0.2192340926944225,0.115404556166535
5.853268656716418,0.7723487824037704,0.22765121759622964,0.16590730557737784
5.861264925373135,0.7639316575019632,0.2360683424980368,0.21641005498822072
5.869261194029851,0.755514532600157,0.244485467399843,0.26691280439905796
5.8772574626865675,0.7470974076983499,0.25290259230165013,0.31741555380990083
5.885253731343283,0.7386802827965436,0.26131971720345637,0.36791830322073804
5.89325,0.7302631578947365,0.2697368421052635,0.4184210526315809
5.901246268656717,0.7218460329929294,0.2781539670070706,0.4689238020424238
5.909242537313433,0.7134289080911231,0.28657109190887686,0.519426551453261
5.9172388059701495,0.705011783189316,0.294988216810684,0.5699293008641039
5.925235074626866,-0.948773987206719,0.19578891257998576,0.8277185501066476
5.933231343283582,1.0074378109452737,0.9,0.7900829187396351
5.941227611940299,1.0340920398009963,0.9,0.754543946932005
5.949223880597015,1.060746268656716,0.9,0.7190049751243789
5.957220149253732,1.0874004975124385,0.9,0.6834660033167487
5.965216417910448,1.114054726368161,0.9,0.6479270315091186
5.973212686567164,1.1407089552238807,0.9,0.6123880597014923
5.981208955223881,1.1673631840796033,0.9,0.5768490878938622
5.989205223880597,1.194017412935323,0.9,0.5413101160862361
5.997201492537314,1.2206716417910455,0.9,0.5057711442786059
6.00519776119403,1.2473258706467683,0.9,0.4702321724709759
6.013194029850746,1.273980099502488,0.9,0.43469320066334965
6.021190298507463,1.2746268656715871,0.874626865671587,0.37462686567158704
6.029186567164179,1.1222814498933904,0.5740938166311301,0.22228144989339044
6.037182835820896,0.3332526198793301,0.7332526198793301,0.4
6.045179104477612,0.2056525881232107,0.6056525881232107,0.4
6.053175373134328,0.07805255636710545,0.4780525563671055,0.4
6.061171641791045,-0.049547475389013884,0.35045252461098614,0.4
6.069167910447762,-0.17714750714513328,0.22285249285486675,0.4
6.077164179104478,-0.3047475389012385,0.09525246109876151,0.4
6.0851604477611945,-0.43234757065735785,-0.03234757065735783,0.4
6.09315671641791,-0.5599476024134631,-0.15994760241346306,0.4
6.101152985074627,-0.6875476341695824,-0.2875476341695824,0.4
6.109149253731344,-0.8151476659257019,-0.41514766592570185,0.4
6.11714552238806,-0.9427476976818071,-0.5427476976818071,0.4
6.1251417910447765,-1.0703477294379264,-0.6703477294379263,0.4
6.133138059701492,0.04084838963076287,-0.11887274155538557,0.27295758051846186
6.141134328358209,0.8825608798114692,0.007384131971720415,0.23087195600942656
6.149130597014926,0.8981861525704736,0.1,0.20018138474295266
6.157126865671642,0.787126865671642,0.1,0.2112873134328358
6.165123134328359,0.6760675787727982,0.1,0.22239324212272019
6.1731194029850744,0.5650082918739667,0.1,0.23349917081260335
6.181115671641791,0.4539490049751228,0.1,0.2446050995024877
6.189111940298508,0.3428897180762789,0.1,0.2557110281923721
6.197108208955224,0.2318304311774474,0.1,0.26681695688225526
6.205104477611941,0.12077114427860358,0.1,0.2779228855721396
6.2131007462686565,0.009711857379771982,0.1,0.28902881426202276
6.221097014925373,-0.1291044776119552,0.1,0.3048507462686592
6.22909328358209,1.2,0.0,0.23813432835819778
6.237089552238806,1.1048507462686559,-0.019029850746268822,0.2
6.245085820895523,0.9799090485074565,-0.044018190298508696,0.2
6.253082089552239,0.8549673507462572,-0.06900652985074857,0.2
6.261078358208955,0.7300256529850717,-0.09399486940298565,0.2
6.269074626865672,0.6050839552238724,-0.11898320895522553,0.2
6.277070895522388,0.4801422574626869,-0.14397154850746263,0.2
6.285067164179105,0.35520055970148756,-0.1689598880597025,0.2
6.2930634328358215,0.23025886194028822,-0.19394822761194236,0.2
6.301059701492537,1.299642811583111,0.3998979461666031,-0.49994897308330155
6.309055970149254,1.2518018879959165,0.38622911085597617,-0.49311455542798804
6.31705223880597,1.2039609644087275,0.3725602755453507,-0.48628013777267537
6.325048507462687,1.156120040821533,0.35889144023472375,-0.47944572011736186
6.3330447761194035,1.1082791172343387,0.34522260492409684,-0.4726113024620484
6.341041044776119,1.0604381936471499,0.3315537696134714,-0.4657768848067357
6.349037313432836,1.0125972700599555,0.3178849343028444,-0.45894246715142223
6.357033582089552,0.9647563464727664,0.304216098992219,-0.4521080494961095
6.365029850746269,0.916915422885572,0.29054726368159206,-0.44527363184079605
6.373026119402986,0.8690744992983778,0.2768784283709651,-0.43843921418548254
6.3810223880597015,0.8212335757111888,0.26320959306033964,-0.4316047965301698
6.389018656716418,0.7733926521239944,0.2495407577497127,-0.42477037887485636
6.397014925373135,0.7255517285368002,0.23587192243908578,-0.4179359612195429
6.405011194029851,0.6777108049496111,0.22220308712846035,-0.4111015435642302
6.413007462686568,0.6298698813624167,0.2085342518178334,-0.4042671259089167
6.4210037313432835,-1.7018656716419172,-0.1,-0.0996268656716166
6.429,-2.1374999999999953,-0.13125000000000248,-0.0062500000000004965
6.436996268656717,-2.0661047441364526,-0.1669476279317737,-0.013389525586354745
6.444992537313433,-1.9947094882729182,-0.20264525586354099,-0.0205290511727082
6.45298880597015,-1.9233142324093757,-0.23834288379531224,-0.02766857675906245
6.4609850746268656,-1.851918976545841,-0.2740405117270795,-0.034808102345415905
6.468981343283582,-1.7805237206822986,-0.3097381396588508,-0.041947627931770155
6.476977611940299,-1.7091284648187561,-0.345435767590622,-0.049087153518124406
6.484973880597015,-1.6377332089552215,-0.38113339552238923,-0.05622667910447786
6.492970149253732,-1.566337953091679,-0.41683102345416045,-0.06336620469083211
6.500966417910448,-1.4949426972281443,-0.4525286513859278,-0.07050573027718557
6.508962686567164,-1.4235474413646019,-0.488226279317699,-0.0776452558635398
6.516958955223881,-1.3521521855010592,-0.5239239072494702,-0.08478478144989406
6.524955223880597,-1.2807569296375247,-0.5596215351812375,-0.09192430703624752
6.532951492537314,-1.2093616737739823,-0.5953191631130088,-0.09906383262260177
6.54094776119403,-0.5349389416553639,-0.4550203527815454,-0.34497964721845464
6.548944029850746,-0.9187033582090045,-0.4,-0.35139925373133235
6.556940298507463,-1.2119402985074361,-0.30298507462685903,-0.00597014925371811
6.564936567164179,-1.174398170438133,-0.274398170438133,0.0
6.572932835820896,-1.1486037554164659,-0.24860375541646582,0.0
6.580929104477613,-1.1228093403947985,-0.22280934039479858,0.0
6.5889253731343285,-1.0970149253731343,-0.1970149253731342,0.0
6.596921641791045,-1.071220510351467,-0.17122051035146696,0.0
6.604917910447761,-1.0454260953298027,-0.1454260953298026,0.0
6.612914179104478,-1.0196316803081353,-0.11963168030813537,0.0
6.620910447761195,-0.8091044776119456,-0.1,-0.11820895522389105
6.6289067164179105,-0.889067164179106,-0.1,-0.278134328358212
6.636902985074627,-0.923628843733145,-0.09409278906671374,-0.19409278906671376
6.644899253731343,-0.962165078223342,-0.08445873044416452,-0.18445873044416453
6.65289552238806,-1.0007013127135431,-0.07482467182161422,-0.1748246718216142
6.660891791044777,-1.0392375472037443,-0.06519061319906391,-0.16519061319906392
6.668888059701493,-1.0777737816939412,-0.055556554576514684,-0.15555655457651468
6.676884328358209,-1.1163100161841424,-0.04592249595396439,-0.1459224959539644
6.684880597014925,-1.1548462506743393,-0.036288437331415166,-0.13628843733141516
6.692876865671642,-1.1933824851645407,-0.026654378708864862,-0.12665437870886487
6.700873134328359,-1.2319187196547419,-0.017020320086314558,-0.11702032008631456
6.708869402985075,-1.2704549541449386,-0.007386261463765337,-0.10738626146376534
6.716865671641791,-1.578358208955218,-0.021641791044782085,0.1216417910447821
6.724861940298507,-1.1927814200027904,0.0,0.19639071000139519
6.732858208955224,-1.1778351234481796,0.0,0.1889175617240898
6.740854477611941,-1.1628888268935689,0.0,0.18144441344678444
6.748850746268657,-1.1479425303389597,0.0,0.1739712651694799
6.756847014925373,-1.132996233784349,0.0,0.16649811689217453
6.76484328358209,-1.1180499372297383,0.0,0.15902496861486914
6.772839552238806,-1.1031036406751291,0.0,0.1515518203375646
6.780835820895523,-1.0881573441205183,0.0,0.14407867206025923
6.788832089552239,-1.0732110475659093,0.0,0.13660552378295468
6.7968283582089555,-1.0582647510112986,0.0,0.12913237550564932
6.804824626865672,-1.0433184544566878,0.0,0.12165922722834394
6.812820895522388,-1.0283721579020788,0.0,0.1141860789510394
6.820817164179105,-1.013425861347468,0.0,0.10671293067373402
6.828813432835821,-0.8779850746269159,0.0,0.1
6.8368097014925375,0.3043088130774704,0.1,0.0
6.844805970149254,0.3233475479744152,0.1,0.0
6.85280223880597,0.3423862828713578,0.1,0.0
6.860798507462687,0.3614250177683026,0.1,0.0
6.868794776119403,0.38046375266524524,0.1,0.0
6.87679104477612,0.39950248756219,0.1,0.0
6.884787313432836,0.4185412224591347,0.1,0.0
6.892783582089552,0.4375799573560774,0.1,0.0
6.900779850746269,0.45661869225302215,0.1,0.0
6.908776119402985,0.47565742714996484,0.1,0.0
6.916772388059702,0.4946961620469096,0.1,0.0
6.924768656716418,0.36156716417909507,0.1,-0.1
6.932764925373134,0.28942980410447794,0.1,-0.08942980410447797
6.940761194029851,0.276935634328358,0.1,-0.07693563432835804
6.948757462686568,0.2644414645522381,0.1,-0.06444146455223809
6.956753731343284,0.25194729477611955,0.1,-0.05194729477611955
6.96475,0.2394531249999996,0.1,-0.03945312499999961
6.972746268656716,0.22695895522388107,0.1,-0.02695895522388106
6.980742537313433,0.21446478544776115,0.1,-0.014464785447761128
6.98873880597015,0.2019706156716412,0.1,-0.001970615671641196
6.996735074626866,-0.2,0.0,0.0
7.0047313432835825,-0.2,0.0,0.0
7.012727611940298,-0.2,0.0,0.0
7.020723880597015,-0.2,0.0,0.0
7.028720149253732,-0.2,0.0,0.0
7.036716417910448,-0.2,0.0,0.0
7.0447126865671645,-0.2,0.0,0.0
7.05270895522388,-0.2,0.0,0.0
7.060705223880597,-0.2,0.0,0.0
7.068701492537314,-0.2,0.0,0.0
7.07669776119403,-0.2,0.0,0.0
7.084694029850747,-0.2,0.0,0.0
7.092690298507463,-0.2,0.0,0.0
7.100686567164179,-0.2,0.0,0.0
7.108682835820896,-0.2,0.0,0.0
7.116679104477612,-0.2,0.0,0.0
7.124675373134329,-0.2,0.0,0.0
7.132671641791045,-0.2,0.0,0.0
7.140667910447761,-0.2,0.0,0.0
7.148664179104478,-0.2,0.0,0.0
7.156660447761194,-0.2,0.0,0.0
7.164656716417911,-0.2,0.0,0.0
7.1726529850746275,-0.2,0.0,0.0
7.180649253731343,-0.2,0.0,0.0
7.18864552238806,-0.2,0.0,0.0
7.196641791044776,-0.2,0.0,0.0
7.204638059701493,-0.2,0.0,0.0
7.2126343283582095,-0.2,0.0,0.0
7.220630597014925,-0.2,0.0,0.0
7.228626865671642,-0.11865671641789952,-0.01865671641789951,0.0
7.236623134328358,0.0,0.0,0.0
7.244619402985075,0.0,0.0,0.0
7.2526156716417916,0.0,0.0,0.0
7.260611940298507,0.0,0.0,0.0
7.268608208955224,0.0,0.0,0.0
7.276604477611941,0.0,0.0,0.0
7.284600746268657,0.0,0.0,0.0
7.292597014925374,0.0,0.0,0.0
7.3005932835820895,0.0,0.0,0.0
7.308589552238806,0.0,0.0,0.0
7.316585820895523,0.0,0.0,0.0
7.324582089552239,0.0,0.0,0.0
7.332578358208956,0.0,0.0,0.0
7.3405746268656715,0.0,0.0,0.0
7.348570895522388,0.0,0.0,0.0
7.356567164179105,0.0,0.0,0.0
7.364563432835821,0.0,0.0,0.0
7.372559701492538,0.0,0.0,0.0
7.380555970149254,0.0,0.0,0.0
7.38855223880597,0.0,0.0,0.0
7.396548507462687,0.0,0.0,0.0
7.404544776119403,0.0,0.0,0.0
7.41254104477612,0.0,0.0,0.0
7.4205373134328365,-0.09228855721393779,0.0,0.0
7.428533582089552,0.0,0.0,0.0
7.436529850746269,0.0,0.0,0.0
7.444526119402985,0.0,0.0,0.0
7.452522388059702,0.0,0.0,0.0
7.460518656716419,0.0,0.0,0.0
7.468514925373134,0.0,0.0,0.0
7.476511194029851,0.0,0.0,0.0
7.484507462686567,0.0,0.0,0.0
7.492503731343284,0.0,0.0,0.0
7.500500000000001,0.0,0.0,0.0
7.5084962686567165,0.0,0.0,0.0
7.516492537313433,0.0,0.0,0.0
7.524488805970149,0.09361007462685969,0.0,0.0
7.532485074626866,0.1,0.0,0.0
7.540481343283583,0.1,0.0,0.0
7.5484776119402985,0.1,0.0,0.0
7.556473880597015,0.1,0.0,0.0
7.564470149253731,0.1,0.0,0.0
7.572466417910448,0.1,0.0,0.0
7.580462686567165,0.1,0.0,0.0
7.588458955223881,0.1,0.0,0.0
7.596455223880597,0.1,0.0,0.0
7.604451492537314,0.1,0.0,0.0
7.61244776119403,0.1,0.0,0.0
7.620444029850747,0.1,0.0,0.0
7.628440298507463,0.1,0.0,0.0
7.636436567164179,0.0,0.0,0.0
7.644432835820896,0.0,0.0,0.0
7.652429104477612,0.0,0.0,0.0
7.660425373134329,0.0,0.0,0.0
7.668421641791045,0.0,0.0,0.0
7.6764179104477615,0.0,0.0,0.0
7.684414179104478,0.0,0.0,0.0
7.692410447761194,0.0,0.0,0.0
7.700406716417911,0.0,0.0,0.0
7.708402985074627,0.0,0.0,0.0
7.7163992537313435,0.0,0.0,0.0
7.72439552238806,0.0,0.0,0.0
7.732391791044776,0.0,0.0,0.0
7.740388059701493,0.0,0.0,0.0
7.748384328358209,0.0,0.0,0.0
7.7563805970149255,0.0,0.0,0.0
7.764376865671642,0.0,0.0,0.0
7.772373134328358,0.0,0.0,0.0
7.780369402985075,0.0,0.0,0.0
7.788365671641792,0.0,0.0,0.0
7.796361940298508,0.0,0.0,0.0
7.804358208955224,0.0,0.0,0.0
7.81235447761194,0.0,0.0,0.0
7.820350746268657,0.0,0.0,0.0
7.828347014925374,0.0,0.0,0.0
7.83634328358209,0.0,0.0,0.0
7.844339552238806,0.0,0.0,0.0
7.852335820895522,0.0,0.0,0.0
7.860332089552239,0.0,0.0,0.0
7.868328358208956,0.0,0.0,0.0
7.876324626865672,0.0,0.0,0.0
7.8843208955223885,0.0,0.0,0.0
7.892317164179104,0.0,0.0,0.0
7.900313432835821,0.0,0.0,0.0
7.908309701492538,0.0,0.0,0.0
7.916305970149254,0.0,0.0,0.0
7.9243022388059705,0.0,0.0,0.0
7.932298507462686,0.0,0.0,0.0
7.940294776119403,0.0,0.0,0.0
7.94829104477612,0.0,0.0,0.0
7.956287313432836,0.0,0.0,0.0
7.964283582089553,0.0,0.0,0.0
7.972279850746269,0.0,0.0,0.0
7.980276119402985,0.0,0.0,0.0
7.988272388059702,0.0,0.0,0.0
7.996268656716418,0.0,0.0,0.0
8.004264925373134,0.0,0.0,0.0
8.01226119402985,0.0,0.0,0.0
8.020257462686567,0.0,0.0,0.0
8.028253731343284,0.0,0.0,0.0
8.03625,0.0,0.0,0.0
8.044246268656718,-0.07957937584802251,0.0,0.0
8.052242537313433,-0.006886024423347459,0.0,0.0
8.06023880597015,0.0,0.0,0.0
8.068235074626866,0.0,0.0,0.0
8.076231343283583,0.0,0.0,0.0
8.0842276119403,0.0,0.0,0.0
8.092223880597015,0.0,0.0,0.0
8.100220149253731,0.0,0.0,0.0
8.108216417910448,0.0,0.0,0.0
8.116212686567165,0.0,0.0,0.0
8.124208955223882,0.0,0.0,0.0
8.132205223880597,0.0,0.0,0.0
8.140201492537313,0.0,0.0,0.0
8.14819776119403,0.0,0.0,0.0
8.156194029850747,0.0,0.0,0.0
8.164190298507464,0.0,0.0,0.0
8.172186567164179,0.0,0.0,0.0
8.180182835820895,0.0,0.0,0.0
8.188179104477612,0.0,0.0,0.0
8.196175373134329,0.0,0.0,0.0
8.204171641791046,0.0,0.0,0.0
8.21216791044776,0.0,0.0,0.0
8.220164179104477,-0.06328358208955202,0.0,0.0
8.228160447761194,0.0,0.0,0.0
8.236156716417911,0.0,0.0,0.0
8.244152985074628,0.0,0.0,0.0
8.252149253731343,0.0,0.0,0.0
8.26014552238806,0.0,0.0,0.0
8.268141791044776,0.0,0.0,0.0
8.276138059701493,0.0,0.0,0.0
8.28413432835821,0.0,0.0,0.0
8.292130597014925,0.0,0.0,0.0
8.300126865671642,0.0,0.0,0.0
8.308123134328358,0.0,0.0,0.0
8.316119402985075,0.0,0.0,0.0
8.324115671641792,0.0,0.0,0.0
8.332111940298507,0.0,0.0,0.0
8.340108208955224,0.0,0.0,0.0
8.34810447761194,0.0,0.0,0.0
8.356100746268657,0.0,0.0,0.0
8.364097014925374,0.0,0.0,0.0
8.37209328358209,0.0,0.0,0.0
8.380089552238806,0.0,0.0,0.0
8.388085820895522,0.0,0.0,0.0
8.39608208955224,0.0,0.0,0.0
8.404078358208956,0.0,0.0,0.0
8.412074626865673,0.0,0.0,0.0
8.420070895522388,0.0,0.0,0.0
8.428067164179105,-0.0036084284460045084,0.0,0.0
8.436063432835821,-0.013015803336259629,0.0,0.0
8.444059701492538,-0.02242317822651475,0.0,0.0
8.452055970149255,-0.03183055311676987,0.0,0.0
8.46005223880597,-0.0412379280070229,0.0,0.0
8.468048507462687,-0.050645302897278026,0.0,0.0
8.476044776119403,-0.06005267778753314,0.0,0.0
8.48404104477612,-0.06946005267778826,0.0,0.0
8.492037313432837,-0.0788674275680434,0.0,0.0
8.500033582089552,-0.08827480245829641,0.0,0.0
8.508029850746269,-0.09768217734855154,0.0,0.0
8.516026119402985,0.0,0.0,0.0
8.524022388059702,0.0,0.0,0.0
8.532018656716419,0.0,0.0,0.0
8.540014925373134,0.0,0.0,0.0
8.54801119402985,0.0,0.0,0.0
8.556007462686567,0.0,0.0,0.0
8.564003731343284,0.0,0.0,0.0
8.572000000000001,0.0,0.0,0.0
8.579996268656716,0.0,0.0,0.0
8.587992537313433,0.0,0.0,0.0
8.59598880597015,0.09944029850746948,0.0,0.0
8.603985074626866,0.0965645908389081,0.0,0.0
8.611981343283583,0.08967125579001432,0.0,0.0
8.619977611940298,0.08277792074112207,0.0,0.0
8.627973880597015,0.07588458569222828,0.0,0.0
8.635970149253732,0.0689912506433345,0.0,0.0
8.643966417910448,0.062097915594440715,0.0,0.0
8.651962686567165,0.05520458054554694,0.0,0.0
8.65995895522388,0.04831124549665468,0.0,0.0
8.667955223880597,0.0414179104477609,0.0,0.0
8.675951492537314,0.03452457539886711,0.0,0.0
8.68394776119403,0.02763124034997333,0.0,0.0
8.691944029850747,0.02073790530107955,0.0,0.0
8.699940298507464,0.013844570252185759,0.0,0.0
8.707936567164179,0.006951235203293507,0.0,0.0
8.715932835820896,5.790015439972873e-05,0.0,0.0
8.723929104477612,-0.1,0.0,0.0
8.73192537313433,-0.1,0.0,0.0
8.739921641791046,-0.1,0.0,0.0
8.747917910447761,-0.1,0.0,0.0
8.755914179104478,-0.1,0.0,0.0
8.763910447761194,-0.1,0.0,0.0
8.771906716417911,-0.1,0.0,0.0
8.779902985074628,-0.1,0.0,0.0
8.787899253731343,-0.1,0.0,0.0
8.79589552238806,-0.1,0.0,0.0
8.803891791044776,-0.1,0.0,0.0
8.811888059701493,-0.1,0.0,0.0
8.81988432835821,-0.1,0.0,0.0
8.827880597014925,-0.1,0.0,0.0
8.835876865671642,-0.006156716417924535,0.0,0.0
8.843873134328359,0.0,0.0,0.0
8.851869402985075,0.0,0.0,0.0
8.859865671641792,0.0,0.0,0.0
8.867861940298507,0.0,0.0,0.0
8.875858208955224,0.0,0.0,0.0
8.88385447761194,0.0,0.0,0.0
8.891850746268657,0.0,0.0,0.0
8.899847014925374,0.0,0.0,0.0
8.907843283582089,0.0,0.0,0.0
8.915839552238806,0.0,0.0,0.0
8.923835820895523,0.0,0.0,0.0
8.93183208955224,0.0,0.0,0.0
8.939828358208956,0.0,0.0,0.0
8.947824626865671,0.0,0.0,0.0
8.955820895522388,0.0,0.0,0.0
8.963817164179105,0.0,0.0,0.0
8.971813432835821,0.0,0.0,0.0
8.979809701492538,0.0,0.0,0.0
8.987805970149253,0.0,0.0,0.0
8.99580223880597,0.0,0.0,0.0
9.003798507462687,0.0,0.0,0.0
9.011794776119403,0.0,0.0,0.0
9.01979104477612,0.0,0.0,0.0
9.027787313432835,0.0,0.0,0.0
9.035783582089552,0.0,0.0,0.0
9.043779850746269,0.0,0.0,0.0
9.051776119402986,0.0,0.0,0.0
9.059772388059702,0.0,0.0,0.0
9.067768656716419,0.0,0.0,0.0
9.075764925373134,0.0,0.0,0.0
9.08376119402985,0.0,0.0,0.0
9.091757462686568,0.0,0.0,0.0
9.099753731343284,0.0,0.0,0.0
9.107750000000001,0.0,0.0,0.0
9.115746268656716,0.0,0.0,0.0
9.123742537313433,0.0,0.0,0.0
9.13173880597015,0.0,0.0,0.0
9.139735074626866,0.0,0.0,0.0
9.147731343283583,0.0,0.0,0.0
9.155727611940298,0.0,0.0,0.0
9.163723880597015,0.0,0.0,0.0
9.171720149253732,0.0,0.0,0.0
9.179716417910448,0.0,0.0,0.0
9.187712686567165,0.0,0.0,0.0
9.19570895522388,0.0,0.0,0.0
9.203705223880597,0.0,0.0,0.0
9.211701492537314,0.0,0.0,0.0
9.21969776119403,0.0,0.0,0.0
9.227694029850747,0.0,0.0,0.0
9.235690298507462,0.0,0.0,0.0
9.243686567164179,0.0,0.0,0.0
9.251682835820896,0.0,0.0,0.0
9.259679104477613,0.0,0.0,0.0
9.26767537313433,0.0,0.0,0.0
9.275671641791044,0.0,0.0,0.0
9.283667910447761,0.0,0.0,0.0
9.291664179104478,0.0,0.0,0.0
9.299660447761195,0.0,0.0,0.0
9.307656716417911,0.0,0.0,0.0
9.315652985074626,0.0,0.0,0.0
9.323649253731343,0.0,0.0,0.0
9.33164552238806,0.0,0.0,0.0
9.339641791044777,0.01079486289482763,0.0,0.0
9.347638059701493,0.029390836515099498,0.0,0.0
9.355634328358208,0.047986810135367236,0.0,0.0
9.363630597014925,0.0665827837556391,0.0,0.0
9.371626865671642,0.08517875737591096,0.0,0.0
9.379623134328359,0.10377473099618284,0.0,0.0
9.387619402985075,0.1223707046164547,0.0,0.0
9.395615671641792,0.14096667823672657,0.0,0.0
9.403611940298507,0.1595626518569943,0.0,0.0
9.411608208955224,0.17815862547726619,0.0,0.0
9.41960447761194,0.19675459909753804,0.0,0.0
9.427600746268658,0.0,0.0,0.0
9.435597014925374,-0.007093564435886037,0.0,0.0
9.44359328358209,-0.015691702776439793,0.0,0.0
9.451589552238806,-0.024289841116995455,0.0,0.0
9.459585820895523,-0.03288797945755112,0.0,0.0
9.46758208955224,-0.041486117798106785,0.0,0.0
9.475578358208956,-0.05008425613866245,0.0,0.0
9.483574626865671,-0.0586823944792162,0.0,0.0
9.491570895522388,-0.06728053281977187,0.0,0.0
9.499567164179105,-0.07587867116032754,0.0,0.0
9.507563432835822,-0.0844768095008832,0.0,0.0
9.515559701492538,-0.09307494784143885,0.0,0.0
9.523555970149253,-0.1,0.0,0.0
9.53155223880597,-0.07238805970150712,0.0,0.0
9.539548507462687,0.0,0.0,0.0
9.547544776119404,0.0,0.0,0.0
9.55554104477612,0.0,0.0,0.0
9.563537313432835,0.0,0.0,0.0
9.571533582089552,0.0,0.0,0.0
9.579529850746269,0.0,0.0,0.0
9.587526119402986,0.0,0.0,0.0
9.595522388059702,0.0,0.0,0.0
9.603518656716417,0.0,0.0,0.0
9.611514925373134,0.0,0.0,0.0
9.619511194029851,0.0,0.0,0.0
9.627507462686568,0.0,0.0,0.0
9.635503731343285,0.0,0.0,0.0
9.6435,0.0,0.0,0.0
9.651496268656716,0.0,0.0,0.0
9.659492537313433,0.0,0.0,0.0
9.66748880597015,0.0,0.0,0.0
9.675485074626867,0.0,0.0,0.0
9.683481343283582,0.0,0.0,0.0
9.691477611940298,0.0,0.0,0.0
9.699473880597015,0.0,0.0,0.0
9.707470149253732,0.0,0.0,0.0
9.715466417910449,0.0,0.0,0.0
9.723462686567164,0.0,0.0,0.0
9.73145895522388,0.0,0.0,0.0
9.739455223880597,0.0,0.0,0.0
9.747451492537314,0.0,0.0,0.0
9.75544776119403,0.0,0.0,0.0
9.763444029850747,0.0,0.0,0.0
9.771440298507462,0.0,0.0,0.0
9.77943656716418,0.0,0.0,0.0
9.787432835820896,0.0,0.0,0.0
9.795429104477613,0.0,0.0,0.0
9.80342537313433,0.0,0.0,0.0
9.811421641791044,0.0,0.0,0.0
9.819417910447761,0.0,0.0,0.0
9.827414179104478,0.0,0.0,0.0
9.835410447761195,0.0,0.0,0.0
9.843406716417912,0.0,0.0,0.0
9.851402985074627,0.0,0.0,0.0
9.859399253731343,0.0,0.0,0.0
9.86739552238806,0.0,0.0,0.0
9.875391791044777,0.0,0.0,0.0
9.883388059701494,0.0,0.0,0.0
9.891384328358209,0.0,0.0,0.0
9.899380597014925,0.0,0.0,0.0
9.907376865671642,0.0,0.0,0.0
9.915373134328359,0.0,0.0,0.0
9.923369402985076,0.0,0.0,0.0
9.93136567164179,-0.06828358208952275,0.0,0.0
9.939361940298507,0.0,0.0,0.0
9.947358208955224,0.0,0.0,0.0
9.955354477611941,0.0,0.0,0.0
9.963350746268658,0.0,0.0,0.0
9.971347014925373,0.0,0.0,0.0
9.97934328358209,0.0,0.0,0.0
9.987339552238806,0.0,0.0,0.0
9.995335820895523,0.0,0.0,0.0
10.00333208955224,0.0,0.0,0.0
10.011328358208955,0.0,0.0,0.0
10.019324626865671,0.0,0.0,0.0
10.027320895522388,0.0,0.0,0.0
10.035317164179105,-0.08414179104476138,0.0,0.0
10.043313432835822,0.0,0.0,0.0
10.051309701492537,0.0,0.0,0.0
10.059305970149254,0.0,0.0,0.0
10.06730223880597,0.0,0.0,0.0
10.075298507462687,0.0,0.0,0.0
10.083294776119404,0.0,0.0,0.0
10.09129104477612,0.0,0.0,0.0
10.099287313432836,0.0,0.0,0.0
10.107283582089552,0.0,0.0,0.0
10.11527985074627,0.0,0.0,0.0
10.123276119402986,0.0,0.0,0.0
10.131272388059703,0.0,0.0,0.0
10.139268656716418,0.0,0.0,0.0
10.147264925373134,0.0,0.0,0.0
10.155261194029851,0.0,0.0,0.0
10.163257462686568,0.0,0.0,0.0
10.171253731343285,0.0,0.0,0.0
10.17925,0.0,0.0,0.0
10.187246268656716,0.0,0.0,0.0
10.195242537313433,0.0,0.0,0.0
10.20323880597015,0.0,0.0,0.0
10.211235074626867,0.0,0.0,0.0
10.219231343283582,0.0,0.0,0.0
10.227227611940299,0.0,0.0,0.0
10.235223880597015,0.0,0.0,0.0
10.243220149253732,0.0,0.0,0.0
10.251216417910449,0.0,0.0,0.0
10.259212686567164,0.0,0.0,0.0
10.26720895522388,0.0,0.0,0.0
10.275205223880597,0.0,0.0,0.0
10.283201492537314,0.0,0.0,0.0
10.29119776119403,0.0,0.0,0.0
10.299194029850746,0.0,0.0,0.0
10.307190298507463,0.0,0.0,0.0
10.31518656716418,0.0,0.0,0.0
10.323182835820896,0.0,0.0,0.0
10.331179104477613,0.0,0.0,0.0
10.339175373134328,0.0,0.0,0.0
10.347171641791045,0.0,0.0,0.0
10.355167910447761,0.0,0.0,0.0
10.363164179104478,0.0,0.0,0.0
10.371160447761195,0.0,0.0,0.0
10.37915671641791,0.0,0.0,0.0
10.387152985074627,0.0,0.0,0.0
10.395149253731343,0.0,0.0,0.0
10.40314552238806,0.0,0.0,0.0
10.411141791044777,0.0,0.0,0.0
10.419138059701494,0.0,0.0,0.0
10.427134328358209,0.0,0.0,0.0
10.435130597014926,0.0,0.0,0.0
10.443126865671642,0.0,0.0,0.0
10.451123134328359,0.0,0.0,0.0
10.459119402985076,0.0,0.0,0.0
10.46711567164179,0.0,0.0,0.0
10.475111940298508,0.0,0.0,0.0
10.483108208955224,0.0,0.0,0.0
10.491104477611941,0.0,0.0,0.0
10.499100746268658,0.0,0.0,0.0
10.507097014925373,0.0,0.0,0.0
10.51509328358209,0.0,0.0,0.0
10.523089552238806,0.0,0.0,0.0
10.531085820895523,0.0,0.0,0.0
10.53908208955224,0.0,0.0,0.0
10.547078358208955,0.0,0.0,0.0
10.555074626865672,0.0,0.0,0.0
10.563070895522388,0.0,0.0,0.0
10.571067164179105,0.0,0.0,0.0
10.579063432835822,0.0,0.0,0.0
10.587059701492537,0.0,0.0,0.0
10.595055970149254,0.0,0.0,0.0
10.60305223880597,0.0,0.0,0.0
10.611048507462687,0.0,0.0,0.0
10.619044776119404,0.0,0.0,0.0
10.627041044776119,0.0,0.0,0.0
10.635037313432836,0.0,0.0,0.0
10.643033582089553,0.0,0.0,0.0
10.65102985074627,0.0,0.0,0.0
10.659026119402986,0.0,0.0,0.0
10.667022388059701,0.0,0.0,0.0
10.675018656716418,0.0,0.0,0.0
10.683014925373135,0.0,0.0,0.0
10.691011194029851,0.0,0.0,0.0
10.699007462686568,0.0,0.0,0.0
10.707003731343283,0.0,0.0,0.0
10.715,0.0,0.0,0.0
10.722996268656717,0.0,0.0,0.0
10.730992537313433,0.0,0.0,0.0
10.73898880597015,0.0,0.0,0.0
10.746985074626867,0.0,0.0,0.0
10.754981343283582,0.0,0.0,0.0
10.762977611940299,0.0,0.0,0.0
10.770973880597015,0.0,0.0,0.0
10.778970149253732,0.0,0.0,0.0
10.786966417910449,0.002809168443498311,0.0,0.0
10.794962686567164,0.014232409381662535,0.0,0.0
10.80295895522388,0.025655650319829297,0.0,0.0
10.810955223880597,0.03707889125799606,0.0,0.0
10.818951492537314,0.04850213219616282,0.0,0.0
10.826947761194031,0.05992537313432958,0.0,0.0
10.834944029850746,0.07134861407249381,0.0,0.0
10.842940298507463,0.08277185501066056,0.0,0.0
10.85093656716418,0.09419509594882733,0.0,0.0
10.858932835820896,0.0,0.0,0.0
10.866929104477613,0.0,0.0,0.0
10.874925373134328,0.0,0.0,0.0
10.882921641791045,0.0,0.0,0.0
10.890917910447762,0.0,0.0,0.0
10.898914179104478,0.0,0.0,0.0
10.906910447761195,0.0,0.0,0.0
10.91490671641791,0.0,0.0,0.0
10.922902985074627,0.0,0.0,0.0
10.930899253731344,0.0,0.0,0.0
10.93889552238806,0.0,0.0,0.0
10.946891791044777,0.0,0.0,0.0
10.954888059701492,0.0,0.0,0.0
10.962884328358209,0.0,0.0,0.0
10.970880597014926,0.0,0.0,0.0
10.978876865671642,0.0,0.0,0.0
10.98687313432836,0.0,0.0,0.0
10.994869402985074,0.0,0.0,0.0
11.002865671641791,0.0,0.0,0.0
11.010861940298508,0.0,0.0,0.0
11.018858208955224,0.0,0.0,0.0
11.026854477611941,0.0,0.0,0.0
11.034850746268656,0.0,0.0,0.0
11.042847014925373,0.0,0.0,0.0
11.05084328358209,0.0,0.0,0.0
11.058839552238807,0.0,0.0,0.0
11.066835820895523,0.0,0.0,0.0
11.074832089552238,0.0,0.0,0.0
11.082828358208955,0.0,0.0,0.0
11.090824626865672,0.0,0.0,0.0
11.098820895522389,0.0,0.0,0.0
11.106817164179105,0.0,0.0,0.0
11.114813432835822,0.0,0.0,0.0
11.122809701492537,0.0,0.0,0.0
11.130805970149254,0.0,0.0,0.0
11.13880223880597,0.0,0.0,0.0
11.146798507462687,0.0,0.0,0.0
11.154794776119404,0.0,0.0,0.0
11.16279104477612,0.0,0.0,0.0
11.170787313432836,0.0,0.0,0.0
11.178783582089553,0.0,0.0,0.0
11.18677985074627,0.0,0.0,0.0
11.194776119402986,0.0,0.0,0.0
11.202772388059701,0.0,0.0,0.0
11.210768656716418,0.0,0.0,0.0
11.218764925373135,0.0,0.0,0.0
11.226761194029852,0.0,0.0,0.0
11.234757462686568,0.0,0.0,0.0
11.242753731343283,0.0,0.0,0.0
11.25075,0.0,0.0,0.0
11.258746268656717,0.0,0.0,0.0
11.266742537313434,0.0,0.0,0.0
11.27473880597015,0.0,0.0,0.0
11.282735074626865,0.0,0.0,0.0
11.290731343283582,0.0,0.0,0.0
11.298727611940299,0.0,0.0,0.0
11.306723880597016,0.0,0.0,0.0
11.314720149253732,0.0,0.0,0.0
11.322716417910447,0.0,0.0,0.0
11.330712686567164,0.0,0.0,0.0
11.338708955223881,0.0,0.0,0.0
11.346705223880598,0.0,0.0,0.0
11.354701492537314,0.0,0.0,0.0
11.36269776119403,0.0,0.0,0.0
11.370694029850746,0.0,0.0,0.0
11.378690298507463,0.0,0.0,0.0
11.38668656716418,0.0,0.0,0.0
11.394682835820896,0.0,0.0,0.0
11.402679104477611,0.0,0.0,0.0
11.410675373134328,0.0,0.0,0.0
11.418671641791045,0.055721393034837065,0.0,0.0
11.426667910447762,0.1,0.0,0.0
11.434664179104479,0.1,0.0,0.0
11.442660447761195,0.1,0.0,0.0
11.45065671641791,0.1,0.0,0.0
11.458652985074627,0.1,0.0,0.0
11.466649253731344,0.1,0.0,0.0
11.47464552238806,0.1,0.0,0.0
11.482641791044777,0.1,0.0,0.0
11.490638059701492,0.1,0.0,0.0
11.498634328358209,0.1,0.0,0.0
11.506630597014926,0.1,0.0,0.0
11.514626865671643,0.1,0.0,0.0
11.52262313432836,0.1,0.0,0.0
11.530619402985074,0.1,0.0,0.0
11.538615671641791,0.1,0.0,0.0
11.546611940298508,0.1,0.0,0.0
11.554608208955225,-0.008025258323769277,0.0,0.0
11.562604477611941,-0.03262916188289731,0.0,0.0
11.570600746268656,-0.057233065442019865,0.0,0.0
11.578597014925373,-0.0818369690011479,0.0,0.0
11.58659328358209,-0.10644087256027591,0.0,0.0
11.594589552238807,-0.13104477611940393,0.0,0.0
11.602585820895523,-0.15564867967853196,0.0,0.0
11.610582089552238,-0.18025258323765453,0.0,0.0
11.618578358208955,-0.2,-0.026305970149246054,0.0
11.626574626865672,0.00042564953012782006,0.0,0.00042564953012782006
11.634570895522389,0.0063488114980661745,0.0,0.0063488114980661745
11.642567164179106,0.012271973466004529,0.0,0.012271973466004529
11.65056343283582,0.018195135433941568,0.0,0.018195135433941568
11.658559701492537,0.02411829740187992,0.0,0.02411829740187992
11.666555970149254,0.030041459369818273,0.0,0.030041459369818273
11.67455223880597,0.03596462133775663,0.0,0.03596462133775663
11.682548507462688,0.04188778330569498,0.0,0.04188778330569498
11.690544776119403,0.04781094527363202,0.0,0.04781094527363202
11.69854104477612,0.05373410724157037,0.0,0.05373410724157037
11.706537313432836,0.05965726920950873,0.0,0.05965726920950873
11.714533582089553,0.06558043117744708,0.0,0.06558043117744708
11.72252985074627,0.07150359314538543,0.0,0.07150359314538543
11.730526119402985,0.07742675511332248,0.0,0.07742675511332248
11.738522388059701,0.08334991708126083,0.0,0.08334991708126083
11.746518656716418,0.08927307904919918,0.0,0.08927307904919918
11.754514925373135,0.09519624101713754,0.0,0.09519624101713754
11.762511194029852,0.2,0.1,0.0
11.770507462686567,0.09284529732291015,0.09284529732291015,0.0
11.778503731343283,0.08015280739161382,0.08015280739161382,0.0
11.7865,0.0674603174603175,0.0674603174603175,0.0
11.794496268656717,0.05476782752902116,0.05476782752902116,0.0
11.802492537313434,0.04207533759772483,0.04207533759772483,0.0
11.81048880597015,0.0293828476664285,0.0293828476664285,0.0
11.818485074626865,0.016690357735134997,0.016690357735134997,0.0
11.826481343283582,0.0039978678038386645,0.0039978678038386645,0.0
11.834477611940299,-0.09921702960606658,0.0,0.0
11.842473880597016,-0.08610839246390795,0.0,0.0
11.850470149253733,-0.07299975532174931,0.0,0.0
11.858466417910448,-0.05989111817959357,0.0,0.0
11.866462686567164,-0.046782481037434924,0.0,0.0
11.874458955223881,-0.03367384389527628,0.0,0.0
11.882455223880598,-0.02056520675311764,0.0,0.0
11.890451492537315,-0.007456569610958988,0.0,0.0
11.89844776119403,0.05522388059698577,0.0,0.0
11.906444029850746,0.0,0.0,0.0
11.914440298507463,0.0,0.0,0.0
11.92243656716418,0.0,0.0,0.0
11.930432835820897,0.0,0.0,0.0
11.938429104477612,0.0,0.0,0.0
11.946425373134328,0.0,0.0,0.0
11.954421641791045,0.0,0.0,0.0
11.962417910447762,0.0,0.0,0.0
11.970414179104479,0.0,0.0,0.0
11.978410447761194,0.0,0.0,0.0
11.98640671641791,0.0,0.0,0.0
11.994402985074627,0.0,0.0,0.0
12.002399253731344,0.0,0.0,0.0
12.01039552238806,0.0,0.0,0.0
12.018391791044776,0.0,0.0,0.0
12.026388059701492,-0.06940298507464543,0.0,0.0
12.03438432835821,-0.1,0.0,0.0
12.042380597014926,-0.1,0.0,0.0
12.050376865671643,-0.1,0.0,0.0
12.058373134328358,-0.1,0.0,0.0
12.066369402985075,-0.1,0.0,0.0
12.074365671641791,-0.1,0.0,0.0
12.082361940298508,-0.1,0.0,0.0
12.090358208955225,-0.1,0.0,0.0
12.09835447761194,-0.1,0.0,0.0
12.106350746268657,-0.1,0.0,0.0
12.114347014925373,-0.1,0.0,0.0
12.12234328358209,0.1,0.0,0.0
12.130339552238807,0.1,0.0,0.0
12.138335820895524,0.1,0.0,0.0
12.146332089552239,0.1,0.0,0.0
12.154328358208955,0.1,0.0,0.0
12.162324626865672,0.1,0.0,0.0
12.170320895522389,0.1,0.0,0.0
12.178317164179106,0.1,0.0,0.0
12.18631343283582,0.1,0.0,0.0
12.194309701492537,0.1,0.0,0.0
12.202305970149254,0.1,0.0,0.0
12.210302238805971,0.1,0.0,0.0
12.218298507462688,0.1,0.0,0.0
12.226294776119403,0.1,0.0,0.0
12.23429104477612,-0.08155650319829963,0.0,0.0
12.242287313432836,0.0,0.0,0.0
12.250283582089553,0.0,0.0,0.0
12.25827985074627,0.0,0.0,0.0
12.266276119402985,0.0,0.0,0.0
12.274272388059702,0.0,0.0,0.0
12.282268656716418,0.0,0.0,0.0
12.290264925373135,0.0,0.0,0.0
12.298261194029852,0.0,0.0,0.0
12.306257462686567,0.0,0.0,0.0
12.314253731343284,0.0,0.0,0.0
12.32225,0.1,0.0,0.0
12.330246268656717,0.1,0.0,0.0
12.338242537313434,0.1,0.0,0.0
12.346238805970149,0.1,0.0,0.0
12.354235074626866,0.1,0.0,0.0
12.362231343283582,0.1,0.0,0.0
12.3702276119403,0.1,0.0,0.0
12.378223880597016,0.1,0.0,0.0
12.386220149253731,0.1,0.0,0.0
12.394216417910448,0.1,0.0,0.0
12.402212686567164,0.1,0.0,0.0
12.410208955223881,0.1,0.0,0.0
12.418205223880598,-0.040174129353271276,-0.23362354892211873,-0.186898839137695
12.426201492537313,-0.2399253731343529,-1.3205223880595298,-1.1805970149251768
12.43419776119403,-0.1834534225424594,-1.624819866186311,-1.5661863098301625
12.442194029850747,-0.1650711957454093,-1.652393206381886,-1.6397152170183629
12.450190298507463,-0.1466889689483592,-1.6799665465774614,-1.7132441242065632
12.45818656716418,-0.1283067421513091,-1.7075398867730365,-1.7867730313947634
12.466182835820897,-0.10992451535425903,-1.7351132269686116,-1.8603019385829638
12.474179104477612,-0.09154228855721301,-1.7626865671641805,-1.9338308457711477
12.482175373134329,-0.07316006176016293,-1.7902599073597556,-2.0073597529593483
12.490171641791045,-0.05477783496311284,-1.8178332475553307,-2.0808886601475485
12.498167910447762,-0.03639560816606274,-1.8454065877509058,-2.1544175673357486
12.506164179104479,-0.01801338136901265,-1.872979927946481,-2.2279464745239492
12.514160447761194,0.03208955223889015,-1.9240671641791676,-2.320055970149306
12.52215671641791,0.6526119402985061,-2.6052238805970123,-3.0104477611940244
12.530152985074627,0.7,-2.707257725457221,-3.2290309018288847
12.538149253731344,0.7,-2.718520075677949,-3.2740803027117966
12.546145522388061,0.7,-2.729782425898677,-3.319129703594708
12.554141791044776,0.7,-2.7410447761194026,-3.3641791044776093
12.562138059701493,0.7,-2.7523071263401304,-3.409228505360521
12.57013432835821,0.7,-2.763569476560858,-3.4542779062434326
12.578130597014926,0.7,-2.7748318267815857,-3.499327307126344
12.586126865671643,0.7,-2.7860941770023135,-3.5443767080092554
12.594123134328358,0.7,-2.797356527223039,-3.589426108892157
12.602119402985075,1.6335820895522162,-2.7664179104477835,-4.066417910447783
12.610115671641791,1.8734701492537242,-2.5265298507462757,-3.8265298507462755
12.618111940298508,1.9053074181332146,-2.5,-3.7946925818667854
12.626108208955225,1.9112747828024064,-2.5,-3.7887252171975936
12.63410447761194,1.9172421474715966,-2.5,-3.782757852528403
12.642100746268657,1.9232095121407884,-2.5,-3.7767904878592113
12.650097014925374,1.92917687680998,-2.5,-3.77082312319002
12.65809328358209,1.9351442414791717,-2.5,-3.764855758520828
12.666089552238807,1.9411116061483633,-2.5,-3.7588883938516364
12.674085820895522,1.9470789708175538,-2.5,-3.7529210291824464
12.682082089552239,1.9530463354867453,-2.5,-3.7469536645132546
12.690078358208956,1.9590137001559371,-2.5,-3.740986299844063
12.698074626865672,1.9649810648251287,-2.5,-3.735018935174871
12.706070895522389,1.9709484294943205,-2.5,-3.7290515705056797
12.714067164179104,1.976915794163511,-2.5,-3.7230842058364892
12.72206343283582,1.9828831588327025,-2.5,-3.7171168411672975
12.730059701492538,1.9888505235018943,-2.5,-3.711149476498106
12.738055970149254,1.9948178881710859,-2.5,-3.7051821118289143
12.746052238805971,2.03507462686573,-2.482462686567135,-3.6824626865671353
12.754048507462686,2.6074893390191862,-2.0955063965884886,-3.7
12.762044776119403,2.66460554371002,-2.0612366737739882,-3.7
12.77004104477612,2.721721748400854,-2.026966950959488,-3.7
12.778037313432836,2.7788379530916876,-1.9926972281449877,-3.7
12.786033582089553,2.8359541577825214,-1.9584275053304874,-3.7
12.79402985074627,2.893070362473355,-1.924157782515987,-3.7
12.802026119402985,2.950186567164176,-1.8898880597014944,-3.7
12.810022388059702,3.00730277185501,-1.855618336886994,-3.7
12.818018656716418,3.0644189765458436,-1.821348614072494,-3.7
12.826014925373135,2.4466417910444824,-1.6992537313432183,-3.5985074626864364
12.834011194029852,2.4065460739779403,-1.3934539260220598,-3.19345392602206
12.842007462686567,2.423929266709929,-1.3760707332900708,-3.176070733290071
12.850003731343284,2.441312459441922,-1.3586875405580778,-3.158687540558078
12.858,2.458695652173915,-1.341304347826085,-3.141304347826085
12.865996268656717,2.4760788449059077,-1.3239211550940921,-3.1239211550940924
12.873992537313434,2.493462037637901,-1.3065379623620992,-3.1065379623620992
12.881988805970149,2.5108452303698896,-1.2891547696301102,-3.0891547696301105
12.889985074626866,2.528228423101883,-1.2717715768981175,-3.0717715768981173
12.897981343283583,2.5456116158338755,-1.2543883841661245,-3.0543883841661246
12.9059776119403,2.5629948085658683,-1.2370051914341316,-3.037005191434132
12.913973880597016,2.5803780012978614,-1.2196219987021388,-3.0196219987021387
12.921970149253731,2.59776119402985,-1.2022388059701499,-3.00223880597015
12.929966417910448,1.993283582089628,-1.103358208955186,-2.255037313432779
12.937962686567165,2.2,-0.9931738366988574,-2.086347673397715
12.945958955223881,2.2,-0.985334357623645,-2.07066871524729
12.953955223880598,2.2,-0.9774948785484324,-2.0549897570968647
12.961951492537313,2.2,-0.9696553994732217,-2.039310798946443
12.96994776119403,2.2,-0.9618159203980092,-2.0236318407960185
12.977944029850747,2.2,-0.9539764413227967,-2.0079528826455935
12.985940298507463,2.2,-0.9461369622475843,-1.9922739244951684
12.99393656716418,2.2,-0.9382974831723717,-1.9765949663447433
13.001932835820895,2.2,-0.930458004097161,-1.9609160081943218
13.009929104477612,2.2,-0.9226185250219485,-1.945237050043897
13.017925373134329,2.2,-0.914779045946736,-1.9295580918934718
13.025921641791046,2.2,-0.9069395668715236,-1.913879133743047
13.033917910447762,1.8328358208948967,-0.9917910447762759,-1.685820895522023
13.041914179104477,0.9155117270788973,-1.2,-1.1155117270788972
13.049910447761194,0.8012793176972384,-1.2,-1.0012793176972383
13.05790671641791,1.1351590262970905,-1.1,-0.9
13.065902985074628,1.1827558635394526,-1.1,-0.9
13.073899253731344,1.2303527007818145,-1.1,-0.9
13.08189552238806,1.2779495380241657,-1.1,-0.9
13.089891791044776,1.3255463752665277,-1.1,-0.9
13.097888059701493,1.3731432125088896,-1.1,-0.9
13.10588432835821,1.4207400497512515,-1.1,-0.9
13.113880597014926,1.4683368869936133,-1.1,-0.9
13.121876865671641,1.5159337242359647,-1.1,-0.9
13.129873134328358,1.5635305614783266,-1.1,-0.9
13.137869402985075,2.098507462686822,-0.6638059701490311,-0.9623134328358527
13.145865671641792,1.6042951907131024,-0.38281923714759025,-1.0785240464344878
13.153861940298508,1.6131799336650101,-0.34728026533996015,-1.0341003316749502
13.161858208955225,1.6220646766169176,-0.31174129353233004,-0.9896766169154125
13.16985447761194,1.630949419568823,-0.27620232172470777,-0.9452529021558848
13.177850746268657,1.6398341625207307,-0.24066334991707766,-0.9008291873963471
13.185847014925374,1.648718905472638,-0.20512437810944753,-0.8564054726368094
13.19384328358209,1.6576036484245456,-0.1695854063018174,-0.8119817578772718
13.201839552238807,1.6664883913764532,-0.1340464344941873,-0.7675580431177341
13.209835820895522,1.6753731343283587,-0.09850746268656507,-0.7231343283582063
13.217832089552239,1.6842578772802663,-0.06296849087893491,-0.6787106135986687
13.225828358208956,1.6931426202321738,-0.02742951907130481,-0.634286898839131
13.233824626865673,1.8824626865673126,0.06082089552243755,-0.5391791044775625
13.24182089552239,1.1067033254778769,0.10670332547787668,-0.1664833726106166
13.249817164179104,1.1207318669808854,0.12073186698088534,-0.09634066509557333
13.257813432835821,1.1347604084838971,0.13476040848389712,-0.026197957580514464
13.265809701492538,1.1487889499869088,0.1487889499869089,0.04394474993454439
13.273805970149255,1.1628174914899208,0.16281749148992067,0.11408745744960325
13.281802238805971,1.1768460329929324,0.17684603299293244,0.18423016496466216
13.289798507462686,1.190874574495941,0.1908745744959411,0.2543728724797054
13.297794776119403,0.9903917910447404,0.6192164179105192,0.5096082089552595
13.30579104477612,0.19346371590324096,0.3,0.5098044261451385
13.313787313432837,0.17967704580545338,0.3,0.53048443129182
13.321783582089553,0.16589037570766582,0.3,0.5511644364385013
13.329779850746268,0.15210370560988132,0.3,0.5718444415851781
13.337776119402985,0.13831703551209373,0.3,0.5925244467318594
13.345772388059702,0.12453036541430618,0.3,0.6132044518785408
13.353768656716419,0.1107436953165186,0.3,0.6338844570252221
13.361764925373135,0.09695702521873104,0.3,0.6545644621719034
13.36976119402985,0.08317035512094653,0.3,0.6752444673185802
13.377757462686567,0.06938368502315898,0.3,0.6959244724652616
13.385753731343284,0.05559701492537139,0.3,0.7166044776119429
13.39375,0.041810344827583834,0.3,0.7372844827586242
13.401746268656717,0.02802367472979625,0.3,0.7579644879053056
13.409742537313432,0.014237004632011746,0.3,0.7786444930519825
13.41773880597015,0.00045033453422418934,0.3,0.7993244981986638
13.425735074626866,-0.322294776119435,0.04216417910445197,0.542164179104452
13.433731343283583,-0.5,-0.08423376077359271,0.4105108261509382
13.4417276119403,-0.5,-0.05044671011140907,0.43303552659239397
13.449723880597015,-0.5,-0.016659659449232922,0.45556022703384474
13.457720149253731,-0.5,0.01712739121295072,0.47808492747530046
13.465716417910448,-0.5,0.05091444187513436,0.5006096279167562
13.473712686567165,-0.5,0.08470149253731801,0.5231343283582119
13.481708955223882,-0.5,0.11848854319950167,0.5456590287996678
13.489705223880598,-0.5,0.1522755938616853,0.5681837292411235
13.497701492537313,-0.5,0.18606264452386143,0.5907084296825742
13.50569776119403,-0.13813432835816902,-0.053955223880610324,0.5460447761193896
13.513694029850747,0.4,-3.0858208955231397,-1.1858208955231397
13.521690298507464,0.36861102650014604,-3.3392362168748173,-1.337222053000292
13.52968656716418,0.33597319524824115,-3.380033505939698,-1.2719463904964823
13.537682835820895,0.3033353639963435,-3.4208307950045707,-1.206670727992687
13.545679104477612,0.27069753274443853,-3.4616280840694515,-1.1413950654888771
13.553675373134329,0.23805970149253367,-3.502425373134333,-1.0761194029850674
13.561671641791046,0.20542187024062875,-3.543222662199214,-1.0108437404812574
13.569667910447762,0.17278403898872383,-3.584019951264095,-0.9455680779774476
13.577664179104477,0.14014620773682618,-3.624817240328967,-0.8802924154736523
13.585660447761194,0.10750837648492123,-3.6656145293938485,-0.8150167529698424
13.593656716417911,0.07487054523301634,-3.7064118184587294,-0.7497410904660327
13.601652985074628,0.04223271398111139,-3.7472091075236107,-0.6844654279622229
13.609649253731344,0.0095948827292065,-3.7880063965884916,-0.619189765458413
13.61764552238806,-0.1188531029065124,-2.55204241948162,-0.15430086410057853
13.625641791044776,-0.2871956009426537,-0.7844461901021362,0.47698350353495134
13.633638059701493,-0.39188289322617603,0.35941446613088,0.871590126291616
13.64163432835821,-0.3672789896670473,0.23639494833523655,0.7854764638346656
13.649630597014927,-0.34267508610791864,0.11337543053959309,0.6993628013777151
13.657626865671642,-0.3180711825487954,-0.00964408725602306,0.6132491389207839
13.665623134328358,-0.2934672789896667,-0.13266360505166652,0.5271354764638334
13.673619402985075,-0.268863375430538,-0.25568312284731,0.44102181400688295
13.681615671641792,-0.2442594718714093,-0.37870264064295356,0.3549081515499325
13.689611940298509,-0.2196555683122806,-0.501722158438597,0.2687944890929821
13.697608208955224,-0.28041044776116536,-1.1628731343281575,-0.04123134328349609
13.70560447761194,0.20211115475255229,-0.1989444226237239,0.0
13.713600746268657,0.21263256087981122,-0.1936837195600944,0.0
13.721597014925374,0.2231539670070702,-0.18842301649646492,0.0
13.72959328358209,0.23367537313432912,-0.18316231343283546,0.0
13.737589552238806,0.24419677926158576,-0.17790161036920715,0.0
13.745585820895522,0.2547181853888447,-0.17264090730557766,0.0
13.75358208955224,0.26523959151610366,-0.1673802042419482,0.0
13.761578358208956,0.2757609976433626,-0.1621195011783187,0.0
13.769574626865673,0.2862824037706216,-0.15685879811468922,0.0
13.777570895522388,0.2968038098978782,-0.15159809505106092,0.0
13.785567164179104,0.3073252160251371,-0.14633739198743145,0.0
13.793563432835821,0.3178466221523961,-0.14107668892380198,0.0
13.801559701492538,0.32836802827965506,-0.1358159858601725,0.0
13.809555970149255,0.338889434406914,-0.13055528279654302,0.0
13.81755223880597,0.3494108405341706,-0.1252945797329147,0.0
13.825548507462686,0.35993224666142953,-0.12003387666928524,0.0
13.833544776119403,0.3704536527886885,-0.11477317360565575,0.0
13.84154104477612,0.3809750589159475,-0.10951247054202627,0.0
13.849537313432837,0.39149646504320645,-0.1042517674783968,0.0
13.857533582089554,0.47667910447765816,-0.1,0.0
13.865529850746269,0.5,-0.28824626865672065,-0.3764925373134413
13.873526119402985,0.49473713521942375,-0.41052572956115246,-0.5842114056582712
13.881522388059702,0.48280240588104056,-0.4343951882379189,-0.5484072176431217
13.889518656716419,0.4708676765426574,-0.45826464691468527,-0.5126030296279721
13.897514925373136,0.4589329472042742,-0.48213410559145164,-0.4767988416128225
13.90551119402985,0.4469982178658936,-0.5060035642682128,-0.44099465359768086
13.913507462686567,0.4350634885275104,-0.5298730229449792,-0.40519046558253125
13.921503731343284,0.42312875918912723,-0.5537424816217456,-0.3693862775673816
13.9295,0.41119402985074405,-0.5776119402985119,-0.33358208955223206
13.937496268656718,0.4,-0.550373134328182,-0.2801492537312728
13.945492537313433,0.4507462686567906,-0.18955223880592564,-0.12985074626864188
13.95348880597015,0.024920042643928417,-0.47507995735607156,0.0
13.961485074626866,0.0820362473347603,-0.4179637526652397,0.0
13.969481343283583,0.13915245202559218,-0.3608475479744078,0.0
13.9774776119403,0.19626865671642404,-0.303731343283576,0.0
13.985473880597015,0.2533848614072432,-0.2466151385927568,0.0
13.993470149253731,0.22649253731343086,-0.2735074626865691,-0.14701492537313832
14.001466417910448,0.2,-0.20666977611940493,-0.10666977611940492
14.009462686567165,0.48221278926468386,0.0,0.18814185950978923
14.017458955223882,0.4602047103929863,0.0,0.17346980692865757
14.025455223880597,0.4381966315212937,0.0,0.15879775434752913
14.033451492537313,0.4161885526495962,0.0,0.14412570176639747
14.04144776119403,0.39418047377789867,0.0,0.12945364918526578
14.049444029850747,0.37217239490620113,0.0,0.1147815966041341
14.057440298507464,0.3501643160345036,0.0,0.10010954402300241
14.065436567164179,0.32815623716281095,0.0,0.08543749144187399
14.073432835820896,0.30614815829111347,0.0,0.07076543886074232
14.081429104477612,0.28414007941941594,0.0,0.056093386279610635
14.089425373134329,0.2621320005477184,0.0,0.041421333698478946
14.097421641791046,0.24012392167602087,0.0,0.026749281117347257
14.10541791044776,0.21811584280432827,0.0,0.012077228536218843
14.113414179104478,-0.09539800995024404,0.295398009950244,0.004601990049755957
14.121410447761194,-0.006550580431172237,0.20655058043117225,0.09344941956882777
14.129406716417911,0.028216062544423662,0.2,0.1
14.137402985074628,0.05867803837953502,0.2,0.1
14.145399253731343,0.08914001421463963,0.2,0.1
14.15339552238806,0.11960199004975099,0.2,0.1
14.161391791044776,0.15006396588486234,0.2,0.1
14.169388059701493,0.18052594171997371,0.2,0.1
14.17738432835821,0.21098791755508509,0.2,0.1
14.185380597014927,0.24144989339019643,0.2,0.1
14.193376865671642,0.27191186922530103,0.2,0.1
14.201373134328358,0.3023738450604124,0.2,0.1
14.209369402985075,0.33283582089552377,0.2,0.1
14.217365671641792,0.3632977967306351,0.2,0.1
14.225361940298509,0.3937597725657465,0.2,0.1
14.233358208955224,0.006301824212249951,0.14842454394693752,0.0031509121061249756
14.24135447761194,0.19704601990049303,0.30295398009950697,-0.1
14.249350746268657,0.13041044776118918,0.36958955223881085,-0.1
14.257347014925374,0.08169677926158359,0.3954241948153959,-0.1045758051846041
14.26534328358209,0.048028279654355334,0.38700706991358885,-0.11299293008641118
14.273339552238806,0.014359780047134549,0.37858994501178367,-0.12141005498821637
14.281335820895523,-0.01930871956009371,0.3701728201099766,-0.12982717989002343
14.28933208955224,-0.05297721916732198,0.3617556952081695,-0.1382443047918305
14.297328358208956,-0.08664571877455024,0.35333857030636245,-0.14666142969363757
14.305324626865673,-0.1203142183817785,0.3449214454045554,-0.15507855459544462
14.313320895522388,-0.1539827179889993,0.3365043205027502,-0.16349567949724983
14.321317164179105,-0.18765121759622758,0.3280871956009431,-0.1719128043990569
14.329313432835821,-0.2213197172034558,0.31967007069913606,-0.18032992930086394
14.337309701492538,-0.25498821681068407,0.311252945797329,-0.18874705420267102
14.345305970149255,-0.28865671641791235,0.3028358208955219,-0.1971641791044781
14.35330223880597,-0.22014925373134153,0.6604477611940245,0.020149253731341518
14.361298507462687,-0.18800542740841406,0.3119945725915859,0.21199457259158597
14.369294776119403,-0.15892808683853477,0.34107191316146523,0.24107191316146526
14.37729104477612,-0.12985074626865548,0.37014925373134455,0.2701492537313446
14.385287313432837,-0.10077340569877617,0.3992265943012238,0.29922659430122384
14.393283582089552,-0.07169606512890334,0.42830393487109664,0.32830393487109666
14.401279850746269,-0.042618724559024046,0.45738127544097595,0.357381275440976
14.409276119402985,-0.013541383989144729,0.48645861601085527,0.3864586160108553
14.417272388059702,0.0,0.24552238805939924,0.14552238805939927
14.425268656716419,-0.012864879144105588,0.08070268128384162,-0.01929731871615838
14.433264925373134,-0.027017567032096554,0.05947364945185517,-0.04052635054814483
14.44126119402985,-0.04117025492009067,0.038244617619864,-0.06175538238013599
14.449257462686568,-0.05532294280808477,0.017015585787872836,-0.08298441421212716
14.457253731343284,-0.06947563069607889,-0.00421344604411833,-0.10421344604411832
14.465250000000001,-0.08362831858407299,-0.02544247787610951,-0.1254424778761095
14.473246268656716,-0.09778100647206396,-0.04667150970809594,-0.14667150970809592
14.481242537313433,-0.11193369436005807,-0.06790054154008712,-0.1679005415400871
14.48923880597015,-0.1260863822480522,-0.0891295733720783,-0.18912957337207825
14.497235074626866,-0.14023907013604628,-0.11035860520406945,-0.21035860520406943
14.505231343283583,-0.1543917580240404,-0.13158763703606063,-0.23158763703606058
14.5132276119403,-0.16854444591203452,-0.1528166688680518,-0.25281666886805176
14.521223880597015,-0.18269713380002547,-0.17404570070003825,-0.2740457007000382
14.529220149253732,-0.1968498216880196,-0.1952747325320294,-0.29527473253202935
14.537216417910448,-0.2738805970149386,-0.7955223880597545,-0.7694029850746932
14.545212686567165,0.007964982778417123,-1.4283151549942459,0.055754879448919846
14.553208955223882,0.01821660926138718,-1.3360505166475154,0.12751626482971024
14.561205223880597,0.02846823574435496,-1.2437858783008053,0.19927765021048469
14.569201492537314,0.03871986222732502,-1.1515212399540748,0.27103903559127507
14.57719776119403,0.04897148871029508,-1.0592566016073444,0.3428004209720655
14.585194029850747,0.05922311519326513,-0.9669919632606139,0.41456180635285583
14.593190298507464,0.0694747416762352,-0.8747273249138833,0.48632319173364624
14.601186567164179,0.07972636815920298,-0.7824626865671733,0.5580845771144207
14.609182835820896,0.08997799464217303,-0.6901980482204428,0.6298459624952111
14.617179104477612,0.05522388059707459,-0.6089552238805851,0.6283582089553192
14.62517537313433,-0.008768656716459503,-0.017537313432919005,0.2
14.633171641791046,-0.12103968792401842,-0.2140264586160123,0.1789603120759816
14.641167910447761,-0.14829969470827434,-0.2321997964721829,0.15170030529172568
14.649164179104478,-0.1755597014925363,-0.2503731343283575,0.12444029850746373
14.657160447761195,-0.20281970827679824,-0.26854647218453215,0.09718029172320178
14.665156716417911,-0.2300797150610602,-0.2867198100407068,0.06992028493893981
14.673152985074628,-0.25733972184532217,-0.30489314789688143,0.04266027815467788
14.681149253731343,-0.28459972862957805,-0.323066485753052,0.015400271370421964
14.68914552238806,-0.31185973541384004,-0.34123982360922667,-0.01185973541384
14.697141791044777,-0.3391197421981019,-0.35941316146540125,-0.03911974219810194
14.705138059701493,-0.3663797489823639,-0.37758649932157595,-0.06637974898236387
14.71313432835821,-0.3936397557666259,-0.39575983717775054,-0.09363975576662587
14.721130597014925,-0.2180970149254845,0.050746268656589155,0.11305970149244188
14.729126865671642,0.1,-0.10192626610537112,0.09903686694731445
14.737123134328359,0.1,-0.11559510141599796,0.09220244929200103
14.745119402985075,0.1,-0.1292639367266248,0.0853680316366876
14.753115671641792,0.1,-0.14293277203725166,0.07853361398137418
14.761111940298507,0.1,-0.15660160734787545,0.07169919632606228
14.769108208955224,0.1,-0.1702704426585023,0.06486477867074886
14.77710447761194,0.1,-0.18393927796912915,0.058030361015435426
14.785100746268657,0.1,-0.197608113279756,0.051195943360122
14.793097014925374,0.1,-0.21127694859038285,0.04436152570480858
14.80109328358209,0.1,-0.22494578390100667,0.037527108049496674
14.809089552238806,0.1,-0.2386146192116335,0.03069269039418325
14.817085820895523,0.1,-0.2522834545222603,0.023858272738869826
14.82508208955224,0.1,-0.2659522898328872,0.017023855083556402
14.833078358208956,0.1,-0.279621125143514,0.010189437428242978
14.841074626865673,0.1,-0.2932899604541409,0.0033550197729295544
14.849070895522388,0.15354477611941333,-0.02322761194029334,0.07677238805970667
14.857067164179105,-0.00299589011464403,-0.302995890114644,-0.10299589011464404
14.865063432835822,-0.014584685269306166,-0.31458468526930616,-0.11458468526930617
14.873059701492538,-0.026173480423968304,-0.3261734804239683,-0.1261734804239683
14.881055970149255,-0.03776227557863044,-0.3377622755786304,-0.13776227557863044
14.88905223880597,-0.04935107073329,-0.34935107073329,-0.14935107073329001
14.897048507462687,-0.06093986588795214,-0.3609398658879521,-0.16093986588795214
14.905044776119404,-0.07252866104261427,-0.3725286610426143,-0.17252866104261427
14.91304104477612,-0.08411745619727641,-0.38411745619727644,-0.18411745619727643
14.921037313432837,-0.09570625135193855,-0.3957062513519386,-0.19570625135193856
14.929033582089552,0.19982325216025348,-0.0001767478397465377,-0.1
14.937029850746269,0.15773762765121815,-0.042262372348781864,-0.1
14.945026119402986,0.11565200314218282,-0.08434799685781719,-0.1
14.953022388059702,0.1,-0.11195806680881437,-0.11195806680881437
14.96101865671642,0.1,-0.13099680170575914,-0.13099680170575914
14.969014925373134,0.1,-0.15003553660269967,-0.15003553660269967
14.977011194029851,0.1,-0.16907427149964444,-0.16907427149964444
14.985007462686568,0.1,-0.18811300639658918,-0.18811300639658918
14.993003731343284,0.3998134328357713,-0.07513992537317152,0.05009328358211435
15.001,-0.5,-0.1,-0.2
