accel_time_list,vertical_Accel_x,vertical_Accel_y,vertical_Accel_z
0.0,1.008,-0.022,9.808
0.008,1.05005,0.17959,9.75305
0.016,1.0528499999999998,0.15183,9.76385
0.024,1.05565,0.12407,9.774650000000001
0.032,1.05845,0.09630999999999999,9.78545
0.04,1.06125,0.06854999999999999,9.79625
0.048,1.06405,0.04078999999999999,9.80705
0.056,1.06685,0.013029999999999986,9.81785
0.064,1.06965,-0.01473000000000002,9.82865
0.07200000000000001,1.0724500000000001,-0.04249000000000003,9.839450000000001
0.08,1.07525,-0.07024999999999998,9.85025
0.088,1.07805,-0.09800999999999999,9.86105
0.096,1.08085,-0.12577,9.87185
0.10400000000000001,1.08365,-0.15353000000000006,9.88265
0.112,0.788483870967742,0.3251075268817204,9.771279569892473
0.12,0.8424193548387097,0.2455376344086022,9.756397849462365
0.128,0.8963548387096774,0.16596774193548386,9.741516129032258
0.136,0.9502903225806452,0.08639784946236556,9.72663440860215
0.14400000000000002,1.004225806451613,0.006827956989247208,9.711752688172043
0.152,1.0581612903225805,-0.07274193548387087,9.696870967741935
0.16,1.1120967741935484,-0.15231182795698917,9.681989247311828
0.168,1.1660322580645162,-0.23188172043010746,9.66710752688172
0.176,1.2199677419354837,-0.31145161290322554,9.652225806451613
0.184,1.2739032258064515,-0.39102150537634384,9.637344086021505
0.192,1.3278387096774193,-0.47059139784946225,9.622462365591398
0.2,1.381774193548387,-0.5501612903225805,9.60758064516129
0.20800000000000002,0.9549999999999998,0.24899999999999997,9.555
0.216,0.9189999999999999,0.23985714285714285,9.510836734693877
0.224,0.8829999999999999,0.2307142857142857,9.466673469387755
0.232,0.8469999999999999,0.22157142857142856,9.422510204081632
0.24,0.8109999999999999,0.21242857142857144,9.37834693877551
0.248,0.7749999999999999,0.2032857142857143,9.334183673469388
0.256,0.7389999999999999,0.19414285714285712,9.290020408163265
0.264,0.7029999999999998,0.185,9.245857142857142
0.272,0.6669999999999998,0.17585714285714282,9.201693877551019
0.28,0.6309999999999998,0.16671428571428568,9.157530612244898
0.28800000000000003,0.5949999999999999,0.15757142857142853,9.113367346938775
0.296,0.559,0.14842857142857144,9.069204081632652
0.304,0.523,0.1392857142857143,9.02504081632653
0.312,-0.875,0.555,6.825
0.32,-0.8952247191011237,0.5359438202247191,6.694573033707865
0.328,-0.9154494382022472,0.5168876404494382,6.56414606741573
0.336,-0.9356741573033709,0.4978314606741573,6.433719101123596
0.34400000000000003,-0.9558988764044944,0.4787752808988764,6.303292134831461
0.352,-0.9761235955056179,0.4597191011235956,6.172865168539326
0.36,-0.9963483146067416,0.4406629213483147,6.042438202247191
0.368,-1.0165730337078651,0.4216067415730338,5.912011235955056
0.376,-1.036797752808989,0.4025505617977529,5.781584269662922
0.384,-1.0570224719101124,0.383494382022472,5.651157303370787
0.392,-1.077247191011236,0.36443820224719103,5.520730337078652
0.4,-1.0974719101123596,0.34538202247191013,5.3903033707865164
0.40800000000000003,-0.2527272727272727,0.08258585858585843,4.0149191919191916
0.41600000000000004,-0.06363636363636338,-0.4190707070707078,3.9905959595959595
0.424,0.1254545454545446,-0.9207272727272706,3.9662727272727274
0.432,0.31454545454545385,-1.4223838383838368,3.941949494949495
0.44,0.5036363636363632,-1.9240404040404029,3.917626262626263
0.448,0.6927272727272724,-2.425696969696969,3.8933030303030303
0.456,0.8818181818181816,-2.927353535353535,3.868979797979798
0.464,1.070909090909091,-3.4290101010101015,3.8446565656565657
0.47200000000000003,1.2600000000000002,-3.930666666666667,3.8203333333333336
0.48,1.4490909090909083,-4.43232323232323,3.796010101010101
0.488,1.6381818181818175,-4.933979797979797,3.771686868686869
0.496,1.827272727272727,-5.4356363636363625,3.7473636363636365
0.504,2.016363636363636,-5.937292929292929,3.7230404040404044
0.512,-1.496404255319149,-5.73063829787234,9.117489361702129
0.52,-1.5180212765957448,-5.909191489361702,9.255446808510639
0.528,-1.5396382978723406,-6.087744680851064,9.39340425531915
0.536,-1.5612553191489364,-6.266297872340426,9.531361702127661
0.544,-1.582872340425532,-6.444851063829788,9.669319148936172
0.552,-1.6044893617021279,-6.62340425531915,9.807276595744682
0.56,-1.6261063829787237,-6.801957446808512,9.945234042553192
0.5680000000000001,-1.6477234042553195,-6.980510638297874,10.083191489361704
0.5760000000000001,-1.669340425531915,-7.159063829787236,10.221148936170215
0.584,-1.6909574468085107,-7.337617021276595,10.359106382978723
0.592,-1.7125744680851065,-7.516170212765957,10.497063829787235
0.6,-1.7341914893617023,-7.694723404255319,10.635021276595745
0.608,-0.47699999999999987,-10.789,11.609
0.616,1.2142473118279569,-11.648774193548388,11.233075268817204
0.624,1.1893870967741935,-11.536516129032258,11.05716129032258
0.632,1.16452688172043,-11.42425806451613,10.881247311827957
0.64,1.1396666666666666,-11.312,10.705333333333334
0.648,1.114806451612903,-11.199741935483871,10.529419354838709
0.656,1.0899462365591397,-11.087483870967741,10.353505376344085
0.664,1.0650860215053761,-10.975225806451611,10.177591397849461
0.672,1.0402258064516126,-10.862967741935483,10.001677419354838
0.68,1.0153655913978492,-10.750709677419353,9.825763440860214
0.6880000000000001,0.9905053763440856,-10.638451612903225,9.649849462365589
0.6960000000000001,0.9656451612903223,-10.526193548387095,9.473935483870966
0.704,0.2819999999999999,-9.926,8.606
0.712,0.6392307692307693,-8.488000000000001,8.181846153846154
0.72,0.6933333333333334,-8.350114942528736,8.08073563218391
0.728,0.7546666666666667,-8.254574712643679,7.947678160919541
0.736,0.8160000000000001,-8.15903448275862,7.814620689655173
0.744,0.8773333333333333,-8.063494252873564,7.681563218390805
0.752,0.9386666666666668,-7.967954022988506,7.548505747126438
0.76,1.0,-7.872413793103449,7.415448275862069
0.768,1.0613333333333332,-7.776873563218391,7.282390804597702
0.776,1.1226666666666667,-7.681333333333334,7.149333333333334
0.784,1.184,-7.585793103448276,7.016275862068966
0.792,1.2453333333333334,-7.490252873563218,6.883218390804598
0.8,1.3066666666666666,-7.394712643678161,6.75016091954023
0.808,0.951,-7.453,7.127
0.8160000000000001,0.898413043478261,-7.601978260869565,6.965108695652174
0.8240000000000001,1.037630434782609,-7.895282608695653,6.730586956521739
0.8320000000000001,1.176847826086957,-8.18858695652174,6.496065217391304
0.84,1.3160652173913032,-8.481891304347823,6.261543478260871
0.848,1.4552826086956512,-8.775195652173911,6.027021739130436
0.856,1.5944999999999991,-9.068499999999998,5.792500000000001
0.864,1.733717391304347,-9.361804347826086,5.557978260869566
0.872,1.872934782608695,-9.655108695652173,5.323456521739131
0.88,2.012152173913043,-9.948413043478261,5.088934782608696
0.888,2.151369565217391,-10.241717391304348,4.854413043478261
0.896,2.290586956521739,-10.535021739130435,4.619891304347826
0.904,2.1755,-10.3955,1.7965
0.912,1.1751578947368422,-9.259368421052631,1.2527894736842105
0.92,1.1274105263157894,-9.282357894736842,1.2476526315789473
0.928,1.0796631578947369,-9.305347368421053,1.2425157894736842
0.936,1.0319157894736841,-9.328336842105262,1.2373789473684211
0.9440000000000001,0.9841684210526314,-9.351326315789473,1.2322421052631578
0.9520000000000001,0.9364210526315787,-9.374315789473684,1.2271052631578947
0.96,0.8886736842105267,-9.397305263157895,1.2219684210526316
0.968,0.840926315789474,-9.420294736842106,1.2168315789473685
0.976,0.7931789473684212,-9.443284210526317,1.2116947368421054
0.984,0.7454315789473686,-9.466273684210528,1.2065578947368423
0.992,0.6976842105263159,-9.489263157894737,1.201421052631579
1.0,0.6499368421052631,-9.512252631578948,1.1962842105263158
1.008,0.5076666666666667,-10.094333333333333,1.8086666666666666
1.016,0.4859777777777778,-9.921977777777778,2.2349333333333337
1.024,0.48793333333333333,-9.875933333333334,2.2728
1.032,0.4898888888888889,-9.829888888888888,2.3106666666666666
1.04,0.4918444444444444,-9.783844444444444,2.3485333333333336
1.048,0.4938,-9.7378,2.3864
1.056,0.49575555555555556,-9.691755555555556,2.4242666666666666
1.064,0.4977111111111111,-9.645711111111112,2.4621333333333335
1.072,0.49966666666666665,-9.599666666666666,2.5
1.08,0.5016222222222222,-9.553622222222222,2.5378666666666665
1.088,0.5035777777777778,-9.507577777777778,2.5757333333333334
1.096,0.5055333333333334,-9.461533333333334,2.6136
1.104,0.5696666666666667,-9.403,2.6093333333333333
1.112,0.767,-9.395,2.448
1.12,1.055,-9.555,2.064
1.1280000000000001,1.1218641975308643,-9.568037037037037,1.9537777777777776
1.1360000000000001,1.1887283950617284,-9.581074074074074,1.8435555555555552
1.1440000000000001,1.2555925925925928,-9.594111111111111,1.733333333333333
1.1520000000000001,1.3224567901234572,-9.607148148148148,1.6231111111111105
1.16,1.3893209876543196,-9.620185185185184,1.5128888888888912
1.168,1.4561851851851837,-9.633222222222221,1.402666666666669
1.176,1.523049382716048,-9.646259259259258,1.2924444444444463
1.184,1.5899135802469124,-9.659296296296295,1.182222222222224
1.192,1.6567777777777768,-9.672333333333333,1.0720000000000016
1.2,1.723641975308641,-9.68537037037037,0.9617777777777792
1.208,1.648979381443299,-9.76481443298969,0.462319587628866
1.216,1.776896907216495,-9.732072164948454,0.47559793814432993
1.224,1.904814432989691,-9.699329896907216,0.4888762886597939
1.232,2.032731958762887,-9.66658762886598,0.5021546391752578
1.24,2.160649484536083,-9.633845360824742,0.5154329896907217
1.248,2.2885670103092792,-9.601103092783504,0.5287113402061856
1.256,2.416484536082475,-9.568360824742268,0.5419896907216496
1.264,2.544402061855671,-9.53561855670103,0.5552680412371135
1.272,2.6723195876288672,-9.502876288659794,0.5685463917525775
1.28,2.8002371134020634,-9.470134020618556,0.5818247422680414
1.288,2.9281546391752595,-9.43739175257732,0.5951030927835053
1.296,3.0560721649484552,-9.404649484536082,0.6083814432989693
1.304,3.174000000000001,-9.317999999999993,0.6600000000000044
1.312,3.1379999999999995,-9.2285,0.7700000000000011
1.32,3.0981489361702126,-9.292617021276596,0.8573617021276596
1.328,2.9676808510638293,-9.320106382978723,0.8805106382978725
1.336,2.837212765957446,-9.347595744680852,0.9036595744680853
1.344,2.7067446808510627,-9.37508510638298,0.926808510638298
1.352,2.5762765957446794,-9.402574468085106,0.9499574468085109
1.36,2.4458085106382965,-9.430063829787235,0.9731063829787238
1.368,2.3153404255319128,-9.457553191489362,0.9962553191489366
1.3760000000000001,2.18487234042553,-9.48504255319149,1.0194042553191494
1.3840000000000001,2.054404255319146,-9.512531914893618,1.0425531914893622
1.3920000000000001,1.923936170212763,-9.540021276595747,1.065702127659575
1.4000000000000001,1.7934680851063798,-9.567510638297874,1.088851063829788
1.408,1.6630000000000003,-9.595,1.112
1.416,1.641934065934064,-9.652747252747254,1.1107692307692312
1.424,1.77775824175824,-9.625406593406595,1.0861538461538465
1.432,1.913582417582416,-9.598065934065934,1.061538461538462
1.44,2.049406593406592,-9.570725274725275,1.0369230769230773
1.448,2.185230769230768,-9.543384615384616,1.0123076923076926
1.456,2.3210549450549443,-9.516043956043957,0.9876923076923079
1.464,2.45687912087912,-9.488703296703298,0.9630769230769233
1.472,2.592703296703296,-9.461362637362638,0.9384615384615386
1.48,2.728527472527472,-9.434021978021978,0.913846153846154
1.488,2.864351648351648,-9.406681318681319,0.8892307692307693
1.496,3.000175824175824,-9.37934065934066,0.8646153846153846
1.504,3.136,-9.352,0.84
1.512,3.1232,-9.3424,0.728
1.52,3.013714285714284,-9.367428571428572,0.6485714285714278
1.528,3.042829268292683,-9.407121951219512,0.5497560975609757
1.536,3.041268292682927,-9.405951219512195,0.5360975609756098
1.544,3.0397073170731708,-9.404780487804878,0.5224390243902439
1.552,3.0381463414634147,-9.403609756097561,0.5087804878048781
1.56,3.0365853658536586,-9.402439024390244,0.4951219512195122
1.568,3.0350243902439025,-9.401268292682927,0.4814634146341463
1.576,3.0334634146341464,-9.40009756097561,0.4678048780487805
1.584,3.0319024390243903,-9.398926829268293,0.45414634146341465
1.592,3.030341463414634,-9.397756097560976,0.4404878048780488
1.6,3.028780487804878,-9.396585365853658,0.4268292682926829
1.608,3.0580000000000034,-9.355999999999996,0.42
1.616,3.1006736842105265,-9.316294736842107,0.41852631578947364
1.624,3.1151578947368423,-9.31663157894737,0.41684210526315785
1.6320000000000001,3.1296421052631582,-9.316968421052632,0.41515789473684206
1.6400000000000001,3.144126315789474,-9.317305263157895,0.41347368421052627
1.6480000000000001,3.1586105263157895,-9.31764210526316,0.4117894736842105
1.6560000000000001,3.1730947368421054,-9.317978947368422,0.4101052631578947
1.6640000000000001,3.1875789473684213,-9.318315789473685,0.4084210526315789
1.672,3.2020631578947367,-9.318652631578948,0.4067368421052632
1.68,3.2165473684210526,-9.31898947368421,0.4050526315789474
1.688,3.231031578947368,-9.319326315789475,0.4033684210526316
1.696,3.245515789473684,-9.319663157894738,0.4016842105263158
1.704,3.26,-9.32,0.4
1.712,3.26,-9.32,0.4
1.72,3.2558260869565214,-9.316869565217392,0.40695652173913044
1.728,3.2516521739130435,-9.313739130434783,0.41391304347826086
1.736,3.247478260869565,-9.310608695652174,0.42086956521739133
1.744,3.243304347826087,-9.307478260869566,0.42782608695652175
1.752,3.239130434782609,-9.304347826086957,0.43478260869565216
1.76,3.2349565217391305,-9.301217391304348,0.44173913043478263
1.768,3.230782608695652,-9.29808695652174,0.44869565217391305
1.776,3.226608695652174,-9.294956521739131,0.45565217391304347
1.784,3.222434782608696,-9.291826086956522,0.4626086956521739
1.792,3.2182608695652175,-9.288695652173914,0.4695652173913043
1.8,3.214086956521739,-9.285565217391305,0.4765217391304348
1.808,3.104,-9.328,0.56
1.816,3.104,-9.328,0.56
1.824,3.104,-9.328,0.56
1.832,3.104,-9.328,0.56
1.84,3.104,-9.328,0.56
1.848,3.104,-9.328,0.56
1.856,3.104,-9.328,0.56
1.864,3.104,-9.328,0.56
1.872,3.104,-9.328,0.56
1.8800000000000001,3.104,-9.328,0.56
1.8880000000000001,3.104,-9.328,0.56
1.8960000000000001,3.104,-9.328,0.56
1.9040000000000001,3.104,-9.328,0.56
1.9120000000000001,3.1039999999999868,-9.328000000000017,0.56
1.92,2.9826966292134833,-9.356404494382021,0.5
1.928,2.9880898876404496,-9.349213483146066,0.5
1.936,2.993483146067416,-9.342022471910111,0.5
1.944,2.998876404494382,-9.334831460674156,0.5
1.952,3.0042696629213483,-9.327640449438201,0.5
1.96,3.0096629213483146,-9.320449438202246,0.5
1.968,3.015056179775281,-9.313258426966291,0.5
1.976,3.020449438202247,-9.306067415730336,0.5
1.984,3.025842696629214,-9.298876404494381,0.5
1.992,3.03123595505618,-9.291685393258426,0.5
2.0,3.0366292134831463,-9.284494382022471,0.5
2.008,3.107200000000004,-9.330400000000003,0.48799999999999927
2.016,3.0901098901098902,-9.317582417582418,0.42197802197802203
2.024,3.095736263736264,-9.3218021978022,0.4272527472527473
2.032,3.1013626373626377,-9.326021978021979,0.4325274725274726
2.04,3.106989010989011,-9.330241758241758,0.4378021978021978
2.048,3.112615384615385,-9.33446153846154,0.4430769230769231
2.056,3.1182417582417585,-9.338681318681319,0.44835164835164837
2.064,3.123868131868132,-9.3429010989011,0.45362637362637365
2.072,3.1294945054945056,-9.34712087912088,0.4589010989010989
2.08,3.1351208791208793,-9.35134065934066,0.46417582417582415
2.088,3.140747252747253,-9.35556043956044,0.4694505494505494
2.096,3.1463736263736264,-9.359780219780221,0.4747252747252747
2.104,3.152,-9.364,0.48
2.112,3.1319578947368423,-9.348968421052632,0.3520000000000005
2.12,3.121178947368421,-9.340884210526315,0.3840000000000004
2.128,3.1104,-9.3328,0.41600000000000037
2.136,3.099621052631579,-9.324715789473684,0.44800000000000034
2.144,3.088842105263158,-9.31663157894737,0.4800000000000003
2.152,3.0780631578947366,-9.308547368421053,0.5120000000000002
2.16,3.067284210526316,-9.300463157894738,0.5440000000000003
2.168,3.0565052631578946,-9.292378947368421,0.5760000000000002
2.176,3.045726315789474,-9.284294736842105,0.6080000000000001
2.184,3.0349473684210526,-9.27621052631579,0.6400000000000001
2.192,3.0241684210526314,-9.268126315789473,0.672
2.2,3.0133894736842106,-9.260042105263159,0.704
2.208,3.032000000000002,-9.274000000000001,0.679999999999997
2.216,3.10189010989011,-9.326417582417582,0.558021978021978
2.224,3.096263736263736,-9.3221978021978,0.5527472527472527
2.232,3.0906373626373624,-9.317978021978021,0.5474725274725274
2.24,3.085010989010989,-9.313758241758242,0.5421978021978021
2.248,3.0793846153846154,-9.30953846153846,0.5369230769230768
2.2560000000000002,3.0737582417582416,-9.305318681318681,0.5316483516483514
2.2640000000000002,3.068131868131868,-9.3010989010989,0.5263736263736262
2.2720000000000002,3.062505494505494,-9.29687912087912,0.5210989010989009
2.2800000000000002,3.056879120879121,-9.29265934065934,0.5158241758241756
2.2880000000000003,3.051252747252747,-9.28843956043956,0.5105494505494503
2.2960000000000003,3.0456263736263733,-9.284219780219779,0.5052747252747251
2.3040000000000003,3.0400000000000214,-9.280000000000015,0.4999999999999645
2.312,3.026530612244898,-9.394897959183675,0.42244897959183647
2.32,3.0226122448979593,-9.39195918367347,0.42897959183673445
2.328,3.0186938775510206,-9.389020408163265,0.4355102040816324
2.336,3.014775510204082,-9.386081632653061,0.44204081632653036
2.344,3.010857142857143,-9.383142857142857,0.44857142857142834
2.352,3.0069387755102044,-9.380204081632654,0.4551020408163263
2.36,3.003020408163265,-9.37726530612245,0.4616326530612243
2.368,2.9991020408163265,-9.374326530612246,0.4681632653061223
2.376,2.9951836734693877,-9.37138775510204,0.47469387755102027
2.384,2.991265306122449,-9.368448979591836,0.48122448979591825
2.392,2.9873469387755103,-9.365510204081632,0.4877551020408162
2.4,2.9834285714285715,-9.362571428571428,0.49428571428571416
2.408,2.98,-9.36,0.5
2.416,3.036,-9.341739130434782,0.572304347826087
2.424,2.9,-9.369217391304348,0.5969130434782609
2.432,2.7640000000000002,-9.396695652173912,0.6215217391304348
2.44,2.628,-9.424173913043479,0.6461304347826087
2.448,2.492,-9.451652173913043,0.6707391304347826
2.456,2.356,-9.479130434782608,0.6953478260869566
2.464,2.22,-9.506608695652174,0.7199565217391304
2.472,2.084,-9.534086956521739,0.7445652173913043
2.48,1.948,-9.561565217391305,0.7691739130434783
2.488,1.812,-9.58904347826087,0.7937826086956522
2.496,1.676,-9.616521739130436,0.8183913043478261
2.504,1.54,-9.644,0.843
2.512,1.4709400000000001,-9.711229999999999,0.8559000000000001
2.52,1.47878,-9.70651,0.8663000000000001
2.528,1.48662,-9.701789999999999,0.8767000000000001
2.536,1.4944600000000001,-9.69707,0.8871000000000001
2.544,1.5023000000000002,-9.69235,0.8975000000000001
2.552,1.51014,-9.687629999999999,0.9079000000000002
2.56,1.51798,-9.68291,0.9183000000000001
2.568,1.5258200000000002,-9.678189999999999,0.9287000000000001
2.576,1.5336600000000002,-9.67347,0.9391000000000002
2.584,1.5415,-9.66875,0.9495000000000001
2.592,1.5493400000000002,-9.66403,0.9599000000000001
2.6,1.5571800000000002,-9.65931,0.9703000000000002
2.608,1.56502,-9.65459,0.9807000000000001
2.616,1.5371999999999995,-9.681600000000001,0.9852000000000001
2.624,1.494,-9.723,0.99
2.632,1.494,-9.723,0.99
2.64,1.494,-9.723,0.99
2.648,1.494,-9.723,0.99
2.656,1.494,-9.723,0.99
2.664,1.494,-9.723,0.99
2.672,1.494,-9.723,0.99
2.68,1.494,-9.723,0.99
2.688,1.494,-9.723,0.99
2.696,1.494,-9.723,0.99
2.704,1.494,-9.723,0.99
2.712,1.4787500000000018,-9.709000000000001,0.9757500000000016
2.72,1.6179886363636358,-9.708636363636364,1.0487727272727279
2.728,1.605170454545454,-9.706454545454546,1.0644090909090915
2.736,1.592352272727272,-9.704272727272727,1.0800454545454552
2.744,1.5795340909090902,-9.70209090909091,1.0956818181818189
2.7520000000000002,1.5667159090909086,-9.699909090909092,1.1113181818181825
2.7600000000000002,1.5538977272727268,-9.697727272727272,1.1269545454545462
2.7680000000000002,1.541079545454545,-9.695545454545455,1.1425909090909097
2.7760000000000002,1.5282613636363631,-9.693363636363637,1.1582272727272733
2.7840000000000003,1.5154431818181813,-9.691181818181818,1.173863636363637
2.7920000000000003,1.5026249999999994,-9.689,1.1895000000000007
2.8000000000000003,1.4898068181818178,-9.686818181818182,1.2051363636363643
2.8080000000000003,1.4537500000000003,-9.639729166666667,1.2930208333333335
2.816,1.4647499999999998,-9.638645833333333,1.2971041666666665
2.824,1.4757499999999997,-9.637562500000001,1.3011875
2.832,1.4867499999999998,-9.636479166666668,1.3052708333333332
2.84,1.4977499999999997,-9.635395833333334,1.3093541666666666
2.848,1.5087499999999998,-9.6343125,1.3134374999999998
2.856,1.5197499999999997,-9.633229166666668,1.3175208333333333
2.864,1.5307499999999996,-9.632145833333334,1.3216041666666665
2.872,1.5417499999999997,-9.6310625,1.3256875
2.88,1.5527499999999996,-9.629979166666667,1.3297708333333331
2.888,1.5637499999999998,-9.628895833333335,1.3338541666666666
2.896,1.5747499999999997,-9.627812500000001,1.3379374999999998
2.904,1.623,-9.664333333333333,1.379
2.912,1.7093829787234043,-9.614553191489362,1.3869574468085106
2.92,1.698148936170213,-9.615659574468086,1.3828723404255319
2.928,1.6869148936170213,-9.616765957446809,1.378787234042553
2.936,1.6756808510638297,-9.617872340425533,1.3747021276595743
2.944,1.6644468085106383,-9.618978723404256,1.3706170212765958
2.952,1.6532127659574467,-9.62008510638298,1.366531914893617
2.96,1.641978723404255,-9.621191489361703,1.3624468085106383
2.968,1.6307446808510637,-9.622297872340427,1.3583617021276595
2.976,1.6195106382978721,-9.62340425531915,1.3542765957446807
2.984,1.6082765957446805,-9.624510638297872,1.350191489361702
2.992,1.5970425531914891,-9.625617021276597,1.3461063829787232
3.0,1.5858085106382975,-9.62672340425532,1.3420212765957444
3.008,1.6190000000000004,-9.6606,1.3752000000000004
3.016,1.588000000000001,-9.7104,1.1827000000000008
3.024,1.745177215189874,-9.661784810126582,1.305848101265823
3.032,1.714594936708861,-9.67606329113924,1.2886329113924053
3.04,1.6840126582278483,-9.690341772151898,1.2714177215189875
3.048,1.6534303797468355,-9.704620253164556,1.2542025316455696
3.056,1.6228481012658227,-9.718898734177216,1.2369873417721517
3.064,1.5922658227848099,-9.733177215189874,1.2197721518987341
3.072,1.561683544303797,-9.747455696202532,1.2025569620253163
3.08,1.5311012658227843,-9.76173417721519,1.1853417721518984
3.088,1.5005189873417717,-9.776012658227849,1.1681265822784805
3.096,1.469936708860759,-9.790291139240507,1.1509113924050627
3.104,1.6003333333333447,-9.752999999999997,1.2566666666666755
3.112,1.916015873015873,-9.528761904761906,1.4297936507936508
3.12,1.910047619047619,-9.522285714285715,1.4313809523809524
3.128,1.904079365079365,-9.515809523809525,1.432968253968254
3.136,1.898111111111111,-9.509333333333334,1.4345555555555556
3.144,1.8921428571428571,-9.502857142857144,1.4361428571428572
3.152,1.8861746031746032,-9.496380952380953,1.4377301587301587
3.16,1.8802063492063492,-9.489904761904763,1.4393174603174603
3.168,1.8742380952380953,-9.483428571428572,1.440904761904762
3.176,1.868269841269841,-9.476952380952381,1.4424920634920635
3.184,1.8623015873015871,-9.470476190476191,1.444079365079365
3.192,1.8563333333333332,-9.464,1.4456666666666667
3.2,1.8503650793650792,-9.45752380952381,1.4472539682539682
3.208,1.8443968253968253,-9.45104761904762,1.4488412698412698
3.216,1.8384285714285713,-9.444571428571429,1.4504285714285714
3.224,1.8324603174603173,-9.438095238095238,1.452015873015873
3.232,1.8264920634920632,-9.431619047619048,1.4536031746031746
3.24,2.27,-9.572,1.722
3.248,2.319745762711864,-9.543728813559323,1.3525423728813564
3.2560000000000002,2.2412372881355926,-9.479186440677966,1.5136271186440693
3.2640000000000002,2.162728813559321,-9.41464406779661,1.674711864406782
3.2720000000000002,2.0842203389830494,-9.350101694915253,1.8357966101694947
3.2800000000000002,2.0057118644067775,-9.285559322033897,1.9968813559322074
3.2880000000000003,1.927203389830506,-9.22101694915254,2.15796610169492
3.2960000000000003,1.8486949152542345,-9.156474576271183,2.319050847457633
3.3040000000000003,1.8006666666666729,-9.194000000000027,2.3616666666666375
3.3120000000000003,1.889869565217391,-9.489217391304347,1.8754891304347834
3.3200000000000003,1.8808260869565214,-9.474956521739129,1.8954021739130442
3.3280000000000003,1.8717826086956517,-9.460695652173913,1.915315217391305
3.336,1.8627391304347827,-9.446434782608696,1.935228260869565
3.344,1.8536956521739132,-9.432173913043478,1.9551413043478258
3.352,1.8446521739130435,-9.417913043478261,1.9750543478260867
3.36,1.835608695652174,-9.403652173913043,1.9949673913043475
3.368,1.8265652173913045,-9.389391304347827,2.0148804347826084
3.376,1.8175217391304348,-9.375130434782609,2.034793478260869
3.384,1.8084782608695653,-9.360869565217392,2.05470652173913
3.392,1.7994347826086958,-9.346608695652174,2.074619565217391
3.4,1.7903913043478261,-9.332347826086957,2.0945326086956517
3.408,1.64245454545455,-9.364272727272727,2.1224545454545445
3.416,1.586643678160921,-9.402172413793103,2.1951609195402306
3.424,1.479793103448277,-9.419551724137932,2.1564482758620693
3.432,1.372942528735633,-9.43693103448276,2.1177356321839085
3.44,1.2660919540229887,-9.454310344827586,2.079022988505747
3.448,1.1592413793103447,-9.471689655172414,2.0403103448275863
3.456,1.0523908045977004,-9.489068965517243,2.001597701149425
3.464,0.9455402298850565,-9.50644827586207,1.962885057471264
3.472,0.8386896551724123,-9.523827586206897,1.9241724137931029
3.48,0.7318390804597683,-9.541206896551724,1.8854597701149418
3.488,0.6249885057471242,-9.558586206896553,1.8467471264367807
3.496,0.51813793103448,-9.57596551724138,1.8080344827586197
3.504,0.4366666666666666,-9.709666666666676,1.865666666666673
3.512,0.2676262626262626,-9.63919191919192,2.0066565656565656
3.52,0.3448787878787878,-9.597575757575758,2.057969696969697
3.528,0.4221313131313129,-9.555959595959596,2.1092828282828284
3.536,0.49938383838383815,-9.514343434343434,2.1605959595959594
3.544,0.5766363636363633,-9.472727272727273,2.211909090909091
3.552,0.6538888888888884,-9.431111111111111,2.263222222222222
3.56,0.7311414141414136,-9.38949494949495,2.3145353535353532
3.568,0.8083939393939388,-9.347878787878788,2.3658484848484846
3.576,0.8856464646464639,-9.306262626262626,2.4171616161616156
3.584,0.9628989898989891,-9.264646464646464,2.468474747474747
3.592,1.0401515151515144,-9.223030303030303,2.519787878787878
3.6,1.1174040404040395,-9.181414141414141,2.5711010101010094
3.608,1.2719999999999905,-9.226999999999991,2.7464999999999855
3.616,1.3418351648351634,-9.262934065934068,3.1427692307692285
3.624,1.2891758241758229,-9.294670329670332,3.057846153846152
3.632,1.2365164835164821,-9.326406593406595,2.972923076923075
3.64,1.1838571428571416,-9.358142857142859,2.887999999999998
3.648,1.131197802197801,-9.389879120879122,2.8030769230769215
3.656,1.0785384615384603,-9.421615384615386,2.7181538461538444
3.664,1.0258791208791198,-9.45335164835165,2.6332307692307677
3.672,0.9732197802197793,-9.485087912087913,2.5483076923076906
3.68,0.9205604395604386,-9.516824175824176,2.463384615384614
3.688,0.867901098901098,-9.54856043956044,2.3784615384615373
3.696,0.8152417582417575,-9.580296703296703,2.29353846153846
3.704,0.7625824175824168,-9.612032967032967,2.208615384615383
3.712,0.811,-10.351,1.236
3.72,0.7959887640449439,-10.341382022471912,1.1987865168539324
3.728,0.7809775280898876,-10.33176404494382,1.1615730337078651
3.736,0.7659662921348315,-10.322146067415732,1.1243595505617976
3.744,0.7509550561797752,-10.31252808988764,1.08714606741573
3.7520000000000002,0.735943820224719,-10.302910112359552,1.0499325842696627
3.7600000000000002,0.7209325842696629,-10.29329213483146,1.0127191011235952
3.7680000000000002,0.7059213483146066,-10.283674157303372,0.9755056179775277
3.7760000000000002,0.6909101123595505,-10.27405617977528,0.9382921348314603
3.7840000000000003,0.6758988764044942,-10.264438202247192,0.9010786516853928
3.7920000000000003,0.660887640449438,-10.2548202247191,0.8638651685393253
3.8000000000000003,0.6458764044943819,-10.245202247191012,0.826651685393258
3.8080000000000003,0.25549999999999384,-10.030499999999996,0.10274999999998857
3.8160000000000003,0.35599999999999876,-8.776,-0.18200000000001262
3.8240000000000003,0.3341647058823517,-8.790494117647059,-0.40929411764707174
3.8320000000000003,0.3123294117647046,-8.804988235294118,-0.6365882352941309
3.84,0.29049411764705874,-8.819482352941176,-0.8638823529411774
3.848,0.2686588235294116,-8.833976470588235,-1.0911764705882365
3.856,0.24682352941176455,-8.848470588235294,-1.3184705882352956
3.864,0.22498823529411746,-8.862964705882353,-1.5457647058823547
3.872,0.20315294117647037,-8.877458823529413,-1.7730588235294138
3.88,0.1813176470588233,-8.89195294117647,-2.000352941176473
3.888,0.15948235294117621,-8.90644705882353,-2.227647058823532
3.896,0.13764705882352912,-8.920941176470588,-2.4549411764705913
3.904,0.8125000000000255,-10.034750000000042,-1.3767499999999548
3.912,-0.523698924731183,-9.163301075268818,-0.49721505376344083
3.92,-0.48309677419354863,-9.067903225806452,-0.5136451612903224
3.928,-0.44249462365591435,-8.972505376344087,-0.5300752688172041
3.936,-0.40189247311828014,-8.877107526881723,-0.5465053763440858
3.944,-0.36129032258064586,-8.781709677419357,-0.5629354838709675
3.952,-0.3206881720430116,-8.686311827956992,-0.5793655913978492
3.96,-0.2800860215053773,-8.590913978494626,-0.5957956989247308
3.968,-0.23948387096774304,-8.49551612903226,-0.6122258064516125
3.976,-0.19888172043010877,-8.400118279569895,-0.6286559139784942
3.984,-0.1582795698924745,-8.30472043010753,-0.6450860215053759
3.992,-0.11767741935484022,-8.209322580645166,-0.6615161290322575
4.0,-0.077075268817206,-8.1139247311828,-0.6779462365591391
4.008,-1.221,-8.748,-1.415
4.016,-1.1979462365591398,-8.562537634408601,-1.57241935483871
4.024,-1.1748924731182795,-8.377075268817203,-1.7298387096774197
4.032,-1.1518387096774194,-8.191612903225804,-1.8872580645161297
4.04,-1.1287849462365591,-8.006150537634408,-2.0446774193548394
4.048,-1.1057311827956988,-7.820688172043009,-2.2020967741935493
4.056,-1.0826774193548385,-7.635225806451611,-2.3595161290322593
4.064,-1.0596236559139782,-7.449763440860213,-2.516935483870969
4.072,-1.0365698924731181,-7.264301075268815,-2.6743548387096787
4.08,-1.0135161290322579,-7.078838709677417,-2.831774193548389
4.088,-0.9904623655913976,-6.893376344086019,-2.9891935483870986
4.096,-0.9674086021505373,-6.707913978494621,-3.1466129032258086
4.104,-1.0017499999999964,-6.261250000000024,-2.663000000000043
4.112,-1.6640526315789483,-4.7337719298245595,-2.9824561403508745
4.12,-1.682157894736843,-4.695315789473683,-2.931368421052629
4.128,-1.7002631578947376,-4.656859649122805,-2.880280701754384
4.136,-1.7183684210526322,-4.618403508771928,-2.8291929824561386
4.144,-1.7364736842105268,-4.579947368421052,-2.7781052631578933
4.152,-1.7545789473684215,-4.541491228070175,-2.727017543859648
4.16,-1.772684210526316,-4.503035087719297,-2.6759298245614027
4.168,-1.7907894736842107,-4.4645789473684205,-2.6248421052631574
4.176,-1.8088947368421053,-4.426122807017544,-2.5737543859649117
4.184,-1.827,-4.387666666666667,-2.5226666666666664
4.192,-1.8451052631578946,-4.349210526315789,-2.471578947368421
4.2,-1.8632105263157892,-4.310754385964913,-2.420491228070176
4.208,-1.8813157894736838,-4.272298245614036,-2.3694035087719305
4.216,-1.8994210526315785,-4.233842105263159,-2.318315789473685
4.224,-2.5066666666666224,-4.470499999999981,-2.8346666666666254
4.232,-4.881333333333377,-5.53250000000002,-5.053333333333374
4.24,-6.279718750000001,1.507374999999986,7.95409375000002
4.248,-6.278593750000001,2.088874999999994,7.154468750000008
4.256,-6.27746875,2.670375000000002,6.354843749999997
4.264,-6.27634375,3.2518750000000103,5.555218749999986
4.272,-6.27521875,3.8333750000000184,4.755593749999974
4.28,-6.27409375,4.414875000000027,3.955968749999964
4.288,-6.2729687499999995,4.996375000000034,3.1563437499999525
4.296,-6.2718437499999995,5.577875000000043,2.356718749999941
4.304,-6.2353333333333225,5.010999999999703,2.1486666666667826
4.312,28.328000000000003,-19.61,19.635
4.32,29.6252584269663,-20.281280898876407,19.626101123595507
4.328,30.9225168539326,-20.952561797752818,19.617202247191013
4.336,32.2197752808989,-21.623842696629225,19.60830337078652
4.344,33.5170337078652,-22.295123595505633,19.599404494382025
4.352,34.8142921348315,-22.966404494382044,19.59050561797753
4.36,36.1115505617978,-23.63768539325845,19.581606741573033
4.368,37.4088089887641,-24.308966292134862,19.57270786516854
4.376,38.7060674157304,-24.98024719101127,19.563808988764045
4.384,40.0033258426967,-25.651528089887677,19.55491011235955
4.392,41.300584269663,-26.322808988764088,19.546011235955056
4.4,42.5978426966293,-26.994089887640495,19.537112359550562
4.408,19.33974999999814,-28.597875000000123,-3.6165000000018352
4.416,-5.264943181818176,-0.4552272727272726,14.473409090909094
4.424,-4.8861249999999945,-0.44249999999999984,14.626500000000002
4.432,-4.507306818181813,-0.4297727272727271,14.779590909090912
4.44,-4.128488636363631,-0.4170454545454544,14.932681818181821
4.448,-3.7496704545454493,-0.40431818181818163,15.08577272727273
4.456,-3.3708522727272676,-0.39159090909090893,15.23886363636364
4.464,-2.992034090909086,-0.3788636363636362,15.39195454545455
4.472,-2.6132159090909037,-0.3661363636363635,15.545045454545457
4.48,-2.234397727272722,-0.35340909090909073,15.698136363636367
4.488,-1.8555795454545403,-0.340681818181818,15.851227272727275
4.496,-1.4767613636363586,-0.3279545454545453,16.004318181818185
4.5040000000000004,17.443999999996386,-3.2079999999974014,-14.159999999995497
4.5120000000000005,8.78056842105261,2.7756842105263213,-3.51258947368419
4.5200000000000005,8.077326315789449,2.951263157894743,-2.8360421052631346
4.5280000000000005,7.37408421052629,3.1268421052631643,-2.15949473684208
4.5360000000000005,6.670842105263128,3.302421052631586,-1.4829473684210246
4.5440000000000005,5.967599999999969,3.4780000000000078,-0.8063999999999698
4.5520000000000005,5.264357894736809,3.6535789473684295,-0.12985263157891502
4.5600000000000005,4.561115789473648,3.829157894736851,0.5466947368421398
4.5680000000000005,3.857873684210488,4.004736842105273,1.2232421052631945
4.5760000000000005,3.1546315789473276,4.180315789473695,1.8997894736842502
4.5840000000000005,2.4513894736841673,4.355894736842116,2.576336842105305
4.5920000000000005,1.748147368421007,4.531473684210537,3.25288421052636
4.6000000000000005,1.0449052631578457,4.707052631578959,3.9294315789474146
4.6080000000000005,-2.6480000000002493,1.8169999999997986,3.7855454545454386
4.616,-2.857,-3.629,-2.8139999999999996
4.624,-5.085666666666669,-2.5095000000000036,1.5517499999999964
4.632,-4.999571428571431,-2.4037857142857177,1.6531785714285683
4.64,-4.913476190476192,-2.2980714285714314,1.7546071428571404
4.648,-4.827380952380953,-2.192357142857145,1.8560357142857122
4.656,-4.741285714285715,-2.086642857142859,1.957464285714284
4.664,-4.6551904761904765,-1.9809285714285725,2.058892857142856
4.672,-4.5690952380952385,-1.8752142857142862,2.160321428571428
4.68,-4.483,-1.7694999999999999,2.26175
4.688,-4.396904761904761,-1.6637857142857138,2.363178571428572
4.696,-4.310809523809523,-1.5580714285714274,2.464607142857144
4.704,-3.4266000000000982,-0.4066000000001284,0.8264000000002019
4.712,-1.13975555555556,-1.871955555555555,-1.6002555555555589
4.72,-1.0738000000000043,-1.8795999999999995,-1.5543000000000031
4.728,-1.0078444444444485,-1.887244444444444,-1.5083444444444474
4.736,-0.9418888888888929,-1.8948888888888884,-1.4623888888888918
4.744,-0.8759333333333372,-1.902533333333333,-1.416433333333336
4.752,-0.8099777777777815,-1.9101777777777773,-1.3704777777777803
4.76,-0.7440222222222258,-1.9178222222222219,-1.3245222222222246
4.768,-0.6780666666666701,-1.9254666666666662,-1.278566666666669
4.776,-0.6121111111111144,-1.9331111111111108,-1.2326111111111133
4.784,-0.5461555555555586,-1.9407555555555553,-1.1866555555555576
4.792,-0.48020000000000296,-1.9483999999999997,-1.140700000000002
4.8,-0.4142444444444473,-1.9560444444444443,-1.0947444444444463
4.808,14.844,-13.195,13.212
4.816,22.183257731958815,-27.81090721649485,19.306381443299
4.824,20.716123711340252,-27.63251546391753,18.43710309278353
4.832,19.248989690721686,-27.45412371134021,17.567824742268062
4.84,17.78185567010312,-27.27573195876289,16.698546391752593
4.848,16.314721649484554,-27.097340206185567,15.829268041237125
4.856,14.847587628865991,-26.918948453608248,14.959989690721656
4.864,13.380453608247425,-26.740556701030926,14.090711340206187
4.872,11.91331958762886,-26.562164948453606,13.221432989690719
4.88,10.446185567010296,-26.383773195876287,12.35215463917525
4.888,8.97905154639173,-26.205381443298965,11.48287628865978
4.896,7.511917525773166,-26.026989690721646,10.613597938144311
4.904,6.0447835051546015,-25.848597938144323,9.744319587628842
4.912,-13.633,-10.488,-0.7800000000000002
4.92,-13.299838709677397,-6.218000000000001,0.0032580645161346122
4.928,-12.538290322580622,-6.260666666666668,0.19826881720430686
4.936,-11.776741935483848,-6.303333333333335,0.39327956989247914
4.944,-11.015193548387073,-6.346000000000002,0.5882903225806514
4.952,-10.253645161290297,-6.388666666666668,0.7833010752688236
4.96,-9.492096774193522,-6.431333333333335,0.978311827956996
4.968,-8.730548387096746,-6.474000000000002,1.1733225806451681
4.976,-7.968999999999971,-6.516666666666668,1.3683333333333405
4.984,-7.207451612903196,-6.559333333333336,1.5633440860215126
4.992,-6.44590322580642,-6.602000000000002,1.758354838709685
5.0,-5.684354838709645,-6.6446666666666685,1.9533655913978574
5.008,-2.217,-5.833,2.217
5.016,2.635,-2.335,-0.1469999999999998
5.024,2.544674418604651,-2.2662558139534887,-0.10337209302325592
5.032,2.4543488372093027,-2.197511627906977,-0.059744186046511855
5.04,2.364023255813954,-2.128767441860466,-0.016116279069767786
5.048,2.2736976744186053,-2.060023255813954,0.027511627906976283
5.056,2.183372093023257,-1.9912790697674427,0.07113953488372035
5.064,2.0930465116279082,-1.9225348837209313,0.11476744186046442
5.072,2.0027209302325595,-1.8537906976744198,0.1583953488372085
5.08,1.9123953488372112,-1.7850465116279084,0.20202325581395256
5.088,1.8220697674418624,-1.7163023255813972,0.24565116279069663
5.096,1.731744186046514,-1.6475581395348855,0.28927906976744067
5.104,5.056250000000279,-10.128750000000608,-4.431875000000673
5.112,8.8455,-20.7245,-13.4225
5.12,6.210897727272749,-17.85694318181821,-8.245602272727274
5.128,5.5753522727272875,-17.084306818181837,-8.221147727272728
5.136,4.939806818181826,-16.311670454545464,-8.196693181818182
5.144,4.304261363636366,-15.539034090909094,-8.172238636363636
5.152,3.6687159090909045,-14.766397727272722,-8.14778409090909
5.16,3.0331704545454437,-13.993761363636352,-8.123329545454546
5.168,2.397624999999983,-13.22112499999998,-8.098875
5.176,1.7620795454545215,-12.448488636363608,-8.074420454545454
5.184,1.1265340909090602,-11.675852272727237,-8.049965909090908
5.192,0.4909886363635998,-10.903215909090864,-8.025511363636362
5.2,-0.1445568181818615,-10.130579545454493,-8.001056818181818
5.208,-0.8965555555555134,-3.6881111111111164,1.4092222222224335
5.216,0.4086022727272741,-5.47655681818182,4.594568181818177
5.224,0.5088750000000014,-5.5713750000000015,4.254749999999996
5.232,0.6091477272727286,-5.666193181818183,3.914931818181814
5.24,0.7094204545454559,-5.7610113636363645,3.575113636363632
5.248,0.8096931818181832,-5.855829545454546,3.23529545454545
5.256,0.9099659090909105,-5.950647727272728,2.8954772727272684
5.264,1.0102386363636378,-6.04546590909091,2.5556590909090864
5.272,1.110511363636365,-6.140284090909092,2.215840909090905
5.28,1.2107840909090921,-6.235102272727274,1.8760227272727228
5.288,1.3110568181818194,-6.329920454545456,1.5362045454545412
5.296,1.411329545454547,-6.424738636363638,1.1963863636363592
5.304,1.5769999999999798,-12.062500000000785,-3.1875000000008025
5.312,1.7436250000000095,-15.145999999999983,-6.54149999999999
5.32,2.0871250000000097,-14.541999999999984,-6.19549999999999
5.328,2.250696202531649,-14.179025316455688,-5.961886075949361
5.336,2.35429113924051,-13.896392405063281,-5.765734177215183
5.344,2.4578860759493715,-13.613759493670875,-5.569582278481005
5.352,2.5614810126582324,-13.331126582278468,-5.373430379746827
5.36,2.6650759493670937,-13.048493670886062,-5.177278481012649
5.368,2.768670886075955,-12.765860759493656,-4.9811265822784705
5.376,2.872265822784816,-12.48322784810125,-4.784974683544292
5.384,2.9758607594936772,-12.200594936708843,-4.588822784810114
5.392,3.0794556962025386,-11.917962025316438,-4.392670886075936
5.4,3.1830506329113994,-11.635329113924032,-4.196518987341758
5.408,1.296,-6.7,-3.372
5.416,1.3297021276595746,-6.793617021276597,-3.335574468085106
5.424,1.3634042553191494,-6.887234042553193,-3.299148936170212
5.432,1.3971063829787242,-6.980851063829789,-3.2627234042553184
5.44,1.4308085106382988,-7.0744680851063855,-3.2262978723404245
5.448,1.4645106382978734,-7.168085106382982,-3.1898723404255307
5.456,1.4982127659574482,-7.261702127659579,-3.153446808510637
5.464,1.531914893617023,-7.355319148936175,-3.117021276595743
5.472,1.5656170212765976,-7.448936170212772,-3.0805957446808487
5.48,1.5993191489361722,-7.542553191489367,-3.044170212765955
5.488,1.633021276595747,-7.636170212765964,-3.007744680851061
5.496,1.6667234042553218,-7.72978723404256,-2.971319148936167
5.5040000000000004,2.2000000000001614,-8.700000000000252,-2.9000000000000763
5.5120000000000005,2.924791208791208,-10.395604395604394,-2.8889230769230743
5.5200000000000005,2.8991208791208782,-10.36043956043956,-2.83230769230769
5.5280000000000005,2.8734505494505482,-10.325274725274724,-2.7756923076923052
5.5360000000000005,2.8477802197802187,-10.290109890109889,-2.719076923076921
5.5440000000000005,2.822109890109889,-10.254945054945054,-2.662461538461536
5.5520000000000005,2.7964395604395595,-10.219780219780219,-2.6058461538461515
5.5600000000000005,2.77076923076923,-10.184615384615384,-2.549230769230767
5.5680000000000005,2.7450989010989004,-10.149450549450549,-2.4926153846153825
5.5760000000000005,2.719428571428571,-10.114285714285714,-2.435999999999998
5.5840000000000005,2.693758241758241,-10.079120879120879,-2.3793846153846134
5.5920000000000005,2.6680879120879113,-10.043956043956044,-2.3227692307692287
5.6000000000000005,2.6424175824175817,-10.008791208791207,-2.2661538461538444
5.6080000000000005,1.241999999999976,-9.999999999999956,-1.0440000000000764
5.6160000000000005,1.1765591397849453,-9.869892473118277,-1.2036559139784937
5.6240000000000006,1.1634838709677409,-9.83548387096774,-1.1895483870967731
5.632,1.1504086021505382,-9.801075268817206,-1.1754408602150543
5.64,1.1373333333333338,-9.766666666666667,-1.1613333333333338
5.648,1.1242580645161295,-9.732258064516131,-1.1472258064516134
5.656,1.111182795698925,-9.697849462365593,-1.133118279569893
5.664,1.0981075268817209,-9.663440860215054,-1.1190107526881725
5.672,1.0850322580645166,-9.629032258064518,-1.1049032258064522
5.68,1.0719569892473122,-9.59462365591398,-1.0907956989247316
5.688,1.058881720430108,-9.560215053763441,-1.0766881720430113
5.696,1.0458064516129035,-9.525806451612905,-1.0625806451612907
5.704,1.148,-9.4,-1.436
5.712,1.8723636363636291,-9.109090909090913,-2.3610909090909
5.72,2.31,-8.95,-2.92
5.728,2.4897368421052635,-8.892105263157895,-3.165000000000001
5.736,2.5263684210526316,-8.871052631578948,-3.2530000000000006
5.744,2.5629999999999997,-8.85,-3.341
5.752,2.5996315789473683,-8.828947368421053,-3.4289999999999994
5.76,2.6362631578947364,-8.807894736842105,-3.516999999999999
5.768,2.6728947368421045,-8.786842105263158,-3.6049999999999986
5.776,2.7095263157894727,-8.76578947368421,-3.692999999999998
5.784,2.746157894736841,-8.744736842105263,-3.7809999999999975
5.792,2.782789473684209,-8.723684210526317,-3.868999999999997
5.8,2.8194210526315775,-8.702631578947368,-3.9569999999999963
5.808,2.928,-8.65,-4.146
5.816,2.5916521739130447,-9.222771739130433,-3.3458043478260877
5.824,2.488695652173914,-9.259206521739129,-3.2718913043478266
5.832,2.385739130434783,-9.295641304347825,-3.197978260869565
5.84,2.2827826086956517,-9.332076086956521,-3.124065217391304
5.848,2.179826086956521,-9.368510869565217,-3.050152173913043
5.856,2.07686956521739,-9.404945652173913,-2.9762391304347813
5.864,1.9739130434782592,-9.441380434782609,-2.90232608695652
5.872,1.8709565217391282,-9.477815217391305,-2.828413043478259
5.88,1.7679999999999971,-9.51425,-2.7544999999999975
5.888,1.6650434782608663,-9.550684782608696,-2.6805869565217364
5.896,1.5620869565217352,-9.587119565217392,-2.6066739130434753
5.904,1.205,-9.693,-2.22
5.912,0.622400000000002,-9.957400000000007,-1.5078000000000067
5.92,0.704576086956518,-9.90375,-1.5108369565217383
5.928,0.8046630434782576,-9.86575,-1.5357934782608689
5.936,0.9047499999999973,-9.82775,-1.5607499999999994
5.944,1.0048369565217368,-9.78975,-1.58570652173913
5.952,1.1049239130434765,-9.75175,-1.6106630434782605
5.96,1.205010869565216,-9.713750000000001,-1.635619565217391
5.968,1.3050978260869557,-9.67575,-1.6605760869565216
5.976,1.4051847826086954,-9.63775,-1.6855326086956521
5.984,1.5052717391304349,-9.59975,-1.7104891304347827
5.992,1.6053586956521744,-9.56175,-1.7354456521739132
6.0,1.705445652173914,-9.52375,-1.7604021739130438
6.008,2.258666666666689,-8.933333333333314,-2.7440000000000757
6.016,2.4507272727272693,-8.795909090909092,-3.8786818181818203
6.024,2.392181818181815,-8.787727272727272,-3.9160454545454564
6.032,2.3336363636363604,-8.779545454545454,-3.953409090909093
6.04,2.2750909090909057,-8.771363636363636,-3.9907727272727294
6.048,2.2165454545454515,-8.763181818181819,-4.028136363636365
6.056,2.157999999999997,-8.755,-4.065500000000002
6.064,2.099454545454542,-8.746818181818183,-4.102863636363638
6.072,2.040909090909088,-8.738636363636363,-4.140227272727275
6.08,1.9823636363636332,-8.730454545454545,-4.177590909090911
6.088,1.9238181818181785,-8.722272727272728,-4.214954545454548
6.096,1.865272727272724,-8.71409090909091,-4.252318181818183
6.104,1.9164444444444448,-8.88766666666666,-3.9371111111111183
6.112,1.8982222222222225,-9.11833333333333,-3.645555555555559
6.12,1.88,-9.349,-3.354
6.128,1.8237037037037032,-9.352654320987654,-3.3033333333333332
6.136,1.7674074074074066,-9.356308641975309,-3.252666666666666
6.144,1.71111111111111,-9.359962962962962,-3.201999999999999
6.152,1.6548148148148132,-9.363617283950617,-3.151333333333332
6.16,1.5985185185185165,-9.36727160493827,-3.100666666666665
6.168,1.54222222222222,-9.370925925925926,-3.049999999999998
6.176,1.4859259259259232,-9.37458024691358,-2.999333333333331
6.184,1.4296296296296265,-9.378234567901234,-2.9486666666666643
6.192,1.37333333333333,-9.381888888888888,-2.897999999999997
6.2,1.3170370370370332,-9.385543209876543,-2.84733333333333
6.208,1.394,-9.728,-1.916
6.216,1.3804086021505375,-9.743655913978495,-1.9121290322580644
6.224,1.3668172043010751,-9.759311827956989,-1.908258064516129
6.232,1.3532258064516127,-9.774967741935484,-1.9043870967741934
6.24,1.3396344086021503,-9.79062365591398,-1.900516129032258
6.248,1.326043010752688,-9.806279569892473,-1.8966451612903226
6.256,1.3124516129032258,-9.821935483870968,-1.892774193548387
6.264,1.2988602150537634,-9.837591397849463,-1.8889032258064515
6.272,1.285268817204301,-9.853247311827957,-1.885032258064516
6.28,1.2716774193548386,-9.868903225806452,-1.8811612903225805
6.288,1.2580860215053762,-9.884559139784946,-1.8772903225806452
6.296,1.2444946236559138,-9.900215053763441,-1.8734193548387097
6.304,1.342,-9.382,-3.155
6.312,1.528666666666667,-8.9999,-3.1969777777777786
6.32,1.5420000000000005,-8.9831,-3.220800000000001
6.328,1.555333333333334,-8.9663,-3.2446222222222234
6.336,1.5686666666666673,-8.9495,-3.268444444444446
6.344,1.5820000000000007,-8.9327,-3.292266666666668
6.352,1.595333333333334,-8.9159,-3.31608888888889
6.36,1.6086666666666674,-8.899099999999999,-3.3399111111111126
6.368,1.6220000000000008,-8.882299999999999,-3.363733333333335
6.376,1.6353333333333342,-8.865499999999999,-3.387555555555557
6.384,1.6486666666666676,-8.8487,-3.4113777777777794
6.392,1.6620000000000008,-8.8319,-3.435200000000002
6.4,1.6753333333333342,-8.8151,-3.459022222222224
6.408,1.9045000000000016,-8.943000000000012,-3.5204999999999806
6.416,1.8989213483146044,-9.083269662921351,-3.2739999999999925
6.424,1.856764044943818,-9.147808988764048,-3.129999999999993
6.432,1.8146067415730318,-9.212348314606745,-2.9859999999999935
6.44,1.7724494382022453,-9.276887640449441,-2.841999999999994
6.448,1.730292134831459,-9.341426966292138,-2.697999999999994
6.456,1.6881348314606728,-9.405966292134833,-2.553999999999995
6.464,1.6459775280898863,-9.47050561797753,-2.4099999999999957
6.472,1.6038202247191,-9.535044943820226,-2.265999999999996
6.48,1.5616629213483137,-9.599584269662923,-2.1219999999999963
6.488,1.5195056179775273,-9.66412359550562,-1.977999999999997
6.496,1.477348314606741,-9.728662921348317,-1.8339999999999976
6.5040000000000004,1.3117777777777702,-9.923777777777776,-1.5292222222222165
6.5120000000000005,1.1580000000000388,-9.882000000000009,-1.4110000000000134
6.5200000000000005,1.2825057471264358,-9.903701149425286,-1.454045977011494
6.5280000000000005,1.2721149425287346,-9.892022988505746,-1.4509195402298847
6.5360000000000005,1.2617241379310336,-9.880344827586207,-1.4477931034482756
6.5440000000000005,1.2513333333333325,-9.868666666666666,-1.4446666666666663
6.5520000000000005,1.2409425287356315,-9.856988505747125,-1.4415402298850573
6.5600000000000005,1.2305517241379302,-9.845310344827586,-1.438413793103448
6.5680000000000005,1.2201609195402292,-9.833632183908046,-1.435287356321839
6.5760000000000005,1.2097701149425282,-9.821954022988505,-1.4321609195402296
6.5840000000000005,1.1993793103448271,-9.810275862068966,-1.4290344827586206
6.5920000000000005,1.188988505747126,-9.798597701149426,-1.4259080459770113
6.6000000000000005,1.1785977011494249,-9.786919540229885,-1.4227816091954022
6.6080000000000005,1.321000000000016,-9.485666666666653,-1.8633333333333617
6.6160000000000005,1.4345384615384618,-9.393373626373627,-2.0676703296703303
6.6240000000000006,1.4419230769230773,-9.396538461538462,-2.08323076923077
6.632000000000001,1.4493076923076926,-9.399703296703297,-2.0987912087912095
6.640000000000001,1.4566923076923082,-9.402868131868132,-2.1143516483516493
6.648000000000001,1.4640769230769235,-9.406032967032967,-2.129912087912089
6.656000000000001,1.471461538461539,-9.409197802197802,-2.1454725274725286
6.664,1.4788461538461537,-9.412362637362637,-2.1610329670329667
6.672,1.486230769230769,-9.415527472527472,-2.1765934065934065
6.68,1.4936153846153846,-9.418692307692307,-2.192153846153846
6.688,1.501,-9.421857142857142,-2.2077142857142857
6.696,1.5083846153846154,-9.425021978021977,-2.2232747252747256
6.704,1.531,-9.329,-2.244
6.712,1.464,-9.696,-1.978
6.72,1.4564494382022473,-9.69276404494382,-1.962
6.728,1.4488988764044943,-9.68952808988764,-1.9460000000000002
6.736,1.4413483146067416,-9.68629213483146,-1.9300000000000002
6.744,1.433797752808989,-9.683056179775281,-1.9140000000000001
6.752,1.426247191011236,-9.679820224719101,-1.8980000000000004
6.76,1.4186966292134833,-9.676584269662921,-1.8820000000000003
6.768,1.4111460674157306,-9.673348314606741,-1.8660000000000005
6.776,1.4035955056179776,-9.670112359550561,-1.8500000000000005
6.784,1.396044943820225,-9.666876404494381,-1.8340000000000005
6.792,1.388494382022472,-9.663640449438203,-1.8180000000000007
6.8,1.3809438202247193,-9.660404494382023,-1.8020000000000007
6.808,1.3607142857142878,-9.730714285714294,-1.682285714285712
6.816,1.3445217391304347,-9.633304347826087,-1.7218695652173912
6.824,1.3549565217391304,-9.619391304347825,-1.7392608695652174
6.832,1.365391304347826,-9.605478260869564,-1.7566521739130436
6.84,1.3758260869565218,-9.591565217391304,-1.7740434782608696
6.848,1.3862608695652174,-9.577652173913043,-1.7914347826086958
6.856,1.3966956521739131,-9.563739130434781,-1.808826086956522
6.864,1.4071304347826088,-9.549826086956521,-1.8262173913043482
6.872,1.4175652173913047,-9.53591304347826,-1.8436086956521742
6.88,1.4280000000000004,-9.521999999999998,-1.8610000000000004
6.888,1.438434782608696,-9.508086956521739,-1.8783913043478266
6.896,1.4488695652173917,-9.494173913043477,-1.8957826086956528
6.904,1.4563636363636359,-9.490909090909094,-1.9099999999999997
6.912,1.4432727272727268,-9.56218181818182,-1.9019999999999997
6.92,1.4791111111111122,-9.50311111111111,-2.059111111111108
6.928,1.4565696202531648,-9.50646835443038,-2.1228987341772148
6.936,1.4660886075949369,-9.505050632911392,-2.0959620253164553
6.944,1.4756075949367091,-9.503632911392405,-2.0690253164556958
6.952,1.4851265822784814,-9.502215189873418,-2.042088607594936
6.96,1.4946455696202534,-9.500797468354431,-2.0151518987341763
6.968,1.5041645569620257,-9.499379746835443,-1.9882151898734168
6.976,1.513683544303798,-9.497962025316456,-1.9612784810126571
6.984,1.52320253164557,-9.496544303797469,-1.9343417721518976
6.992,1.5327215189873422,-9.49512658227848,-1.907405063291138
7.0,1.5422405063291142,-9.493708860759494,-1.8804683544303784
7.008,1.431666666666643,-9.70833333333334,-1.8403333333333323
7.016,1.2824105263157897,-9.742642105263158,-1.8365368421052632
7.024,1.2949578947368423,-9.736831578947369,-1.8412526315789475
7.032,1.3075052631578947,-9.73102105263158,-1.8459684210526317
7.04,1.3200526315789474,-9.72521052631579,-1.8506842105263157
7.048,1.3326,-9.7194,-1.8554
7.056,1.3451473684210524,-9.71358947368421,-1.8601157894736842
7.064,1.357694736842105,-9.707778947368421,-1.8648315789473684
7.072,1.3702421052631577,-9.701968421052632,-1.8695473684210526
7.08,1.3827894736842101,-9.696157894736842,-1.8742631578947366
7.088,1.3953368421052628,-9.690347368421053,-1.8789789473684209
7.096,1.4078842105263152,-9.684536842105263,-1.883694736842105
7.104,1.4204315789473678,-9.678726315789476,-1.8884105263157893
7.112,1.482,-9.598,-1.989
7.12,1.4852,-9.580577777777778,-1.9909555555555556
7.128,1.4884,-9.563155555555555,-1.9929111111111113
7.136,1.4916,-9.545733333333333,-1.9948666666666668
7.144,1.4948000000000001,-9.528311111111112,-1.9968222222222223
7.152,1.498,-9.51088888888889,-1.998777777777778
7.16,1.5012,-9.493466666666666,-2.0007333333333337
7.168,1.5044,-9.476044444444444,-2.002688888888889
7.176,1.5076,-9.458622222222221,-2.0046444444444447
7.184,1.5108000000000001,-9.441199999999998,-2.0066
7.192,1.514,-9.423777777777778,-2.0085555555555556
7.2,1.5172,-9.406355555555555,-2.010511111111111
7.208,1.5687500000000196,-9.621250000000003,-2.0552499999999903
7.216,1.6111739130434781,-9.618173913043478,-2.0271413043478255
7.224,1.609086956521739,-9.608086956521738,-2.0204456521739127
7.232,1.6069999999999998,-9.597999999999999,-2.0137499999999995
7.24,1.6049130434782608,-9.587913043478261,-2.0070543478260867
7.248,1.6028260869565216,-9.577826086956522,-2.0003586956521735
7.256,1.6007391304347824,-9.567739130434783,-1.9936630434782605
7.264,1.5986521739130435,-9.557652173913043,-1.9869673913043475
7.272,1.5965652173913043,-9.547565217391304,-1.9802717391304345
7.28,1.5944782608695651,-9.537478260869564,-1.9735760869565215
7.288,1.592391304347826,-9.527391304347825,-1.9668804347826085
7.296,1.590304347826087,-9.517304347826085,-1.9601847826086956
7.304,1.304,-9.576,-2.078
7.312,1.3970425531914892,-9.567212765957446,-1.8104148936170212
7.32,1.3955106382978721,-9.57555319148936,-1.8094787234042553
7.328,1.3939787234042553,-9.583893617021277,-1.8085425531914894
7.336,1.3924468085106383,-9.59223404255319,-1.8076063829787234
7.344,1.3909148936170213,-9.600574468085107,-1.8066702127659575
7.352,1.3893829787234042,-9.60891489361702,-1.8057340425531914
7.36,1.3878510638297872,-9.617255319148937,-1.8047978723404254
7.368,1.3863191489361701,-9.62559574468085,-1.8038617021276595
7.376,1.384787234042553,-9.633936170212767,-1.8029255319148936
7.384,1.383255319148936,-9.642276595744681,-1.8019893617021276
7.392,1.381723404255319,-9.650617021276597,-1.8010531914893617
7.4,1.380191489361702,-9.658957446808511,-1.8001170212765958
7.408,1.3525851063829792,-9.568265957446808,-1.9445957446808513
7.416,1.365265957446809,-9.562393617021277,-1.9493617021276597
7.424,1.3779468085106388,-9.556521276595745,-1.9541276595744683
7.432,1.3906276595744684,-9.550648936170214,-1.9588936170212767
7.44,1.4033085106382983,-9.54477659574468,-1.9636595744680851
7.448,1.415989361702128,-9.53890425531915,-1.9684255319148938
7.456,1.4286702127659578,-9.533031914893618,-1.9731914893617022
7.464,1.4413510638297875,-9.527159574468085,-1.9779574468085108
7.472,1.4540319148936174,-9.521287234042553,-1.9827234042553192
7.48,1.466712765957447,-9.515414893617022,-1.9874893617021276
7.488,1.4793936170212767,-9.509542553191489,-1.9922553191489363
7.496,1.4920744680851066,-9.503670212765957,-1.9970212765957447
7.5040000000000004,1.470000000000003,-9.487142857142858,-1.9364285714285778
7.5120000000000005,1.2682499999999657,-9.461749999999995,-2.033000000000005
7.5200000000000005,1.1847954545454542,-9.463159090909093,-2.035170454545454
7.5280000000000005,1.177704545454545,-9.47934090909091,-2.025079545454545
7.5360000000000005,1.170613636363636,-9.495522727272729,-2.014988636363636
7.5440000000000005,1.1635227272727269,-9.511704545454547,-2.0048977272727266
7.5520000000000005,1.1564318181818176,-9.527886363636364,-1.9948068181818175
7.5600000000000005,1.1493409090909086,-9.544068181818183,-1.9847159090909083
7.5680000000000005,1.1422499999999995,-9.560250000000002,-1.9746249999999994
7.5760000000000005,1.1351590909090905,-9.57643181818182,-1.9645340909090903
7.5840000000000005,1.1280681818181812,-9.592613636363637,-1.954443181818181
7.5920000000000005,1.1209772727272722,-9.608795454545456,-1.9443522727272722
7.6000000000000005,1.1138863636363632,-9.624977272727275,-1.934261363636363
7.6080000000000005,1.3310909090909224,-9.565272727272719,-2.026272727272719
7.6160000000000005,1.5687906976744204,-9.39586046511628,-1.8796744186046517
7.6240000000000006,1.6071162790697695,-9.394744186046513,-1.893069767441861
7.632000000000001,1.6454418604651186,-9.393627906976745,-1.9064651162790704
7.640000000000001,1.6837674418604676,-9.392511627906977,-1.9198604651162798
7.648000000000001,1.7220930232558167,-9.391395348837209,-1.9332558139534892
7.656000000000001,1.7604186046511658,-9.390279069767443,-1.9466511627906986
7.664000000000001,1.798744186046515,-9.389162790697675,-1.960046511627908
7.672000000000001,1.8370697674418641,-9.388046511627907,-1.9734418604651174
7.68,1.875395348837209,-9.38693023255814,-1.9868372093023252
7.688,1.9137209302325582,-9.385813953488373,-2.0002325581395346
7.696,1.9520465116279073,-9.384697674418605,-2.013627906976744
7.704,2.188999999999984,-9.336000000000004,-1.9305000000000065
7.712,1.731,-9.729,-1.844
7.72,1.7440909090909091,-9.704090909090908,-1.9612727272727273
7.728,1.7571818181818182,-9.679181818181817,-2.0785454545454547
7.736,1.7702727272727274,-9.654272727272726,-2.195818181818182
7.744,1.7833636363636365,-9.629363636363635,-2.313090909090909
7.752,1.7964545454545455,-9.604454545454544,-2.4303636363636363
7.76,1.8095454545454546,-9.579545454545455,-2.5476363636363635
7.768,1.8226363636363636,-9.554636363636364,-2.6649090909090907
7.776,1.8357272727272727,-9.529727272727273,-2.782181818181818
7.784,1.848818181818182,-9.504818181818182,-2.899454545454545
7.792,1.861909090909091,-9.479909090909091,-3.0167272727272727
7.8,1.875,-9.455,-3.134
7.808,1.481500000000064,-9.25550000000003,-2.932500000000043
7.816,1.2971304347826105,-9.213793478260868,-2.7359347826087
7.824,1.2515652173913059,-9.243271739130435,-2.6227173913043513
7.832,1.2060000000000013,-9.27275,-2.509500000000003
7.84,1.1604347826086967,-9.302228260869565,-2.3962826086956546
7.848,1.1148695652173921,-9.33170652173913,-2.2830652173913064
7.856,1.0693043478260875,-9.361184782608696,-2.169847826086958
7.864,1.023739130434783,-9.390663043478261,-2.0566304347826097
7.872,0.9781739130434783,-9.420141304347826,-1.943413043478261
7.88,0.9326086956521737,-9.449619565217391,-1.8301956521739127
7.888,0.8870434782608693,-9.479097826086957,-1.7169782608695643
7.896,0.8414782608695647,-9.508576086956522,-1.603760869565216
7.904,0.786666666666669,-9.84,-1.6333333333333266
7.912,0.8710105263157879,-9.77362105263158,-1.9112315789473684
7.92,0.9230526315789456,-9.740105263157895,-1.912157894736842
7.928,0.9750947368421031,-9.706589473684211,-1.9130842105263157
7.936,1.0271368421052607,-9.673073684210529,-1.9140105263157894
7.944,1.0791789473684184,-9.639557894736845,-1.914936842105263
7.952,1.131221052631576,-9.60604210526316,-1.9158631578947367
7.96,1.1832631578947335,-9.572526315789476,-1.9167894736842104
7.968,1.2353052631578911,-9.539010526315792,-1.917715789473684
7.976,1.2873473684210488,-9.505494736842108,-1.9186421052631577
7.984,1.3393894736842062,-9.471978947368424,-1.9195684210526314
7.992,1.3914315789473637,-9.43846315789474,-1.920494736842105
8.0,1.4434736842105216,-9.404947368421055,-1.9214210526315787
8.008000000000001,1.4790000000000187,-9.491000000000007,-1.9555000000000395
8.016,1.5338888888888884,-9.550555555555556,-2.2924999999999973
8.024000000000001,1.52731111111111,-9.564244444444446,-2.262899999999995
8.032,1.520733333333333,-9.577933333333334,-2.2332999999999985
8.040000000000001,1.5141555555555546,-9.591622222222224,-2.2036999999999956
8.048,1.5075777777777777,-9.605311111111112,-2.1740999999999993
8.056000000000001,1.5009999999999992,-9.619000000000002,-2.1444999999999967
8.064,1.4944222222222223,-9.632688888888888,-2.1149000000000004
8.072000000000001,1.4878444444444439,-9.64637777777778,-2.0852999999999975
8.08,1.481266666666667,-9.660066666666665,-2.0557000000000016
8.088000000000001,1.4746888888888885,-9.673755555555555,-2.0260999999999987
8.096,1.4681111111111116,-9.687444444444443,-1.9965000000000026
8.104000000000001,1.4429999999999938,-9.686999999999998,-1.933499999999987
8.112,1.547,-9.493,-1.867
8.120000000000001,1.53396629213483,-9.497044943820226,-1.8420112359550536
8.128,1.520932584269663,-9.50108988764045,-1.8170224719101125
8.136000000000001,1.507898876404493,-9.505134831460675,-1.792033707865166
8.144,1.494865168539326,-9.509179775280899,-1.7670449438202251
8.152000000000001,1.481831460674156,-9.513224719101125,-1.7420561797752785
8.16,1.468797752808989,-9.517269662921349,-1.7170674157303376
8.168000000000001,1.455764044943819,-9.521314606741573,-1.6920786516853912
8.176,1.442730337078652,-9.525359550561799,-1.66708988764045
8.184000000000001,1.429696629213482,-9.529404494382023,-1.6421011235955036
8.192,1.416662921348315,-9.533449438202247,-1.6171123595505628
8.2,1.403629213483148,-9.537494382022471,-1.5921235955056217
8.208,1.4693979591836737,-9.668765306122449,-1.7631326530612248
8.216,1.4704591836734693,-9.66280612244898,-1.7821530612244878
8.224,1.4715204081632653,-9.65684693877551,-1.801173469387755
8.232,1.4725816326530612,-9.65088775510204,-1.8201938775510182
8.24,1.4736428571428573,-9.644928571428572,-1.8392142857142855
8.248,1.4747040816326529,-9.638969387755102,-1.8582346938775485
8.256,1.475765306122449,-9.633010204081632,-1.877255102040816
8.264,1.4768265306122448,-9.627051020408164,-1.896275510204079
8.272,1.4778877551020408,-9.621091836734694,-1.9152959183673461
8.28,1.4789489795918365,-9.615132653061226,-1.9343163265306091
8.288,1.4800102040816325,-9.609173469387756,-1.9533367346938766
8.296,1.4810714285714284,-9.603214285714287,-1.9723571428571396
8.304,1.474,-9.559333333333333,-1.963
8.312,1.3991333333333327,-9.561311111111111,-1.8130999999999988
8.32,1.4082000000000003,-9.5558,-1.8299000000000007
8.328,1.417266666666666,-9.550288888888888,-1.846699999999999
8.336,1.4263333333333337,-9.544777777777776,-1.8635000000000008
8.344,1.4353999999999993,-9.539266666666666,-1.880299999999999
8.352,1.444466666666667,-9.533755555555555,-1.897100000000001
8.36,1.453533333333333,-9.528244444444445,-1.913899999999999
8.368,1.4626000000000006,-9.522733333333333,-1.930700000000001
8.376,1.4716666666666662,-9.517222222222223,-1.9474999999999991
8.384,1.480733333333334,-9.511711111111111,-1.964300000000001
8.392,1.4897999999999996,-9.5062,-1.9810999999999992
8.4,1.4988666666666672,-9.500688888888888,-1.9979000000000011
8.408,1.584,-9.536,-2.178
8.416,1.5064000000000033,-9.5136,-2.1065999999999985
8.424,1.54135,-9.521650000000001,-2.0773500000000014
8.432,1.54005,-9.52895,-2.054049999999999
8.44,1.53875,-9.53625,-2.030750000000001
8.448,1.53745,-9.54355,-2.0074499999999986
8.456,1.5361500000000001,-9.55085,-1.9841500000000014
8.464,1.5348499999999998,-9.55815,-1.9608499999999989
8.472,1.53355,-9.56545,-1.9375500000000014
8.48,1.53225,-9.57275,-1.9142499999999987
8.488,1.53095,-9.58005,-1.8909500000000015
8.496,1.52965,-9.587349999999999,-1.867649999999999
8.504,1.422,-9.678,-1.889
8.512,1.5076000000000114,-9.60839999999999,-1.8625999999999965
8.52,1.5240465116279067,-9.58339534883721,-1.8598372093023259
8.528,1.5174418604651154,-9.573255813953486,-1.8649534883720937
8.536,1.5108372093023255,-9.563116279069767,-1.8700697674418607
8.544,1.504232558139534,-9.552976744186045,-1.8751860465116286
8.552,1.497627906976744,-9.542837209302325,-1.8803023255813955
8.56,1.4910232558139527,-9.532697674418603,-1.8854186046511634
8.568,1.4844186046511627,-9.522558139534883,-1.8905348837209304
8.576,1.4778139534883712,-9.512418604651161,-1.8956511627906982
8.584,1.4712093023255812,-9.502279069767441,-1.9007674418604652
8.592,1.46460465116279,-9.49213953488372,-1.905883720930233
8.6,1.458,-9.482,-1.911
8.608,1.4591250000000002,-9.504624999999999,-2.13059375
8.616,1.4754583333333318,-9.498291666666667,-2.124177083333334
8.624,1.4917916666666668,-9.491958333333333,-2.1177604166666666
8.632,1.5081249999999984,-9.485625,-2.1113437500000005
8.64,1.5244583333333337,-9.479291666666667,-2.104927083333333
8.648,1.5407916666666652,-9.472958333333333,-2.0985104166666675
8.656,1.5571250000000003,-9.466624999999999,-2.09209375
8.664,1.5734583333333318,-9.460291666666667,-2.085677083333334
8.672,1.589791666666667,-9.453958333333333,-2.0792604166666666
8.68,1.6061249999999985,-9.447625,-2.0728437500000005
8.688,1.6224583333333336,-9.441291666666666,-2.066427083333333
8.696,1.638791666666665,-9.434958333333332,-2.0600104166666675
8.704,1.5413333333332981,-9.605333333333329,-1.9590000000000178
8.712,1.4992173913043478,-9.504260869565217,-1.9995217391304347
8.72,1.4976521739130435,-9.512782608695654,-1.9985652173913042
8.728,1.4960869565217392,-9.521304347826087,-1.997608695652174
8.736,1.4945217391304346,-9.529826086956522,-1.9966521739130434
8.744,1.4929565217391305,-9.538347826086957,-1.995695652173913
8.752,1.491391304347826,-9.546869565217392,-1.9947391304347826
8.76,1.4898260869565219,-9.555391304347825,-1.9937826086956523
8.768,1.4882608695652173,-9.563913043478262,-1.9928260869565217
8.776,1.4866956521739132,-9.572434782608696,-1.9918695652173914
8.784,1.4851304347826086,-9.58095652173913,-1.990913043478261
8.792,1.4835652173913045,-9.589478260869566,-1.9899565217391306
8.8,1.482,-9.598,-1.989
8.808,1.482,-9.598,-1.989
8.816,1.502896551724138,-9.501241379310345,-2.006137931034483
8.824,1.5106206896551717,-9.504551724137931,-2.022505747126435
8.832,1.518344827586207,-9.507862068965517,-2.038873563218391
8.84,1.5260689655172408,-9.511172413793103,-2.0552413793103432
8.848,1.5337931034482761,-9.514482758620689,-2.0716091954022993
8.856,1.5415172413793097,-9.517793103448275,-2.0879770114942517
8.864,1.5492413793103452,-9.521103448275863,-2.1043448275862073
8.872,1.5569655172413788,-9.524413793103447,-2.12071264367816
8.88,1.564689655172414,-9.527724137931035,-2.137080459770116
8.888,1.5724137931034479,-9.53103448275862,-2.153448275862068
8.896,1.5801379310344832,-9.534344827586207,-2.169816091954024
8.904,1.571,-9.609,-1.944
8.912,1.5740947368421059,-9.610326315789473,-1.9505578947368434
8.92,1.5776315789473685,-9.611842105263158,-1.9580526315789477
8.928,1.5811684210526322,-9.613357894736842,-1.9655473684210538
8.936,1.5847052631578948,-9.614873684210526,-1.9730421052631582
8.944,1.5882421052631583,-9.616389473684212,-1.9805368421052643
8.952,1.5917789473684212,-9.617905263157896,-1.9880315789473686
8.96,1.5953157894736847,-9.61942105263158,-1.9955263157894747
8.968,1.5988526315789475,-9.620936842105264,-2.003021052631579
8.976,1.602389473684211,-9.622452631578948,-2.010515789473685
8.984,1.6059263157894736,-9.623968421052632,-2.0180105263157895
8.992,1.6094631578947372,-9.625484210526317,-2.0255052631578954
9.0,1.613,-9.627,-2.033
9.008000000000001,1.5910000000000593,-9.415666666666686,-2.0106666666667454
9.016,1.678142857142857,-9.453945054945056,-2.1491428571428575
9.024000000000001,1.660999999999998,-9.460538461538462,-2.156000000000001
9.032,1.643857142857143,-9.467131868131867,-2.162857142857143
9.040000000000001,1.626714285714284,-9.473725274725275,-2.1697142857142864
9.048,1.609571428571429,-9.48031868131868,-2.1765714285714286
9.056000000000001,1.5924285714285702,-9.486912087912089,-2.183428571428572
9.064,1.575285714285715,-9.493505494505493,-2.190285714285714
9.072000000000001,1.5581428571428562,-9.500098901098902,-2.1971428571428575
9.08,1.5410000000000013,-9.506692307692306,-2.2039999999999997
9.088000000000001,1.5238571428571424,-9.513285714285713,-2.210857142857143
9.096,1.5067142857142872,-9.51987912087912,-2.217714285714285
9.104000000000001,1.1910000000001324,-9.44899999999994,-2.0440000000000498
9.112,1.361915789473685,-9.385873684210527,-2.1168631578947377
9.120000000000001,1.391136842105267,-9.393705263157896,-2.1393473684210558
9.128,1.4203578947368425,-9.401536842105264,-2.1618315789473685
9.136000000000001,1.4495789473684246,-9.409368421052633,-2.184315789473687
9.144,1.4788000000000001,-9.417200000000001,-2.2068
9.152000000000001,1.508021052631582,-9.42503157894737,-2.229284210526318
9.16,1.5372421052631575,-9.432863157894738,-2.251768421052631
9.168000000000001,1.5664631578947397,-9.440694736842106,-2.2742526315789493
9.176,1.5956842105263151,-9.448526315789474,-2.2967368421052625
9.184000000000001,1.6249052631578973,-9.456357894736843,-2.3192210526315806
9.192,1.6541263157894728,-9.464189473684211,-2.341705263157894
9.200000000000001,1.6833473684210547,-9.47202105263158,-2.364189473684212
9.208,1.7499999999999976,-9.528461538461537,-2.265230769230773
9.216000000000001,1.744000000000032,-9.655999999999826,-2.0780000000000194
9.224,1.7550000000000003,-9.555,-2.074166666666667
9.232,1.7470000000000012,-9.551571428571428,-2.0572142857142883
9.24,1.739,-9.548142857142857,-2.040261904761905
9.248,1.731000000000001,-9.544714285714287,-2.0233095238095262
9.256,1.723,-9.541285714285713,-2.006357142857143
9.264,1.715000000000001,-9.537857142857144,-1.989404761904764
9.272,1.707,-9.534428571428572,-1.972452380952381
9.28,1.6990000000000007,-9.531,-1.955500000000002
9.288,1.6909999999999998,-9.527571428571429,-1.938547619047619
9.296,1.6830000000000007,-9.524142857142857,-1.92159523809524
9.304,1.351,-9.569,-1.944
9.312,1.4036595744680853,-9.576340425531914,-2.037276595744681
9.32,1.4178723404255336,-9.562127659574466,-2.042978723404256
9.328,1.4320851063829787,-9.54791489361702,-2.0486808510638297
9.336,1.446297872340427,-9.533702127659573,-2.054382978723405
9.344,1.4605106382978719,-9.519489361702128,-2.0600851063829784
9.352,1.4747234042553201,-9.50527659574468,-2.0657872340425536
9.36,1.4889361702127653,-9.491063829787235,-2.0714893617021275
9.368,1.5031489361702135,-9.476851063829786,-2.0771914893617023
9.376,1.5173617021276586,-9.462638297872342,-2.082893617021276
9.384,1.5315744680851067,-9.448425531914893,-2.0885957446808514
9.392,1.5457872340425518,-9.434212765957447,-2.094297872340425
9.4,1.56,-9.42,-2.1
9.408,1.499875,-9.50075,-2.0069375000000003
9.416,1.4995416666666666,-9.50275,-2.0254375000000024
9.424,1.4992083333333333,-9.50475,-2.0439375
9.432,1.498875,-9.50675,-2.0624375000000024
9.44,1.4985416666666667,-9.50875,-2.0809375
9.448,1.4982083333333334,-9.51075,-2.0994375000000023
9.456,1.497875,-9.512749999999999,-2.1179375
9.464,1.4975416666666665,-9.51475,-2.136437500000002
9.472,1.4972083333333333,-9.51675,-2.1549375000000004
9.48,1.496875,-9.518749999999999,-2.173437500000002
9.488,1.4965416666666667,-9.52075,-2.1919375000000003
9.496,1.4962083333333334,-9.52275,-2.2104375000000025
9.504,1.6164999999999712,-9.483500000000046,-2.117000000000054
9.512,1.5908269230769234,-9.513019230769231,-1.9709519230769252
9.52,1.59375,-9.51625,-1.9948749999999993
9.528,1.596673076923077,-9.51948076923077,-2.0187980769230784
9.536,1.5995961538461536,-9.522711538461538,-2.042721153846153
9.544,1.6025192307692309,-9.525942307692308,-2.066644230769232
9.552,1.6054423076923074,-9.529173076923076,-2.0905673076923064
9.56,1.6083653846153847,-9.532403846153846,-2.1144903846153857
9.568,1.6112884615384613,-9.535634615384616,-2.13841346153846
9.576,1.6142115384615385,-9.538865384615384,-2.162336538461539
9.584,1.6171346153846151,-9.542096153846154,-2.186259615384613
9.592,1.6200576923076924,-9.545326923076924,-2.2101826923076926
9.6,1.622980769230769,-9.548557692307693,-2.2341057692307666
9.608,1.6259038461538462,-9.551788461538463,-2.258028846153846
9.616,1.627,-9.553,-2.267
9.624,1.56,-9.42,-2.1
9.632,1.5715897435897423,-9.43302564102564,-2.103384615384615
9.64,1.5831794871794875,-9.446051282051283,-2.1067692307692307
9.648,1.5947692307692298,-9.459076923076923,-2.110153846153846
9.656,1.6063589743589748,-9.472102564102565,-2.113538461538462
9.664,1.6179487179487173,-9.485128205128204,-2.1169230769230767
9.672,1.6295384615384623,-9.498153846153848,-2.1203076923076924
9.68,1.6411282051282046,-9.511179487179486,-2.1236923076923078
9.688,1.6527179487179495,-9.52420512820513,-2.1270769230769235
9.696,1.664307692307692,-9.537230769230769,-2.1304615384615384
9.704,1.584,-9.536,-2.178
9.712,1.5590625000000002,-9.425104166666666,-2.0994270833333335
9.72,1.5575625,-9.433270833333333,-2.0985104166666666
9.728,1.5560625000000003,-9.4414375,-2.09759375
9.736,1.5545625,-9.449604166666667,-2.0966770833333332
9.744,1.5530625000000002,-9.457770833333333,-2.095760416666667
9.752,1.5515625000000002,-9.4659375,-2.09484375
9.76,1.5500625000000001,-9.474104166666667,-2.0939270833333334
9.768,1.5485625,-9.482270833333333,-2.0930104166666665
9.776,1.5470625000000002,-9.490437499999999,-2.09209375
9.784,1.5455625,-9.498604166666667,-2.091177083333333
9.792,1.5440625000000003,-9.506770833333333,-2.0902604166666667
9.8,1.5425625,-9.5149375,-2.08934375
9.808,1.673,-9.547,-2.133
9.816,1.542,-9.518,-2.089
9.824,1.542,-9.518,-2.089
9.832,1.542,-9.518,-2.089
9.84,1.542,-9.518,-2.089
9.848,1.542,-9.518,-2.089
9.856,1.542,-9.518,-2.089
9.864,1.542,-9.518,-2.089
9.872,1.542,-9.518,-2.089
9.88,1.542,-9.518,-2.089
9.888,1.542,-9.518,-2.089
9.896,1.542,-9.518,-2.089
9.904,1.572,-9.478,-2.1390000000000002
9.912,1.64178947368421,-9.455052631578948,-2.2733157894736835
9.92,1.6382526315789474,-9.453536842105263,-2.265821052631579
9.928,1.634715789473684,-9.45202105263158,-2.258326315789473
9.936,1.631178947368421,-9.450505263157895,-2.2508315789473685
9.944,1.6276421052631576,-9.448989473684211,-2.2433368421052626
9.952,1.624105263157895,-9.447473684210527,-2.235842105263158
9.96,1.6205684210526314,-9.445957894736843,-2.228347368421052
9.968,1.6170315789473686,-9.444442105263159,-2.2208526315789476
9.976,1.613494736842105,-9.442926315789475,-2.2133578947368417
9.984,1.6099578947368425,-9.44141052631579,-2.205863157894737
9.992,1.606421052631579,-9.439894736842106,-2.1983684210526313
10.0,1.6028842105263161,-9.438378947368422,-2.190873684210527
10.008000000000001,1.6713157894736823,-9.545736842105262,-2.1340526315789488
10.016,1.6578421052631576,-9.535631578947369,-2.1424736842105268
10.024000000000001,1.6443684210526297,-9.525526315789472,-2.1508947368421065
10.032,1.630894736842105,-9.515421052631579,-2.1593157894736845
10.040000000000001,1.6174210526315773,-9.505315789473682,-2.1677368421052643
10.048,1.6039473684210526,-9.49521052631579,-2.1761578947368423
10.056000000000001,1.5904736842105247,-9.485105263157894,-2.184578947368422
10.064,1.577,-9.475,-2.193
10.072000000000001,1.5635263157894723,-9.464894736842105,-2.20142105263158
10.08,1.5500526315789473,-9.45478947368421,-2.209842105263158
10.088000000000001,1.5365789473684197,-9.444684210526315,-2.2182631578947376
10.096,1.523105263157895,-9.43457894736842,-2.2266842105263156
10.104000000000001,1.665500000000019,-9.464500000000008,-2.3225000000000398
10.112,1.6249999999999998,-9.577105263157899,-2.292736842105267
10.120000000000001,1.6217999999999995,-9.615673684210535,-2.3339157894736924
10.128,1.6185999999999998,-9.654242105263162,-2.3750947368421085
10.136000000000001,1.6153999999999995,-9.692810526315798,-2.416273684210534
10.144,1.6121999999999999,-9.731378947368423,-2.45745263157895
10.152000000000001,1.6089999999999993,-9.76994736842106,-2.4986315789473754
10.16,1.6058,-9.808515789473686,-2.539810526315792
10.168000000000001,1.6025999999999994,-9.847084210526322,-2.580989473684217
10.176,1.5994,-9.88565263157895,-2.6221684210526335
10.184000000000001,1.5961999999999994,-9.924221052631584,-2.663347368421059
10.192,1.593,-9.96278947368421,-2.704526315789475
10.200000000000001,1.5897999999999994,-10.001357894736847,-2.7457052631579004
10.208,1.748857142857144,-10.131142857142851,-2.2697142857142945
10.216000000000001,1.6778333333333357,-9.88216666666667,-2.226666666666673
10.224,1.7031666666666663,-9.920833333333333,-2.286933333333333
10.232000000000001,1.7285000000000026,-9.959500000000004,-2.347200000000006
10.24,1.7538333333333331,-9.998166666666666,-2.407466666666666
10.248,1.7791666666666637,-10.036833333333329,-2.4677333333333267
10.256,1.8045,-10.0755,-2.528
10.264,1.8298333333333305,-10.114166666666662,-2.58826666666666
10.272,1.8551666666666669,-10.152833333333334,-2.648533333333334
10.28,1.8804999999999974,-10.191499999999996,-2.708799999999994
10.288,1.9058333333333337,-10.230166666666667,-2.7690666666666672
10.296,1.9311666666666643,-10.26883333333333,-2.8293333333333273
10.304,2.12,-10.34,-3.0
10.312,2.3259999999999694,-10.70733333333328,-3.503999999999925
10.32,2.447465116279068,-10.895186046511627,-3.767395348837208
10.328,2.484395348837204,-10.903558139534882,-3.7901860465116246
10.336,2.5213255813953483,-10.91193023255814,-3.812976744186046
10.344,2.5582558139534846,-10.920302325581394,-3.8357674418604626
10.352,2.5951860465116288,-10.92867441860465,-3.8585581395348845
10.36,2.632116279069765,-10.937046511627907,-3.881348837209301
10.368,2.669046511627909,-10.945418604651163,-3.9041395348837225
10.376,2.7059767441860454,-10.953790697674417,-3.926930232558139
10.384,2.7429069767441896,-10.962162790697676,-3.9497209302325604
10.392,2.779837209302326,-10.97053488372093,-3.972511627906977
10.4,2.81676744186047,-10.978906976744186,-3.995302325581399
10.408,3.9759052631579057,-10.662178947368417,-4.397031578947391
10.416,3.8231473684210475,-10.711610526315791,-4.0852842105263045
10.424,3.670389473684223,-10.761042105263154,-3.7735368421052886
10.432,3.517631578947365,-10.810473684210528,-3.4617894736842034
10.44,3.364873684210541,-10.859905263157891,-3.150042105263187
10.448,3.2121157894736827,-10.909336842105263,-2.8382947368421014
10.456,3.0593578947368583,-10.958768421052627,-2.5265473684210855
10.464,2.9066,-11.0082,-2.2148000000000003
10.472,2.7538421052631756,-11.057631578947364,-1.903052631578984
10.48,2.6010842105263174,-11.107063157894737,-1.5913052631578983
10.488,2.4483263157894934,-11.156494736842099,-1.2795578947368824
10.496,2.2955684210526353,-11.205926315789473,-0.9678105263157968
10.504,2.079400000000036,-11.062200000000065,-0.4840000000000888
10.512,2.2753076923076634,-10.255153846153828,0.20391208791210114
10.52,2.085769230769225,-10.128384615384613,0.2912087912087937
10.528,1.8962307692307445,-10.001615384615368,0.37850549450550575
10.536,1.7066923076923062,-9.874846153846153,0.4658021978021984
10.544,1.5171538461538256,-9.74807692307691,0.5530989010989105
10.552,1.3276153846153873,-9.621307692307695,0.6403956043956031
10.56,1.1380769230769068,-9.49453846153845,0.727692307692315
10.568,0.9485384615384682,-9.367769230769236,0.8149890109890077
10.576,0.7589999999999879,-9.240999999999993,0.9022857142857197
10.584,0.5694615384615493,-9.114230769230778,0.9895824175824124
10.592,0.3799230769230688,-8.987461538461535,1.0768791208791244
10.6,0.19038461538463025,-8.860692307692318,1.164175824175817
10.608,0.7705789473683999,-5.786357894736802,4.068389473684254
10.616,0.6312105263157846,-5.5172210526315695,4.351505263157905
10.624,0.4918421052631384,-5.248084210526279,4.634621052631619
10.632,0.35247368421052305,-4.978947368421046,4.91773684210527
10.64,0.2131052631578768,-4.7098105263157555,5.200852631578984
10.648,0.07373684210526155,-4.440673684210523,5.483968421052635
10.656,-0.0656315789473847,-4.171536842105232,5.767084210526349
10.664,-0.20500000000000007,-3.9024,6.0502
10.672,-0.3443684210526463,-3.6332631578947088,6.333315789473714
10.68,-0.4837368421052617,-3.3641263157894774,6.616431578947365
10.688,-0.6231052631579079,-3.0949894736841856,6.899547368421079
10.696,-0.7624736842105231,-2.825852631578954,7.18266315789473
10.704,-0.7173999999999421,-2.2262000000000137,7.920800000000068
10.712,-0.34459999999997515,-2.315800000000006,8.35920000000003
10.72,0.009321839080467943,-2.202816091954017,8.866954022988512
10.728,0.09143678160919477,-2.1433218390804605,8.918080459770115
10.736,0.17355172413793984,-2.0838275862068905,8.96920689655173
10.744,0.2556666666666667,-2.0243333333333333,9.020333333333333
10.752,0.3377816091954118,-1.9648390804597633,9.071459770114949
10.76,0.41989655172413864,-1.9053448275862066,9.122586206896553
10.768,0.5020114942528836,-1.8458505747126364,9.173712643678167
10.776,0.5841264367816105,-1.7863563218390794,9.224839080459772
10.784,0.6662413793103555,-1.7268620689655094,9.275965517241387
10.792,0.7483563218390824,-1.6673678160919527,9.32709195402299
10.8,0.8304712643678275,-1.6078735632183827,9.378218390804605
10.808,1.2163092783505347,-0.041164948453605736,9.216639175257727
10.816,1.4575463917526204,-0.00982474226803564,9.139195876288646
10.824,1.6987835051546525,0.021515463917527497,9.061752577319584
10.832,1.9400206185567381,0.05285567010309759,8.984309278350505
10.84,2.1812577319587705,0.08419587628866072,8.906865979381442
10.848,2.422494845360856,0.11553608247423082,8.829422680412362
10.856,2.663731958762888,0.14687628865979396,8.751979381443299
10.864,2.904969072164974,0.17821649484536406,8.67453608247422
10.872,3.1462061855670056,0.20955670103092722,8.597092783505158
10.88,3.3874432989690915,0.2408969072164973,8.519649484536076
10.888,3.628680412371123,0.27223711340206047,8.442206185567015
10.896,3.869917525773209,0.30357731958763057,8.364762886597935
10.904,4.204000000000001,0.4205,7.948
10.912,6.181956989247331,2.581688172042999,8.17853763440858
10.92,6.293870967741942,2.511064516129028,8.047612903225799
10.928,6.405784946236579,2.440440860215042,7.9166881720429885
10.936,6.51769892473119,2.369817204301071,7.785763440860207
10.944,6.6296129032258255,2.299193548387085,7.654838709677397
10.952,6.7415268817204375,2.228569892473114,7.523913978494615
10.96,6.853440860215073,2.1579462365591273,7.392989247311805
10.968,6.965354838709684,2.0873225806451567,7.2620645161290245
10.976,7.07726881720432,2.0166989247311706,7.131139784946214
10.984,7.189182795698931,1.9460752688171996,7.000215053763433
10.992,7.301096774193568,1.8754516129032133,6.869290322580622
11.0,7.413010752688179,1.8048279569892425,6.738365591397841
11.008000000000001,8.181000000000063,2.7620000000001013,5.342666666666594
11.016,8.304021978021979,2.8392417582417555,5.0916263736263705
11.024000000000001,8.325384615384618,2.7142307692307543,4.920461538461518
11.032,8.346747252747253,2.5892197802197803,4.749296703296704
11.040000000000001,8.368109890109892,2.4642087912087787,4.578131868131852
11.048,8.389472527472527,2.339197802197805,4.406967032967037
11.056000000000001,8.410835164835166,2.214186813186804,4.235802197802185
11.064,8.432197802197802,2.08917582417583,4.06463736263737
11.072000000000001,8.453560439560441,1.9641648351648284,3.893472527472518
11.08,8.474923076923076,1.8391538461538546,3.7223076923077043
11.088000000000001,8.496285714285715,1.7141428571428532,3.551142857142852
11.096,8.51764835164835,1.5891318681318793,3.3799780219780375
11.104000000000001,8.465499999999992,1.605500000000014,3.1614999999999838
11.112,8.290833333333325,1.857500000000014,2.8641666666666503
11.120000000000001,8.003178571428574,2.0946071428571207,2.4635357142857055
11.128,8.019464285714285,1.8731785714285727,2.376392857142857
11.136000000000001,8.035750000000002,1.6517499999999754,2.2892499999999902
11.144,8.052035714285715,1.4303214285714274,2.2021071428571424
11.152000000000001,8.06832142857143,1.2088928571428303,2.114964285714275
11.16,8.084607142857143,0.9874642857142824,2.027821428571427
11.168000000000001,8.10089285714286,0.7660357142856851,1.9406785714285597
11.176,8.117178571428571,0.5446071428571371,1.8535357142857118
11.184000000000001,8.133464285714288,0.3231785714285398,1.7663928571428447
11.192,8.149750000000001,0.10174999999999201,1.6792499999999966
11.200000000000001,8.268333333333457,-0.13800000000005447,1.3439999999996932
11.208,8.771,-0.01300000000000004,0.10799999999999998
11.216000000000001,8.840147368421045,-0.16016842105265885,-0.725252631578963
11.224,8.800315789473682,-0.3157894736842196,-0.814684210526321
11.232000000000001,8.76048421052631,-0.4714105263158149,-0.9041157894736989
11.24,8.720652631578945,-0.6270315789473757,-0.9935473684210568
11.248000000000001,8.680821052631572,-0.782652631578971,-1.0829789473684346
11.256,8.64098947368421,-0.9382736842105318,-1.1724105263157927
11.264,8.601157894736845,-1.0938947368420926,-1.2618421052631508
11.272,8.561326315789472,-1.249515789473688,-1.3512736842105286
11.28,8.521494736842108,-1.4051368421052486,-1.4407052631578865
11.288,8.481663157894737,-1.560757894736844,-1.5301368421052643
11.296,8.441831578947372,-1.7163789473684046,-1.6195684210526222
11.304,8.402,-1.8719999999999999,-1.709
11.312,9.252359550561799,-1.8366516853932542,-2.5130674157303328
11.32,9.25523595505618,-1.8978651685393282,-2.5696067415730357
11.328,9.258112359550562,-1.9590786516853884,-2.6261460674157258
11.336,9.260988764044944,-2.0202921348314624,-2.6826853932584283
11.344,9.263865168539326,-2.081505617977523,-2.7392247191011188
11.352,9.266741573033709,-2.1427191011235966,-2.7957640449438212
11.36,9.26961797752809,-2.203932584269657,-2.8523033707865113
11.368,9.272494382022472,-2.2651460674157313,-2.9088426966292142
11.376,9.275370786516854,-2.3263595505617913,-2.9653820224719043
11.384,9.278247191011237,-2.3875730337078656,-3.0219213483146072
11.392,9.281123595505619,-2.448786516853926,-3.078460674157297
11.4,9.284,-2.51,-3.135
11.408,8.346872340425534,-1.9152340425531837,-3.004829787234048
11.416,8.318361702127659,-1.9721702127659564,-2.9641489361702136
11.424,8.28985106382979,-2.0291063829787164,-2.923468085106388
11.432,8.261340425531914,-2.086042553191489,-2.8827872340425533
11.44,8.232829787234046,-2.142978723404249,-2.842106382978728
11.448,8.20431914893617,-2.199914893617022,-2.801425531914893
11.456,8.1758085106383,-2.2568510638297816,-2.760744680851068
11.464,8.147297872340424,-2.3137872340425543,-2.7200638297872333
11.472,8.118787234042555,-2.3707234042553145,-2.6793829787234076
11.48,8.09027659574468,-2.427659574468087,-2.638702127659573
11.488,8.061765957446811,-2.4845957446808473,-2.5980212765957473
11.496,8.033255319148935,-2.54153191489362,-2.5573404255319128
11.504,8.174428571428562,-2.6525714285714233,-2.533857142857143
11.512,8.485285714285755,-2.8177142857143065,-2.5275714285714277
11.52,7.6295714285715865,-2.7921428571428684,-2.8877142857142246
11.528,8.419817518248175,-3.2703211678832145,-3.0994744525547433
11.536,8.426240875912407,-3.369416058394152,-3.0587737226277407
11.544,8.432664233576642,-3.4685109489051116,-3.018072992700729
11.552,8.439087591240876,-3.5676058394160495,-2.9773722627737262
11.56,8.44551094890511,-3.666700729927009,-2.936671532846715
11.568,8.451934306569342,-3.7657956204379466,-2.8959708029197118
11.576,8.458357664233576,-3.8648905109489062,-2.8552700729927003
11.584,8.46478102189781,-3.963985401459844,-2.8145693430656973
11.592,8.471204379562044,-4.063080291970803,-2.773868613138686
11.6,8.477627737226276,-4.162175182481741,-2.7331678832116832
11.608,8.48405109489051,-4.261270072992701,-2.6924671532846713
11.616,8.490474452554745,-4.360364963503638,-2.6517664233576688
11.624,8.496897810218979,-4.459459854014598,-2.611065693430657
11.632,8.503321167883211,-4.558554744525535,-2.5703649635036543
11.64,8.509744525547445,-4.6576496350364955,-2.5296642335766424
11.648,8.51616788321168,-4.756744525547433,-2.48896350364964
11.656,8.522591240875913,-4.855839416058393,-2.448262773722628
11.664,8.191,-4.14,-2.388
11.672,8.043444444444434,-4.098222222222219,-2.605777777777794
11.68,8.01959090909091,-4.080803030303031,-2.6399999999999997
11.688,8.013409090909091,-4.066863636363636,-2.6480000000000006
11.696,8.007227272727274,-4.052924242424243,-2.6559999999999993
11.704,8.001045454545455,-4.038984848484848,-2.664
11.712,7.994863636363637,-4.025045454545456,-2.6719999999999993
11.72,7.988681818181818,-4.0111060606060605,-2.68
11.728,7.982500000000001,-3.9971666666666685,-2.687999999999999
11.736,7.976318181818182,-3.983227272727273,-2.6959999999999997
11.744,8.638166666666706,-4.2396666666666825,-3.0290000000000195
11.752,8.629196078431358,-4.3939019607843095,-2.7686470588235297
11.76,8.537588235294113,-4.36770588235294,-2.7719411764705884
11.768,8.445980392156848,-4.341509803921564,-2.7752352941176475
11.776,8.354372549019603,-4.315313725490195,-2.7785294117647057
11.784,8.262764705882338,-4.28911764705882,-2.7818235294117653
11.792,8.171156862745093,-4.26292156862745,-2.7851176470588235
11.8,7.823249999999762,-4.417000000000158,-2.814250000000023
11.808,10.570473118279546,-3.2593225806451676,-4.498193548387087
11.816,10.276365591397791,-3.332612903225821,-4.386967741935462
11.824,9.982258064516104,-3.405903225806458,-4.275741935483861
11.832,9.68815053763435,-3.4791935483871113,-4.164516129032236
11.84,9.394043010752663,-3.552483870967748,-4.053290322580636
11.848,9.099935483870908,-3.625774193548402,-3.94206451612901
11.856,8.805827956989221,-3.699064516129039,-3.8308387096774092
11.864,8.511720430107466,-3.7723548387096923,-3.7196129032257836
11.872,8.21761290322578,-3.8456451612903293,-3.6083870967741833
11.88,7.923505376344025,-3.9189354838709827,-3.497161290322558
11.888,7.629397849462338,-3.9922258064516196,-3.3859354838709574
11.896,7.335290322580583,-4.065516129032273,-3.274709677419332
11.904,7.5964285714286,-4.1380000000000035,-3.2165714285714273
11.912,8.190714285714334,-4.210000000000006,-3.190285714285712
11.92,8.39333734939759,-4.434481927710843,-2.4638192771084335
11.928,8.38090361445783,-4.414433734939757,-2.46333734939759
11.936,8.368469879518072,-4.394385542168675,-2.462855421686747
11.944,8.356036144578312,-4.374337349397588,-2.4623734939759037
11.952,8.343602409638555,-4.354289156626506,-2.4618915662650602
11.96,8.331168674698795,-4.33424096385542,-2.461409638554217
11.968,8.318734939759036,-4.314192771084337,-2.4609277108433734
11.976,8.306301204819276,-4.294144578313251,-2.46044578313253
11.984,8.293867469879519,-4.274096385542169,-2.459963855421687
11.992,8.281433734939757,-4.254048192771082,-2.4594819277108435
12.0,8.269,-4.234,-2.459
12.008000000000001,8.084125000000007,-4.268249999999998,-2.5287500000000023
12.016,8.170151162790699,-4.247697674418605,-2.559325581395349
12.024000000000001,8.18122093023256,-4.249558139534884,-2.5708604651162807
12.032,8.19229069767442,-4.251418604651163,-2.5823953488372093
12.040000000000001,8.203360465116281,-4.2532790697674425,-2.593930232558141
12.048,8.21443023255814,-4.255139534883721,-2.6054651162790696
12.056000000000001,8.225500000000002,-4.257000000000001,-2.6170000000000013
12.064,8.23656976744186,-4.258860465116279,-2.6285348837209304
12.072000000000001,8.247639534883723,-4.260720930232559,-2.6400697674418616
12.08,8.258709302325581,-4.262581395348837,-2.6516046511627906
12.088000000000001,8.269779069767443,-4.264441860465117,-2.663139534883722
12.096,8.280848837209302,-4.266302325581395,-2.674674418604651
12.104000000000001,8.022999999999803,-4.334999999999995,-2.596999999999974
12.112,7.817774193548388,-4.340225806451613,-2.570967741935484
12.120000000000001,7.84013978494624,-4.355193548387098,-2.5749247311827963
12.128,7.862505376344087,-4.370161290322581,-2.5788817204301075
12.136000000000001,7.884870967741938,-4.3851290322580665,-2.58283870967742
12.144,7.907236559139786,-4.400096774193549,-2.5867956989247314
12.152000000000001,7.9296021505376375,-4.415064516129035,-2.5907526881720435
12.16,7.951967741935484,-4.430032258064516,-2.5947096774193548
12.168000000000001,7.974333333333337,-4.445000000000002,-2.5986666666666673
12.176,7.9966989247311835,-4.459967741935484,-2.6026236559139786
12.184000000000001,8.019064516129035,-4.47493548387097,-2.6065806451612907
12.192,8.041430107526882,-4.489903225806453,-2.610537634408602
12.200000000000001,8.110250000000065,-4.531250000000037,-2.663000000000065
12.208,8.069400000000021,-4.419600000000001,-3.0523999999999853
12.216000000000001,7.948977528089888,-4.40705617977528,-3.232224719101129
12.224,7.946280898876404,-4.397797752808989,-3.3631910112359478
12.232000000000001,7.943584269662921,-4.388539325842696,-3.494157303370796
12.24,7.940887640449438,-4.379280898876404,-3.625123595505615
12.248000000000001,7.938191011235955,-4.3700224719101115,-3.756089887640463
12.256,7.935494382022472,-4.36076404494382,-3.887056179775282
12.264000000000001,7.932797752808988,-4.351505617977526,-4.018022471910131
12.272,7.930101123595506,-4.342247191011236,-4.148988764044949
12.280000000000001,7.9274044943820225,-4.332988764044942,-4.279955056179798
12.288,7.924707865168539,-4.323730337078651,-4.410921348314616
12.296,7.922011235955057,-4.31447191011236,-4.541887640449436
12.304,7.903499999999999,-3.6765,-4.579
12.312,7.572850000000002,-3.5310500000000005,-4.280924999999996
12.32,7.612650000000006,-3.5444500000000017,-4.144824999999981
12.328,7.652450000000001,-3.55785,-4.0087249999999965
12.336,7.692250000000006,-3.571250000000002,-3.872624999999981
12.344,7.732050000000001,-3.5846500000000003,-3.736524999999996
12.352,7.771850000000006,-3.5980500000000015,-3.600424999999981
12.36,7.811650000000001,-3.61145,-3.464324999999996
12.368,7.851450000000005,-3.6248500000000017,-3.328224999999981
12.376,7.891250000000001,-3.63825,-3.192124999999996
12.384,7.931050000000005,-3.651650000000002,-3.056024999999981
12.392,8.032,-3.695,-3.009
