accel_time_list,vertical_Accel_x,vertical_Accel_y,vertical_Accel_z
0.0,4.682,-8.024,-1.309
0.007995570321151717,4.276859257847248,-9.225995570321153,-1.6162408547101648
0.015991140642303434,4.249792286186301,-9.233991140642305,-1.5661702340104933
0.02398671096345515,4.222725314525353,-9.241986710963456,-1.5160996133108218
0.03198228128460687,4.195658342864404,-9.249982281284607,-1.4660289926111505
0.039977851605758584,4.168591371203457,-9.257977851605759,-1.415958371911479
0.0479734219269103,4.141524399542509,-9.265973421926912,-1.3658877512118077
0.05596899224806202,4.11445742788156,-9.273968992248063,-1.3158171305121362
0.06396456256921373,4.0873904562206125,-9.281964562569215,-1.2657465098124647
0.07196013289036546,4.060323484559665,-9.289960132890366,-1.2156758891127935
0.07995570321151717,4.033256512898717,-9.297955703211517,-1.165605268413122
0.08795127353266888,4.006189541237768,-9.305951273532669,-1.1155346477134507
0.0959468438538206,3.9791225695768206,-9.313946843853822,-1.0654640270137792
0.10394241417497233,3.9520555979158725,-9.321942414174973,-1.0153934063141077
0.11193798449612404,3.9249886262549243,-9.329937984496125,-0.9653227856144364
0.11993355481727574,3.8979216545939765,-9.337933554817276,-0.915252164914765
0.12792912513842747,4.459348837209304,-8.84698892580288,-1.4289396456256935
0.1359246954595792,4.670264148143074,-8.553552202851892,-1.6088094553093355
0.14392026578073092,4.6236095831763535,-8.543083775730384,-1.631230023632565
0.1519158361018826,4.576955018209634,-8.532615348608875,-1.6536505919557944
0.15991140642303434,4.530300453242913,-8.522146921487368,-1.6760711602790241
0.16790697674418606,4.483645888276192,-8.51167849436586,-1.6984917286022536
0.17590254706533776,4.436991323309472,-8.501210067244351,-1.720912296925483
0.18389811738648948,4.390336758342752,-8.490741640122843,-1.7433328652487128
0.1918936877076412,4.343682193376032,-8.480273213001336,-1.7657534335719423
0.19988925802879293,4.297027628409311,-8.469804785879829,-1.788174001895172
0.20788482834994465,4.250373063442591,-8.45933635875832,-1.8105945702184014
0.21588039867109635,4.203718498475871,-8.448867931636812,-1.833015138541631
0.22387596899224807,4.157063933509151,-8.438399504515305,-1.8554357068648606
0.2318715393133998,4.5762912513842755,-9.061157253599115,-1.3733787375415278
0.2398671096345515,4.175129125138428,-8.867961240310077,-1.227293023255814
0.2478626799557032,4.152652688568968,-8.83686735572782,-1.2216961240310078
0.25585825027685494,4.130176251999508,-8.805773471145564,-1.2160992248062015
0.26385382059800666,4.107699815430048,-8.774679586563307,-1.2105023255813954
0.2718493909191584,4.085223378860588,-8.74358570198105,-1.204905426356589
0.2798449612403101,4.062746942291128,-8.712491817398794,-1.199308527131783
0.28784053156146183,4.040270505721669,-8.681397932816537,-1.1937116279069768
0.2958361018826135,4.017794069152209,-8.65030404823428,-1.1881147286821705
0.3038316722037652,3.995317632582749,-8.619210163652024,-1.1825178294573644
0.31182724252491695,3.972841196013289,-8.588116279069768,-1.176920930232558
0.31982281284606867,3.950364759443829,-8.557022394487511,-1.171324031007752
0.3278183831672204,3.93209080841639,-8.679379844961241,-0.7978682170542626
0.3358139534883721,2.816788908765653,-8.35610733452594,-0.9029302325581395
0.34380952380952384,2.7852459445316584,-8.35716169544741,-0.9120680272108844
0.3518050941306755,2.7537029802976645,-8.35821605636888,-0.9212058218636292
0.35980066445182723,2.7221600160636705,-8.35927041729035,-0.930343616516374
0.36779623477297896,2.690617051829676,-8.36032477821182,-0.9394814111691188
0.3757918050941307,2.659074087595682,-8.361379139133293,-0.9486192058218637
0.3837873754152824,2.627531123361688,-8.362433500054763,-0.9577570004746084
0.39178294573643413,2.595988159127694,-8.363487860976234,-0.9668947951273533
0.39977851605758585,2.5644451948936995,-8.364542221897704,-0.9760325897800981
0.4077740863787376,2.5329022306597055,-8.365596582819174,-0.985170384432843
0.4157696566998893,2.501359266425711,-8.366650943740645,-0.9943081790855878
0.42376522702104097,2.469816302191717,-8.367705304662115,-1.0034459737383326
0.4317607973421927,1.4198012181616833,-7.900840716131413,-1.3361304909560725
0.4397563676633444,1.3651648209671465,-7.752034268487757,-1.463615417743325
0.44775193798449614,1.3105284237726098,-7.6032278208441,-1.5911003445305771
0.45574750830564786,1.288680243344695,-7.666052638391509,-1.7098466151788412
0.4637430786267996,1.2728967798535904,-7.768022119630094,-1.826976528454934
0.4717386489479513,1.2571133163624857,-7.869991600868677,-1.9441064417310268
0.479734219269103,1.2413298528713812,-7.971961082107261,-2.061236355007119
0.4877297895902547,1.2255463893802765,-8.073930563345845,-2.1783662682832112
0.4957253599114064,1.2097629258891718,-8.175900044584429,-2.2954961815593045
0.5037209302325582,1.193979462398067,-8.277869525823014,-2.412626094835397
0.5117165005537099,1.1781959989069624,-8.379839007061598,-2.5297560081114896
0.5197120708748616,1.1624125354158577,-8.481808488300182,-2.6468859213875824
0.5277076411960133,0.822132890365447,-8.386966777408636,-2.7150930232558137
0.535703211517165,0.548254270634528,-8.311090348955021,-4.0791603520180955
0.5436987818383168,0.5588866779764851,-8.41154533352183,-4.104933307415
0.5516943521594685,0.5695190853184422,-8.512000318088642,-4.130706262811904
0.5596899224806202,0.5801514926603992,-8.612455302655452,-4.1564792182088075
0.5676854928017719,0.5907839000023564,-8.712910287222263,-4.182252173605711
0.5756810631229237,0.6014163073443134,-8.813365271789072,-4.208025129002616
0.5836766334440753,0.6120487146862703,-8.913820256355882,-4.2337980843995195
0.591672203765227,0.6226811220282275,-9.014275240922693,-4.259571039796423
0.5996677740863787,0.6333135293701845,-9.114730225489502,-4.285343995193327
0.6076633444075304,0.6439459367121416,-9.215185210056314,-4.311116950590231
0.6156589147286822,0.6545783440540986,-9.315640194623123,-4.336889905987135
0.6236544850498339,0.6652107513960558,-9.416095179189934,-4.362662861384039
0.6316500553709856,-0.6885852374172258,-8.069433453115465,-4.450411801930075
0.6396456256921373,-0.5460519583248578,-8.037614346735372,-4.6074676475241265
0.6476411960132891,-0.4035186792324898,-8.005795240355278,-4.764523493118178
0.6556367663344408,-0.2609854001401218,-7.973976133975185,-4.92157933871223
0.6636323366555925,-0.11845212104775382,-7.9421570275950915,-5.078635184306282
0.6716279069767442,0.024081158044614193,-7.910337921214998,-5.235691029900334
0.679623477297896,0.1666144371369822,-7.878518814834904,-5.392746875494385
0.6876190476190477,0.30914771622935033,-7.8466997084548105,-5.549802721088437
0.6956146179401994,0.45168099532171824,-7.814880602074717,-5.706858566682489
0.703610188261351,0.5942142744140844,-7.783061495694623,-5.8639144122765385
0.7116057585825027,0.7367475535064523,-7.7512423893145295,-6.02097025787059
0.7196013289036545,0.8792808325988202,-7.719423282934436,-6.178026103464642
0.7275968992248062,1.0218141116911883,-7.687604176554343,-6.335081949058694
0.7355924695459579,0.16624119601328935,-7.527190771502398,-5.691026873385014
0.7435880398671096,0.37732425249169466,-6.843302990033221,-6.030572093023256
0.7515836101882614,0.49819795802609207,-6.585113280933474,-6.273611646814143
0.7595791805094131,0.5801038003403293,-6.510812981119844,-6.474963509169976
0.7675747508305648,0.6620096426545665,-6.436512681306215,-6.676315371525809
0.7755703211517165,0.7439154849688037,-6.362212381492585,-6.877667233881643
0.7835658914728683,0.8258213272830408,-6.2879120816789555,-7.0790190962374755
0.79156146179402,0.9077271695972781,-6.2136117818653265,-7.280370958593309
0.7995570321151717,0.9896330119115153,-6.1393114820516965,-7.481722820949142
0.8075526024363234,1.0715388542257525,-6.0650111822380675,-7.683074683304975
0.8155481727574752,1.1534446965399896,-5.9907108824244375,-7.8844265456608085
0.8235437430786269,1.235350538854227,-5.916410582610808,-8.085778408016642
0.8315393133997786,1.55005370985606,-7.078743632336635,-8.25664008859358
0.8395348837209302,1.7536019583843327,-6.6890364749082005,-8.496422276621788
0.8475304540420819,1.6478921023488953,-6.507999930057702,-8.737972664218686
0.8555260243632337,1.542182246313458,-6.326963385207204,-8.979523051815585
0.8635215946843854,1.4364723902780203,-6.145926840356705,-9.221073439412486
0.8715171650055371,1.330762534242583,-5.964890295506207,-9.462623827009384
0.8795127353266888,1.2250526782071454,-5.783853750655709,-9.704174214606283
0.8875083056478406,1.119342822171708,-5.60281720580521,-9.945724602203184
0.8955038759689923,1.0136329661362706,-5.4217806609547115,-10.187274989800082
0.903499446290144,0.9079231101008332,-5.240744116104214,-10.428825377396981
0.9114950166112957,0.8022132540653957,-5.059707571253715,-10.670375764993882
0.9194905869324475,0.6965033980299582,-4.878671026403217,-10.91192615259078
0.9274861572535992,0.5907935419945207,-4.6976344815527185,-11.153476540187679
0.9354817275747509,1.6652134638922893,-4.638780311243224,-11.493657002972547
0.9434772978959026,1.8366553243574057,-4.493092603602028,-11.344350247712303
0.9514728682170543,2.0080971848225224,-4.347404895960832,-11.19504349245206
0.959468438538206,2.1795390452876364,-4.201717188319638,-11.045736737191817
0.9674640088593577,2.3509809057527526,-4.056029480678442,-10.896429981931574
0.9754595791805094,2.5224227662178693,-3.910341773037245,-10.74712322667133
0.9834551495016611,2.693864626682986,-3.7646540653960487,-10.597816471411086
0.9914507198228129,2.865306487148102,-3.6189663577548528,-10.448509716150843
0.9994462901439646,3.0367483476132184,-3.4732786501136568,-10.299202960890598
1.0074418604651163,3.208190208078335,-3.3275909424724603,-10.149896205630355
1.0154374307862681,3.379632068543454,-3.181903234831262,-10.000589450370109
1.0234330011074197,3.551073929008568,-3.036215527190068,-9.851282695109868
1.0314285714285714,3.8262857142857247,-1.7497142857142802,-8.998214285714287
1.0394241417497232,4.85566828699656,-1.177395663577548,-9.111997470420238
1.0474197120708748,4.802981686775077,-1.141794334673894,-9.211563361893106
1.0554152823920266,4.750295086553592,-1.106193005770239,-9.311129253365975
1.0634108527131783,4.697608486332109,-1.0705916768665849,-9.410695144838842
1.07140642303433,4.644921886110624,-1.0349903479629299,-9.51026103631171
1.0794019933554817,4.592235285889141,-0.9993890190592758,-9.609826927784578
1.0873975636766335,4.539548685667656,-0.9637876901556207,-9.709392819257449
1.0953931339977852,4.486862085446173,-0.9281863612519667,-9.808958710730316
1.103388704318937,4.434175485224689,-0.8925850323483118,-9.908524602203185
1.1113842746400886,4.381488885003205,-0.8569837034446577,-10.008090493676052
1.1193798449612404,4.3288022847817205,-0.8213823745410027,-10.107656385148921
1.127375415282392,4.276115684560237,-0.7857810456373486,-10.207222276621788
1.1353709856035439,3.1612050572166774,-1.1344232188999608,-9.728805463270566
1.1433665559246955,2.6054606866001895,-1.2640011074197302,-9.159749723145053
1.1513621262458473,2.6101205560010743,-1.267277771413294,-9.170592965975487
1.159357696566999,2.785104071995012,-1.1741799238808048,-9.284185206400124
1.1673532668881506,2.9600875879889506,-1.0810820763483155,-9.39777744682476
1.1753488372093024,3.1350711039828942,-0.9879842288158236,-9.5113696872494
1.183344407530454,3.3100546199768326,-0.8948863812833343,-9.624961927674036
1.1913399778516058,3.4850381359707754,-0.8017885337508426,-9.738554168098677
1.1993355481727574,3.6600216519647137,-0.7086906862183533,-9.852146408523312
1.2073311184939093,3.835005167958657,-0.6155928386858615,-9.965738648947951
1.215326688815061,4.009988683952596,-0.5224949911533722,-10.079330889372589
1.2233222591362127,4.184972199946539,-0.42939714362088033,-10.192923129797228
1.2313178294573643,4.28196511627909,-0.45775581395345427,-10.381775193798426
1.2393133997785162,2.3460778766120107,-2.705945033877517,-9.706243930030128
1.2473089700996678,2.3752230200407247,-2.7251172078733967,-9.747855285249884
1.2553045404208196,2.4043681634694396,-2.7442893818692773,-9.789466640469643
1.2633001107419712,2.433513306898153,-2.763461555865157,-9.831077995689398
1.271295681063123,2.462658450326868,-2.782633729861037,-9.872689350909157
1.2792912513842747,2.491803593755582,-2.8018059038569167,-9.914300706128914
1.2872868217054263,2.520948737184296,-2.8209780778527964,-9.95591206134867
1.2952823920265781,2.550093880613011,-2.8401502518486765,-9.997523416568429
1.3032779623477297,2.579239024041725,-2.859322425844556,-10.039134771788184
1.3112735326688816,2.6083841674704393,-2.8784945998404363,-10.080746127007943
1.3192691029900332,2.6375293108991533,-2.897666773836316,-10.1223574822277
1.327264673311185,2.666674454327868,-2.916838947832196,-10.163968837447458
1.3352602436323366,3.717049932763803,-3.57859278595159,-10.882536455861414
1.3432558139534885,3.5155901162790664,-3.6231395348837214,-10.912734011627908
1.35125138427464,3.314130299794336,-3.667686283815852,-10.9429315673944
1.359246954595792,3.1126704833095995,-3.7122330327479838,-10.973129123160893
1.3672425249169435,2.9112106668248687,-3.756779781680114,-11.003326678927385
1.3752380952380954,2.709750850340133,-3.8013265306122457,-11.033524234693878
1.383233665559247,2.508291033855402,-3.845873279544376,-11.06372179046037
1.3912292358803988,2.306831217370666,-3.8904200284765076,-11.093919346226864
1.3992248062015504,2.105371400885935,-3.934966777408638,-11.124116901993355
1.407220376522702,1.9039115844012047,-3.9795135263407686,-11.154314457759849
1.4152159468438539,1.7024517679164686,-4.0240602752729,-11.18451201352634
1.4232115171650055,1.5009919514317378,-4.068607024205031,-11.214709569292834
1.4312070874861573,1.2995321349470017,-4.113153773137162,-11.244907125059326
1.439202657807309,1.098072318462271,-4.157700522069293,-11.27510468082582
1.4471982281284608,0.10827242524917104,-4.157055370985598,-11.026888704318935
1.4551937984496124,0.7939914529914532,-1.3694539852911949,-10.105972570065594
1.4631893687707642,0.8909633699633716,-1.4717562824772144,-10.14133759263992
1.4711849390919158,0.9879352869352872,-1.5740585796632311,-10.176702615214243
1.4791805094130677,1.0849072039072056,-1.6763608768492506,-10.21206763778857
1.4871760797342193,1.1818791208791213,-1.7786631740352674,-10.247432660362893
1.4951716500553711,1.2788510378510396,-1.880965471221287,-10.282797682937218
1.5031672203765227,1.3758229548229552,-1.9832677684073037,-10.318162705511543
1.5111627906976746,1.4727948717948736,-2.0855700655933234,-10.353527728085869
1.5191583610188262,1.5697667887667892,-2.18787236277934,-10.388892750660194
1.527153931339978,1.6667387057387075,-2.2901746599653596,-10.424257773234519
1.5351495016611296,1.47085603543743,-4.447042081949066,-11.294877076411963
1.5431450719822812,0.26909634551491823,-2.746827242525087,-11.18652048726467
1.551140642303433,0.5789888857756608,-0.8758140735700266,-11.105684959105524
1.5591362126245847,0.5756172597366209,-0.6460618420525976,-10.975443861826042
1.5671317829457365,0.572245633697581,-0.41630961053516236,-10.845202764546556
1.5751273532668881,0.5688740076585411,-0.1865573790177334,-10.714961667267076
1.58312292358804,0.5655023816195013,0.0431948524997019,-10.58472056998759
1.5911184939091916,0.5621307555804614,0.27294708401713086,-10.454479472708108
1.5991140642303434,0.5587591295414215,0.5026993155345663,-10.324238375428623
1.607109634551495,0.5553875035023816,0.7324515470519952,-10.19399727814914
1.6151052048726469,0.5520158774633417,0.9622037785694304,-10.063756180869655
1.6231007751937985,0.5486442514243018,1.1919560100868596,-9.933515083590173
1.6310963455149503,1.7055647840534267,0.8593588039867206,-9.710318936876924
1.639091915836102,3.2641780177187134,0.8047167312661477,-8.739331441491325
1.6470874861572538,3.143744739756364,0.6758714470284197,-8.70926476559616
1.6550830564784054,3.0233114617940178,0.5470261627906954,-8.679198089700996
1.6630786267995572,2.9028781838316684,0.4181808785529676,-8.649131413805831
1.6710741971207088,2.7824449058693226,0.28933559431524325,-8.619064737910668
1.6790697674418604,2.6620116279069763,0.1604903100775189,-8.588998062015504
1.6870653377630123,2.541578349944627,0.03164502583979101,-8.558931386120339
1.6950609080841639,2.4211450719822807,-0.09720025839793345,-8.528864710225175
1.7030564784053157,2.3007117940199313,-0.22604554263566135,-8.49879803433001
1.7110520487264673,2.1802785160575855,-0.3548908268733857,-8.468731358434846
1.7190476190476192,2.059845238095236,-0.4837361111111136,-8.438664682539681
1.7270431893687708,1.93941196013289,-0.6125813953488379,-8.408598006644517
1.7350387596899226,2.647007751938005,-0.0940387596899385,-9.66406201550391
1.7430343300110742,3.1596475516394618,-0.6442162357359528,-10.593607203042996
1.751029900332226,3.0092091578795293,-0.7047044633829275,-10.43630304781164
1.7590254706533777,2.8587707641196007,-0.7651926910299005,-10.278998892580287
1.7670210409745295,2.708332370359668,-0.8256809186768752,-10.12169473734893
1.7750166112956811,2.5578939765997393,-0.8861691463238481,-9.964390582117579
1.783012181616833,2.4074555828398068,-0.9466573739708228,-9.807086426886222
1.7910077519379846,2.2570171890798782,-1.007145601617796,-9.64978227165487
1.7990033222591362,2.1065787953199493,-1.067633829264769,-9.492478116423518
1.806998892580288,1.9561404015600168,-1.1281220569117436,-9.335173961192162
1.8149944629014396,1.805702007800088,-1.1886102845587168,-9.177869805960809
1.8229900332225915,1.6552636140401553,-1.2490985122056912,-9.020565650729452
1.830985603543743,1.3965902547065325,0.12592303433002883,-8.393634551495012
1.838981173864895,1.661601754834312,0.7910540080074959,-7.427616066104438
1.8469767441860465,1.4836234347048312,0.7109445438282652,-7.4191592128801425
1.8549723145071983,1.3056451145753454,0.6308350796490323,-7.410702359655848
1.86296788482835,1.1276667944458647,0.5507256154698017,-7.402245506431552
1.8709634551495018,0.9496884743163788,0.4706161512905687,-7.393788653207258
1.8789590254706534,0.771710154186898,0.39050668711133807,-7.385331799982962
1.8869545957918052,0.5937318340574123,0.31039722293210514,-7.376874946758668
1.8949501661129569,0.41575351392793136,0.23028775875287444,-7.368418093534372
1.9029457364341087,0.23777519379844558,0.1501782945736415,-7.359961240310077
1.9109413067552603,0.05979687366896469,0.07006883039441081,-7.351504387085782
1.918936877076412,-0.11818144646051598,-0.010040633784819786,-7.343047533861488
1.9269324473975638,-0.29615976659000176,-0.09015009796405271,-7.334590680637192
1.9349280177187154,-0.4741380867194829,-0.17025956214328342,-7.326133827412898
1.9429235880398672,-0.7292870277370006,-0.8535796183265083,-5.674845012748203
1.9509191583610188,-0.7138537175822196,-0.7977965695742878,-5.433118468155247
1.9589147286821706,-0.6984204074274382,-0.7420135208220657,-5.191391923562285
1.9669102990033223,-0.6829870972726572,-0.6862304720698452,-4.949665378969329
1.974905869324474,-0.6675537871178757,-0.6304474233176232,-4.7079388343763675
1.9829014396456257,-0.6521204769630947,-0.5746643745654028,-4.466212289783412
1.9908970099667775,-0.6366871668083133,-0.5188813258131806,-4.224485745190449
1.9988925802879292,-0.6212538566535323,-0.46309827706096013,-3.982759200597494
2.0068881506090808,-0.6058205464987513,-0.4073152283087396,-3.7410326560045384
2.0148837209302326,-0.5903872363439698,-0.3515321795565176,-3.499306111411576
2.0228792912513844,-0.5749539261891884,-0.29574913080429555,-3.257579566818614
2.0308748615725363,-1.1249637320044428,0.33656686046514595,-1.5418277962347329
2.0388704318936877,-1.2627641934293106,2.0025498708010367,0.1418604651162776
2.0468660022148395,-1.3157126368893826,2.1729443583118053,0.0579069767441836
2.0548615725359913,-1.3686610803494546,2.343338845822574,-0.026046511627910385
2.0628571428571427,-1.4216095238095234,2.5137333333333327,-0.10999999999999974
2.0708527131782946,-1.4745579672695954,2.6841278208441013,-0.19395348837209372
2.0788482834994464,-1.5275064107296674,2.85452230835487,-0.27790697674418774
2.0868438538205982,-1.5804548541897394,3.0249167958656384,-0.36186046511628167
2.0948394241417496,-1.6334032976498085,3.1953112833763972,-0.44581395348837105
2.1028349944629015,-1.6863517411098805,3.365705770887166,-0.529767441860465
2.1108305647840533,-1.7393001845699525,3.5361002583979344,-0.613720930232559
2.118826135105205,-1.7922486280300245,3.706494745908703,-0.697674418604653
2.1268217054263565,-1.8451970714900936,3.8768892334194622,-0.7816279069767423
2.1348172757475083,-1.9909102990032956,3.6011395348837447,-1.682631229235886
2.14281284606866,1.1859933205105861,6.355648306813548,-2.532932470711681
2.150808416389812,1.4268703969225494,6.438128926968588,-3.1159357929708245
2.1588039867109634,1.6677474733344992,6.520609547123623,-3.698939115229936
2.1667995570321152,1.9086245497464625,6.603090167278663,-4.2819424374890795
2.174795127353267,2.1495016261584254,6.6855707874337025,-4.864945759748223
2.1827906976744185,2.3903787025703753,6.768051407588738,-5.447949082007334
2.1907862679955703,2.6312557789823385,6.850532027743777,-6.030952404266477
2.198781838316722,2.8721328553943017,6.933012647898817,-6.613955726525621
2.206777408637874,3.113009931806265,7.0154932680538575,-7.196959048784764
2.2147729789590254,3.353887008218215,7.097973888208893,-7.779962371043876
2.222768549280177,3.594764084630178,7.180454508363932,-8.36296569330302
2.230764119601329,3.8356411610421413,7.262935128518972,-8.945969015562163
2.238759689922481,-8.693029457364297,-0.20807407407406048,-31.357239276485785
2.2467552602436323,-7.3145931339977945,0.2121375661375633,-31.307133702473237
2.254750830564784,-5.936156810631216,0.6323492063492104,-31.257028128460686
2.262746400885936,-4.557720487264638,1.0525608465608576,-31.206922554448134
2.2707419712070878,-3.1792841638980596,1.4727724867725047,-31.156816980435583
2.278737541528239,-1.8008478405315573,1.8929841269841285,-31.10671140642303
2.286733111849391,-0.4224115171649796,2.3131957671957757,-31.05660583241048
2.294728682170543,0.956024806201599,2.733407407407423,-31.006500258397928
2.3027242524916947,2.3344611295681776,3.1536190476190695,-30.956394684385376
2.310719822812846,3.71289745293468,3.573830687830694,-30.90628911037283
2.318715393133998,5.0913337763012585,3.9940423280423403,-30.856183536360277
2.3267109634551497,6.469770099667837,4.414253968253988,-30.806077962347725
2.334706533776301,8.348334493487314,-1.078222612455833,-23.897334356378206
2.342702104097453,7.743717080630691,-0.626891704899005,-23.40792930443494
2.3506976744186048,7.139099667774066,-0.1755607973421771,-22.918524252491675
2.3586932447397566,6.534482254917441,0.2757701102146508,-22.42911920054841
2.366688815060908,5.92986484206085,0.7271010177714536,-21.939714148605173
2.37468438538206,5.325247429204225,1.1784319253282816,-21.450309096661908
2.3826799557032117,4.7206300163476005,1.6297628328851095,-20.960904044718642
2.3906755260243635,4.116012603490976,2.081093740441937,-20.471498992775377
2.398671096345515,3.511395190634385,2.5324246479987407,-19.98209394083214
2.4066666666666667,2.9067777777777604,2.983755555555568,-19.492688888888875
2.4146622369878186,2.3021603649211357,3.4350864631123965,-19.00328383694561
2.4226578073089704,1.6975429520645111,3.886417370669224,-18.513878785002344
2.430653377630122,1.0929255392079193,4.3377482782260275,-18.024473733059104
2.4386489479512736,0.8812288667405348,4.668847323735691,-16.514495533406993
2.4466445182724255,2.1818416389812225,4.537186932447392,-11.07644163898097
2.454640088593577,11.029621262458177,8.714601328903521,-2.7603931339978613
2.4626356589147287,11.141381591876845,9.264068129708482,-2.428363904356371
2.4706312292358805,10.487321416873325,9.493462168358995,-2.280051705582329
2.4786267995570324,9.833261241869803,9.722856207009507,-2.1317395068082865
2.4866223698781837,9.179201066866318,9.952250245660005,-1.9834273080342526
2.4946179401993356,8.525140891862796,10.181644284310519,-1.8351151092602103
2.5026135105204874,7.871080716859273,10.41103832296103,-1.686802910486168
2.5106090808416393,7.217020541855752,10.640432361611541,-1.5384907117121256
2.5186046511627906,6.562960366852267,10.869826400262042,-1.3901785129380915
2.5266002214839425,5.634223382376071,10.776915994304572,-1.0278311975952228
2.5345957918050943,2.6958449612403372,7.635705426356595,5.775789590254938
2.542591362126246,0.27465474635111387,7.683188734181925,10.73877606480273
2.5505869324473975,0.2655811216046387,7.354561810195725,11.0230230816131
2.5585825027685494,0.256507496858163,7.025934886209507,11.307270098423489
2.566578073089701,0.24743387211168733,6.697307962223288,11.591517115233875
2.5745736434108526,0.23836024736521214,6.368681038237089,11.875764132044246
2.5825692137320044,0.22928662261873645,6.040054114250871,12.160011148854633
2.5905647840531563,0.22021299787226076,5.7114271902646525,12.444258165665019
2.598560354374308,0.21113937312578507,5.3828002662784336,12.728505182475406
2.6065559246954595,0.2020657483793099,5.054173342292234,13.012752199285778
2.6145514950166113,0.19299212363283422,4.725546418306015,13.296999216096165
2.622547065337763,0.18391849888635853,4.396919494319798,13.581246232906551
2.630542635658915,3.1287383720932658,-0.6697848837213352,10.218094961240023
2.6385382059800664,11.94239351972825,-7.765496621747736,1.6463945276046108
2.646533776301218,11.528600296141448,-7.425011099082955,2.0123041671332786
2.65452934662237,11.114807072554648,-7.084525576418175,2.3782138066619467
2.662524916943522,10.701013848967845,-6.744040053753394,2.7441234461906143
2.6705204872646733,10.287220625381066,-6.403554531088632,3.1100330857192615
2.678516057585825,9.873427401794265,-6.063069008423852,3.4759427252479296
2.686511627906977,9.459634178207462,-5.722583485759071,3.8418523647765976
2.6945071982281283,9.045840954620683,-5.38209796309431,4.207762004305245
2.70250276854928,8.632047731033882,-5.04161244042953,4.573671643833913
2.710498338870432,8.21825450744708,-4.701126917764749,4.93958128336258
2.718493909191584,7.804461283860278,-4.360641395099968,5.305490922891249
2.7264894795127352,7.51151843062805,-4.34734424932759,6.311195855086116
2.734485049833887,5.273973421926964,-9.393564784053225,3.4442026578074847
2.742480620155039,-4.364584668389298,3.2049627906976443,-18.63775211024979
2.7504761904761907,-7.57063068783072,7.676085714285757,-18.226602116402113
2.758471760797342,-10.776676707271962,12.147208637873621,-17.81545212255446
2.766467331118494,-13.982722726713384,16.618331561461734,-17.404302128706785
2.774462901439646,-17.188768746154807,21.089454485049846,-16.99315213485911
2.7824584717607976,-20.394814765596223,25.56057740863796,-16.582002141011436
2.790454042081949,-23.60086078503747,30.031700332225824,-16.170852147163785
2.798449612403101,-26.806906804478892,34.50282325581394,-15.759702153316109
2.8064451827242527,-30.01295282392031,38.973946179402056,-15.348552159468433
2.814440753045404,-33.218998843361554,43.44506910298992,-14.937402165620782
2.822436323366556,-36.42504486280297,47.91619202657803,-14.526252171773105
2.8304318936877078,6.741053156144645,-7.451161129565747,10.08470598006613
2.8384274640088596,-6.703204610676481,39.013544731420936,-3.333404779766377
2.846423034330011,-7.177866371354727,35.9678342561832,-4.403521594684349
2.854418604651163,-7.652528132032999,32.9221237809453,-5.47363840960238
2.8624141749723147,-8.127189892711272,29.876413305707395,-6.543755224520412
2.8704097452934665,-8.601851653389543,26.83070283046949,-7.6138720394384425
2.878405315614618,-9.076513414067788,23.784992355231758,-8.683988854356414
2.8864008859357697,-9.55117517474606,20.739281879993854,-9.754105669274445
2.8943964562569215,-10.025836935424332,17.69357140475595,-10.824222484192479
2.9023920265780734,-10.500498696102603,14.647860929518046,-11.89433929911051
2.9103875968992248,-10.975160456780849,11.602150454280313,-12.96445611402848
2.9183831672203766,-11.449822217459122,8.556439979042409,-14.034572928946513
2.9263787375415284,-11.708389368770737,4.490079069767278,-14.372196677740767
2.9343743078626803,7.042767490009149,-4.580945375318985,-5.900418989840634
2.9423698781838317,7.1232446434589995,-4.537056646925707,-6.208422263951076
2.9503654485049835,7.203721796908854,-4.4931679185324285,-6.516425538061535
2.9583610188261353,7.284198950358709,-4.449279190139149,-6.824428812171993
2.9663565891472867,7.364676103808559,-4.405390461745872,-7.132432086282435
2.9743521594684386,7.445153257258414,-4.361501733352593,-7.440435360392894
2.9823477297895904,7.525630410708269,-4.3176130049593135,-7.748438634503353
2.9903433001107422,7.6061075641581235,-4.273724276566035,-8.056441908613811
2.9983388704318936,7.686584717607974,-4.229835548172757,-8.364445182724253
3.0063344407530455,7.7670618710578285,-4.1859468197794785,-8.672448456834712
3.0143300110741973,7.847539024507682,-4.1420580913861995,-8.980451730945171
3.022325581395349,7.928016177957537,-4.09816936299292,-9.28845500505563
3.0303211517165005,3.048848837209383,-3.129841085271396,-6.085246400885993
3.0383167220376524,0.8051811134601468,1.1361843350448804,-2.909003120910038
3.046312292358804,0.17369339150624347,3.6227471880879523,-1.530860905415685
3.054307862679956,0.584742771751482,4.745883987778423,-1.5806646386209318
3.0623034330011074,0.9957921519966979,5.8690207874688305,-1.6304683718261759
3.0702990033222592,1.4068415322419365,6.992157587159301,-1.6802721050314227
3.078294573643411,1.817890912487175,8.115294386849772,-1.7300758382366697
3.0862901439645625,2.228940292732391,9.23843118654018,-1.7798795714419138
3.0942857142857143,2.6399896729776295,10.36156798623065,-1.8296833046471606
3.102281284606866,3.051039053222868,11.484704785921119,-1.8794870378524073
3.110276854928018,3.462088433468107,12.60784158561159,-1.9292907710576543
3.1182724252491694,3.8731378137133223,13.730978385301999,-1.9790945042628985
3.126267995570321,4.798156976744208,11.466069213731883,-4.153451550387677
3.134263565891473,5.983922975424698,0.054865660564080765,-15.502770823024898
3.142259136212625,5.5278352300841,0.23119350392309967,-15.115325899483976
3.1502547065337763,5.071747484743527,0.4075213472821088,-14.727880975943075
3.158250276854928,4.61565973940293,0.5838491906411277,-14.340436052402152
3.16624584717608,4.159571994062332,0.7601770340001466,-13.952991128861232
3.1742414174972318,3.703484248721734,0.9365048773591655,-13.56554620532031
3.182236987818383,3.2473965033811614,1.1128327207181745,-13.178101281779409
3.190232558139535,2.7913087580405636,1.2891605640771935,-12.790656358238486
3.198228128460687,2.3352210126999657,1.4654884074362122,-12.403211434697564
3.206223698781838,1.8791332673593928,1.6418162507952214,-12.015766511156665
3.21421926910299,1.4230455220187954,1.8181440941542404,-11.628321587615742
3.222214839424142,0.9669577766781972,1.9944719375132591,-11.240876664074822
3.2302104097452937,1.405908361018911,-0.46832779623507914,-8.073080287928775
3.238205980066445,2.3400603117812406,-4.930208462633713,-4.918798802526377
3.246201550387597,2.4618389982110918,-4.797534713348666,-4.958337337081523
3.254197120708749,2.5836176846409424,-4.66486096406362,-4.997875871636669
3.2621926910299006,2.705396371070793,-4.532187214778573,-5.037414406191815
3.270188261351052,2.827175057500637,-4.399513465493534,-5.07695294074696
3.278183831672204,2.948953743930488,-4.266839716208487,-5.116491475302106
3.2861794019933557,3.070732430360339,-4.13416596692344,-5.156030009857252
3.2941749723145075,3.1925111167901896,-4.001492217638394,-5.195568544412399
3.302170542635659,3.314289803220033,-3.8688184683533544,-5.235107078967543
3.3101661129568107,3.4360684896498843,-3.736144719068308,-5.27464561352269
3.3181616832779626,3.557847176079735,-3.6034709697832614,-5.314184148077836
3.3261572535991144,3.9501561461794426,-2.512120708748479,-5.505386489479535
3.334152823920266,6.106231807951989,-1.1173534455042389,-7.910606151537883
3.3421483942414176,6.162802617320999,-1.3935015301444507,-7.853433525047927
3.3501439645625695,6.219373426690009,-1.6696496147846625,-7.79626089855797
3.358139534883721,6.275944236059015,-1.945797699424859,-7.739088272068017
3.3661351052048727,6.332515045428025,-2.2219457840650705,-7.6819156455780595
3.3741306755260245,6.389085854797035,-2.4980938687052827,-7.624743019088103
3.3821262458471764,6.445656664166044,-2.7742419533454945,-7.567570392598147
3.3901218161683278,6.502227473535051,-3.050390037985691,-7.510397766108193
3.3981173864894796,6.5587982829040605,-3.3265381226259025,-7.453225139618237
3.4061129568106314,6.61536909227307,-3.6026862072661148,-7.3960525131282795
3.4141085271317833,6.67193990164208,-3.878834291906326,-7.338879886638323
3.4221040974529346,6.728510711011086,-4.154982376546523,-7.281707260148369
3.4300996677740865,5.0477224252491055,-6.158336544850493,-6.515082059800654
3.4380952380952383,3.184354761904672,-6.000823809523801,-6.224842857142843
3.44609080841639,1.3209870985602383,-5.843311074197111,-5.934603654485032
3.4540863787375415,2.43844019933554,-7.116257475083052,-3.2341528239202826
3.4620819490586934,2.904981727574752,-7.343731450719823,-2.3226578073089694
3.470077519379845,3.371523255813963,-7.5712054263565935,-1.4111627906976558
3.4780730897009966,3.8380647840531488,-7.798679401993352,-0.49966777408639285
3.4860686600221484,4.304606312292361,-8.026153377630123,0.41182724252492076
3.4940642303433003,4.771147840531572,-8.253627353266893,1.3233222591362344
3.502059800664452,5.237689368770784,-8.481101328903664,2.234817275747548
3.5100553709856035,5.70423089700997,-8.708575304540423,3.146312292358811
3.5180509413067553,6.170772425249182,-8.936049280177192,4.057807308970124
3.526046511627907,6.637313953488394,-9.163523255813963,4.969302325581437
3.534042081949059,7.762170542635168,-10.257120708748957,2.705869324474514
3.5420376522702104,1.1213660722241237,-14.46896679013759,8.157057827675304
3.5500332225913622,0.7280207736663102,-13.932252644441881,7.873996257685103
3.558028792912514,0.3346754751084967,-13.395538498746173,7.5909346876949
3.566024363233666,-0.058669823449316816,-12.858824353050466,7.307873117704697
3.5740199335548173,-0.45201512200710847,-12.322110207354786,7.024811547714511
3.582015503875969,-0.8453604205649221,-11.785396061659078,6.741749977724309
3.590011074197121,-1.2387057191227357,-11.24868191596337,6.4586884077341065
3.5980066445182723,-1.6320510176805272,-10.711967770267691,6.17562683774392
3.606002214839424,-2.025396316238341,-10.175253624571983,5.892565267753717
3.613997785160576,-2.4187416147961542,-9.638539478876275,5.609503697763515
3.621993355481728,-2.8120869133539674,-9.101825333180567,5.326442127773312
3.6299889258028792,-1.8151716500551975,-5.2728017718716735,-7.594064230343034
3.637984496124031,-2.7863317013463846,-12.395458996328033,-3.587831089351269
3.645980066445183,-2.6532685784227947,-12.533319461444314,-3.1212264381884722
3.6539756367663347,-2.5202054554992053,-12.671179926560596,-2.654621787025676
3.661971207087486,-2.387142332575623,-12.809040391676868,-2.1880171358629052
3.669966777408638,-2.254079209652033,-12.94690085679315,-1.7214124847001084
3.67796234772979,-2.121016086728443,-13.08476132190943,-1.2548078335373116
3.6859579180509416,-1.9879529638048536,-13.22262178702571,-0.7882031823745148
3.693953488372093,-1.8548898408812713,-13.360482252141985,-0.3215985312117442
3.701949058693245,-1.7218267179576816,-13.498342717258264,0.14500611995105261
3.7099446290143967,-1.5887635950340917,-13.636203182374546,0.6116107711138494
3.717940199335548,-1.4557004721105096,-13.774063647490818,1.0782154222766196
3.7259357696567,-1.3226373491869197,-13.9119241126071,1.5448200734394164
3.7339313399778518,-2.107947951273451,-11.456860465116096,-8.317890365448466
3.7419269102990036,0.5005645197825423,-11.506332867713683,-2.1698193144065145
3.749922480620155,0.467401074700494,-11.588014887244537,-1.7346058844256609
3.757918050941307,0.4342376296184438,-11.669696906775394,-1.299392454444783
3.7659136212624587,0.40107418453639365,-11.751378926306252,-0.8641790244639052
3.7739091915836105,0.36791073945434344,-11.83306094583711,-0.42896559448302707
3.781904761904762,0.3347472943722951,-11.914742965367964,0.006247835497826593
3.7899003322259137,0.30158384929024484,-11.996424984898821,0.4414612654787047
3.7978959025470655,0.2684204042081947,-12.078107004429679,0.8766746954595823
3.8058914728682174,0.23525695912614447,-12.159789023960538,1.3118881254404604
3.8138870431893688,0.20209351404409615,-12.24147104349139,1.7471015554213145
3.8218826135105206,0.16893006896204593,-12.323153063022248,2.182314985402192
3.8298781838316724,-0.2045210146073996,-11.79981622106206,2.6995125243896068
3.837873754152824,-0.7954317354848763,-10.889844170226255,3.26910172441068
3.8458693244739757,-1.386342456362386,-9.979872119390398,3.838690924431784
3.8538648947951275,0.7995554158809944,-8.057039986830679,0.18826275777437568
3.8618604651162793,0.6755160276555576,-7.8115543683218,-0.2575443117536317
3.8698560354374307,0.5514766394301278,-7.566068749812936,-0.7033513812816142
3.8778516057585826,0.4274372512046909,-7.320583131304057,-1.1491584508096215
3.8858471760797344,0.3033978629792541,-7.075097512795178,-1.5949655203376287
3.8938427464008862,0.17935847475381728,-6.8296118942863,-2.0407725898656364
3.9018383167220376,0.05531908652838735,-6.584126275777436,-2.4865796593936187
3.9098338870431895,-0.06872030169704946,-6.338640657268558,-2.9323867289216263
3.9178294573643413,-0.19275968992248627,-6.093155038759679,-3.3781937984496335
3.925825027685493,0.699508674788321,-7.005763012182268,-3.0819516426721734
3.9338205980066445,2.998716733694703,-8.856038468263684,-2.10156023780381
3.9418161683277964,2.93534131841231,-8.79333636416623,-2.1948138369178753
3.949811738648948,2.8719659031299174,-8.730634260068776,-2.2880674360319406
3.9578073089701,2.8085904878475247,-8.667932155971322,-2.3813210351460063
3.9658028792912514,2.745215072565135,-8.605230051873871,-2.4745746342600663
3.9737984496124032,2.6818396572827425,-8.542527947776419,-2.567828233374132
3.981794019933555,2.6184642420003494,-8.479825843678965,-2.6610818324881973
3.9897895902547065,2.5550888267179603,-8.417123739581514,-2.7543354316022572
3.9977851605758583,2.4917134114355672,-8.35442163548406,-2.847589030716323
4.00578073089701,2.4283379961531746,-8.291719531386606,-2.9408426298303882
4.0137763012181615,2.3649625808707855,-8.229017427289158,-3.0340962289444486
4.021771871539314,2.301587165588389,-8.1663153231917,-3.1273498280585192
4.029767441860465,0.7237209302325529,-9.419130232558144,-3.3921534883720925
4.037763012181617,-0.3919058211757915,-10.276813833116664,-4.8963921710241225
4.045758582502769,-0.3173384370937413,-10.27429349029804,-4.880227213635706
4.05375415282392,-0.2427710530116994,-10.271773147479417,-4.8640622562472915
4.0617497231450725,-0.16820366892964922,-10.269252804660793,-4.847897298858875
4.069745293466224,-0.09363628484760733,-10.26673246184217,-4.8317323414704605
4.077740863787375,-0.019068900765565444,-10.264212119023545,-4.815567384082046
4.085736434108528,0.055498483316484715,-10.261691776204922,-4.7994024266936295
4.093732004429679,0.1300658673985266,-10.259171433386298,-4.783237469305215
4.10172757475083,0.2046332514805685,-10.256651090567674,-4.767072511916799
4.109723145071983,0.2792006355626186,-10.25413074774905,-4.750907554528383
4.117718715393134,0.3537680196446605,-10.251610404930426,-4.734742597139968
4.1257142857142854,0.42833540372670237,-10.249090062111803,-4.718577639751554
4.133709856035438,0.9491233388704158,-12.225275747508356,-0.21474598560328095
4.141705426356589,1.326852272727285,-11.018978770260738,0.23940653629315478
4.149700996677741,1.5729886363636656,-10.828629681365124,0.049784317426736724
4.157696566998893,1.819125000000019,-10.638280592469531,-0.1398379014396603
4.165692137320044,2.065261363636372,-10.447931503573939,-0.3294601203060573
4.1736877076411965,2.311397727272753,-10.257582414678325,-0.5190823391724754
4.181683277962348,2.5575340909091064,-10.067233325782732,-0.7087045580388724
4.189678848283499,2.80367045454546,-9.87688423688714,-0.8983267769052694
4.1976744186046515,3.0498068181818407,-9.686535147991526,-1.0879489957716875
4.205669988925803,3.295943181818194,-9.496186059095933,-1.2775712146380844
4.213665559246955,3.5420795454545746,-9.30583697020032,-1.4671934335045025
4.221661129568107,3.788215909090928,-9.115487881304727,-1.6568156523708994
4.229656699889258,3.7851229887303774,-8.403075304540433,-1.0678366230213467
4.23765227021041,3.749378086118166,-8.07525692137318,0.1695954660934953
4.245647840531562,3.805589147286839,-7.624399778516019,1.2206600221484083
4.253643410852713,3.7454534883720942,-7.30114818127609,1.1345073544027044
4.261638981173865,3.5895398671096252,-7.100336357440997,0.9630126217451698
4.269634551495017,3.433626245847174,-6.899524533605926,0.791517889087654
4.277630121816168,3.2777126245847223,-6.698712709770856,0.6200231564301383
4.28562569213732,3.121799003322254,-6.4979008859357625,0.4485284237726035
4.293621262458472,2.965885382059802,-6.297089062100692,0.2770336911150877
4.301616832779624,2.809971760797333,-6.096277238265599,0.10553895845755301
4.309612403100775,2.6540581395348815,-5.895465414430529,-0.06595577419996279
4.317607973421927,2.4981445182724302,-5.694653590595458,-0.2374505068574786
4.325603543743079,2.5356666666667738,-5.346043189368675,-0.4189346622370013
4.3335991140642305,4.829475452196388,-6.058311923218908,1.5591768180140257
4.341594684385382,4.652407667326139,-5.804849266489973,1.5514063981484996
4.349590254706534,4.6915769781129075,-5.876090696430128,1.4505184715119372
4.3575858250276855,4.730746288899672,-5.947332126370275,1.349630544875386
4.365581395348837,4.769915599686437,-6.018573556310423,1.2487426182388346
4.373576965669989,4.809084910473205,-6.089814986250577,1.147854691602272
4.381572535991141,4.848254221259969,-6.161056416190724,1.0469667649657208
4.389568106312293,4.887423532046738,-6.232297846130879,0.9460788383291585
4.397563676633444,4.926592842833502,-6.303539276071026,0.8451909116926072
4.405559246954596,4.9657621536202665,-6.374780706011173,0.744302985056056
4.413554817275748,5.0049314644070355,-6.446022135951329,0.6434150584194935
4.421550387596899,5.0441007751938,-6.517263565891476,0.5425271317829423
4.429545957918051,6.476450719822815,-10.65051162790699,-1.5513117386489452
4.437541528239203,6.5284080472499015,-11.35842141011443,-0.9294479143595417
4.445537098560354,6.411228522209917,-11.29836579303556,-0.9162108034945243
4.453532668881507,6.294048997169917,-11.238310175956682,-0.9029736926295056
4.461528239202658,6.176869472129932,-11.178254558877812,-0.8897365817644882
4.4695238095238095,6.059689947089947,-11.11819894179894,-0.8764994708994709
4.477519379844962,5.942510422049948,-11.058143324720064,-0.8632623600344521
4.485514950166113,5.825330897009962,-10.998087707641194,-0.8500252491694348
4.4935105204872645,5.7081513719699775,-10.938032090562324,-0.8367881383044175
4.501506090808417,5.590971846929978,-10.877976473483447,-0.8235510274393987
4.509501661129568,5.473792321889993,-10.817920856404577,-0.8103139165743813
4.51749723145072,5.3566127968500075,-10.757865239325705,-0.797076805709364
4.525492801771872,5.239433271810009,-10.697809622246828,-0.7838396948443452
4.533488372093023,4.159887971992998,-8.693457364341086,-1.718326331582896
4.5414839424141755,4.159286154872051,-8.722774455518644,-1.6824752259493423
4.549479512735327,4.1586843377511045,-8.7520915466962,-1.6466241203157925
4.557475083056478,4.158082520630158,-8.781408637873755,-1.6107730146822425
4.565470653377631,4.1574807035092105,-8.810725729051313,-1.5749219090486888
4.573466223698782,4.156878886388264,-8.840042820228868,-1.539070803415139
4.581461794019933,4.1562770692673165,-8.869359911406422,-1.5032196977815893
4.589457364341086,4.15567525214637,-8.89867700258398,-1.4673685921480355
4.597452934662237,4.155073435025423,-8.927994093761535,-1.4315174865144857
4.605448504983389,4.154471617904476,-8.957311184939094,-1.395666380880932
4.613444075304541,4.153869800783529,-8.98662827611665,-1.359815275247382
4.621439645625692,4.153267983662582,-9.015945367294204,-1.3239641696138325
4.629435215946844,3.8036414515716404,-9.13988039867111,-1.5843480705341515
4.637430786267996,3.173836527813249,-9.339769656699895,-2.0825336059289725
4.645426356589147,3.569135400516803,-10.2659565891473,-1.990761757105941
4.653421926910299,4.082765780731005,-10.59665282391926,-2.1388388704323598
4.661417497231451,4.228913363370198,-8.190167023164797,-3.2569440070389404
4.669413067552602,4.109198865274054,-7.984801347107824,-3.3553004748251594
4.6774086378737545,3.9894843671778966,-7.7794356710508294,-3.4536569426113894
4.685404208194906,3.8697698690817526,-7.574069994993858,-3.552013410397609
4.693399778516058,3.750055370985595,-7.368704318936862,-3.6503698781838385
4.7013953488372096,3.630340872889451,-7.16333864287989,-3.7487263459700575
4.709390919158361,3.5106263747933064,-6.957972966822918,-3.847082813756277
4.717386489479513,3.390911876697149,-6.752607290765924,-3.945439281542507
4.725382059800665,3.2711973786010047,-6.547241614708952,-4.043795749328726
4.733377630121816,6.2414019933554545,-6.794013289036382,-1.9991705426357316
4.741373200442968,6.10375829043604,-5.022831294950894,-2.770978606111496
4.74936877076412,6.2683264575955615,-4.991200467306779,-2.762280128509364
4.757364341085271,6.432894624755084,-4.959569639662663,-2.7535816509072326
4.765359911406423,6.597462791914625,-4.927938812018545,-2.7448831733051
4.773355481727575,6.7620309590741465,-4.89630798437443,-2.7361846957029683
4.781351052048727,6.926599126233687,-4.864677156730311,-2.7274862181008355
4.789346622369878,7.09116729339321,-4.833046329086196,-2.718787740498704
4.79734219269103,7.2557354605527316,-4.80141550144208,-2.710089262896572
4.805337763012182,7.420303627712272,-4.769784673797962,-2.7013907852944397
4.8133333333333335,7.584871794871795,-4.738153846153846,-2.6926923076923077
4.821328903654485,7.749439962031317,-4.706523018509731,-2.6839938300901762
4.829324473975637,8.335818752307006,-4.0667829457362,-2.744939461055823
4.8373200442967885,7.33318028316603,-3.05115125209874,-2.269269138713253
4.845315614617941,7.345474547208232,-3.1024776551280726,-2.4049359125495786
4.853311184939092,7.357768811250432,-3.153804058157399,-2.5406026863858893
4.861306755260244,7.370063075292633,-3.2051304611867257,-2.6762694602222004
4.869302325581396,7.382357339334835,-3.2564568642160583,-2.811936234058526
4.877297895902547,7.394651603377035,-3.307783267245385,-2.9476030078948368
4.885293466223699,7.406945867419235,-3.3591096702747114,-3.0832697817311474
4.893289036544851,7.419240131461438,-3.410436073304044,-3.218936555567473
4.901284606866002,7.431534395503638,-3.4617624763333708,-3.3546033294037843
4.909280177187154,7.443828659545839,-3.513088879362697,-3.490270103240095
4.917275747508306,7.45612292358804,-3.5644152823920296,-3.6259368770764207
4.925271317829457,7.571372093023339,-3.7374496124031995,-3.8438217054264263
4.93326688815061,7.521966849631667,-3.3172242043430145,-3.664677993644373
4.941262458471761,7.580890726563631,-3.3538995377726435,-3.6550311642351576
4.949258028792912,7.639814603495594,-3.3905748712022725,-3.6453843348259425
4.957253599114065,7.698738480427564,-3.4272502046319056,-3.635737505416726
4.965249169435216,7.757662357359527,-3.4639255380615346,-3.626090676007511
4.9732447397563675,7.81658623429149,-3.5006008714911636,-3.6164438465982958
4.98124031007752,7.87551011122346,-3.5372762049207966,-3.6067970171890793
4.989235880398671,7.934433988155424,-3.5739515383504257,-3.597150187779864
4.9972314507198226,7.993357865087386,-3.6106268717800547,-3.587503358370649
5.005227021040975,8.052281742019357,-3.6473022052096877,-3.5778565289614326
5.013222591362126,8.11120561895132,-3.6839775386393168,-3.5682096995522175
5.0212181616832785,8.17012949588329,-3.72065287206895,-3.558562870143001
5.02921373200443,7.871355112587671,-3.0937644887412348,-4.000521963824289
5.037209302325581,7.780038650507698,-2.5201239764166394,-3.919321159515231
5.045204872646734,7.808417294464464,-2.5383110835555986,-3.9132963283577427
5.053200442967885,7.8367959384212265,-2.5564981906945556,-3.9072714972002554
5.061196013289036,7.865174582377989,-2.5746852978335126,-3.901246666042768
5.069191583610189,7.893553226334755,-2.592872404972472,-3.8952218348852803
5.07718715393134,7.921931870291518,-2.611059512111429,-3.889197003727793
5.085182724252492,7.950310514248283,-2.6292466192503876,-3.883172172570305
5.093178294573644,7.978689158205046,-2.6474337263893446,-3.877147341412818
5.101173864894795,8.007067802161808,-2.6656208335283016,-3.8711225102553306
5.109169435215947,8.035446446118574,-2.683807940667261,-3.8650976790978424
5.117165005537099,8.063825090075337,-2.701995047806218,-3.859072847940355
5.12516057585825,8.0922037340321,-2.720182154945175,-3.853048016782868
5.133156146179402,8.120582377988866,-2.738369262084134,-3.84702318562538
5.141151716500554,8.148961021945627,-2.756556369223091,-3.8409983544678927
5.149147286821705,8.177339665902391,-2.774743476362048,-3.8349735233104054
5.1571428571428575,8.205718309859156,-2.7929305835010068,-3.828948692152917
5.165138427464009,8.23409695381592,-2.8111176906399638,-3.82292386099543
5.173133997785161,8.261062015503873,-2.833689922480637,-3.889090808416648
5.1811295681063125,7.921602961878484,-0.9982040655442309,-5.385615913058167
5.189125138427464,7.920112262327082,-1.0327611915085293,-5.414210240816861
5.197120708748616,7.918621562775681,-1.0673183174728313,-5.442804568575559
5.205116279069768,7.917130863224281,-1.1018754434371296,-5.471398896334253
5.213111849390919,7.9156401636728795,-1.136432569401428,-5.499993224092947
5.221107419712071,7.914149464121478,-1.17098969536573,-5.528587551851643
5.229102990033223,7.912658764570077,-1.2055468213300284,-5.557181879610337
5.237098560354375,7.911168065018676,-1.2401039472943305,-5.585776207369035
5.245094130675526,7.574901756051239,-0.9333855402625916,-6.434511311501396
5.253089700996678,7.614911205073995,-1.0981057082452412,-6.511528800103551
5.26108527131783,7.655615926708952,-1.1642508809020464,-6.512359508708346
5.269080841638981,7.696320648343905,-1.2303960535588443,-6.513190217313141
5.277076411960133,7.737025369978857,-1.2965412262156422,-6.514020925917936
5.285071982281285,7.777730091613814,-1.3626863988724476,-6.514851634522731
5.293067552602436,7.818434813248766,-1.4288315715292454,-6.515682343127526
5.301063122923588,7.8591395348837185,-1.4949767441860433,-6.516513051732321
5.30905869324474,7.899844256518676,-1.5611219168428485,-6.517343760337116
5.3170542635658915,7.940548978153628,-1.6272670894996464,-6.518174468941911
5.325049833887044,7.987553156146235,-1.7100681063124363,-6.519921926910307
5.333045404208195,7.316548357327433,-2.924825581395373,-4.98193816906606
5.341040974529347,7.457137135474349,-3.5544767441860676,-4.574830380214087
5.349036544850499,7.5440561498302445,-3.552288707969762,-4.4769761600525655
5.35703211517165,7.623660399401269,-3.4639859807966062,-4.421270758034874
5.365027685492802,7.703264648972292,-3.375683253623451,-4.365565356017182
5.373023255813954,7.782868898543325,-3.287380526450286,-4.309859953999484
5.381018826135105,7.862473148114348,-3.1990777992771307,-4.254154551981792
5.389014396456257,7.942077397685372,-3.1107750721039755,-4.1984491499641
5.397009966777409,8.021681647256404,-3.0224723449308106,-4.142743747946402
5.40500553709856,8.101285896827427,-2.934169617757655,-4.087038345928709
5.413001107419713,8.180890146398461,-2.84586689058449,-4.0313329439110115
5.420996677740864,8.260494395969484,-2.7575641634113346,-3.9756275418933193
5.428992248062015,8.340098645540508,-2.6692614362381795,-3.9199221398756277
5.436987818383168,9.14541638981183,-3.7777520961874664,-3.409405948425611
5.444983388704319,8.62056594420714,-4.56386552760639,-0.9582149448926833
5.4529789590254705,8.59264490499042,-4.51398839846016,-0.8623950148534877
5.460974529346623,8.564723865773699,-4.464111269313924,-0.7665750848142814
5.468970099667774,8.536802826556979,-4.414234140167694,-0.6707551547750856
5.476965669988926,8.508881787340256,-4.364357011021458,-0.5749352247358794
5.484961240310078,8.480960748123538,-4.3144798818752275,-0.47911529469668374
5.492956810631229,8.453039708906818,-4.2646027527289965,-0.38329536465748804
5.5009523809523815,8.425118669690095,-4.214725623582761,-0.28747543461828173
5.508947951273533,8.689458471760776,-4.562369878183832,0.5439291251385132
5.516943521594684,8.436397971673367,-4.549358629130966,1.412262808183249
5.5249390919158365,8.378815838044718,-4.515973616211068,1.4110704862932524
5.532934662236988,8.321233704416075,-4.482588603291172,1.409878164403256
5.540930232558139,8.263651570787433,-4.449203590371277,1.4086858425132598
5.548925802879292,8.206069437158785,-4.415818577451378,1.4074935206232635
5.556921373200443,8.148487303530143,-4.382433564531484,1.4063011987332672
5.564916943521595,8.090905169901493,-4.349048551611585,1.405108876843271
5.572912513842747,8.03332303627285,-4.315663538691689,1.4039165549532746
5.580908084163898,7.975740902644207,-4.282278525771795,1.4027242330632783
5.58890365448505,7.918158769015559,-4.248893512851896,1.401531911173282
5.596899224806202,7.860576635386916,-4.2155084999320005,1.4003395892832857
5.604894795127353,7.802994501758274,-4.182123487012106,1.3991472673932894
5.612890365448505,7.7454123681296245,-4.148738474092207,1.397954945503293
5.620885935769657,7.687830234500982,-4.115353461172312,1.3967626236132968
5.628881506090808,8.838898117386579,-3.581430786268002,2.072516057585772
5.6368770764119605,8.932886392437581,-3.515456656505799,2.0373434599445157
5.644872646733112,8.946981676199611,-3.4428370951353418,2.04987260106632
5.652868217054264,8.961076959961641,-3.3702175337648765,2.0624017421881256
5.6608637873754155,8.975172243723671,-3.2975979723944193,2.07493088330993
5.668859357696567,8.989267527485701,-3.224978411023962,2.087460024431734
5.676854928017719,9.003362811247733,-3.152358849653497,2.0999891655535396
5.684850498338871,9.017458095009761,-3.0797392882830397,2.112518306675344
5.692846068660022,9.031553378771791,-3.0071197269125824,2.125047447797148
5.700841638981174,9.045648662533823,-2.9345001655421172,2.1375765889189537
5.708837209302326,9.059743946295853,-2.8618806041716605,2.150105730040758
5.716832779623478,9.073839230057883,-2.789261042801195,2.1626348711625636
5.724828349944629,9.087934513819913,-2.716641481430738,2.175164012284368
5.732823920265781,8.413191323040849,-0.6944778190345938,-1.1763021301543786
5.740819490586933,9.141728877597592,-1.1963174386033768,0.14625926649737142
5.748815060908084,9.794970449379262,-1.6267843445823866,1.3219242291775954
5.756810631229236,9.784870781605175,-1.4284731596433018,1.2034635425773783
5.764806201550388,9.774771113831088,-1.230161974704195,1.0850028559771479
5.772801771871539,9.764671446057003,-1.0318507897651101,0.9665421693769305
5.780797342192691,9.754571778282916,-0.8335396048260254,0.8480814827767134
5.788792912513843,9.744472110508829,-0.6352284198869185,0.7296207961764829
5.7967884828349945,9.734372442734744,-0.43691723494783363,0.6111601095762657
5.804784053156147,9.724272774960657,-0.2386060500087268,0.4926994229760352
5.812779623477298,9.71417310718657,-0.04029486506964197,0.37423873637581795
5.8207751937984495,9.704073439412484,0.15801631986944265,0.2557780497756008
5.828770764119602,9.61926910299004,0.524056478405319,0.4519102990033701
5.836766334440753,9.73549397987795,0.5803047524799145,1.027139040079171
5.844761904761905,9.795035460992906,0.6110111448834852,1.0860851063829784
5.852757475083057,9.85457694210787,0.6417175372870593,1.1450311726867923
5.860753045404208,9.914118423222828,0.6724239296906299,1.2039772389905998
5.8687486157253606,9.973659904337792,0.703130322094204,1.2629233052944135
5.876744186046512,10.033201385452749,0.7338367144977747,1.321869371598221
5.884739756367663,10.092742866567706,0.7645431069013453,1.3808154379020285
5.892735326688816,10.152284347682668,0.7952494993049194,1.4397615042058425
5.900730897009967,10.211825828797625,0.82595589170849,1.4987075705096498
5.908726467331118,10.271367309912582,0.8566622841120607,1.5576536368134573
5.916722037652271,10.330908791027547,0.8873686765156348,1.6165997031172712
5.924717607973422,10.390450272142504,0.9180750689192054,1.6755457694210785
5.9327131782945735,9.298255813953485,1.0504515503875906,0.7705484496124153
5.940708748615726,9.121794529092048,0.677309644734663,1.4873056987563829
5.948704318936877,9.186126704089817,0.6546095772711644,1.5177256272196138
5.956699889258029,9.250458879087594,0.6319095098076632,1.548145555682848
5.964695459579181,9.314791054085363,0.6092094423441646,1.578565484146079
5.972691029900332,9.379123229083133,0.586509374880666,1.60898541260931
5.9806866002214845,9.44345540408091,0.563809307417165,1.6394053410725442
5.988682170542636,9.507787579078679,0.5411092399536663,1.6698252695357751
5.996677740863787,9.572119754076448,0.5184091724901677,1.700245197999006
6.0046733111849395,9.636451929074225,0.49570910502666654,1.7306651264622404
6.012668881506091,9.700784104071994,0.4730090375631679,1.7610850549254713
6.020664451827242,9.765116279069764,0.4503089700996693,1.7915049833887022
6.028660022148395,9.617497231450633,0.7622558139535136,0.3358859357696857
6.036655592469546,9.220241706389329,0.8709826183253888,0.47118050941306755
6.044651162790698,9.255005055611731,0.8469089989888758,0.46118604651162715
6.05264673311185,9.28976840483413,0.8228353796523656,0.45119158361018785
6.060642303433001,9.324531754056526,0.7987617603158553,0.4411971207087486
6.068637873754153,9.359295103278928,0.7746881409793424,0.4312026578073082
6.076633444075305,9.394058452501325,0.7506145216428322,0.4212081949058689
6.084629014396456,9.428821801723723,0.7265409023063218,0.4112137320044296
6.092624584717608,9.463585150946123,0.7024672829698089,0.4012192691029893
6.10062015503876,9.498348500168522,0.6783936636332987,0.39122480620155
6.108615725359912,9.533111849390922,0.6543200442967857,0.3812303433001096
6.116611295681063,9.56787519861332,0.6302464249602755,0.3712358803986703
6.124606866002215,9.579771133259495,0.6227670727205682,0.37909339239572626
6.132602436323367,9.62289194747667,0.7890432684701949,0.07527092232241496
6.1405980066445185,9.737114380635981,1.118574988134807,0.02672638822970782
6.14859357696567,9.768556201550386,1.3051657668881511,-0.012442760243633433
6.156589147286822,9.698594961240303,1.3166593992248075,-0.040127422480623176
6.1645847176079736,9.628633720930228,1.3281530315614627,-0.06781208471760984
6.172580287929125,9.558672480620153,1.3396466638981177,-0.09549674695459652
6.180575858250277,9.48871124031007,1.351140296234774,-0.12318140919158625
6.188571428571429,9.418749999999996,1.3626339285714293,-0.15086607142857292
6.196566998892581,9.348788759689914,1.3741275609080856,-0.17855073366556268
6.204562569213732,9.278827519379838,1.3856211932447406,-0.20623539590254933
6.212558139534884,9.208866279069765,1.3971148255813959,-0.233920058139536
6.220553709856036,9.138905038759681,1.4086084579180522,-0.26160472037652577
6.228549280177187,9.76861256130357,0.8502161050466995,0.5605401044137874
6.236544850498339,9.396511067975663,1.3416084586957346,-0.6445564970696889
6.244540420819491,9.378453656351487,1.3188794778951556,-0.7147198725845199
6.252535991140642,9.360396244727314,1.296150497094579,-0.7848832480993432
6.260531561461795,9.342338833103138,1.273421516294,-0.8550466236141742
6.268527131782946,9.324281421478965,1.2506925354934233,-0.9252099991289975
6.2765227021040975,9.306224009854791,1.227963554692847,-0.9953733746438207
6.28451827242525,9.288166598230616,1.2052345738922678,-1.0655367501586517
6.292513842746401,9.270109186606442,1.1825055930916912,-1.1357001256734751
6.3005094130675525,9.252051774982268,1.1597766122911146,-1.2058635011882983
6.308504983388705,9.233994363358093,1.1370476314905356,-1.2760268767031293
6.316500553709856,9.21593695173392,1.114318650689959,-1.3461902522179525
6.324496124031008,9.253573643410856,1.0525658914728648,-1.3537054263565842
6.33249169435216,9.064651827242525,0.8908950166112957,-1.6276044739756366
6.340487264673311,9.111026135105202,0.8956923588039866,-1.6040441934293104
6.3484828349944635,9.157400442967887,0.900489700996678,-1.5804839128829815
6.356478405315615,9.203774750830565,0.9052870431893689,-1.556923632336655
6.364473975636766,9.250149058693243,0.9100843853820597,-1.533363351790329
6.372469545957919,9.296523366555927,0.9148817275747512,-1.5098030712439998
6.38046511627907,9.342897674418605,0.9196790697674421,-1.4862427906976736
6.388460686600221,9.389271982281285,0.924476411960133,-1.4626825101513472
6.396456256921374,9.435646290143968,0.9292737541528243,-1.4391222296050183
6.404451827242525,9.482020598006647,0.9340710963455152,-1.415561949058692
6.412447397563676,9.186107142857207,0.794301771871551,-1.2032912513842506
6.420442967884829,9.13019161354045,0.7755860644697854,-1.2411573334131476
6.42843853820598,9.165847535242882,0.7729929065277903,-1.2456233276465833
6.436434108527132,9.20150345694532,0.770399748585795,-1.2500893218800198
6.444429678848284,9.237159378647751,0.7678065906438,-1.2545553161134557
6.452425249169435,9.272815300350183,0.7652134327018049,-1.2590213103468917
6.460420819490587,9.308471222052619,0.7626202747598095,-1.263487304580328
6.468416389811739,9.34412714375505,0.7600271168178145,-1.267953298813764
6.47641196013289,9.379783065457483,0.7574339588758194,-1.2724192930471998
6.4844075304540425,9.415438987159918,0.7548408009338241,-1.2768852872806362
6.492403100775194,9.45109490886235,0.752247642991829,-1.2813512815140722
6.500398671096346,9.486750830564787,0.7496544850498337,-1.2858172757475086
6.508394241417498,9.52240675226722,0.7470613271078387,-1.2902832699809446
6.516389811738649,9.558062673969651,0.7444681691658436,-1.2947492642143805
6.524385382059801,9.61338870431897,0.75741528239205,-1.2920631229235775
6.532380952380953,9.722722943722944,0.78603463203463,-1.084333333333323
6.540376522702104,9.728539724016077,0.7539677852850051,-0.9577315689275449
6.548372093023256,9.708505879278807,0.7396835641494635,-0.9641998954794883
6.556367663344408,9.68847203454154,0.7253993430139234,-0.9706682220314309
6.564363233665559,9.668438189804274,0.7111151218783833,-0.9771365485833735
6.572358803986711,9.648404345067004,0.6968309007428417,-0.9836048751353169
6.580354374307863,9.628370500329737,0.6825466796073016,-0.9900732016872595
6.588349944629015,9.608336655592469,0.6682624584717599,-0.996541528239203
6.596345514950166,9.5883028108552,0.6539782373362198,-1.0030098547911457
6.604341085271318,9.568268966117934,0.6396940162006798,-1.0094781813430882
6.61233665559247,9.548235121380666,0.6254097950651382,-1.0159465078950316
6.6203322259136215,9.528201276643397,0.6111255739295981,-1.0224148344469743
6.628327796234773,10.007517718715444,0.6293111849390929,-0.8595686600221378
6.636323366555925,9.428195709052853,0.8776255704428461,-1.092557421537488
6.6443189368770765,9.43575196232339,0.8694542733014495,-1.0979170895549633
6.652314507198229,9.44330821559393,0.8612829761600521,-1.103276757572439
6.66031007751938,9.45086446886447,0.8531116790186556,-1.1086364255899142
6.668305647840532,9.458420722135008,0.8449403818772591,-1.1139960936073892
6.676301218161684,9.465976975405548,0.8367690847358615,-1.119355761624865
6.684296788482835,9.473533228676086,0.828597787594465,-1.12471542964234
6.692292358803987,9.481089481946626,0.8204264904530685,-1.1300750976598153
6.700287929125139,9.488645735217165,0.8122551933116711,-1.135434765677291
6.70828349944629,9.496201988487703,0.8040838961702745,-1.1407944336947662
6.716279069767442,9.503758241758243,0.795912599028878,-1.1461541017122412
6.724274640088594,9.511314495028781,0.7877413018874806,-1.151513769729717
6.732270210409745,9.687139534883729,0.47417054263565134,-1.0215116279069738
6.740265780730898,9.414066445182725,0.7867772576260934,-1.126396556931438
6.748261351052049,9.416065337763012,0.7732393033323257,-1.1027732809825816
6.7562569213732,9.418064230343301,0.759701349038558,-1.0791500050337253
6.764252491694353,9.420063122923588,0.7461633947447888,-1.0555267290848664
6.772248062015504,9.422062015503876,0.7326254404510212,-1.03190345313601
6.7802436323366555,9.424060908084165,0.7190874861572535,-1.0082801771871537
6.788239202657808,9.426059800664452,0.7055495318634842,-0.9846569012382946
6.796234772978959,9.42805869324474,0.6920115775697165,-0.9610336252894383
6.804230343300111,9.430057585825027,0.6784736232759488,-0.9374103493405819
6.812225913621263,9.432056478405316,0.6649356689821797,-0.9137870733917229
6.820221483942414,9.434055370985604,0.651397714688412,-0.8901637974428666
6.8282170542635665,9.651160206718332,0.45834108527136536,-1.3506821705426073
6.836212624584718,9.525388174171203,0.8702827808015834,-1.098175549586485
6.844208194905869,9.525983588982353,0.8661148771235364,-1.090775394076483
6.852203765227022,9.526579003793502,0.8619469734454889,-1.0833752385664803
6.860199335548173,9.527174418604652,0.8577790697674419,-1.0759750830564785
6.868194905869324,9.527769833415801,0.8536111660893948,-1.0685749275464766
6.876190476190477,9.528365248226951,0.8494432624113474,-1.061174772036474
6.884186046511628,9.5289606630381,0.8452753587333003,-1.053774616526472
6.89218161683278,9.52955607784925,0.8411074550552529,-1.0463744610164694
6.900177187153932,9.5301514926604,0.8369395513772058,-1.0389743055064675
6.908172757475083,9.53074690747155,0.8327716476991588,-1.0315741499964657
6.916168327796235,9.531342322282699,0.8286037440211113,-1.024173994486463
6.924163898117387,9.531937737093848,0.8244358403430643,-1.0167738389764611
6.932159468438538,9.644598912715193,0.70163817577771,-1.0954050135910605
6.94015503875969,9.686309372797737,0.6414601832276271,-1.1211994362226858
6.948150609080842,9.556926507600926,0.6792574247457969,-1.0049002315513942
6.956146179401993,9.549378396797,0.6794111082715737,-0.9847765567765564
6.9641417497231455,9.57849047335094,0.6682378112843224,-0.993592185592186
6.972137320044297,9.607602549904875,0.6570645142970722,-1.0024078144078146
6.980132890365449,9.636714626458815,0.6458912173098209,-1.011223443223444
6.9881284606866005,9.665826703012751,0.6347179203225708,-1.0200390720390726
6.996124031007752,9.694938779566687,0.6235446233353207,-1.028854700854701
7.004119601328904,9.724050856120627,0.6123713263480693,-1.0376703296703307
7.012115171650056,9.753162932674563,0.6011980293608192,-1.0464859584859592
7.020110741971207,9.7822750092285,0.5900247323735692,-1.0553015873015876
7.028106312292359,9.8112657807309,0.5862292358804564,-1.0660199335548335
7.036101882613511,9.330953709856011,0.7422950166112994,-1.025664894795128
7.044097452934662,9.260321437903617,0.7570860801075069,-1.0505683053989818
7.052093023255814,9.30236556049125,0.754929971256859,-1.0759924222628703
7.060088593576966,9.344409683078876,0.7527738624062115,-1.101416539126756
7.068084163898118,9.386453805666509,0.7506177535555637,-1.1268406559906448
7.076079734219269,9.428497928254135,0.7484616447049162,-1.1522647728545303
7.084075304540421,9.470542050841763,0.7463055358542686,-1.1776888897184161
7.092070874861573,9.512586173429396,0.7441494270036207,-1.2031130065823048
7.1000664451827245,9.554630296017022,0.7419933181529732,-1.2285371234461906
7.108062015503876,9.59667441860465,0.7398372093023257,-1.2539612403100762
7.116057585825028,9.638718541192281,0.7376811004516779,-1.2793853571739648
7.1240531561461795,9.680762663779909,0.7355249916010304,-1.3048094740378506
7.132048726467332,9.568007382797985,0.9264123292728242,-1.0029977851606047
7.140044296788483,9.454018537902579,0.9536833841532785,-1.0621679182026436
7.148039867109635,9.472200245756156,0.9385684703954855,-1.0850593455604605
7.156035437430787,9.490381953609734,0.9234535566376908,-1.1079507729182798
7.164031007751938,9.508563661463311,0.9083386428798979,-1.1308422002760967
7.17202657807309,9.526745369316888,0.8932237291221049,-1.1537336276339134
7.180022148394242,9.544927077170467,0.8781088153643103,-1.176625054991733
7.188017718715393,9.563108785024044,0.8629939016065173,-1.1995164823495497
7.196013289036545,9.58129049287762,0.8478789878487244,-1.2224079097073666
7.204008859357697,9.5994722007312,0.8327640740909297,-1.245299337065186
7.212004429678848,9.941558693244707,0.6947940199334641,-0.8935885935770099
7.22,9.145,-1.482,-1.956
