gyro_time_list,gyro_x_list,gyro_y_list,gyro_z_list
0.0,-0.7,-0.1,0.0
0.008,0.0,0.1,0.0
0.016,-0.009333333333333334,0.0,0.0
0.024,-0.02,0.0,0.0
0.032,-0.030666666666666665,0.0,0.0
0.04,-0.04133333333333333,0.0,0.0
0.048,-0.052,0.0,0.0
0.056,-0.06266666666666666,0.0,0.0
0.064,-0.07333333333333333,0.0,0.0
0.07200000000000001,-0.08400000000000002,0.0,0.0
0.08,-0.09466666666666668,0.0,0.0
0.088,0.0,0.0,0.05
0.096,0.0,-0.0037735849056603804,0.1
0.10400000000000001,0.0,-0.011320754716981142,0.1
0.112,0.0,-0.01886792452830189,0.1
0.12,0.0,-0.026415094339622636,0.1
0.128,0.0,-0.033962264150943396,0.1
0.136,0.0,-0.041509433962264156,0.1
0.14400000000000002,0.0,-0.049056603773584916,0.1
0.152,0.0,-0.056603773584905655,0.1
0.16,0.0,-0.06415094339622641,0.1
0.168,0.0,-0.07169811320754717,0.1
0.176,0.0,-0.0792452830188679,0.1
0.184,0.0,-0.08679245283018867,0.1
0.192,0.0,-0.09433962264150943,0.1
0.2,0.0,-0.1,0.1
0.20800000000000002,-0.09583333333333334,-0.1,0.1
0.216,-0.08916666666666669,-0.1,0.1
0.224,-0.08250000000000002,-0.1,0.1
0.232,-0.07583333333333334,-0.1,0.1
0.24,-0.06916666666666668,-0.1,0.1
0.248,-0.06250000000000001,-0.1,0.1
0.256,-0.055833333333333346,-0.1,0.1
0.264,-0.04916666666666667,-0.1,0.1
0.272,-0.042499999999999996,-0.1,0.1
0.28,-0.03583333333333333,-0.1,0.1
0.28800000000000003,-0.029166666666666646,-0.1,0.1
0.296,-0.02250000000000002,-0.1,0.1
0.304,-0.015833333333333352,-0.1,0.1
0.312,-0.009166666666666684,-0.1,0.1
0.32,-0.0025000000000000022,-0.1,0.1
0.328,0.0,-0.1,0.1
0.336,-0.1,-0.2,0.0
0.34400000000000003,-0.049999999999999774,-0.049999999999999774,0.0
0.352,0.0,0.0,0.0
0.36,0.0,0.0,0.0
0.368,0.0,0.0,0.0
0.376,0.0,0.0,0.0
0.384,0.0,0.0,0.0
0.392,0.0,0.0,0.0
0.4,0.0,0.0,0.0
0.40800000000000003,0.0,0.0,0.0
0.41600000000000004,0.0,0.16666666666666852,-0.1
0.424,0.0,0.2,-0.1
0.432,0.0,0.2,-0.1
0.44,0.0,0.2,-0.1
0.448,0.0,0.2,-0.1
0.456,0.0,0.2,-0.1
0.464,0.0,0.2,-0.1
0.47200000000000003,0.0,0.2,-0.1
0.48,0.0,0.2,-0.1
0.488,0.0,0.2,-0.1
0.496,0.0,0.2,-0.1
0.504,-0.1,0.2,-0.2
0.512,-0.1,0.1,-0.29583333333333334
0.52,-0.1,0.1,-0.2875
0.528,-0.1,0.1,-0.2791666666666666
0.536,-0.1,0.1,-0.2708333333333333
0.544,-0.1,0.1,-0.26249999999999996
0.552,-0.1,0.1,-0.2541666666666666
0.56,-0.1,0.1,-0.24583333333333326
0.5680000000000001,-0.1,0.1,-0.23749999999999993
0.5760000000000001,-0.1,0.1,-0.22916666666666657
0.584,-0.1,0.1,-0.22083333333333338
0.592,-0.1,0.1,-0.21250000000000002
0.6,-0.1,0.1,-0.20416666666666666
0.608,-0.1,0.0,-0.08333333333333334
0.616,-0.2,0.0,0.0009009009009009018
0.624,-0.2,0.0,0.008108108108108117
0.632,-0.2,0.0,0.01531531531531533
0.64,-0.2,0.0,0.022522522522522546
0.648,-0.2,0.0,0.02972972972972976
0.656,-0.2,0.0,0.036936936936936976
0.664,-0.2,0.0,0.04414414414414419
0.672,-0.2,0.0,0.0513513513513514
0.68,-0.2,0.0,0.05855855855855862
0.6880000000000001,-0.2,0.0,0.06576576576576583
0.6960000000000001,-0.2,0.0,0.07297297297297305
0.704,-0.2,0.0,0.08018018018018017
0.712,-0.2,0.0,0.08738738738738738
0.72,-0.2,0.0,0.09459459459459459
0.728,-0.4,0.0,0.2
0.736,-0.8181818181818181,0.0,0.35454545454545455
0.744,-1.5086206896551724,0.0,0.603448275862069
0.752,-1.5775862068965518,0.0,0.6310344827586207
0.76,-1.646551724137931,0.0,0.6586206896551724
0.768,-1.7155172413793103,0.0,0.6862068965517242
0.776,-1.7844827586206897,0.0,0.7137931034482758
0.784,-1.853448275862069,0.0,0.7413793103448276
0.792,-1.9224137931034482,0.0,0.7689655172413794
0.8,-1.9913793103448276,0.0,0.7965517241379311
0.808,-2.1,0.6,1.8
0.8160000000000001,-2.143010752688172,0.6086021505376344,1.817204301075269
0.8240000000000001,-2.186021505376344,0.6172043010752688,1.8344086021505377
0.8320000000000001,-2.2290322580645165,0.6258064516129033,1.8516129032258066
0.84,-2.2720430107526877,0.6344086021505375,1.8688172043010751
0.848,-2.31505376344086,0.643010752688172,1.886021505376344
0.856,-2.358064516129032,0.6516129032258063,1.9032258064516128
0.864,-2.401075268817204,0.6602150537634408,1.9204301075268817
0.872,-2.444086021505376,0.6688172043010752,1.9376344086021504
0.88,-2.4870967741935486,0.6774193548387096,1.9548387096774194
0.888,-2.5301075268817206,0.686021505376344,1.972043010752688
0.896,-2.5731182795698926,0.6946236559139785,1.989247311827957
0.904,-2.7,0.9,2.2
0.912,-3.417910447761194,1.4044776119402984,2.606716417910448
0.92,-3.4656716417910447,1.4164179104477612,2.624626865671642
0.928,-3.5134328358208955,1.4283582089552238,2.642537313432836
0.936,-3.5611940298507463,1.4402985074626866,2.66044776119403
0.9440000000000001,-3.6089552238805975,1.4522388059701492,2.678358208955224
0.9520000000000001,-3.6567164179104483,1.464179104477612,2.696268656716418
0.96,-3.7044776119402982,1.4761194029850746,2.714179104477612
0.968,-3.752238805970149,1.4880597014925372,2.732089552238806
0.976,-3.8,1.5,2.75
0.984,-3.847761194029851,1.5119402985074628,2.767910447761194
0.992,-3.895522388059702,1.5238805970149254,2.785820895522388
1.0,-3.9432835820895527,1.5358208955223882,2.803731343283582
1.008,-3.9910447761194034,1.5477611940298508,2.821641791044776
1.016,-4.038805970149254,1.5597014925373136,2.8395522388059704
1.024,-4.086567164179105,1.5716417910447764,2.8574626865671644
1.032,-4.134328358208956,1.583582089552239,2.8753731343283584
1.04,-4.182089552238807,1.5955223880597018,2.8932835820895524
1.048,-4.9,1.6,3.7
1.056,-5.709090909090909,1.3672727272727272,3.9109090909090907
1.064,-5.8545454545454545,1.3236363636363635,3.9254545454545453
1.072,-6.0,1.2799999999999998,3.94
1.08,-6.145454545454546,1.236363636363636,3.9545454545454546
1.088,-6.290909090909092,1.1927272727272724,3.9690909090909092
1.096,-6.436363636363637,1.1490909090909085,3.983636363636364
1.104,-6.581818181818184,1.105454545454545,3.9981818181818185
1.112,-8.11052631578948,0.5421052631578902,4.126315789473685
1.12,-8.447368421052639,0.2894736842105204,4.16842105263158
1.1280000000000001,-9.000000000000021,-0.6000000000000223,3.6499999999999613
1.1360000000000001,-9.212280701754386,-0.8245614035087724,3.250877192982455
1.1440000000000001,-9.226315789473684,-0.852631578947369,3.194736842105262
1.1520000000000001,-9.240350877192983,-0.8807017543859654,3.138596491228069
1.16,-9.25438596491228,-0.9087719298245612,3.0824561403508772
1.168,-9.26842105263158,-0.9368421052631578,3.0263157894736845
1.176,-9.282456140350877,-0.9649122807017543,2.9701754385964914
1.184,-9.296491228070176,-0.9929824561403509,2.914035087719298
1.192,-5.300000000000001,-0.7,2.6
1.2,-5.087610619469026,-0.6646017699115043,2.5858407079646017
1.208,-4.875221238938052,-0.6292035398230087,2.5716814159292034
1.216,-4.6628318584070785,-0.5938053097345132,2.5575221238938055
1.224,-4.450442477876106,-0.5584070796460175,2.543362831858407
1.232,-4.238053097345132,-0.5230088495575219,2.529203539823009
1.24,-4.025663716814158,-0.4876106194690263,2.5150442477876105
1.248,-3.8132743362831842,-0.4522123893805307,2.500884955752212
1.256,-3.6008849557522105,-0.41681415929203514,2.4867256637168142
1.264,-3.3884955752212367,-0.3814159292035395,2.472566371681416
1.272,-3.176106194690263,-0.34601769911504393,2.4584070796460176
1.28,-2.9637168141592896,-0.3106194690265483,2.4442477876106192
1.288,-2.7513274336283158,-0.27522123893805267,2.430088495575221
1.296,-2.538938053097342,-0.2398230088495571,2.4159292035398225
1.304,-2.326548672566368,-0.20442477876106147,2.4017699115044246
1.312,4.240000000000014,1.5600000000000036,1.859999999999999
1.32,5.261797752808991,1.81123595505618,1.77752808988764
1.328,5.3606741573033725,1.8292134831460678,1.7415730337078645
1.336,5.459550561797754,1.8471910112359553,1.7056179775280893
1.344,5.558426966292137,1.865168539325843,1.6696629213483138
1.352,5.657303370786519,1.8831460674157308,1.6337078651685386
1.36,5.756179775280901,1.9011235955056183,1.5977528089887634
1.368,5.855056179775283,1.919101123595506,1.561797752808988
1.3760000000000001,5.9539325842696655,1.9370786516853937,1.5258426966292127
1.3840000000000001,6.052808988764047,1.9550561797752812,1.4898876404494372
1.3920000000000001,6.151685393258429,1.973033707865169,1.453932584269662
1.4000000000000001,6.250561797752812,1.9910112359550567,1.4179775280898865
1.408,6.366666666666667,2.1333333333333333,1.1333333333333333
1.416,-3.133333333333262,-0.23333333333331358,0.3333333333333358
1.424,-2.242268041237113,-0.2958762886597938,0.2
1.432,-2.1268041237113398,-0.2876288659793814,0.2
1.44,-2.0113402061855665,-0.279381443298969,0.2
1.448,-1.8958762886597933,-0.2711340206185567,0.2
1.456,-1.78041237113402,-0.2628865979381443,0.2
1.464,-1.6649484536082466,-0.2546391752577319,0.2
1.472,-1.5494845360824732,-0.24639175257731952,0.2
1.48,-1.4340206185567,-0.23814432989690715,0.2
1.488,-1.3185567010309267,-0.22989690721649475,0.2
1.496,-1.2030927835051533,-0.22164948453608238,0.2
1.504,-1.08762886597938,-0.21340206185567,0.2
1.512,-0.9721649484536068,-0.2051546391752576,0.2
1.52,0.020000000000000018,0.02,-0.02
1.528,1.3,0.1,-0.1
1.536,2.9722222222222223,0.29444444444444445,-0.40555555555555556
1.544,2.9166666666666665,0.2833333333333333,-0.4166666666666667
1.552,2.861111111111111,0.2722222222222222,-0.4277777777777778
1.56,2.8055555555555554,0.2611111111111111,-0.4388888888888889
1.568,2.75,0.25,-0.45
1.576,2.6944444444444446,0.2388888888888889,-0.46111111111111114
1.584,2.638888888888889,0.2277777777777778,-0.4722222222222222
1.592,2.5833333333333335,0.21666666666666667,-0.48333333333333334
1.6,2.5277777777777777,0.20555555555555557,-0.49444444444444446
1.608,1.2166666666666575,-0.2,-0.7
1.616,0.49651162790697634,-0.3,-0.7988372093023255
1.624,0.4686046511627903,-0.3,-0.7895348837209302
1.6320000000000001,0.44069767441860425,-0.3,-0.7802325581395347
1.6400000000000001,0.4127906976744182,-0.3,-0.7709302325581394
1.6480000000000001,0.38488372093023215,-0.3,-0.7616279069767441
1.6560000000000001,0.35697674418604614,-0.3,-0.7523255813953487
1.6640000000000001,0.3290697674418601,-0.3,-0.7430232558139533
1.672,0.3011627906976748,-0.3,-0.7337209302325582
1.68,0.27325581395348875,-0.3,-0.7244186046511629
1.688,0.24534883720930273,-0.3,-0.7151162790697675
1.696,0.21744186046511665,-0.3,-0.7058139534883722
1.704,-0.2,-0.2,-0.6
1.712,-0.3,-0.1,-0.3956989247311828
1.72,-0.3,-0.1,-0.3870967741935484
1.728,-0.3,-0.1,-0.37849462365591396
1.736,-0.3,-0.1,-0.36989247311827955
1.744,-0.3,-0.1,-0.36129032258064514
1.752,-0.3,-0.1,-0.35268817204301073
1.76,-0.3,-0.1,-0.34408602150537626
1.768,-0.3,-0.1,-0.33548387096774185
1.776,-0.3,-0.1,-0.32688172043010744
1.784,-0.3,-0.1,-0.318279569892473
1.792,-0.3,-0.1,-0.3096774193548386
1.8,-0.3,-0.1,-0.3010752688172042
1.808,0.0,0.1333333333333358,-0.2
1.816,0.005769230769230782,0.2,-0.2
1.824,0.013461538461538492,0.2,-0.2
1.832,0.0211538461538462,0.2,-0.2
1.84,0.02884615384615391,0.2,-0.2
1.848,0.03653846153846162,0.2,-0.2
1.856,0.04423076923076933,0.2,-0.2
1.864,0.05192307692307704,0.2,-0.2
1.872,0.059615384615384744,0.2,-0.2
1.8800000000000001,0.06730769230769246,0.2,-0.2
1.8880000000000001,0.07500000000000016,0.2,-0.2
1.8960000000000001,0.08269230769230787,0.2,-0.2
1.9040000000000001,0.09038461538461558,0.2,-0.2
1.9120000000000001,0.0980769230769233,0.2,-0.2
1.92,0.1,0.2,-0.14
1.928,0.0,0.1,0.0
1.936,-0.006896551724137932,0.1,0.0
1.944,-0.013793103448275864,0.1,0.0
1.952,-0.020689655172413793,0.1,0.0
1.96,-0.027586206896551727,0.1,0.0
1.968,-0.034482758620689655,0.1,0.0
1.976,-0.041379310344827586,0.1,0.0
1.984,-0.04827586206896552,0.1,0.0
1.992,-0.055172413793103454,0.1,0.0
2.0,-0.062068965517241385,0.1,0.0
2.008,-0.06896551724137931,0.1,0.0
2.016,-0.07586206896551724,0.1,0.0
2.024,-0.08275862068965517,0.1,0.0
2.032,-0.0896551724137931,0.1,0.0
2.04,-0.09655172413793103,0.1,0.0
2.048,-0.4,-0.1,0.1
2.056,-0.39245283018867927,-0.10754716981132077,0.1
2.064,-0.3773584905660377,-0.12264150943396232,0.1
2.072,-0.36226415094339615,-0.13773584905660385,0.1
2.08,-0.34716981132075464,-0.15283018867924542,0.1
2.088,-0.3320754716981131,-0.16792452830188695,0.1
2.096,-0.3169811320754715,-0.18301886792452848,0.1
2.104,-0.30188679245282996,-0.19811320754717004,0.1
2.112,-0.1,-0.2,0.3
2.12,-0.1,-0.2,0.3
2.128,-0.1,-0.2,0.3
2.136,-0.1,-0.2,0.3
2.144,-0.1,-0.2,0.3
2.152,-0.1,-0.2,0.3
2.16,-0.1,-0.2,0.3
2.168,-0.1,-0.2,0.3
2.176,-0.1,-0.2,0.3
2.184,-0.1,-0.2,0.3
2.192,-0.1,-0.2,0.3
2.2,-0.1,-0.2,0.3
2.208,-0.1,-0.2,0.3
2.216,-0.1,-0.1,0.2
2.224,-0.1,-0.09130434782608692,0.2
2.232,-0.1,-0.08260869565217382,0.2
2.24,-0.1,-0.07391304347826075,0.2
2.248,-0.1,-0.06521739130434766,0.2
2.2560000000000002,-0.1,-0.056521739130434574,0.2
2.2640000000000002,-0.1,-0.04782608695652149,0.2
2.2720000000000002,-0.1,-0.0391304347826084,0.2
2.2800000000000002,-0.1,-0.03043478260869531,0.2
2.2880000000000003,-0.1,-0.021739130434782233,0.2
2.2960000000000003,-0.1,-0.013043478260869143,0.2
2.3040000000000003,-0.1,-0.0043478260869560525,0.2
2.312,0.0,0.0,0.1
2.32,-0.09761904761904788,0.0,-0.002380952380952117
2.328,-0.08809523809523837,0.0,-0.011904761904761642
2.336,-0.07857142857142883,0.0,-0.02142857142857117
2.344,-0.06904761904761932,0.0,-0.030952380952380693
2.352,-0.05952380952380979,0.0,-0.040476190476190214
2.36,-0.050000000000000266,0.0,-0.04999999999999974
2.368,-0.040476190476190735,0.0,-0.05952380952380927
2.376,-0.030952380952381217,0.0,-0.06904761904761879
2.384,-0.021428571428571686,0.0,-0.07857142857142832
2.392,-0.011904761904762168,0.0,-0.08809523809523784
2.4,-0.002380952380952636,0.0,-0.09761904761904737
2.408,0.0666666666666642,0.0666666666666642,-0.1
2.416,0.1,0.0,-0.1
2.424,0.1,0.0,-0.1
2.432,0.1,0.0,-0.1
2.44,0.1,0.0,-0.1
2.448,0.1,0.0,-0.1
2.456,0.1,0.0,-0.1
2.464,0.1,0.0,-0.1
2.472,0.1,0.0,-0.1
2.48,0.1,0.0,-0.1
2.488,0.1,0.0,-0.1
2.496,0.1,0.0,-0.1
2.504,0.1,0.0,-0.1
2.512,0.0,0.0,-0.1
2.52,0.0,0.0,-0.1
2.528,0.0,0.0,-0.1
2.536,0.0,0.0,-0.1
2.544,0.0,0.0,-0.1
2.552,0.0,0.0,-0.1
2.56,0.0,0.0,-0.1
2.568,0.0,0.0,-0.1
2.576,0.0,0.0,-0.1
2.584,0.0,0.0,-0.1
2.592,0.0,0.0,-0.1
2.6,0.0,0.0,-0.1
2.608,0.0,0.0,-0.1
2.616,0.0,0.0,-0.1
2.624,0.0,0.0,-0.1
2.632,0.0,0.0,-0.1
2.64,0.0,0.0,-0.1
2.648,0.0,0.0,-0.09016393442622914
2.656,0.0,0.0,-0.07704918032786845
2.664,0.0,0.0,-0.06393442622950776
2.672,0.0,0.0,-0.05081967213114709
2.68,0.0,0.0,-0.03770491803278641
2.688,0.0,0.0,-0.02459016393442573
2.696,0.0,0.0,-0.011475409836065056
2.704,0.0,0.0,0.0
2.712,-0.1,0.0,0.0
2.72,-0.1,0.0,0.0
2.728,-0.1,0.0,0.0
2.736,-0.1,0.0,0.0
2.744,-0.1,0.0,0.0
2.7520000000000002,-0.1,0.0,0.0
2.7600000000000002,-0.1,0.0,0.0
2.7680000000000002,-0.1,0.0,0.0
2.7760000000000002,-0.1,0.0,0.0
2.7840000000000003,-0.1,0.0,0.0
2.7920000000000003,-0.1,0.0,0.0
2.8000000000000003,-0.1,0.0,0.0
2.8080000000000003,-0.1,0.0,0.0
2.816,-0.0033707865168535627,0.0,0.0
2.824,-0.012359550561797395,0.0,0.0
2.832,-0.021348314606741227,0.0,0.0
2.84,-0.03033707865168506,0.0,0.0
2.848,-0.03932584269662889,0.0,0.0
2.856,-0.04831460674157272,0.0,0.0
2.864,-0.05730337078651656,0.0,0.0
2.872,-0.06629213483146039,0.0,0.0
2.88,-0.07528089887640423,0.0,0.0
2.888,-0.08426966292134805,0.0,0.0
2.896,-0.09325842696629189,0.0,0.0
2.904,-0.13999999999999646,0.0,0.0
2.912,-0.4,0.1,0.2
2.92,-0.4,0.1062015503875969,0.2
2.928,-0.4,0.11240310077519382,0.2
2.936,-0.4,0.11860465116279072,0.2
2.944,-0.4,0.12480620155038763,0.2
2.952,-0.4,0.13100775193798453,0.2
2.96,-0.4,0.13720930232558143,0.2
2.968,-0.4,0.14341085271317833,0.2
2.976,-0.4,0.14961240310077525,0.2
2.984,-0.4,0.15581395348837215,0.2
2.992,-0.4,0.16201550387596905,0.2
3.0,-0.4,0.16821705426356598,0.2
3.008,-0.4,0.17441860465116288,0.2
3.016,-0.4,0.18062015503875978,0.2
3.024,-0.4,0.18682170542635668,0.2
3.032,-0.4,0.19302325581395358,0.2
3.04,-0.4,0.19922480620155048,0.2
3.048,0.154545454545456,0.2,0.2
3.056,0.3,0.2,0.2
3.064,0.33200000000000013,0.18399999999999994,0.16799999999999987
3.072,0.36400000000000027,0.16799999999999987,0.13599999999999973
3.08,0.3960000000000004,0.1519999999999998,0.10399999999999958
3.088,0.42800000000000055,0.13599999999999973,0.07199999999999945
3.096,0.4600000000000007,0.11999999999999966,0.039999999999999314
3.104,0.4920000000000009,0.10399999999999958,0.007999999999999147
3.112,0.6499999999999999,0.1,-0.1
3.12,1.0222222222222224,0.20444444444444446,-0.10444444444444446
3.128,1.0666666666666669,0.21333333333333337,-0.11333333333333337
3.136,1.1111111111111114,0.2222222222222223,-0.12222222222222229
3.144,1.155555555555556,0.23111111111111118,-0.1311111111111112
3.152,1.2000000000000004,0.2400000000000001,-0.1400000000000001
3.16,1.2444444444444451,0.24888888888888902,-0.14888888888888901
3.168,1.2888888888888896,0.25777777777777794,-0.15777777777777793
3.176,1.3333333333333341,0.26666666666666683,-0.16666666666666685
3.184,1.3777777777777787,0.2755555555555558,-0.17555555555555574
3.192,1.4222222222222234,0.28444444444444467,-0.18444444444444466
3.2,1.4666666666666677,0.29333333333333356,-0.19333333333333358
3.208,1.749999999999989,0.3,-0.2
3.216,0.8866666666666666,0.3,-0.09555555555555555
3.224,0.8599999999999999,0.3,-0.08666666666666664
3.232,0.8333333333333331,0.3,-0.07777777777777772
3.24,0.8066666666666664,0.3,-0.06888888888888882
3.248,0.7799999999999997,0.3,-0.05999999999999991
3.2560000000000002,0.753333333333333,0.3,-0.051111111111110996
3.2640000000000002,0.7266666666666662,0.3,-0.042222222222222085
3.2720000000000002,0.6999999999999995,0.3,-0.03333333333333317
3.2800000000000002,0.6733333333333328,0.3,-0.024444444444444255
3.2880000000000003,0.6466666666666661,0.3,-0.01555555555555535
3.2960000000000003,0.6199999999999992,0.3,-0.006666666666666432
3.3040000000000003,0.3999999999999556,0.2999999999999556,4.440892098499143e-14
3.3120000000000003,-0.10000000000000131,0.1,4.353815782843738e-16
3.3200000000000003,-0.12352941176470715,0.1,0.00784313725490238
3.3280000000000003,-0.14705882352941296,0.1,0.015686274509804324
3.336,-0.1705882352941175,0.1,0.023529411764705833
3.344,-0.19411764705882334,0.1,0.03137254901960778
3.352,-0.2176470588235292,0.1,0.03921568627450972
3.36,-0.24117647058823502,0.1,0.04705882352941167
3.368,-0.26470588235294085,0.1,0.054901960784313614
3.376,-0.2882352941176467,0.1,0.06274509803921556
3.384,-0.3117647058823525,0.1,0.0705882352941175
3.392,-0.33529411764705835,0.1,0.07843137254901944
3.4,-0.3588235294117642,0.1,0.08627450980392139
3.408,-0.38235294117647,0.1,0.09411764705882333
3.416,-1.2,-0.20000000000000004,0.2
3.424,-2.0,-0.3,0.5
3.432,-1.854545454545456,-0.3,0.645454545454544
3.44,-0.9826086956521739,-0.28840579710144926,0.9115942028985508
3.448,-0.9478260869565216,-0.26521739130434774,0.9347826086956522
3.456,-0.9130434782608694,-0.24202898550724627,0.9579710144927538
3.464,-0.8782608695652172,-0.2188405797101448,0.9811594202898553
3.472,-0.8434782608695649,-0.1956521739130433,1.0043478260869567
3.48,-0.8086956521739127,-0.17246376811594183,1.0275362318840582
3.488,-0.7739130434782604,-0.14927536231884034,1.0507246376811596
3.496,-0.7391304347826082,-0.12608695652173885,1.073913043478261
3.504,-0.704347826086956,-0.10289855072463738,1.0971014492753628
3.512,-1.6199999999999715,1.4000000000000177,1.2
3.52,1.3096774193548355,2.8129032258064517,0.7225806451612877
3.528,1.1892473118279543,2.830107526881721,0.6193548387096752
3.536,1.068817204301073,2.8473118279569896,0.5161290322580627
3.544,0.9483870967741918,2.8645161290322583,0.4129032258064501
3.552,0.8279569892473105,2.881720430107527,0.30967741935483756
3.56,0.7075268817204292,2.8989247311827957,0.206451612903225
3.568,0.5870967741935479,2.9161290322580644,0.1032258064516125
3.576,0.4666666666666667,2.933333333333333,-1.1102230246251565e-16
3.584,0.34623655913978535,2.950537634408602,-0.10322580645161261
3.592,0.22580645161290414,2.967741935483871,-0.20645161290322522
3.6,0.1053763440860227,2.9849462365591397,-0.3096774193548377
3.608,-0.2,2.6,-0.30000000000000004
3.616,-5.951724137931029,0.3954022988505742,2.1724137931034453
3.624,-5.758620689655167,0.3770114942528731,2.0620689655172386
3.632,-5.565517241379306,0.35862068965517196,1.951724137931032
3.64,-5.372413793103444,0.34022988505747087,1.841379310344825
3.648,-5.179310344827582,0.3218390804597697,1.7310344827586184
3.656,-4.98620689655172,0.3034482758620686,1.6206896551724115
3.664,-4.793103448275858,0.2850574712643675,1.5103448275862048
3.672,-4.599999999999996,0.2666666666666664,1.3999999999999981
3.68,-4.4068965517241345,0.24827586206896524,1.2896551724137912
3.688,-4.213793103448273,0.2298850574712641,1.1793103448275843
3.696,-4.0206896551724105,0.21149425287356297,1.0689655172413777
3.704,-5.0,-1.7,-0.6
3.712,-3.02142857142856,-2.108928571428572,-3.398214285714292
3.72,-2.735714285714274,-2.1232142857142864,-3.555357142857149
3.728,-2.449999999999988,-2.1375000000000006,-3.7125000000000066
3.736,-2.1642857142857026,-2.151785714285715,-3.8696428571428636
3.744,-1.878571428571417,-2.166071428571429,-4.026785714285721
3.7520000000000002,-1.5928571428571312,-2.1803571428571433,-4.183928571428578
3.7600000000000002,-1.3071428571428456,-2.1946428571428576,-4.341071428571436
3.7680000000000002,-1.0214285714285598,-2.208928571428572,-4.498214285714292
3.7760000000000002,-0.7357142857142742,-2.223214285714286,-4.65535714285715
3.7840000000000003,-0.44999999999998863,-2.2375000000000007,-4.812500000000007
3.7920000000000003,-0.1642857142857026,-2.251785714285715,-4.969642857142864
3.8000000000000003,0.12142857142858299,-2.266071428571429,-5.126785714285721
3.8080000000000003,0.4071428571428686,-2.2803571428571434,-5.283928571428578
3.8160000000000003,0.6928571428571542,-2.2946428571428577,-5.441071428571435
3.8240000000000003,1.3000000000000393,-2.4666666666666797,-6.388888888888959
3.8320000000000003,1.9545454545454801,-2.45454545454544,-7.6454545454546
3.84,3.4,-1.6,-10.3
3.848,5.098305084745747,-1.4711864406779638,-12.42203389830508
3.856,5.762711864406768,-1.5661016949152524,-12.584745762711862
3.864,6.4271186440677885,-1.661016949152541,-12.747457627118642
3.872,7.091525423728809,-1.75593220338983,-12.910169491525423
3.88,7.75593220338983,-1.8508474576271186,-13.072881355932203
3.888,8.42033898305085,-1.9457627118644072,-13.235593220338984
3.896,9.084745762711872,-2.040677966101696,-13.398305084745765
3.904,6.9,-4.0,-11.5
3.912,8.76666666666669,-3.8222222222222197,-12.211111111111121
3.92,8.400000000000006,-4.518181818181818,-11.303030303030306
3.928,8.133333333333338,-4.542424242424242,-11.173737373737376
3.936,7.866666666666672,-4.566666666666666,-11.044444444444448
3.944,7.600000000000004,-4.590909090909091,-10.915151515151518
3.952,7.333333333333336,-4.615151515151515,-10.785858585858588
3.96,7.066666666666668,-4.639393939393939,-10.656565656565657
3.968,6.800000000000001,-4.663636363636363,-10.52727272727273
3.976,6.533333333333333,-4.6878787878787875,-10.397979797979799
3.984,6.266666666666666,-4.712121212121212,-10.268686868686869
3.992,5.999999999999998,-4.736363636363636,-10.139393939393939
4.0,5.733333333333331,-4.760606060606061,-10.01010101010101
4.008,5.466666666666663,-4.784848484848485,-9.88080808080808
4.016,-0.7,-2.4,-6.1
4.024,0.8000000000000003,-0.9,-1.7000000000000002
4.032,1.017283950617283,-0.8506172839506175,-1.640740740740741
4.04,1.2345679012345663,-0.801234567901235,-1.581481481481482
4.048,1.4518518518518493,-0.7518518518518524,-1.522222222222223
4.056,1.6691358024691323,-0.70246913580247,-1.462962962962964
4.064,1.8864197530864153,-0.6530864197530875,-1.403703703703705
4.072,2.1037037037036983,-0.603703703703705,-1.3444444444444459
4.08,2.3209876543209815,-0.5543209876543225,-1.285185185185187
4.088,2.5382716049382648,-0.50493827160494,-1.225925925925928
4.096,2.7555555555555475,-0.45555555555555743,-1.166666666666669
4.104,2.9728395061728303,-0.40617283950617494,-1.1074074074074098
4.112,-4.55,-1.7999999999999998,1.4
4.12,-5.4844036697247756,-1.8871559633027528,1.1614678899082587
4.128,-5.352293577981657,-1.872477064220184,1.1174311926605522
4.136,-5.220183486238537,-1.8577981651376152,1.0733944954128458
4.144,-5.088073394495417,-1.8431192660550464,1.0293577981651392
4.152,-4.9559633027522985,-1.8284403669724776,0.9853211009174327
4.16,-4.823853211009179,-1.8137614678899088,0.9412844036697263
4.168,-4.691743119266059,-1.79908256880734,0.8972477064220199
4.176,-4.55963302752294,-1.7844036697247712,0.8532110091743134
4.184,-4.4275229357798205,-1.7697247706422021,0.8091743119266068
4.192,-4.295412844036701,-1.7550458715596333,0.7651376146789004
4.2,-4.163302752293582,-1.7403669724770645,0.721100917431194
4.208,-4.031192660550462,-1.7256880733944957,0.6770642201834874
4.216,-3.899082568807343,-1.711009174311927,0.633027522935781
4.224,-3.2400000000000495,-1.6000000000000087,0.7599999999999858
4.232,-1.0,-1.2,1.4
4.24,0.10000000000000003,0.7,2.6
4.248,0.13333333333333053,1.30952380952381,1.9047619047619007
4.256,0.04444444444444118,1.3222222222222226,1.777777777777773
4.264,-0.04444444444444817,1.3349206349206355,1.6507936507936454
4.272,-0.13333333333333752,1.3476190476190482,1.5238095238095177
4.28,-0.22222222222222687,1.360317460317461,1.39682539682539
4.288,-0.31111111111111617,1.3730158730158737,1.2698412698412624
4.296,-0.4000000000000055,1.3857142857142863,1.1428571428571348
4.304,-0.48888888888889487,1.3984126984126992,1.0158730158730072
4.312,-1.9793814432989623,-0.39896907216494815,0.29484536082474055
4.32,-1.8144329896907154,-0.3907216494845358,0.25360824742267885
4.328,-1.6494845360824686,-0.38247422680412346,0.21237113402061714
4.336,-1.4845360824742215,-0.3742268041237111,0.1711340206185554
4.344,-1.3195876288659747,-0.3659793814432988,0.1298969072164937
4.352,-1.1546391752577279,-0.35773195876288644,0.08865979381443198
4.36,-0.989690721649481,-0.34948453608247404,0.047422680412370244
4.368,-0.8247422680412342,-0.3412371134020617,0.006185567010308535
4.376,-0.6597938144329873,-0.33298969072164936,-0.035051546391753174
4.384,-0.4948453608247405,-0.324742268041237,-0.07628865979381488
4.392,-0.3298969072164937,-0.3164948453608247,-0.11752577319587659
4.4,-0.16494845360824661,-0.30824742268041233,-0.15876288659793836
4.408,0.0,-0.3,-0.2
4.416,3.011904761904766,-2.8,-5.102380952380953
4.424,3.1071428571428616,-2.8,-5.121428571428572
4.432,3.2023809523809574,-2.8,-5.140476190476191
4.44,3.2976190476190532,-2.8,-5.159523809523811
4.448,3.392857142857149,-2.8,-5.17857142857143
4.456,3.488095238095245,-2.8,-5.197619047619049
4.464,3.58333333333334,-2.8,-5.216666666666668
4.472,3.678571428571436,-2.8,-5.235714285714287
4.48,3.7738095238095317,-2.8,-5.2547619047619065
4.488,3.8690476190476275,-2.8,-5.2738095238095255
4.496,3.9642857142857233,-2.8,-5.2928571428571445
4.5040000000000004,3.5999999999990675,-2.9,-4.999999999999778
4.5120000000000005,-1.4042735042735048,-2.478632478632475,-3.887179487179485
4.5200000000000005,-1.4111111111111116,-2.444444444444441,-3.8666666666666645
4.5280000000000005,-1.4179487179487185,-2.410256410256407,-3.846153846153844
4.5360000000000005,-1.4247863247863255,-2.3760683760683725,-3.8256410256410236
4.5440000000000005,-1.4316239316239323,-2.3418803418803384,-3.805128205128203
4.5520000000000005,-1.4384615384615391,-2.3076923076923044,-3.7846153846153827
4.5600000000000005,-1.445299145299146,-2.27350427350427,-3.764102564102562
4.5680000000000005,-1.4521367521367528,-2.239316239316236,-3.7435897435897414
4.5760000000000005,-1.4589743589743596,-2.2051282051282017,-3.723076923076921
4.5840000000000005,-1.4658119658119666,-2.1709401709401672,-3.7025641025641005
4.5920000000000005,-1.4726495726495734,-2.136752136752133,-3.68205128205128
4.6000000000000005,-1.4794871794871802,-2.102564102564099,-3.661538461538459
4.6080000000000005,-1.486324786324787,-2.0683760683760646,-3.6410256410256387
4.616,-1.4931623931623932,-2.034188034188034,-3.6205128205128205
4.624,-1.5,-2.0,-3.6
4.632,-1.6,-1.65,-3.55
4.64,-1.7,-1.3,-3.5
4.648,1.4149999999999974,3.3600000000000017,-1.7099999999999973
4.656,1.1883333333333326,3.5200000000000005,-1.469999999999999
4.664,0.9616666666666676,3.6799999999999993,-1.2300000000000009
4.672,0.7350000000000025,3.839999999999998,-0.9900000000000027
4.68,0.5083333333333375,3.999999999999997,-0.7500000000000044
4.688,0.2816666666666725,4.159999999999996,-0.5100000000000062
4.696,0.05500000000000749,4.319999999999995,-0.270000000000008
4.704,-0.1716666666666573,4.479999999999993,-0.030000000000009797
4.712,-7.159550561797775,1.7831460674157396,7.291011235955061
4.72,-6.835955056179795,1.6483146067415815,7.21910112359551
4.728,-6.512359550561817,1.5134831460674234,7.147191011235959
4.736,-6.188764044943836,1.3786516853932653,7.075280898876408
4.744,-5.8651685393258575,1.243820224719107,7.003370786516857
4.752,-5.541573033707877,1.108988764044949,6.9314606741573055
4.76,-5.217977528089898,0.9741573033707908,6.859550561797755
4.768,-4.894382022471918,0.8393258426966327,6.787640449438204
4.776,-4.570786516853939,0.7044943820224745,6.715730337078653
4.784,-4.247191011235959,0.5696629213483164,6.643820224719102
4.792,-3.9235955056179797,0.4348314606741581,6.571910112359551
4.8,-3.6,0.30000000000000004,6.5
4.808,1.039999999999961,0.4199999999999893,4.98000000000001
4.816,-4.429473684210524,-0.012631578947367062,3.8936842105263163
4.824,-4.547368421052629,-0.06315789473684091,3.8684210526315796
4.832,-4.665263157894735,-0.11368421052631478,3.8431578947368426
4.84,-4.78315789473684,-0.16421052631578864,3.8178947368421055
4.848,-4.9010526315789456,-0.2147368421052625,3.792631578947369
4.856,-5.018947368421052,-0.26526315789473637,3.7673684210526317
4.864,-5.136842105263157,-0.31578947368421023,3.742105263157895
4.872,-5.254736842105263,-0.36631578947368404,3.716842105263158
4.88,-5.372631578947368,-0.4168421052631579,3.691578947368421
4.888,-5.490526315789474,-0.46736842105263177,3.666315789473684
4.896,-5.60842105263158,-0.5178947368421056,3.641052631578947
4.904,-5.726315789473686,-0.5684210526315795,3.6157894736842104
4.912,-2.6,-0.7,3.9
4.92,-0.5632183908045966,-0.1,4.2172413793103445
4.928,-0.6643678160919533,-0.1,4.244827586206896
4.936,-0.76551724137931,-0.1,4.272413793103448
4.944,-0.8666666666666667,-0.1,4.3
4.952,-0.9678160919540234,-0.1,4.327586206896552
4.96,-1.0689655172413801,-0.1,4.355172413793103
4.968,-1.1701149425287367,-0.1,4.382758620689655
4.976,-1.2712643678160935,-0.1,4.410344827586208
4.984,-1.3724137931034504,-0.1,4.43793103448276
4.992,-1.473563218390807,-0.1,4.465517241379311
5.0,-1.5747126436781635,-0.1,4.493103448275863
5.008,-1.4799999999999218,0.6600000000000213,4.979999999999993
5.016,-0.5910112359550552,0.9,4.891011235955055
5.024,-0.5730337078651676,0.9,4.873033707865168
5.032,-0.5550561797752801,0.9,4.85505617977528
5.04,-0.5370786516853925,0.9,4.837078651685393
5.048,-0.519101123595505,0.9,4.819101123595505
5.056,-0.5011235955056174,0.9,4.801123595505618
5.064,-0.4831460674157298,0.9,4.78314606741573
5.072,-0.46516853932584223,0.9,4.765168539325843
5.08,-0.4471910112359546,0.9,4.747191011235955
5.088,-0.4292134831460671,0.9,4.729213483146067
5.096,-0.4112359550561795,0.9,4.711235955056179
5.104,-1.15,0.5,4.3
5.112,-0.5800000000000107,0.26000000000000356,3.4000000000000177
5.12,-0.4714285714285684,0.2,2.1666666666666634
5.128,-0.4142857142857116,0.2,2.099999999999997
5.136,-0.35714285714285476,0.2,2.0333333333333306
5.144,-0.2999999999999979,0.2,1.9666666666666643
5.152,-0.24285714285714105,0.2,1.899999999999998
5.16,-0.18571428571428422,0.2,1.8333333333333317
5.168,-0.12857142857142734,0.2,1.7666666666666653
5.176,-0.07142857142857051,0.2,1.6999999999999988
5.184,-0.01428571428571368,0.2,1.6333333333333326
5.192,0.04285714285714315,0.2,1.5666666666666664
5.2,0.09999999999999998,0.2,1.5
5.208,0.8500000000000666,0.3,0.7499999999999334
5.216,0.12916666666666993,0.00416666666666713,0.2874999999999986
5.224,0.18750000000000325,0.012500000000000464,0.2624999999999986
5.232,0.2458333333333366,0.020833333333333797,0.2374999999999986
5.24,0.3041666666666699,0.029166666666667132,0.2124999999999986
5.248,0.36250000000000326,0.037500000000000464,0.1874999999999986
5.256,0.4208333333333366,0.0458333333333338,0.16249999999999862
5.264,0.47916666666666996,0.05416666666666713,0.13749999999999862
5.272,0.5375000000000033,0.06250000000000047,0.11249999999999863
5.28,0.5958333333333367,0.0708333333333338,0.08749999999999863
5.288,0.6541666666666699,0.07916666666666713,0.06249999999999864
5.296,0.7125000000000032,0.08750000000000047,0.037499999999998646
5.304,0.7708333333333366,0.09583333333333381,0.012499999999998623
5.312,0.8,0.1,-0.04000000000000533
5.32,0.6,0.1,0.1
5.328,0.9100000000000026,0.05999999999999822,0.1700000000000009
5.336,0.9246575342465764,-0.013698630136986101,0.2
5.344,0.8041095890410961,-0.03561643835616435,0.2
5.352,0.6835616438356157,-0.057534246575342604,0.2
5.36,0.5630136986301353,-0.07945205479452085,0.2
5.368,0.4424657534246549,-0.1013698630136991,0.2
5.376,0.3219178082191745,-0.12328767123287734,0.2
5.384,0.2013698630136942,-0.1452054794520556,0.2
5.392,0.0808219178082138,-0.16712328767123386,0.2
5.4,-0.039726027397266606,-0.1890410958904121,0.2
5.408,0.600000000000311,-0.1999999999999112,-0.3000000000001332
5.416,0.9499999999999982,0.10625000000000023,-0.5874999999999995
5.424,0.8833333333333315,0.11458333333333356,-0.5708333333333329
5.432,0.8166666666666648,0.12291666666666691,-0.5541666666666663
5.44,0.7499999999999981,0.13125000000000026,-0.5374999999999995
5.448,0.6833333333333315,0.13958333333333356,-0.5208333333333328
5.456,0.6166666666666647,0.14791666666666692,-0.5041666666666662
5.464,0.549999999999998,0.15625000000000025,-0.48749999999999954
5.472,0.4833333333333314,0.16458333333333358,-0.4708333333333329
5.48,0.41666666666666474,0.1729166666666669,-0.4541666666666662
5.488,0.3499999999999981,0.18125000000000024,-0.43749999999999956
5.496,0.28333333333333144,0.18958333333333358,-0.4208333333333329
5.5040000000000004,0.2166666666666648,0.1979166666666669,-0.40416666666666623
5.5120000000000005,3.2199999999999713,1.4000000000000357,0.3200000000000071
5.5200000000000005,2.8304347826086875,1.8086956521739141,0.4130434782608711
5.5280000000000005,2.6913043478260783,1.8260869565217404,0.4391304347826103
5.5360000000000005,2.5521739130434686,1.8434782608695663,0.4652173913043496
5.5440000000000005,2.4130434782608594,1.8608695652173926,0.49130434782608884
5.5520000000000005,2.27391304347825,1.8782608695652188,0.5173913043478281
5.5600000000000005,2.134782608695641,1.895652173913045,0.5434782608695674
5.5680000000000005,1.9956521739130313,1.9130434782608712,0.5695652173913066
5.5760000000000005,1.856521739130422,1.9304347826086972,0.5956521739130458
5.5840000000000005,1.7173913043478126,1.9478260869565234,0.6217391304347851
5.5920000000000005,1.5782608695652034,1.9652173913043496,0.6478260869565243
5.6000000000000005,1.439130434782594,1.9826086956521758,0.6739130434782636
5.6080000000000005,1.2999999999996448,2.000000000000222,0.7000000000001776
5.6160000000000005,-0.10106382978723441,3.3989361702127656,2.306382978723406
5.6240000000000006,-0.10957446808510682,3.390425531914893,2.3574468085106406
5.632,-0.11808510638297827,3.381914893617022,2.4085106382978694
5.64,-0.12659574468085066,3.3734042553191492,2.459574468085104
5.648,-0.13510638297872307,3.3648936170212767,2.510638297872338
5.656,-0.14361702127659548,3.3563829787234045,2.5617021276595726
5.664,-0.1521276595744679,3.347872340425532,2.612765957446807
5.672,-0.16063829787234027,3.3393617021276594,2.6638297872340413
5.68,-0.16914893617021268,3.3308510638297872,2.714893617021276
5.688,-0.17765957446808506,3.3223404255319147,2.7659574468085104
5.696,-0.18617021276595747,3.3138297872340425,2.817021276595745
5.704,-0.19468085106382987,3.30531914893617,2.868085106382979
5.712,-0.5,3.3,3.15
5.72,-2.8499999999999868,2.9800000000000035,4.009999999999994
5.728,-4.9,2.0,5.1
5.736,-4.951948051948053,1.9168831168831169,5.131168831168831
5.744,-5.003896103896104,1.8337662337662335,5.162337662337662
5.752,-5.055844155844157,1.7506493506493503,5.193506493506494
5.76,-5.107792207792208,1.667532467532467,5.224675324675324
5.768,-5.159740259740261,1.5844155844155838,5.255844155844156
5.776,-5.211688311688312,1.5012987012987005,5.287012987012988
5.784,-5.263636363636365,1.4181818181818173,5.318181818181818
5.792,-5.315584415584416,1.335064935064934,5.34935064935065
5.8,-5.3675324675324685,1.2519480519480508,5.380519480519482
5.808,-5.4,0.7799999999999752,5.4
5.816,-3.383695652173922,-0.5902173913043531,2.885869565217399
5.824,-3.2532608695652256,-0.5119565217391354,2.772826086956529
5.832,-3.1228260869565294,-0.4336956521739177,2.6597826086956586
5.84,-2.992391304347833,-0.3554347826086999,2.546739130434789
5.848,-2.861956521739137,-0.27717391304348216,2.4336956521739186
5.856,-2.7315217391304403,-0.19891304347826438,2.3206521739130483
5.864,-2.601086956521744,-0.12065217391304661,2.2076086956521785
5.872,-2.470652173913048,-0.042391304347828895,2.0945652173913083
5.88,-2.3402173913043516,0.03586956521738893,1.9815217391304383
5.888,-2.2097826086956553,0.11413043478260665,1.8684782608695683
5.896,-2.079347826086959,0.19239130434782437,1.755434782608698
5.904,-1.9489130434782629,0.2706521739130422,1.642391304347828
5.912,-0.5000000000000222,1.0749999999999944,-0.17499999999995008
5.92,0.0,0.789285714285714,-1.3
5.928,0.0,0.7607142857142856,-1.3
5.936,0.0,0.7321428571428571,-1.3
5.944,0.0,0.7035714285714287,-1.3
5.952,0.0,0.6750000000000003,-1.3
5.96,0.0,0.6464285714285719,-1.3
5.968,0.0,0.6178571428571434,-1.3
5.976,0.0,0.5892857142857151,-1.3
5.984,0.0,0.5607142857142866,-1.3
5.992,0.0,0.5321428571428581,-1.3
6.0,0.0,0.5035714285714297,-1.3
6.008,-0.357142857142859,-0.32857142857143584,-1.3
6.016,-0.9041666666666671,-0.7,-1.504166666666667
6.024,-0.9125000000000005,-0.7,-1.5125000000000004
6.032,-0.9208333333333338,-0.7,-1.520833333333334
6.04,-0.9291666666666671,-0.7,-1.5291666666666672
6.048,-0.9375000000000004,-0.7,-1.5375000000000005
6.056,-0.9458333333333337,-0.7,-1.5458333333333338
6.064,-0.9541666666666672,-0.7,-1.5541666666666671
6.072,-0.9625000000000005,-0.7,-1.5625000000000004
6.08,-0.9708333333333338,-0.7,-1.5708333333333337
6.088,-0.9791666666666672,-0.7,-1.5791666666666673
6.096,-0.9875000000000005,-0.7,-1.5875000000000006
6.104,-0.9958333333333338,-0.7,-1.5958333333333339
6.112,-0.4099999999999769,-0.5699999999999982,-1.6099999999999945
6.12,0.9384615384616882,-0.4615384615384484,-1.3230769230768966
6.128,4.446153846154026,-0.15384615384613803,-0.7076923076922762
6.136,15.349230769230752,1.7507692307692146,-0.2753846153846073
6.144,14.943076923076909,1.356923076923063,-0.0784615384615314
6.152,14.536923076923065,0.9630769230769111,0.1184615384615445
6.16,14.130769230769221,0.5692307692307592,0.3153846153846204
6.168,13.724615384615376,0.17538461538460726,0.5123076923076963
6.176,13.318461538461532,-0.21846153846154448,0.7092307692307722
6.184,12.912307692307689,-0.6123076923076962,0.9061538461538481
6.192,12.506153846153843,-1.006153846153848,1.103076923076924
6.2,12.1,-1.4000000000000001,1.3
6.208,6.2,0.3999999999999999,0.10000000000000009
6.216,-3.971910112359551,-0.4550561797752816,0.5101123595505632
6.224,-3.9269662921348316,-0.3831460674157306,0.36629213483146117
6.232,-3.8820224719101124,-0.3112359550561796,0.22247191011235917
6.24,-3.8370786516853927,-0.23932584269662854,0.07865168539325706
6.248,-3.7921348314606735,-0.16741573033707757,-0.06516853932584488
6.256,-3.7471910112359543,-0.09550561797752655,-0.20898876404494693
6.264,-3.7022471910112347,-0.02359550561797552,-0.352808988764049
6.272,-3.6573033707865155,0.048314606741575505,-0.49662921348315103
6.28,-3.612359550561796,0.12022471910112653,-0.6404494382022531
6.288,-3.5674157303370766,0.19213483146067756,-0.7842696629213551
6.296,-3.5224719101123574,0.2640449438202286,-0.9280898876404572
6.304,-2.3,-1.4,-1.3
6.312,-1.963636363636368,-1.327272727272736,-1.5
6.32,-2.0372093023255853,-1.4139534883720946,-1.527906976744189
6.328,-2.111627906976748,-1.4418604651162805,-1.583720930232561
6.336,-2.1860465116279104,-1.4697674418604665,-1.639534883720933
6.344,-2.260465116279073,-1.4976744186046524,-1.695348837209305
6.352,-2.3348837209302356,-1.5255813953488384,-1.751162790697677
6.36,-2.409302325581398,-1.5534883720930244,-1.806976744186049
6.368,-2.483720930232561,-1.5813953488372103,-1.8627906976744208
6.376,-2.5581395348837237,-1.6093023255813963,-1.9186046511627928
6.384,-2.6325581395348863,-1.6372093023255823,-1.9744186046511647
6.392,-2.706976744186049,-1.6651162790697682,-2.0302325581395366
6.4,-2.7813953488372114,-1.6930232558139542,-2.0860465116279086
6.408,-3.383333333333343,-1.2333333333333136,-1.7166666666666568
6.416,-2.578181818181816,-0.9927272727272719,-1.392727272727272
6.424,-2.5345454545454524,-0.9781818181818174,-1.3781818181818173
6.432,-2.490909090909089,-0.963636363636363,-1.3636363636363629
6.44,-2.447272727272725,-0.9490909090909084,-1.3490909090909082
6.448,-2.4036363636363616,-0.9345454545454539,-1.3345454545454538
6.456,-2.359999999999998,-0.9199999999999994,-1.3199999999999994
6.464,-2.3163636363636346,-0.9054545454545448,-1.3054545454545448
6.472,-2.272727272727271,-0.8909090909090903,-1.2909090909090903
6.48,-2.2290909090909072,-0.8763636363636358,-1.2763636363636357
6.488,-2.1854545454545438,-0.8618181818181814,-1.2618181818181813
6.496,-2.1418181818181803,-0.8472727272727267,-1.2472727272727266
6.5040000000000004,-2.098181818181817,-0.8327272727272723,-1.2327272727272722
6.5120000000000005,-2.0545454545454533,-0.8181818181818178,-1.2181818181818176
6.5200000000000005,-2.01090909090909,-0.8036363636363633,-1.2036363636363632
6.5280000000000005,-1.2749999999999906,-0.42499999999999444,-1.0499999999999963
6.5360000000000005,-0.9416666666666451,-0.22499999999998704,-0.9166666666666581
6.5440000000000005,0.22205882352941272,0.4088235294117651,-0.5911764705882349
6.5520000000000005,0.2808823529411778,0.43235294117647116,-0.5676470588235288
6.5600000000000005,0.33970588235294286,0.4558823529411772,-0.5441176470588228
6.5680000000000005,0.398529411764708,0.4794117647058832,-0.5205882352941168
6.5760000000000005,0.45735294117647307,0.5029411764705892,-0.4970588235294108
6.5840000000000005,0.5161764705882381,0.5264705882352952,-0.47352941176470476
6.5920000000000005,0.5750000000000033,0.5500000000000013,-0.44999999999999873
6.6000000000000005,0.6338235294117682,0.5735294117647073,-0.4264705882352927
6.6080000000000005,0.6926470588235334,0.5970588235294133,-0.4029411764705867
6.6160000000000005,1.2011111111111115,0.9,0.1
6.6240000000000006,1.2100000000000004,0.9,0.1
6.632000000000001,1.2188888888888894,0.9,0.1
6.640000000000001,1.2277777777777783,0.9,0.1
6.648000000000001,1.236666666666667,0.9,0.1
6.656000000000001,1.245555555555556,0.9,0.1
6.664,1.254444444444444,0.9,0.1
6.672,1.263333333333333,0.9,0.1
6.68,1.2722222222222217,0.9,0.1
6.688,1.2811111111111106,0.9,0.1
6.696,1.2899999999999996,0.9,0.1
6.704,1.2988888888888885,0.9,0.1
6.712,1.1,0.8,0.2
6.72,1.0820224719101126,0.7910112359550563,0.2
6.728,1.0640449438202249,0.7820224719101124,0.2
6.736,1.0460674157303373,0.7730337078651687,0.2
6.744,1.0280898876404498,0.7640449438202248,0.2
6.752,1.0101123595505621,0.7550561797752811,0.2
6.76,0.9921348314606746,0.7460674157303373,0.2
6.768,0.9741573033707871,0.7370786516853934,0.2
6.776,0.9561797752808995,0.7280898876404497,0.2
6.784,0.9382022471910119,0.7191011235955059,0.2
6.792,0.9202247191011244,0.7101123595505621,0.2
6.8,0.9022471910112367,0.7011235955056183,0.2
6.808,0.6000000000000444,0.6,0.3
6.816,0.29629629629629667,0.3962962962962967,0.5
6.824,0.28888888888888925,0.3888888888888893,0.5
6.832,0.28148148148148183,0.3814814814814818,0.5
6.84,0.27407407407407436,0.3740740740740744,0.5
6.848,0.26666666666666694,0.366666666666667,0.5
6.856,0.2592592592592595,0.3592592592592595,0.5
6.864,0.25185185185185205,0.3518518518518521,0.5
6.872,0.24444444444444463,0.3444444444444446,0.5
6.88,0.2370370370370372,0.3370370370370372,0.5
6.888,0.22962962962962974,0.3296296296296297,0.5
6.896,0.22222222222222232,0.3222222222222223,0.5
6.904,0.2148148148148149,0.3148148148148149,0.5
6.912,0.20740740740740743,0.3074074074074074,0.5
6.92,0.2,0.3,0.5
6.928,0.16097560975609787,0.26097560975609785,0.5
6.936,0.12195121951219576,0.22195121951219576,0.5
6.944,0.08292682926829363,0.18292682926829362,0.5
6.952,0.043902439024391504,0.1439024390243915,0.5
6.96,0.004878048780489391,0.1048780487804894,0.5
6.968,-0.9032258064516127,-0.30322580645161257,0.4
6.976,-0.9161290322580643,-0.3161290322580643,0.4
6.984,-0.9290322580645161,-0.3290322580645161,0.4
6.992,-0.9419354838709678,-0.34193548387096784,0.4
7.0,-0.9548387096774196,-0.3548387096774196,0.4
7.008,-0.9677419354838713,-0.36774193548387135,0.4
7.016,-0.9806451612903231,-0.3806451612903231,0.4
7.024,-0.9935483870967748,-0.39354838709677487,0.4
7.032,-0.9272727272727199,-0.4,0.4
7.04,-0.4,-0.4,0.4
7.048,0.21403508771929974,-0.2929824561403501,0.3
7.056,0.24210526315789607,-0.27894736842105194,0.3
7.064,0.2701754385964924,-0.2649122807017538,0.3
7.072,0.29824561403508876,-0.25087719298245564,0.3
7.08,0.32631578947368506,-0.2368421052631575,0.3
7.088,0.35438596491228136,-0.22280701754385934,0.3
7.096,0.3824561403508777,-0.20877192982456116,0.3
7.104,0.3666666666666667,-0.16666666666666669,0.2
7.112,0.09904761904761875,-0.1,0.09904761904761875
7.12,0.09142857142857114,-0.1,0.09142857142857114
7.128,0.08380952380952356,-0.1,0.08380952380952356
7.136,0.07619047619047595,-0.1,0.07619047619047595
7.144,0.06857142857142837,-0.1,0.06857142857142837
7.152,0.060952380952380765,-0.1,0.060952380952380765
7.16,0.05333333333333317,-0.1,0.05333333333333317
7.168,0.045714285714285575,-0.1,0.045714285714285575
7.176,0.03809523809523798,-0.1,0.03809523809523798
7.184,0.03047619047619038,-0.1,0.03047619047619038
7.192,0.022857142857142784,-0.1,0.022857142857142784
7.2,0.01523809523809519,-0.1,0.01523809523809519
7.208,0.007619047619047595,-0.1,0.007619047619047595
7.216,0.0,-0.1,0.0
7.224,0.0,0.0,-0.10123456790123497
7.232,0.0,0.0,-0.11111111111111148
7.24,0.0,0.0,-0.12098765432098799
7.248,0.0,0.0,-0.13086419753086448
7.256,0.0,0.0,-0.140740740740741
7.264,0.0,0.0,-0.1506172839506175
7.272,0.0,0.0,-0.16049382716049398
7.28,0.0,0.0,-0.1703703703703705
7.288,0.0,0.0,-0.18024691358024703
7.296,0.0,0.0,-0.1901234567901235
7.304,0.0,0.0,-0.2
7.312,0.050000000000005554,0.15000000000000557,-0.2
7.32,0.1,0.2,-0.2
7.328,0.1,0.2,-0.2
7.336,0.1,0.2,-0.2
7.344,0.1,0.2,-0.2
7.352,0.1,0.2,-0.2
7.36,0.1,0.2,-0.2
7.368,0.1,0.2,-0.2
7.376,0.1,0.2,-0.2
7.384,0.1,0.2,-0.2
7.392,0.1,0.2,-0.2
7.4,0.1,0.2,-0.2
7.408,0.1,0.2,-0.2
7.416,0.2,0.2,-0.2
7.424,0.2,0.2,-0.2
7.432,0.2,0.2,-0.2
7.44,0.2,0.2,-0.2
7.448,0.2,0.2,-0.2
7.456,0.2,0.2,-0.2
7.464,0.2,0.2,-0.2
7.472,0.2,0.2,-0.2
7.48,0.2,0.2,-0.2
7.488,0.2,0.2,-0.2
7.496,0.2,0.2,-0.2
7.5040000000000004,0.2,0.2,-0.2
7.5120000000000005,0.2,0.1,-0.1
7.5200000000000005,0.2,0.1,-0.1
7.5280000000000005,0.2,0.1,-0.1
7.5360000000000005,0.2,0.1,-0.1
7.5440000000000005,0.2,0.1,-0.1
7.5520000000000005,0.2,0.1,-0.1
7.5600000000000005,0.2,0.1,-0.1
7.5680000000000005,0.2,0.1,-0.1
7.5760000000000005,0.2,0.1,-0.1
7.5840000000000005,0.2,0.1,-0.1
7.5920000000000005,0.2,0.1,-0.1
7.6000000000000005,0.2,0.1,-0.1
7.6080000000000005,0.2,0.1,-0.1
7.6160000000000005,0.2,0.1,-0.1
7.6240000000000006,0.0,0.0,0.0
7.632000000000001,0.0,0.0,0.0
7.640000000000001,0.0,0.0,0.0
7.648000000000001,0.0,0.0,0.0
7.656000000000001,0.0,0.0,0.0
7.664000000000001,0.0,0.0,0.0
7.672000000000001,0.0,0.0,0.0
7.68,0.0,0.0,0.0
7.688,0.0,0.0,0.0
7.696,0.0,0.0,0.0
7.704,-0.0499999999999778,-0.0499999999999778,0.0
7.712,-0.05000000000002221,-0.1,0.1
7.72,0.0,-0.1,0.1
7.728,0.0,-0.1,0.1
7.736,0.0,-0.1,0.1
7.744,0.0,-0.1,0.1
7.752,0.0,-0.1,0.1
7.76,0.0,-0.1,0.1
7.768,0.0,-0.1,0.1
7.776,0.0,-0.1,0.1
7.784,0.0,-0.1,0.1
7.792,0.0,-0.1,0.1
7.8,-0.1,-0.1,0.1
7.808,-0.1,-0.1,0.10540540540540558
7.816,-0.1,-0.1,0.11261261261261275
7.824,-0.1,-0.1,0.11981981981981993
7.832,-0.1,-0.1,0.1270270270270271
7.84,-0.1,-0.1,0.13423423423423428
7.848,-0.1,-0.1,0.14144144144144144
7.856,-0.1,-0.1,0.14864864864864863
7.864,-0.1,-0.1,0.1558558558558558
7.872,-0.1,-0.1,0.16306306306306295
7.88,-0.1,-0.1,0.17027027027027014
7.888,-0.1,-0.1,0.1774774774774773
7.896,-0.1,-0.1,0.18468468468468446
7.904,-0.1,-0.1,0.19189189189189165
7.912,-0.1,-0.1,0.19909909909909881
7.92,-0.1,0.0,0.19354838709677485
7.928,-0.1,0.0,0.16774193548387134
7.936,-0.1,0.0,0.14193548387096785
7.944,-0.1,0.0,0.11612903225806434
7.952,-0.1,0.0,0.1
7.96,-0.1,0.0,0.1
7.968,-0.1,0.0,0.1
7.976,-0.1,0.0,0.1
7.984,-0.1,0.0,0.1
7.992,-0.1,0.0,0.1
8.0,-0.1,0.0,0.1
8.008000000000001,-0.1,0.0,0.1
8.016,-0.0714285714285678,0.0,0.1
8.024000000000001,-0.1,0.0,0.0
8.032,-0.1,0.0,0.0
8.040000000000001,-0.1,0.0,0.0
8.048,-0.1,0.0,0.0
8.056000000000001,-0.1,0.0,0.0
8.064,-0.1,0.0,0.0
8.072000000000001,-0.1,0.0,0.0
8.08,-0.1,0.0,0.0
8.088000000000001,-0.1,0.0,0.0
8.096,-0.1,0.0,0.0
8.104000000000001,0.0,0.0,0.0
8.112,0.0,0.0,-0.1
8.120000000000001,0.0,0.0,-0.1
8.128,0.0,0.0,-0.1
8.136000000000001,0.0,0.0,-0.1
8.144,0.0,0.0,-0.1
8.152000000000001,0.0,0.0,-0.1
8.16,0.0,0.0,-0.1
8.168000000000001,0.0,0.0,-0.1
8.176,0.0,0.0,-0.1
8.184000000000001,0.0,0.0,-0.1
8.192,0.0,0.0,-0.1
8.2,0.0,0.0,-0.1
8.208,0.0,0.0,-0.1
8.216,0.0,0.0,-0.1
8.224,0.0,0.0,-0.1
8.232,0.0,0.0,-0.1
8.24,0.0,0.0,-0.1
8.248,0.0,0.0,-0.1
8.256,0.0,0.0,-0.1
8.264,0.0,0.0,-0.1
8.272,0.0,0.0,-0.1
8.28,0.0,0.0,-0.1
8.288,0.0,0.0,-0.1
8.296,0.0,0.0,-0.1
8.304,0.0,0.0,0.0
8.312,0.0,0.0,0.0
8.32,0.0,0.0,0.0
8.328,0.0,0.0,0.0
8.336,0.0,0.0,0.0
8.344,0.0,0.0,0.0
8.352,0.0,0.0,0.0
8.36,0.0,0.0,0.0
8.368,0.0,0.0,0.0
8.376,0.0,0.0,0.0
8.384,0.0,0.0,0.0
8.392,0.0,0.0,0.0
8.4,0.0,0.0,0.0
8.408,0.0,0.0,0.0
8.416,0.030000000000001775,0.0,0.0
8.424,0.08888888888889547,0.0,0.0
8.432,-1.3877787807814457e-17,0.0,0.0
8.44,0.0,0.0,0.0
8.448,0.0,0.0,0.0
8.456,0.0,0.0,0.0
8.464,0.0,0.0,0.0
8.472,0.0,0.0,0.0
8.48,0.0,0.0,0.0
8.488,0.0,0.0,0.0
8.496,0.0,0.0,0.0
8.504,0.0,0.0,0.0
8.512,-0.1,0.0,0.0
8.52,-0.09565217391304398,0.0,0.0
8.528,-0.08695652173913002,0.0,0.0
8.536,-0.07826086956521798,0.0,0.0
8.544,-0.06956521739130402,0.0,0.0
8.552,-0.06086956521739197,0.0,0.0
8.56,-0.05217391304347801,0.0,0.0
8.568,-0.04347826086956597,0.0,0.0
8.576,-0.034782608695652,0.0,0.0
8.584,-0.026086956521739965,0.0,0.0
8.592,-0.017391304347826,0.0,0.0
8.6,-0.008695652173913965,0.0,0.0
8.608,1.3877787807814457e-17,0.0,0.0
8.616,0.0,0.0,0.0
8.624,0.0,0.0,0.0
8.632,0.0,0.0,0.0
8.64,0.0,0.0,0.0
8.648,0.0,0.0,0.0
8.656,0.0,0.0,0.0
8.664,0.0,0.0,0.0
8.672,0.0,0.0,0.0
8.68,0.0,0.0,0.0
8.688,0.0,0.0,0.0
8.696,0.0,0.0,0.0
8.704,0.0,0.0,0.0
8.712,0.0,0.0,0.0
8.72,0.0,0.0,0.0
8.728,0.0,0.0,0.0
8.736,0.0,0.0,0.0
8.744,0.0,0.0,0.0
8.752,0.0,0.0,0.0
8.76,0.0,0.0,0.0
8.768,0.0,0.0,0.0
8.776,0.0,0.0,0.0
8.784,0.0,0.0,0.0
8.792,0.0,0.0,0.0
8.8,0.0,0.0,0.0
8.808,0.0,0.0,0.0
8.816,0.0,0.0,0.0
8.824,0.0,0.0,0.0
8.832,0.0,0.1,0.0
8.84,0.0,0.1,0.0
8.848,0.0,0.1,0.0
8.856,0.0,0.1,0.0
8.864,0.0,0.1,0.0
8.872,0.0,0.1,0.0
8.88,0.0,0.1,0.0
8.888,0.0,0.1,0.0
8.896,0.0,0.1,0.0
8.904,0.0,0.1,0.0
8.912,0.0,0.07812499999999549,0.0
8.92,0.0,0.05312499999999827,0.0
8.928,0.0,0.028124999999995487,0.0
8.936,0.0,0.003124999999998268,0.0
8.944,0.0,0.0,0.0
8.952,0.0,0.0,0.0
8.96,0.0,0.0,0.0
8.968,0.0,0.0,0.0
8.976,0.0,0.0,0.0
8.984,0.0,0.0,0.0
8.992,0.0,0.0,0.0
9.0,0.0,0.0,0.0
9.008000000000001,0.0,0.0,0.0
9.016,0.0011494252873556882,0.0,0.0
9.024000000000001,0.01034482758620732,0.0,0.0
9.032,0.01954022988505691,0.0,0.0
9.040000000000001,0.02873563218390854,0.0,0.0
9.048,0.037931034482758134,0.0,0.0
9.056000000000001,0.047126436781609764,0.0,0.0
9.064,0.05632183908045935,0.0,0.0
9.072000000000001,0.06551724137931099,0.0,0.0
9.08,0.07471264367816058,0.0,0.0
9.088000000000001,0.08390804597701221,0.0,0.0
9.096,0.0931034482758618,0.0,0.0
9.104000000000001,0.1,0.05000000000004441,-0.05000000000004441
9.112,0.1,0.1,-0.09619047619047656
9.120000000000001,0.1,0.1,-0.088571428571428
9.128,0.1,0.1,-0.08095238095238112
9.136000000000001,0.1,0.1,-0.07333333333333256
9.144,0.1,0.1,-0.06571428571428567
9.152000000000001,0.1,0.1,-0.0580952380952371
9.16,0.1,0.1,-0.05047619047619022
9.168000000000001,0.1,0.1,-0.04285714285714165
9.176,0.1,0.1,-0.03523809523809478
9.184000000000001,0.1,0.1,-0.02761904761904621
9.192,0.1,0.1,-0.019999999999999324
9.200000000000001,0.1,0.1,-0.012380952380950758
9.208,0.1,0.1,-0.0047619047619038846
9.216000000000001,0.07272727272725805,0.07272727272725805,0.0
9.224,1.3877787807814457e-17,1.3877787807814457e-17,0.0
9.232,0.0,0.0,0.0
9.24,0.0,0.0,0.0
9.248,0.0,0.0,0.0
9.256,0.0,0.0,0.0
9.264,0.0,0.0,0.0
9.272,0.0,0.0,0.0
9.28,0.0,0.0,0.0
9.288,0.0,0.0,0.0
9.296,0.0,0.0,0.0
9.304,0.0,0.0,0.0
9.312,0.0,0.0,0.0
9.32,0.0,0.0,0.0
9.328,0.0,0.0,0.0
9.336,0.0,0.0,0.0
9.344,0.0,0.0,0.0
9.352,0.0,0.0,0.0
9.36,0.0,0.0,0.0
9.368,0.0,0.0,0.0
9.376,0.0,0.0,0.0
9.384,0.0,0.0,0.0
9.392,0.0,0.0,0.0
9.4,0.0,0.0,0.0
9.408,0.0,0.0,0.0
9.416,0.0,0.0,0.0
9.424,0.0,0.0,0.0
9.432,0.0,0.0,0.0
9.44,0.0,0.0,0.0
9.448,0.0,0.0,0.0
9.456,0.0,0.0,0.0
9.464,0.0,0.0,0.0
9.472,0.0,0.0,0.0
9.48,0.0,0.0,0.0
9.488,0.0,0.0,0.0
9.496,0.0,0.0,0.0
9.504,0.0,0.0,0.0
9.512,0.0,0.0,0.0
9.52,0.0,0.0,0.0
9.528,0.0,0.0,0.0
9.536,0.0,0.0,0.0
9.544,0.0,0.0,0.0
9.552,0.0,0.0,0.0
9.56,0.0,0.0,0.0
9.568,0.0,0.0,0.0
9.576,0.0,0.0,0.0
9.584,0.0,0.0,0.0
9.592,0.0,0.0,0.0
9.6,0.0,0.0,0.0
9.608,0.0,0.0,0.0
9.616,0.0,0.0,0.0
9.624,0.0,0.0,0.0
9.632,0.0,0.0,0.0
9.64,0.0,0.0,0.0
9.648,0.0,0.0,0.0
9.656,0.0,0.0,0.0
9.664,0.0,0.0,0.0
9.672,0.0,0.0,0.0
9.68,0.0,0.0,0.0
9.688,0.0,0.0,0.0
9.696,0.0,0.0,0.0
9.704,0.0,0.0,0.0
9.712,0.0,0.0,0.0
9.72,0.0,0.0,0.0
9.728,0.0,0.0,0.0
9.736,0.0,0.0,0.0
9.744,0.0,0.0,0.0
9.752,0.0,0.0,0.0
9.76,0.0,0.0,0.0
9.768,0.0,0.0,0.0
9.776,0.0,0.0,0.0
9.784,0.0,0.0,0.0
9.792,0.0,0.0,0.0
9.8,0.0,0.0,0.0
9.808,0.0,0.0,0.0
9.816,0.0,0.0,0.0
9.824,0.0,0.0,0.0
9.832,0.0,0.0,0.0
9.84,0.0,0.0,0.0
9.848,0.0,0.0,0.0
9.856,0.0,0.0,0.0
9.864,0.0,0.0,0.0
9.872,0.0,0.0,0.0
9.88,0.0,0.0,0.0
9.888,0.0,0.0,0.0
9.896,0.0,0.0,0.0
9.904,0.0,0.0,0.0
9.912,0.0,0.0,0.0
9.92,0.0,0.0,0.0
9.928,0.0,0.0,0.0
9.936,0.0,0.0,0.0
9.944,0.0,0.0,0.0
9.952,0.0,0.0,0.0
9.96,0.0,0.0,0.0
9.968,0.0,0.0,0.0
9.976,0.0,0.0,0.0
9.984,0.0,0.0,0.0
9.992,0.0,0.0,0.0
10.0,0.0,0.0,0.0
10.008000000000001,0.0,0.0,0.0
10.016,0.0,0.0,0.0
10.024000000000001,0.0,0.0,0.0
10.032,0.0,0.0,0.0
10.040000000000001,0.0,0.0,0.0
10.048,0.0,0.0,0.0
10.056000000000001,0.0,0.0,0.0
10.064,0.0,0.0,0.0
10.072000000000001,0.0,0.0,0.0
10.08,0.0,0.0,0.0
10.088000000000001,0.0,0.0,0.0
10.096,0.0,0.0,0.0
10.104000000000001,0.0,0.0,0.0
10.112,0.0,0.0,0.0
10.120000000000001,0.005882352941177455,0.0,0.0
10.128,0.015294117647058875,0.0,0.0
10.136000000000001,0.024705882352942386,0.0,0.0
10.144,0.0341176470588238,0.0,0.0
10.152000000000001,0.043529411764707315,0.0,0.0
10.16,0.052941176470588734,0.0,0.0
10.168000000000001,0.06235294117647224,0.0,0.0
10.176,0.07176470588235366,0.0,0.0
10.184000000000001,0.08117647058823717,0.0,0.0
10.192,0.0905882352941186,0.0,0.0
10.200000000000001,0.09999999999982237,0.0,0.0
10.208,0.1,0.0,0.0
10.216000000000001,0.1,0.0,0.0
10.224,0.1,0.0,0.0
10.232000000000001,0.1,0.0,0.0
10.24,0.1,0.0,0.0
10.248,0.1,0.0,0.0
10.256,0.1,0.0,0.0
10.264,0.1,0.0,0.0
10.272,0.1,0.0,0.0
10.28,0.1,0.0,0.0
10.288,0.1,0.0,0.0
10.296,0.1,0.0,0.0
10.304,0.1,0.0,0.0
10.312,0.1,0.0,0.0
10.32,0.033333333333313606,0.0,0.0
10.328,0.08235294117647121,0.0,0.0
10.336,0.0352941176470576,0.0,0.0
10.344,0.003333333333331557,0.0,0.0
10.352,0.016666666666666666,0.0,0.0
10.36,0.029999999999998816,0.0,0.0
10.368,0.043333333333333925,0.0,0.0
10.376,0.056666666666666074,0.0,0.0
10.384,0.07000000000000119,0.0,0.0
10.392,0.08333333333333334,0.0,0.0
10.4,0.09666666666666844,0.0,0.0
10.408,0.0,0.0,0.0
10.416,0.1,0.0,0.0
10.424,0.1,0.0,0.0
10.432,0.1,0.0,0.0
10.44,0.1,0.0,0.0
10.448,0.1,0.0,0.0
10.456,0.1,0.0,0.0
10.464,0.1,0.0,0.0
10.472,0.1,0.0,0.0
10.48,0.1,0.0,0.0
10.488,0.1,0.0,0.0
10.496,0.1,0.0,0.0
10.504,0.1,0.0,0.0
10.512,0.1,0.0,0.0
10.52,0.0945454545454544,0.0,0.0
10.528,0.08727272727272639,0.0,0.0
10.536,0.08,0.0,0.0
10.544,0.072727272727272,0.0,0.0
10.552,0.0654545454545456,0.0,0.0
10.56,0.0581818181818176,0.0,0.0
10.568,0.0509090909090912,0.0,0.0
10.576,0.043636363636363196,0.0,0.0
10.584,0.036363636363636806,0.0,0.0
10.592,0.029090909090908793,0.0,0.0
10.6,0.021818181818182403,0.0,0.0
10.608,0.014545454545454403,0.0,0.0
10.616,0.007272727272728,0.0,0.0
10.624,0.0,0.0,0.0
10.632,0.0,0.0,0.0
10.64,0.0,0.0,0.0
10.648,0.0,0.0,0.0
10.656,0.0,0.0,0.0
10.664,0.0,0.0,0.0
10.672,0.0,0.0,0.0
10.68,0.0,0.0,0.0
10.688,0.0,0.0,0.0
10.696,0.0,0.0,0.0
10.704,0.0,0.0,0.0
10.712,0.0,0.0,0.0
10.72,0.0,0.0,0.0
10.728,0.0,0.0,0.0
10.736,0.0,0.0,0.0
10.744,0.0,0.0,0.0
10.752,0.0,0.0,0.0
10.76,0.0,0.0,0.0
10.768,0.0,0.0,0.0
10.776,0.0,0.0,0.0
10.784,0.0,0.0,0.0
10.792,0.0,0.0,0.0
10.8,0.0,0.0,0.0
10.808,0.0,0.0,0.0
10.816,0.0,0.0,0.0
10.824,0.0,0.0,0.0
10.832,0.0,0.0,0.0
10.84,0.0,0.0,0.0
10.848,0.0,0.0,0.0
10.856,0.0,0.0,0.0
10.864,0.0,0.0,0.0
10.872,0.0,0.0,0.0
10.88,0.0,0.0,0.0
10.888,0.0,0.0,0.0
10.896,0.0,0.0,0.0
10.904,0.0,0.0,0.0
10.912,0.0,0.0,0.0
10.92,0.0,0.0,0.0
10.928,0.0,0.0,0.0
10.936,0.0,0.0,0.0
10.944,0.0,0.0,0.0
10.952,0.0,0.0,0.0
10.96,0.0,0.0,0.0
10.968,0.0,0.0,0.0
10.976,0.0,0.0,0.0
10.984,0.0,0.0,0.0
10.992,0.0,0.0,0.0
11.0,0.0,0.0,0.0
11.008000000000001,0.0,0.0,0.0
11.016,0.0,0.0,0.0
11.024000000000001,0.0,0.0,0.0
11.032,0.0,0.0,0.0
11.040000000000001,0.0,0.0,0.0
11.048,0.0,0.0,0.0
11.056000000000001,0.0,0.0,0.0
11.064,0.0,0.0,0.0
11.072000000000001,0.0,0.0,0.0
11.08,0.0,0.0,0.0
11.088000000000001,0.0,0.0,0.0
11.096,0.0,0.0,0.0
11.104000000000001,0.0,0.0,0.0
11.112,0.0,0.0,0.0
11.120000000000001,-0.1,0.0,0.0
11.128,-0.1,0.0,0.05
11.136000000000001,-0.10972222222222411,0.0,0.1
11.144,-0.12083333333333385,0.0,0.1
11.152000000000001,-0.13194444444444606,0.0,0.1
11.16,-0.1430555555555558,0.0,0.1
11.168000000000001,-0.154166666666668,0.0,0.1
11.176,-0.16527777777777775,0.0,0.1
11.184000000000001,-0.17638888888888998,0.0,0.1
11.192,-0.18749999999999972,0.0,0.1
11.200000000000001,-0.1986111111111119,0.0,0.1
11.208,-0.2399999999999858,-0.1,-0.08000000000000711
11.216000000000001,4.090697674418662,0.0,-0.6209302325581526
11.224,4.332558139534913,0.0,-0.6767441860465184
11.232000000000001,4.5744186046512185,0.0,-0.7325581395348966
11.24,4.81627906976747,0.0,-0.7883720930232623
11.248000000000001,5.058139534883775,0.0,-0.8441860465116404
11.256,5.3000000000000265,0.0,-0.9000000000000061
11.264,5.541860465116278,0.0,-0.9558139534883718
11.272,5.783720930232583,0.0,-1.01162790697675
11.28,6.025581395348835,0.0,-1.0674418604651157
11.288,6.267441860465141,0.0,-1.1232558139534938
11.296,6.509302325581392,0.0,-1.1790697674418595
11.304,13.55,-1.4500000000000002,-2.1
11.312,9.450000000000045,-4.410869565217389,-1.8434782608695572
11.32,9.049999999999995,-4.428260869565218,-1.9130434782608703
11.328,8.650000000000034,-4.445652173913042,-1.9826086956521678
11.336,8.249999999999984,-4.463043478260871,-2.052173913043481
11.344,7.850000000000023,-4.480434782608695,-2.121739130434779
11.352,7.449999999999973,-4.497826086956523,-2.1913043478260916
11.36,7.050000000000011,-4.515217391304347,-2.2608695652173894
11.368,6.649999999999961,-4.532608695652176,-2.3304347826087026
11.376,6.25,-4.55,-2.4
11.384,5.84999999999995,-4.567391304347828,-2.469565217391313
11.392,5.449999999999988,-4.584782608695653,-2.539130434782611
11.4,4.699999999999644,-4.399999999999823,-2.449999999999867
11.408,4.366666666666687,-3.666666666666716,-2.6
11.416,4.249397590361443,-3.4710843373493967,-2.6
11.424,4.181927710843379,-3.432530120481931,-2.6
11.432,4.114457831325299,-3.393975903614457,-2.6
11.44,4.0469879518072345,-3.3554216867469915,-2.6
11.448,3.979518072289155,-3.3168674698795173,-2.6
11.456,3.91204819277109,-3.2783132530120516,-2.6
11.464,3.844578313253011,-3.239759036144578,-2.6
11.472,3.777108433734946,-3.201204819277112,-2.6
11.48,3.709638554216866,-3.162650602409638,-2.6
11.488,3.6421686746988016,-3.1240963855421726,-2.6
11.496,3.4846153846153793,-2.6384615384615175,-2.4692307692307587
11.504,3.4230769230769242,-2.3923076923076962,-2.346153846153848
11.512,2.4967032967032927,-1.5967032967032928,-1.7978021978021952
11.52,2.4703296703296695,-1.5703296703296696,-1.7802197802197797
11.528,2.4439560439560406,-1.5439560439560407,-1.7626373626373604
11.536,2.4175824175824174,-1.5175824175824175,-1.745054945054945
11.544,2.3912087912087885,-1.4912087912087884,-1.7274725274725256
11.552,2.3648351648351653,-1.4648351648351654,-1.7098901098901103
11.56,2.3384615384615364,-1.4384615384615362,-1.692307692307691
11.568,2.312087912087913,-1.412087912087913,-1.6747252747252754
11.576,2.2857142857142843,-1.3857142857142841,-1.6571428571428561
11.584,2.259340659340661,-1.359340659340661,-1.6395604395604406
11.592,2.232967032967032,-1.332967032967032,-1.6219780219780213
11.6,2.206593406593409,-1.3065934065934088,-1.6043956043956058
11.608,1.1989473684210512,-0.5989473684210513,-0.7978947368421028
11.616,1.1905263157894734,-0.5905263157894733,-0.7810526315789468
11.624,1.1821052631578934,-0.5821052631578936,-0.7642105263157871
11.632,1.1736842105263157,-0.5736842105263156,-0.7473684210526312
11.64,1.1652631578947357,-0.5652631578947358,-0.7305263157894716
11.648,1.156842105263158,-0.5568421052631578,-0.7136842105263156
11.656,1.148421052631578,-0.5484210526315779,-0.6968421052631559
11.664,1.1400000000000001,-0.54,-0.68
11.672,1.1315789473684201,-0.5315789473684202,-0.6631578947368404
11.68,1.1231578947368424,-0.5231578947368422,-0.6463157894736844
11.688,1.1147368421052624,-0.5147368421052624,-0.6294736842105247
11.696,1.1063157894736846,-0.5063157894736844,-0.6126315789473689
11.704,0.5999999999999112,-0.4,-0.34999999999995557
11.712,-0.0016260162601617093,-0.3,0.10081300813008086
11.72,-0.014634146341464049,-0.3,0.10731707317073202
11.728,-0.0276422764227635,-0.3,0.11382113821138176
11.736,-0.04065040650406584,-0.3,0.12032520325203293
11.744,-0.05365853658536529,-0.3,0.12682926829268265
11.752,-0.06666666666666762,-0.3,0.1333333333333338
11.76,-0.07967479674796708,-0.3,0.13983739837398354
11.768,-0.09268292682926942,-0.3,0.14634146341463472
11.776,-0.10569105691056888,-0.3,0.15284552845528443
11.784,-0.11869918699187121,-0.3,0.1593495934959356
11.792,-0.13170731707317065,-0.3,0.16585365853658535
11.8,-0.14471544715447301,-0.3,0.1723577235772365
11.808,-0.15772357723577246,-0.3,0.17886178861788624
11.816,-0.1707317073170748,-0.3,0.18536585365853742
11.824,-0.18373983739837424,-0.3,0.19186991869918713
11.832,-0.19674796747967657,-0.3,0.19837398373983828
11.84,-0.2,-0.3,0.3
11.848,-0.21126760563380412,-0.28873239436619585,0.28873239436619585
11.856,-0.22253521126760575,-0.2774647887323943,0.2774647887323943
11.864,-0.23380281690140986,-0.26619718309859014,0.26619718309859014
11.872,-0.2450704225352115,-0.2549295774647885,0.2549295774647885
11.88,-0.2563380281690156,-0.2436619718309844,0.2436619718309844
11.888,-0.2676056338028172,-0.2323943661971828,0.2323943661971828
11.896,-0.27887323943662135,-0.22112676056337865,0.22112676056337865
11.904,-0.2901408450704229,-0.20985915492957705,0.20985915492957705
11.912,-0.3,-0.19230769230768285,0.2
11.92,-0.3,-0.13076923076922764,0.2
11.928,-0.1499999999999556,0.0,0.1
11.936,-0.1,0.0,0.09066666666666702
11.944,-0.1,0.0,0.07999999999999906
11.952,-0.1,0.0,0.06933333333333347
11.96,-0.1,0.0,0.0586666666666655
11.968,-0.1,0.0,0.047999999999999904
11.976,-0.1,0.0,0.03733333333333194
11.984,-0.1,0.0,0.026666666666666353
11.992,-0.1,0.0,0.01599999999999839
12.0,-0.1,0.0,0.005333333333332788
12.008000000000001,0.05000000000004441,0.1,-0.05000000000004441
12.016,0.08108108108108147,0.1,-0.1
12.024000000000001,0.05945945945945687,0.1,-0.1
12.032,0.03783783783783706,0.1,-0.1
12.040000000000001,0.016216216216212456,0.1,-0.1
12.048,0.1,0.1,-0.1
12.056000000000001,0.1,0.1,-0.08596491228070029
12.064,0.1,0.1,-0.07192982456140368
12.072000000000001,0.1,0.1,-0.05789473684210395
12.08,0.1,0.1,-0.04385964912280735
12.088000000000001,0.1,0.1,-0.02982456140350763
12.096,0.1,0.1,-0.01578947368421102
12.104000000000001,0.1,0.1,-0.001754385964911287
12.112,-0.1990196078431378,0.2,0.1
12.120000000000001,-0.19117647058823484,0.2,0.1
12.128,-0.18333333333333363,0.2,0.1
12.136000000000001,-0.1754901960784307,0.2,0.1
12.144,-0.16764705882352948,0.2,0.1
12.152000000000001,-0.15980392156862652,0.2,0.1
12.16,-0.1519607843137253,0.2,0.1
12.168000000000001,-0.14411764705882235,0.2,0.1
12.176,-0.13627450980392114,0.2,0.1
12.184000000000001,-0.1284313725490182,0.2,0.1
12.192,-0.12058823529411698,0.2,0.1
12.200000000000001,-0.11274509803921404,0.2,0.1
12.208,-0.10490196078431283,0.2,0.1
12.216000000000001,-0.1,0.2,0.0
12.224,-0.09523809523809575,0.2,0.0
12.232000000000001,-0.08571428571428512,0.2,0.0
12.24,-0.0761904761904766,0.2,0.0
12.248000000000001,-0.06666666666666596,0.2,0.0
12.256,-0.057142857142857446,0.2,0.0
12.264000000000001,-0.04761904761904682,0.2,0.0
12.272,-0.0380952380952383,0.2,0.0
12.280000000000001,-0.028571428571427665,0.2,0.0
12.288,-0.019047619047619146,0.2,0.0
12.296,-0.009523809523810628,0.2,0.0
12.304,0.0,0.2,0.0
12.312,0.0,0.18000000000001423,0.0
12.32,-0.004444444444443962,0.1,0.0
12.328,-0.013333333333331887,0.1,0.0
12.336,-0.022222222222221786,0.1,0.0
12.344,-0.03111111111110971,0.1,0.0
12.352,-0.039999999999999605,0.1,0.0
12.36,-0.04888888888888753,0.1,0.0
12.368,-0.05777777777777743,0.1,0.0
12.376,-0.06666666666666536,0.1,0.0
12.384,-0.07555555555555525,0.1,0.0
12.392,-0.08444444444444318,0.1,0.0
12.4,-0.09333333333333307,0.1,0.0
12.408,0.0,0.1,-0.049999999999955594
12.416,0.0,0.0,-0.1
