gyro_time_list,gyro_x_list,gyro_y_list,gyro_z_list
0.0,0.1,-0.2,0.4
0.007993537964458805,-0.39353796445880457,0.19919224555735057,0.10161550888529887
0.01598707592891761,-0.3415474736330562,0.19269343420413204,0.11461313159173596
0.023980613893376412,-0.2895569828073079,0.18619462285091348,0.12761075429817303
0.03197415185783522,-0.23756649198155955,0.17969581149769495,0.14060837700461012
0.039967689822294025,-0.18557600115581122,0.17319700014447642,0.15360599971104721
0.047961227786752825,-0.13358551033006294,0.16669818879125786,0.16660362241748428
0.05595476575121163,-0.08159501950431458,0.16019937743803933,0.17960124512392134
0.06394830371567044,-0.029604528678566222,0.1537005660848208,0.19259886783035846
0.07194184168012924,0.022385962147182026,0.14720175473160224,0.20559649053679552
0.07993537964458805,0.07437645297293038,0.1407029433783837,0.21859411324323258
0.08792891760904685,0.12636694379867874,0.13420413202516518,0.23159173594966967
0.09592245557350565,0.178357434624427,0.12770532067194662,0.24458935865610673
0.10391599353796446,0.23034792545017535,0.12120650931872809,0.2575869813625438
0.11190953150242326,0.2823384162759237,0.11470769796550954,0.2705846040689809
0.11990306946688208,0.33432890710167207,0.108208886612291,0.283582226775418
0.12789660743134088,0.3863193979274203,0.10171007525907247,0.29657984948185506
0.1358901453957997,-0.25549273021001606,0.0,0.0
0.14388368336025847,-0.1929034192162284,-0.007096580783771613,0.0
0.1518772213247173,-0.1846626584281265,-0.015337341571873483,0.0
0.1598707592891761,-0.17642189764002467,-0.02357810235997535,0.0
0.1678642972536349,-0.16818113685192282,-0.03181886314807719,0.0
0.1758578352180937,-0.15994037606382094,-0.04005962393617907,0.0
0.1838513731825525,-0.15169961527571907,-0.048300384724280936,0.0
0.1918449111470113,-0.14345885448761725,-0.056541145512382776,0.0
0.1998384491114701,-0.13521809369951537,-0.06478190630048465,0.0
0.20783198707592893,-0.1269773329114135,-0.07302266708858651,0.0
0.21582552504038774,-0.11873657212331162,-0.08126342787668839,0.0
0.22381906300484652,-0.11049581133520978,-0.08950418866479024,0.0
0.23181260096930534,-0.10225505054710791,-0.0977449494528921,0.0
0.23980613893376415,0.04030694668820802,0.0,0.2
0.24779967689822294,0.09494770852818638,0.0,0.2
0.25579321486268175,0.08653345803928238,0.0,0.2
0.26378675282714054,0.07811920755037839,0.0,0.2
0.2717802907915994,0.06970495706147435,0.0,0.2
0.27977382875605816,0.061290706572570366,0.0,0.2
0.28776736672051695,0.05287645608366638,0.0,0.2
0.2957609046849758,0.04446220559476234,0.0,0.2
0.3037544426494346,0.036047955105858356,0.0,0.2
0.31174798061389336,0.02763370461695437,0.0,0.2
0.3197415185783522,0.01921945412805033,0.0,0.2
0.327735056542811,0.010805203639146346,0.0,0.2
0.3357285945072698,0.0023909531502423753,0.0,0.2
0.3437221324717286,-0.08610662358643172,0.0,0.1
0.3517156704361874,-0.1,0.0,0.15935131104759556
0.3597092084006462,-0.1,0.0,0.19623721055465806
0.367702746365105,-0.1,0.0,0.18513507449290967
0.3756962843295638,-0.1,0.0,0.17403293843116135
0.3836898222940226,-0.1,0.0,0.16293080236941304
0.39168336025848144,-0.1,0.0,0.15182866630766467
0.3996768982229402,-0.1,0.0,0.14072653024591636
0.40767043618739907,-0.1,0.0,0.12962439418416796
0.41566397415185785,-0.1,0.0,0.11852225812241965
0.42365751211631664,-0.1,0.0,0.10742012206067134
0.4316510500807755,-0.1,0.0,0.1
0.43964458804523426,-0.18222940226171308,0.0,0.1
0.44763812600969305,-0.6790589660743132,-0.29472940226171246,1.22108239095315
0.4556316639741519,-0.8153124541048615,-0.2856458363930092,1.257416654427963
0.4636252019386107,-0.951565942135409,-0.27656227052430604,1.2937509179027757
0.47161873990306946,-1.0878194301659565,-0.2674787046556029,1.3300851813775885
0.4796122778675283,-1.2240729181965049,-0.2583951387868997,1.3664194448524014
0.4876058158319871,-1.3603264062270521,-0.2493115729181965,1.402753708327214
0.4955993537964459,-1.4965798942575996,-0.24022800704949335,1.4390879718020266
0.5035928917609047,-1.632833382288148,-0.23114444118079014,1.4754222352768396
0.5115864297253635,-1.7690868703186955,-0.22206087531208696,1.5117564987516523
0.5195799676898223,-1.905340358349243,-0.2129773094433838,1.5480907622264648
0.5275735056542811,-2.0415938463797905,-0.20389374357468065,1.5844250257012775
0.53556704361874,-3.1268174474959745,-1.1216478190630033,-1.3432956381260064
0.5435605815831988,-4.221163166397416,-1.2,-1.8352719439956922
0.5515541195476575,-4.246948772734379,-1.2,-1.8782479545572985
0.5595476575121163,-4.272734379071343,-1.2,-1.921223965118905
0.5675411954765751,-4.298519985408307,-1.2,-1.9641999756805113
0.5755347334410339,-4.32430559174527,-1.2,-2.0071759862421175
0.5835282714054928,-4.350091198082235,-1.2,-2.0501519968037245
0.5915218093699516,-4.375876804419199,-1.2,-2.093128007365331
0.5995153473344104,-4.401662410756162,-1.2,-2.1361040179269373
0.6075088852988692,-4.427448017093126,-1.2,-2.179080028488544
0.6155024232633279,-4.45323362343009,-1.2,-2.22205603905015
0.6234959612277867,-4.479019229767054,-1.2,-2.265032049611756
0.6314894991922456,-4.5,-1.1255250403877195,-2.523424878836842
0.6394830371567044,-4.200920070774675,-0.999079929225325,-3.700920070774675
0.6474765751211632,-4.216145857373644,-0.9838541426263558,-3.716145857373644
0.655470113085622,-4.231371643972613,-0.9686283560273867,-3.7313716439726132
0.6634636510500808,-4.246597430571582,-0.9534025694284176,-3.7465974305715823
0.6714571890145395,-4.2618232171705515,-0.9381767828294485,-3.7618232171705515
0.6794507269789984,-4.2770490037695215,-0.9229509962304792,-3.777049003769521
0.6874442649434572,-4.292274790368491,-0.90772520963151,-3.79227479036849
0.695437802907916,-4.30750057696746,-0.8924994230325409,-3.8075005769674592
0.7034313408723748,-4.322726363566429,-0.8772736364335718,-3.8227263635664284
0.7114248788368336,-4.337952150165398,-0.8620478498346027,-3.8379521501653975
0.7194184168012924,-4.353177936764367,-0.8468220632356336,-3.853177936764366
0.7274119547657513,-4.368403723363336,-0.8315962766366642,-3.8684037233633357
0.73540549273021,-4.383629509962305,-0.8163704900376951,-3.883629509962305
0.7433990306946688,-4.398855296561274,-0.801144703438726,-3.898855296561274
0.7513925686591276,-4.223366133059186,-0.23831693347040683,-4.530841533264796
0.7593861066235864,-4.654442649434561,0.015831987075920484,-4.63861066235864
0.7673796445880452,-4.9,0.21967905223478718,-4.7
0.7753731825525041,-4.9,0.24099515347334427,-4.7
0.7833667205169629,-4.9,0.26231125471190103,-4.7
0.7913602584814217,-4.9,0.2836273559504578,-4.7
0.7993537964458804,-4.9,0.3049434571890146,-4.7
0.8073473344103392,-4.9,0.3262595584275714,-4.7
0.8153408723747981,-4.9,0.34757565966612847,-4.7
0.8233344103392569,-4.9,0.36889176090468523,-4.7
0.8313279483037157,-4.9,0.390207862143242,-4.7
0.8393214862681745,-4.813570274636509,0.4864297253634904,-4.613570274636509
0.8473150242326333,-2.887623301339922,0.6984529126674902,-3.695358738002471
0.8553085621970921,-2.812390002850898,0.6890487503563623,-3.667146251069087
0.863302100161551,-2.7371567043618734,0.6796445880452341,-3.6389337641357025
0.8712956381260097,-2.6619234058728494,0.6702404257341061,-3.6107212772023187
0.8792891760904685,-2.5866901073838258,0.6608362634229782,-3.5825087902689345
0.8872827140549273,-2.5114568088948017,0.6514321011118502,-3.554296303335551
0.8952762520193861,-2.436223510405778,0.6420279388007222,-3.5260838164021666
0.9032697899838449,-2.3609902119167545,0.6326237764895942,-3.497871329468783
0.9112633279483038,-2.2857569134277296,0.6232196141784662,-3.4696588425353987
0.9192568659127626,-2.2105236149387055,0.6138154518673382,-3.4414463556020145
0.9272504038772214,-2.135290316449682,0.6044112895562102,-3.4132338686686308
0.9352439418416801,-0.45121163166398315,0.2756058158319916,-2.2890145395799792
0.9432374798061389,0.014339034037100854,-0.014339034037100854,-1.6784914489443488
0.9512310177705977,0.03271498338068428,-0.03271498338068428,-1.6509275249289734
0.9592245557350566,0.05109093272426796,-0.05109093272426796,-1.623363600913598
0.9672180936995154,0.06946688206785138,-0.06946688206785138,-1.5957996768982228
0.9752116316639742,0.08784283141143481,-0.08784283141143481,-1.5682357528828477
0.983205169628433,0.10621878075501823,-0.10621878075501823,-1.5406718288674726
0.9911987075928917,0.12459473009860166,-0.12459473009860166,-1.5131079048520975
0.9991922455573505,0.14297067944218508,-0.14297067944218508,-1.4855439808367223
1.0071857835218094,0.16134662878576878,-0.16134662878576878,-1.4579800568213468
1.015179321486268,0.17972257812935194,-0.17972257812935194,-1.4304161328059721
1.023172859450727,0.1980985274729356,-0.1980985274729356,-1.4028522087905966
1.031166397415186,0.08997038233710195,0.20200592353257962,-0.9979940764674204
1.0391599353796446,0.05296326213127478,0.20940734757374505,-0.9905926524262549
1.0471534733441035,0.015956141925446587,0.2168087716149107,-0.9831912283850893
1.0551470113085621,-0.021050978280380578,0.2242101956560761,-0.9757898043439239
1.063140549273021,-0.05805809848620877,0.23161161969724176,-0.9683883803027582
1.07113408723748,-0.09506521869203696,0.2390130437384074,-0.9609869562615926
1.0791276252019386,-0.13207233889786413,0.24641446777957282,-0.9535855322204272
1.0871211631663975,-0.1690794591036923,0.2538158918207385,-0.9461841081792616
1.0951147011308562,-0.20608657930951949,0.2612173158619039,-0.9387826841380961
1.103108239095315,-0.24309369951534768,0.2686187399030695,-0.9313812600969305
1.1111017770597738,-0.28010081972117484,0.27602016394423495,-0.9239798360557651
1.1190953150242327,-0.31710793992700304,0.2834215879854006,-0.9165784120145994
1.1270888529886915,-0.3541150601328312,0.29082301202656624,-0.9091769879734337
1.1350823909531502,-0.3911221803386584,0.2982244360677317,-0.9017755639322683
1.1430759289176091,-1.5089660743134101,0.1910339256865899,-0.48206785137317976
1.1510694668820678,-1.575578890683899,0.124421109316101,-0.348842218632202
1.1590630048465267,-1.3877479806138928,0.0,0.008168012924071376
1.1670565428109856,-1.3557738287560575,0.0,0.029484114162628382
1.1750500807754443,-1.3237996768982228,0.0,0.050800215401184796
1.1830436187399032,-1.2918255250403872,0.0,0.0721163166397418
1.1910371567043618,-1.2598513731825527,0.0,0.09343241787829822
1.1990306946688207,-1.227877221324717,0.0,0.11474851911685523
1.2070242326332794,-1.1959030694668826,0.0,0.13606462035541164
1.2150177705977383,-1.163928917609047,0.0,0.15738072159396865
1.2230113085621972,-1.1319547657512117,0.0,0.17869682283252566
1.2310048465266559,-1.0992730210016335,0.0,0.20048465266557775
1.2389983844911148,0.40210186208655746,-0.3,1.003152793129836
1.2469919224555734,0.4189303630643652,-0.3,1.0283955445965478
1.2549854604200323,0.4357588640421734,-0.3,1.05363829606326
1.2629789983844912,0.4525873650199816,-0.3,1.0788810475299724
1.27097253634895,0.46941586599778934,-0.3,1.104123798996684
1.2789660743134088,0.48624436697559753,-0.3,1.1293665504633963
1.2869596122778675,0.5030728679534053,-0.3,1.154609301930108
1.2949531502423264,0.5199013689312135,-0.3,1.1798520533968202
1.3029466882067853,0.5367298699090217,-0.3,1.2050948048635326
1.310940226171244,0.5535583708868295,-0.3,1.230337556330244
1.3189337641357028,0.5703868718646377,-0.3,1.2555803077969565
1.3269273021001615,0.5872153728424454,-0.3,1.280823059263668
1.3349208400646204,0.7920840064620454,-0.3,1.588126009693068
1.342914378029079,0.021405492730219855,-0.3,2.97859450726978
1.350907915993538,0.009414185706592871,-0.3,3.0564851142395573
1.3589014539579969,0.01893030233094869,-0.3,3.113581813985692
1.3668949919224556,0.02844641895530425,-0.3,3.1706785137318256
1.3748885298869145,0.037962535579660076,-0.3,3.2277752134779605
1.3828820678513731,0.047478652204015634,-0.3,3.2848719132240936
1.390875605815832,0.056994768828371456,-0.3,3.341968612970229
1.398869143780291,0.06651088545272728,-0.3,3.3990653127163637
1.4068626817447496,0.07602700207708284,-0.3,3.456162012462497
1.4148562197092085,0.08554311870143866,-0.3,3.513258712208632
1.4228497576736672,0.09505923532579422,-0.3,3.5703554119547656
1.430843295638126,0.0,-0.11567043618738716,4.968659127625226
1.4388368336025847,0.731268751442418,0.20521145857373635,5.4156343757212095
1.4468303715670436,0.7740912762520192,0.21234854604200323,5.43704563812601
1.4548239095315025,0.8169138010616206,0.21948563351027012,5.458456900530811
1.4628174474959612,0.8597363258712206,0.22662272097853678,5.4798681629356105
1.47081098546042,0.902558850680822,0.23375980844680366,5.501279425340411
1.4788045234248788,0.945381375490422,0.24089689591507035,5.522690687745211
1.4867980613893377,0.9882039003000234,0.2480339833833372,5.5441019501500115
1.4947915993537966,1.0310264251096246,0.2551710708516041,5.565513212554812
1.5027851373182552,1.0738489499192247,0.26230815831987075,5.586924474959613
1.5107786752827141,1.116671474728826,0.26944524578813767,5.608335737364413
1.5187722132471728,1.1594939995384261,0.27658233325640436,5.629746999769213
1.5267657512116317,1.2023165243480274,0.2837194207246712,5.651158262174014
1.5347592891760904,1.2451390491576273,0.2908565081929379,5.6725695245788135
1.5427528271405493,1.2879615739672288,0.29799359566120476,5.693980786983614
1.5507463651050082,0.663768541636065,0.6702893229549187,5.968115729181967
1.5587399030694669,0.6959612277867555,1.0,6.1
1.5667334410339258,0.6180936995153454,1.1297841092671472,6.207446027316787
1.5747269789983844,0.5039003000230786,1.1713089818097897,6.2178272454524475
1.5827205169628433,0.38970690053080853,1.2128338543524333,6.228208463588109
1.5907140549273022,0.2755135010385385,1.2543587268950769,6.238589681723769
1.598707592891761,0.16132010154627163,1.2958835994377194,6.2489708998594296
1.6067011308562198,0.0471267020540016,1.337408471980363,6.259352117995091
1.6146946688206785,-0.06706669743826521,1.3789333445230056,6.269733336130751
1.6226882067851374,-0.18126009693053524,1.420458217065649,6.2801145542664125
1.6306817447495963,-0.2954534964228053,1.4619830896082928,6.290495772402073
1.638675282714055,-0.46752827140549613,1.6350565428109922,6.097415185783512
1.6466688206785138,0.7935691067987617,1.403215446600619,4.787138213597523
1.6546623586429725,0.7743075695350059,1.412846215232497,4.7486151390700115
1.6626558966074314,0.7550460322712496,1.4224769838643752,4.710092064542499
1.67064943457189,0.7357844950074938,1.432107752496253,4.671568990014987
1.678642972536349,0.7165229577437374,1.4417385211281313,4.633045915487474
1.6866365105008079,0.6972614204799811,1.4513692897600095,4.5945228409599626
1.6946300484652665,0.6779998832162253,1.4610000583918874,4.555999766432451
1.7026235864297254,0.6587383459524689,1.4706308270237656,4.517476691904938
1.7106171243941841,0.639476808688713,1.4802615956556435,4.478953617377426
1.718610662358643,0.6202152714249567,1.4898923642875217,4.440430542849914
1.726604200323102,0.6009537341612003,1.4995231329193999,4.401907468322401
1.7345977382875606,0.491410009206664,1.1,3.6
1.7425912762520195,0.44843399864505706,1.1,3.6
1.7505848142164782,0.40545798808345124,1.1,3.6
1.758578352180937,0.3624819775218443,1.1,3.6
1.7665718901453957,0.3195059669602385,1.1,3.6
1.7745654281098546,0.27652995639863154,1.1,3.6
1.7825589660743135,0.2335539458370245,1.1,3.6
1.7905525040387722,0.19057793527541872,1.1,3.6
1.798546042003231,0.14760192471381173,1.1,3.6
1.8065395799676898,0.10462591415220596,1.1,3.6
1.8145331179321487,0.061649903590598965,1.1,3.6
1.8225266558966076,0.018673893028991972,1.1,3.6
1.8305201938610662,1.3959612277867448,0.8,3.8
1.8385137318255251,0.6052016337976652,0.9947983662023347,3.3843950986070044
1.8465072697899838,0.6127427073490413,0.9872572926509586,3.361771877952876
1.8545008077544427,0.6202837809004176,0.9797162190995823,3.3391486572987468
1.8624943457189016,0.6278248544517939,0.972175145548206,3.316525436644618
1.8704878836833603,0.63536592800317,0.9646340719968299,3.2939022159904896
1.8784814216478192,0.6429070015545464,0.9570929984454536,3.271278995336361
1.8864749596122778,0.6504480751059225,0.9495519248940776,3.2486557746822324
1.8944684975767367,0.6579891486572987,0.9420108513427012,3.2260325540281034
1.9024620355411954,0.6655302222086749,0.9344697777913251,3.2034093333739753
1.9104555735056543,0.6730712957600512,0.9269287042399488,3.1807861127198462
1.9184491114701132,0.6806123693114274,0.9193876306885725,3.1581628920657177
1.9264426494345719,0.6881534428628036,0.9118465571371964,3.135539671411589
1.9344361873990308,0.6956945164141799,0.9043054835858201,3.11291645075746
1.9424297253634895,0.752765005592145,0.79446998881571,3.0208524916117825
1.9504232633279484,0.8757425127376675,0.5485149745246651,2.8363862308934986
1.9584168012924072,-0.6683360258481436,-0.16833602584814353,3.570840064620359
1.966410339256866,-0.8020147703669512,-0.3040295407339024,3.9
1.9744038772213248,-0.8134341103161782,-0.3268682206323564,3.9
1.9823974151857835,-0.8248534502654049,-0.3497069005308097,3.9
1.9903909531502424,-0.8362727902146319,-0.37254558042926367,3.9
1.998384491114701,-0.8476921301638586,-0.395384260327717,3.9
2.00637802907916,-0.8591114701130859,-0.4182229402261716,3.9
2.014371567043619,-0.8705308100623125,-0.44106162012462496,3.9
2.0223651050080775,-0.8819501500115392,-0.4639003000230783,3.9
2.030358642972536,-0.8933694899607658,-0.48673897992153164,3.9
2.0383521809369953,-2.2880452342488695,-0.8647819063004523,3.1591276252018092
2.046345718901454,-2.293740842318818,-0.6968704211594091,1.6843521057970456
2.0543392568659127,-2.2565615959724985,-0.6782807979862493,1.5914039899312469
2.062332794830372,-2.219382349626177,-0.6596911748130886,1.498455874065443
2.0703263327948305,-2.1822031032798574,-0.6411015516399289,1.4055077581996445
2.078319870759289,-2.145023856933538,-0.6225119284667691,1.3125596423338457
2.086313408723748,-2.1078446105872186,-0.6039223052936094,1.219611526468047
2.094306946688207,-2.070665364240897,-0.5853326821204486,1.126663410602243
2.1023004846526656,-2.0334861178945776,-0.5667430589472888,1.0337152947364445
2.1102940226171243,-1.9963068715482581,-0.5481534357741291,0.9407671788706458
2.1182875605815834,-1.9591276252019367,-0.5295638126009684,0.8478190630048419
2.126281098546042,-1.921948378855617,-0.5109741894278086,0.7548709471390431
2.1342746365105008,-1.9,-0.17253634894991518,-0.18239095315025444
2.14226817447496,0.006278091460197328,0.40251123658407895,-2.5037668548761185
2.1502617124394185,0.04585006158127988,0.41834002463251196,-2.527510036948768
2.1582552504038772,0.08542203170236244,0.434168812680945,-2.5512532190214174
2.166248788368336,0.12499400182344499,0.449997600729378,-2.574996401094067
2.174242326332795,0.16456597194452974,0.4658263887778119,-2.5987395831667177
2.1822358642972537,0.2041379420656123,0.4816551768262449,-2.622482765239367
2.1902294022617124,0.24370991218669485,0.49748396487467794,-2.6462259473120167
2.1982229402261715,0.2832818823077796,0.5133127529231118,-2.6699691293846675
2.20621647819063,0.32285385242886216,0.5291415409715449,-2.6937123114573174
2.214210016155089,0.3624258225499447,0.5449703290199779,-2.717455493529967
2.2222035541195475,0.40199779267102725,0.5607991170684109,-2.7411986756026163
2.2301970920840066,0.441569762792112,0.5766279051168448,-2.764941857675267
2.2381906300484653,0.48114173291319456,0.5924566931652778,-2.7886850397479166
2.246184168012924,1.0184168012923978,0.38947611354720135,-3.5026309716131996
2.254177705977383,1.582229402261689,0.0,-3.4233441033925334
2.2621712439418418,1.6604094039622523,0.009435847291897198,-3.3377433891675885
2.2701647819063004,1.8392122268514595,0.019953660403027026,-3.379814641612108
2.278158319870759,2.0180150497406664,0.03047147351415685,-3.4218858940566275
2.2861518578352182,2.1968178726298833,0.040989286625287266,-3.463957146501149
2.294145395799677,2.3756206955190904,0.05150709973641709,-3.506028398945668
2.3021389337641356,2.5544235184082975,0.062024912847546916,-3.5480996513901877
2.3101324717285947,2.733226341297515,0.07254272595867733,-3.5901709038347094
2.3181260096930534,2.9120291641867215,0.08306053906980715,-3.632242156279229
2.326119547657512,3.0908319870759287,0.09357835218093698,-3.674313408723748
2.334113085621971,0.35831987075955535,-0.5886914378028889,-3.3
2.34210662358643,3.6740013217799956,0.22333308855926004,-2.058000440593332
2.3501001615508885,3.428745043325014,0.26875091790277517,-1.9762483477750048
2.358093699515347,3.183488764870032,0.31416874724629035,-1.8944962549566775
2.3660872374798063,2.9382324864150364,0.359586576589808,-1.8127441621383455
2.374080775444265,2.6929762079600548,0.4050044059333232,-1.7309920693200183
2.3820743134087237,2.447719929505073,0.45042223527683833,-1.649239976501691
2.390067851373183,2.2024636510500777,0.495840064620356,-1.5674878836833592
2.3980613893376415,1.9572073725950956,0.5412578939638711,-1.485735790865032
2.4060549273021,1.711951094140114,0.5866757233073863,-1.4039836980467046
2.414048465266559,1.4666948156851318,0.6320935526509015,-1.3222316052283773
2.422042003231018,1.2214385372301364,0.6775113819944192,-1.2404795124100456
2.4300355411954766,0.29289176090469404,1.0228432956381224,-1.0385783521809389
2.4380290791599353,-0.49014711442615005,0.9010947650637611,1.7956209397449556
2.4460226171243944,-0.4136132402983502,0.9095985288557389,1.7616058845770446
2.454016155088853,-0.3370793661705547,0.9181022926477161,1.7275908294091353
2.4620096930533117,-0.2605454920427591,0.9266060564396934,1.6935757742412263
2.470003231017771,-0.1840116179149593,0.9351098202316712,1.6595607190733153
2.4779967689822295,-0.10747774378716368,0.9436135840236485,1.625545663905406
2.485990306946688,-0.03094386965936813,0.9521173478156257,1.591530608737497
2.493983844911147,0.045590004468427425,0.9606211116076031,1.5575155535695877
2.501977382875606,0.12212387859622731,0.9691248753995808,1.5235004984016767
2.5099709208400647,0.19865775272402286,0.9776286391915581,1.4894854432337676
2.5179644588045234,0.2751916268518184,0.9861324029835353,1.4554703880658584
2.5259579967689825,0.3517255009796182,0.9946361667755131,1.4214553328979473
2.533951534733441,-1.1836833602591996,-0.16914378029159893,2.3193861066234667
2.5419450726979,6.666359772260291,-0.1191508383393204,2.854037987985631
2.5499386106623585,6.1929560675690505,-0.15795442069106147,2.7609093903414523
2.5579321486268176,5.719552362877783,-0.1967580030428047,2.6677807926972688
2.5659256865912763,5.246148658186542,-0.23556158539454575,2.57465219505309
2.573919224555735,4.772744953495302,-0.27436516774628683,2.481523597408912
2.581912762520194,4.2993412488040335,-0.31316875009803,2.388394999764728
2.5899063004846528,3.825937544112793,-0.3519723324497711,2.295266402120549
2.5978998384491114,3.352533839421552,-0.3907759148015122,2.202137804476371
2.6058933764135706,2.8791301347302847,-0.4295794971532554,2.1090092068321873
2.6138869143780292,2.405726430039044,-0.46838307950499647,2.0158806091880086
2.621880452342488,1.9323227253478024,-0.5071866618567376,1.92275201154383
2.6298739903069466,1.4589190206565616,-0.5459902442084786,1.8296234138996514
2.6378675282714057,0.9855153159652943,-0.5847938265602218,1.7364948162554676
2.6458610662358644,0.24652665589660594,-0.5069466882067881,1.5951534733441228
2.653854604200323,0.7699071082390945,-0.17590872374798047,0.9337277867528274
2.661848142164782,0.5001252019385994,-0.125949111470111,1.0036712439418447
2.669841680129241,0.2303432956381194,-0.07598949919224435,1.0736147011308579
2.6778352180936995,-0.03943861066236065,-0.02602988691437766,1.1435581583198713
2.685828756058158,-0.3092205169628407,0.023929725363489,1.2135016155088847
2.6938222940226173,-0.5790024232633356,0.07388933764135847,1.2834450726979019
2.701815831987076,-0.8487843295638157,0.12384894991922513,1.3533885298869153
2.7098093699515347,-1.118566235864296,0.1738085621970918,1.4233319870759287
2.7178029079159938,-1.3883481421647907,0.22376817447496122,1.4932754442649459
2.7257964458804524,-1.6581300484652708,0.27372778675282794,1.563218901453959
2.733789983844911,-3.6573505654282727,0.03667205169633525,1.094668820678534
2.74178352180937,-1.6679093658092017,-1.2870648827030093,0.932337793242477
2.749777059773829,-1.8113831241456475,-1.2597365477817815,1.0006586305455465
2.7577705977382876,-1.9548568824820851,-1.2324082128605554,1.068979467848612
2.7657641357027463,-2.098330640818523,-1.205079877939329,1.1373003051516775
2.7737576736672054,-2.2418043991549688,-1.1777515430181014,1.205621142454747
2.781751211631664,-2.385278157491406,-1.150423208096875,1.2739419797578124
2.7897447495961227,-2.5287519158278444,-1.1230948731756487,1.3422628170608781
2.797738287560582,-2.67222567416429,-1.095766538254421,1.4105836543639474
2.8057318255250405,-2.8156994325007276,-1.0684382033331947,1.478904491667013
2.813725363489499,-2.9591731908371655,-1.0411098684119686,1.5472253289700788
2.821718901453958,-3.102646949173603,-1.0137815334907423,1.6155461662731443
2.829712439418417,-3.246120707510049,-0.9864531985695145,1.6838670035762138
2.8377059773828757,-3.3895944658464865,-0.9591248636482883,1.7521878408792793
2.8456995153473343,-3.5330682241829243,-0.931796528727062,1.8205086781823447
2.8536930533117935,-3.67654198251937,-0.9044681938058343,1.8888295154854142
2.861686591276252,-3.6193861066235997,-0.2253634894992,2.5596930533118
2.869680129240711,-5.795677960475364,0.7311239958395119,1.592219001040122
2.8776736672051695,-6.211779936707459,0.774924203863943,1.5812689490340144
2.8856672051696286,-6.6278819129395785,0.8187244118883766,1.5703188970279058
2.8936607431340873,-7.043983889171674,0.8625246199128078,1.5593688450217982
2.901654281098546,-7.460085865403769,0.9063248279372389,1.5484187930156903
2.909647819063005,-7.876187841635888,0.9501250359616724,1.537468741009582
2.9176413570274637,-8.292289817867985,0.9939252439861036,1.526518689003474
2.9256348949919224,-8.70839179410008,1.0377254520105348,1.5155686369973664
2.9336284329563815,-9.124493770332199,1.0815256600349683,1.504618584991258
2.94162197092084,-6.631663974151815,1.8512116316639664,-0.11647819063006293
2.949615508885299,-5.215444264943393,2.1846526655896206,-2.276930533117924
2.9576090468497576,-5.3906061150003,2.365757194997903,-2.440908274995507
2.9656025848142167,-5.380737549612078,2.4348371527154513,-2.588936755818824
2.9735961227786754,-5.370868984223858,2.503917110432995,-2.736965236642133
2.981589660743134,-5.361000418835637,2.5729970681505394,-2.884993717465442
2.989583198707593,-5.351131853447416,2.6420770258680877,-3.0330221982887586
2.997576736672052,-5.341263288059196,2.7111569835856315,-3.181050679112068
3.0055702746365105,-5.331394722670975,2.780236941303176,-3.3290791599353766
3.013563812600969,-5.321526157282754,2.84931689902072,-3.4771076407586854
3.0215573505654283,-5.311657591894533,2.918396856738268,-3.6251361215820026
3.029550888529887,-5.301789026506312,2.987476814455812,-3.7731646024053114
3.0375444264943456,-1.801763597199785,2.3970382337102856,-5.178702207862143
3.0455379644588048,0.027214672621891377,1.8917723082771025,-5.804430295543098
3.0535315024232634,0.4315936520003892,1.7695181982324404,-5.870259431720993
3.061525040387722,0.835972631378887,1.6472640881877783,-5.936088567898889
3.069518578352181,1.2403516107573849,1.5250099781431161,-6.001917704076783
3.07751211631664,1.644730590135905,1.4027558680984473,-6.067746840254682
3.0855056542810986,2.049109569514403,1.2805017580537852,-6.133575976432577
3.0934991922455572,2.4534885488929006,1.158247648009123,-6.199405112610473
3.1014927302100164,2.857867528271421,1.0359935379644543,-6.265234248788371
3.109486268174475,3.2622465076499187,0.913739427919792,-6.331063384966265
3.1174798061389337,3.6666254870284165,0.79148531787513,-6.396892521144161
3.125473344103393,4.0710044664069365,0.669231207830461,-6.46272165732206
3.1334668820678515,1.9144426494344255,-0.3385460420031522,-3.4758966074312734
3.14146042003231,1.2353068579239797,1.0871611425730985,-1.272717427967834
3.149453957996769,1.4285572262955086,1.0168882813470879,-1.1233875978625616
3.157447495961228,1.6218075946670483,0.9466154201210735,-0.9740577677572809
3.1654410339256867,1.8150579630385772,0.8763425588950629,-0.8247279376520086
3.1734345718901453,2.008308331410106,0.8060696976690525,-0.6753981075467361
3.1814281098546044,2.201558699781646,0.735796836443038,-0.5260682774414555
3.189421647819063,2.394809068153175,0.6655239752170274,-0.3767384473361831
3.197415185783522,2.588059436524704,0.5952511139910169,-0.22740861723091066
3.2054087237479805,2.7813098048962326,0.5249782527650063,-0.07807878712563832
3.2134022617124396,2.9745601732677724,0.4547053915389919,0.07125104297964224
3.2213957996768983,3.1678105416393016,0.3844325303129814,0.22058087308491459
3.229389337641357,3.3610609100108304,0.3141596690869709,0.36991070319018715
3.237382875605816,1.6982792107603777,0.00043019730990557066,-0.2
3.2453764135702747,1.6623531974369679,0.009411700640758018,-0.2
3.2533699515347334,1.626427184113558,0.018393203971610466,-0.2
3.2613634894991925,1.5905011707901464,0.027374707302463414,-0.2
3.269357027463651,1.5545751574667366,0.03635621063331586,-0.2
3.27735056542811,1.5186491441433267,0.04533771396416831,-0.2
3.2853441033925685,1.4827231308199171,0.054319217295020754,-0.2
3.2933376413570277,1.4467971174965053,0.0633007206258737,-0.2
3.3013311793214863,1.4108711041730955,0.07228222395672615,-0.2
3.309324717285945,1.3749450908496856,0.0812637272875786,-0.2
3.317318255250404,1.3390190775262738,0.09024523061843154,-0.2
3.325311793214863,1.3030930642028642,0.099226733949284,-0.2
3.3333053311793215,1.8,0.3673667205169592,-0.3663166397415204
3.34129886914378,4.01751519347642,-0.09562120163089488,-0.4043787983691052
3.3492924071082393,4.078418339872299,-0.08039541503192513,-0.4196045849680749
3.357285945072698,4.139321486268175,-0.06516962843295622,-0.4348303715670438
3.3652794830371566,4.20022463266405,-0.04994384183398731,-0.4500561581660127
3.3732730210016157,4.26112777905993,-0.03471805523501756,-0.46528194476498247
3.3812665589660744,4.322030925455805,-0.01949226863604865,-0.48050773136395136
3.389260096930533,4.382934071851681,-0.004266482037079744,-0.49573351796292026
3.397253634894992,4.44383721824756,0.01095930456189001,-0.51095930456189
3.405247172859451,4.504740364643435,0.026185091160858903,-0.5261850911608589
3.4132407108239096,4.565643511039311,0.041410877759827824,-0.5414108777598279
3.4212342487883682,4.626546657435187,0.05663666435879672,-0.5566366643587968
3.4292277867528274,4.687449803831066,0.07186245095776647,-0.5718624509577664
3.437221324717286,4.748352950226941,0.08708823755673539,-0.5870882375567353
3.4452148626817447,5.407431340872309,0.1,-0.6
3.453208400646204,6.268556322514303,0.09469819356734206,-0.7
3.4612019386106625,6.2002926646531344,0.29941467069373146,-1.1002926646531344
3.469195476575121,6.211877502282785,0.27624499543443093,-1.1118775022827847
3.47718901453958,6.223462339912435,0.2530753201751304,-1.1234623399124348
3.485182552504039,6.235047177542086,0.2299056449158286,-1.1350471775420858
3.4931760904684976,6.246632015171736,0.20673596965652807,-1.146632015171736
3.5011696284329563,6.258216852801386,0.18356629439722755,-1.1582168528013863
3.5091631663974154,6.269801690431037,0.16039661913792577,-1.169801690431037
3.517156704361874,6.281386528060687,0.13722694387862525,-1.1813865280606874
3.525150242326333,6.292971365690337,0.11405726861932472,-1.1929713656903376
3.5331437802907915,4.46836833602586,-0.20287560581583086,-1.2971243941841692
3.5411373182552506,3.397598518814325,-0.40240148118567465,-1.3
3.5491308562197093,3.3886170154834727,-0.4113829845165271,-1.3
3.557124394184168,3.3796355121526203,-0.42036448784737956,-1.3
3.565117932148627,3.3706540088217674,-0.42934599117823247,-1.3
3.5731114701130857,3.361672505490915,-0.4383274945090849,-1.3
3.5811050080775444,3.3526910021600624,-0.4473089978399374,-1.3
3.5890985460420035,3.3437094988292095,-0.45629050117079034,-1.3
3.597092084006462,3.334727995498357,-0.46527200450164274,-1.3
3.605085621970921,3.3257464921675046,-0.4742535078324952,-1.3
3.6130791599353795,3.316764988836652,-0.48323501116334766,-1.3
3.6210726978998387,3.3077834855057993,-0.4922165144942006,-1.3
3.6290662358642973,3.214701130856221,-0.5,-1.3
3.637059773828756,1.3059773828755998,-0.3529886914378,-0.9940226171244001
3.645053311793215,1.3774894304471854,-0.3924964768157285,-0.8924964768157285
3.653046849757674,1.3519781390712535,-0.38399271302375126,-0.8839927130237513
3.6610403877221325,1.3264668476953219,-0.37548894923177395,-0.875488949231774
3.669033925686591,1.30095555631939,-0.36698518543979664,-0.8669851854397966
3.6770274636510503,1.2754442649434568,-0.35848142164781893,-0.8584814216478189
3.685021001615509,1.2499329735675249,-0.3499776578558416,-0.8499776578558417
3.6930145395799676,1.224421682191593,-0.3414738940638643,-0.8414738940638644
3.7010080775444267,1.1989103908156598,-0.3329701302718866,-0.8329701302718866
3.7090016155088854,1.1733990994397279,-0.3244663664799093,-0.8244663664799093
3.716995153473344,1.147887808063796,-0.31596260268793197,-0.8159626026879321
3.724988691437803,1.1223765166878628,-0.3074588388959542,-0.8074588388959543
3.732982229402262,0.8544426494345556,-0.15266558966073335,-0.7508885298869111
3.7409757673667206,0.29811831679359935,0.2,-0.7018816832064005
3.7489693053311792,0.2905054234941149,0.2,-0.7094945765058851
3.7569628432956383,0.28289253019463,0.2,-0.71710746980537
3.764956381260097,0.27527963689514556,0.2,-0.7247203631048544
3.7729499192245557,0.2676667435956611,0.2,-0.7323332564043389
3.780943457189015,0.2600538502961762,0.2,-0.7399461497038238
3.7889369951534735,0.2524409569966918,0.2,-0.7475590430033082
3.796930533117932,0.24482806369720733,0.2,-0.7551719363027927
3.804924071082391,0.23721517039772289,0.2,-0.7627848296022771
3.81291760904685,0.22960227709823802,0.2,-0.770397722901762
3.8209111470113086,0.22198938379875355,0.2,-0.7780106162012465
3.8289046849757673,0.2143764904992691,0.2,-0.7856235095007309
3.8368982229402264,0.20676359719978424,0.2,-0.7932364028002158
3.844891760904685,0.2,0.24458804523425676,-0.8
3.8528852988691438,0.13740637391687627,0.23740637391687627,-0.8
3.860878836833603,-0.2960052871199863,0.09600528711998632,-0.7986684290399955
3.8688723747980616,-0.2596710236451743,0.05967102364517431,-0.7865570078817248
3.8768659127625202,-0.2233367601703623,0.023336760170362306,-0.7744455867234541
3.884859450726979,-0.1870024966955503,-0.012997503304449709,-0.7623341655651834
3.892852988691438,-0.15066823322073628,-0.049331766779263736,-0.7502227444069121
3.9008465266558967,-0.11433396974592427,-0.08566603025407576,-0.7381113232486414
3.9088400646203554,-0.07799970627111227,-0.12200029372888777,-0.7259999020903707
3.9168336025848145,-0.04166544279629825,-0.1583345572037018,-0.7138884809320993
3.924827140549273,-0.005331179321486246,-0.1946688206785138,-0.7017770597738288
3.932820678513732,0.24820678513731803,0.0,-0.5553796445880459
3.9408142164781905,0.2061927840603111,0.0938072159396889,-0.5876144318793778
3.9488077544426496,0.4,0.01512834320588774,-1.3302566864117755
3.9568012924071083,0.4,0.032891760904684826,-1.3657835218093697
3.964794830371567,0.4,0.050655178603481905,-1.4013103572069638
3.972788368336026,0.4,0.06841859630227998,-1.43683719260456
3.980781906300485,0.4,0.08618201400107706,-1.4723640280021542
3.9887754442649435,0.4,0.10394543169987415,-1.5078908633997483
3.996768982229402,0.4,0.12170884939867123,-1.5434176987973425
4.004762520193861,0.4,0.13947226709746832,-1.5789445341949366
4.01275605815832,0.4,0.15723568479626737,-1.6144713695925348
4.020749596122779,0.4,0.17499910249506445,-1.649998204990129
4.028743134087238,0.4,0.19276252019386153,-1.685525040387723
4.036736672051696,0.23949919224553334,-0.1263327948303556,-0.2868336025848222
4.044730210016155,-0.1062969340836872,-0.08110919774893839,-0.6251877363347488
4.052723747980614,-0.11508104173693848,-0.05475687478918457,-0.6603241669477539
4.060717285945072,-0.12386514939018975,-0.028404551829430746,-0.695460597560759
4.068710823909532,-0.132649257043442,-0.0020522288696740026,-0.7305970281737679
4.076704361873991,-0.14143336469669326,0.024300094090079827,-0.765733458786773
4.084697899838449,-0.15021747234994454,0.05065241704983364,-0.8008698893997781
4.092691437802908,-0.1590015800031958,0.07700474000958746,-0.8360063200127832
4.100684975767367,-0.16778568765644708,0.1033570629693413,-0.8711427506257883
4.108678513731825,-0.17656979530969835,0.12970938592909512,-0.9062791812387934
4.116672051696284,-0.18535390296294962,0.15606170888884893,-0.9414156118517985
4.124665589660744,-0.1941380106162019,0.1824140318486057,-0.9765520424648075
4.132659127625202,0.29773828756071197,0.13634894991905067,-1.3022617124392881
4.140652665589661,0.7062976992925195,0.5094465489387794,-1.4188930978775587
4.14864620355412,0.7200796613002068,0.5301194919503104,-1.4602389839006207
4.156639741518578,0.7338616233078942,0.5507924349618413,-1.5015848699236825
4.164633279483037,0.7476435853155815,0.5714653779733723,-1.5429307559467444
4.172626817447496,0.7614255473232687,0.5921383209849032,-1.5842766419698062
4.180620355411955,0.7752075093309576,0.6128112639964365,-1.6256225279928729
4.188613893376414,0.7889894713386449,0.6334842070079674,-1.6669684140159347
4.1966074313408726,0.8027714333463323,0.6541571500194984,-1.7083143000389966
4.204600969305331,0.8165533953540195,0.6748300930310294,-1.7496601860620586
4.21259450726979,0.8303353573617068,0.6955030360425603,-1.7910060720851204
4.220588045234249,0.8441173193693942,0.7161759790540912,-1.8323519581081824
4.228581583198707,0.8578992813770815,0.7368489220656222,-1.8736978441312444
4.236575121163167,0.8716812433847703,0.7575218650771555,-1.9150437301543108
4.2445686591276255,0.8854632053924576,0.7781948080886865,-1.9563896161773728
4.252562197092084,0.8992451674001449,0.7988677511002173,-1.9977355022004346
4.260555735056543,0.9,0.8204209055582237,-2.1429463389075654
4.2685492730210015,0.9,0.8420250622189228,-2.2941754355324595
4.27654281098546,0.9,0.863629218879622,-2.4454045321573536
4.28453634894992,0.9,0.8852333755403236,-2.5966336287822647
4.292529886914378,0.9940226171243138,0.4820678513729415,-1.7290791599350985
4.300523424878837,0.09243366454953818,-0.43026534180184733,-1.3319029809458434
4.308516962843296,0.08148361254343045,-0.47406554982627824,-1.233352512890874
4.3165105008077544,0.07053356053732274,-0.5178657578507091,-1.1348020448359046
4.324504038772213,0.05958350853121503,-0.56166596587514,-1.036251576780935
4.332497576736672,0.04863345652510732,-0.6054661738995708,-0.9377011087259657
4.340491114701131,0.03768340451899838,-0.6492663819240065,-0.8391506406709853
4.34848465266559,0.026733352512890676,-0.6930665899484374,-0.740600172616016
4.356478190630049,0.01578330050678295,-0.7368667979728682,-0.6420497045610465
4.364471728594507,0.004833248500675236,-0.7806670059972991,-0.5434992365060771
4.372465266558966,0.03957996768980465,-0.053473344103398456,-0.8465266558966016
4.380458804523425,0.23858002339702344,-0.03858002339702345,-0.9128600077990079
4.388452342487883,0.27992590942008566,-0.07992590942008568,-0.9266419698066952
4.396445880452343,0.32127179544315254,-0.1212717954431525,-0.9404239318143842
4.404439418416802,0.36261768146621476,-0.16261768146621475,-0.9542058938220715
4.41243295638126,0.403963567489277,-0.20396356748927696,-0.967987855829759
4.420426494345719,0.4453094535123392,-0.2453094535123392,-0.9817698178374464
4.428420032310178,0.48665533953540147,-0.28665533953540145,-0.9955517798451339
4.436413570274636,0.5345718901454957,-0.5413570274636261,-0.6518578352182435
4.444407108239095,0.26814146993937743,-0.6,-0.22035367484844365
4.452400646203555,0.233760661490089,-0.6,-0.1344016537252225
4.460394184168013,0.19937985304080436,-0.6,-0.048449632602010906
4.468387722132472,0.16499904459151973,-0.6,0.037502388521200636
4.476381260096931,0.13061823614223508,-0.6,0.12345440964441223
4.484374798061389,0.09623742769295046,-0.6,0.20940643076762383
4.492368336025848,0.06185661924366581,-0.6,0.29535845189083537
4.500361873990307,0.02747581079438116,-0.6,0.3813104730140469
4.508355411954766,-0.006904997654907263,-0.6,0.4672624941372681
4.516348949919225,-0.04128580610419191,-0.6,0.5532145152604797
4.5243424878836835,-0.07566661455347656,-0.6,0.6391665363836911
4.532336025848142,0.022670974690411405,-0.1773290253095886,1.1663974151857532
4.540329563812601,0.6,0.2,0.06760904684981434
4.54832310177706,0.5852058549958399,0.20739707250208006,-0.09260292749791996
4.556316639741518,0.5690572934514788,0.2154713532742606,-0.08452864672573943
4.564310177705978,0.552908731907116,0.223545634046442,-0.07645436595355799
4.5723037156704365,0.5367601703627549,0.23161991481862254,-0.06838008518137745
4.580297253634895,0.5206116088183939,0.23969419559080307,-0.06030580440919692
4.588290791599354,0.5044630472740328,0.2477684763629836,-0.05223152363701638
4.5962843295638125,0.48831448572967173,0.25584275713516413,-0.04415724286483584
4.604277867528271,0.47216592418531067,0.26391703790734466,-0.03608296209265531
4.612271405492731,0.4560173626409478,0.2719913186795261,-0.028008681320473877
4.620264943457189,0.4398688010965867,0.2800655994517066,-0.019934400548293332
4.628258481421648,0.42372023955222565,0.28813988022388715,-0.011860119776112801
4.636252019386107,0.40757167800786454,0.29621416099606773,-0.0037858390039322565
4.644245557350565,0.36140402408576633,0.3,-0.11578792774270111
4.652239095315024,0.07369951534736231,-0.19043618739904086,-0.3047819063004796
4.660232633279483,-0.8055896607431108,0.12930533117931292,-0.46465266558965646
4.668226171243942,0.0,-0.1,-0.6063077182745412
4.676219709208401,0.0,-0.1,-0.6182383719528377
4.68421324717286,0.0,-0.1,-0.6301690256311342
4.692206785137318,0.0,-0.1,-0.6420996793094307
4.700200323101777,0.0,-0.1,-0.6540303329877272
4.708193861066236,0.0,-0.1,-0.6659609866660237
4.716187399030694,0.0,-0.1,-0.6778916403443203
4.724180936995154,0.0,-0.1,-0.689822294022618
4.732174474959613,-0.17617124394193326,0.017447495961288834,-0.7
4.740168012924071,0.1,0.0,-0.46106623586428724
4.74816155088853,0.1,0.007164594056430194,-0.3785062178307094
4.756155088852989,0.1,0.016459405643010017,-0.35062178307097
4.764148626817447,0.1,0.02575421722958984,-0.32273734831123047
4.772142164781906,0.1,0.03504902881616966,-0.294852913551491
4.780135702746366,0.1,0.044343840402750516,-0.26696847879174845
4.788129240710824,0.1,0.05363865198933034,-0.239084044032009
4.796122778675283,0.1,0.06293346357591016,-0.21119960927226952
4.804116316639742,0.1,0.07222827516248999,-0.18331517451253004
4.8121098546042,0.1,0.08152308674906981,-0.1554307397527906
4.820103392568659,0.1,0.09081789833564963,-0.12754630499305109
4.828096930533118,0.09030694668826232,0.1,-0.1
4.836090468497577,0.044149549965387676,0.1,-0.08829909993077535
4.844084006462036,0.1,0.1,-0.19591599353796404
4.8520775444264945,0.1,0.1,-0.1879224555735054
4.860071082390953,0.1,0.1,-0.17992891760904678
4.868064620355412,0.1,0.1,-0.17193537964458813
4.8760581583198706,0.1,0.1,-0.1639418416801295
4.88405169628433,0.1,0.1,-0.15594830371566998
4.892045234248789,0.1,0.1,-0.14795476575121136
4.9000387722132475,0.1,0.1,-0.1399612277867527
4.908032310177706,0.1,0.1,-0.1319676898222941
4.916025848142165,0.1,0.1,-0.12397415185783546
4.9240193861066235,0.1,0.1,-0.11598061389337683
4.932012924071082,0.1,0.1,-0.1079870759289182
4.940006462035542,0.10032310177706667,0.09967689822293334,-0.1009693053312
4.948,0.3,0.0,-0.1
