accel_time_list,accel_x_list,accel_y_list,accel_z_list
0.0,0.8,4.1,8.9
0.007998632946001368,0.765478158205431,3.090915304790903,9.476379792456347
0.015997265892002736,0.6273199527744983,3.0545578823090787,9.381850494003604
0.023995898838004105,0.48916174734356543,3.0182004598272543,9.287321195550861
0.03199453178400547,0.3510035419126328,2.98184303734543,9.192791897098116
0.03999316473000684,0.21284533648170012,2.9454856148636055,9.098262598645373
0.04799179767600821,0.0746871310507673,2.909128192381781,9.00373330019263
0.05599043062200958,-0.06347107438016542,2.8727707698999567,8.909204001739887
0.06398906356801094,-0.20162927981109813,2.836413347418132,8.814674703287142
0.07198769651401231,-0.3397874852420306,2.800055924936308,8.7201454048344
0.07998632946001367,-0.47794569067296333,2.7636985024544836,8.625616106381656
0.08798496240601504,-0.616103896103896,2.727341079972659,8.531086807928913
0.09598359535201642,-0.754262101534829,2.6909836574908343,8.436557509476168
0.10398222829801779,-0.8924203069657617,2.65462623500901,8.342028211023425
0.11198086124401915,-1.0305785123966944,2.6182688125271856,8.247498912570682
0.11997949419002052,0.6509774436090292,3.8734381408065666,8.995898838004104
0.12797812713602189,0.7042320501447041,4.187303849565888,8.9
0.13597676008202325,0.7127412341298119,4.161776297610564,8.9
0.14397539302802462,0.7212504181149197,4.136248745655241,8.9
0.15197402597402598,0.7297596021000277,4.110721193699917,8.9
0.15997265892002735,0.7382687860851355,4.085193641744594,8.9
0.16797129186602872,0.7467779700702433,4.05966608978927,8.9
0.17596992481203008,0.7552871540553512,4.034138537833947,8.9
0.18396855775803145,0.763796338040459,4.008610985878623,8.9
0.19196719070403284,0.7723055220255669,3.9830834339232997,8.9
0.1999658236500342,0.7808147060106747,3.957555881967976,8.9
0.20796445659603557,0.7893238899957825,3.9320283300126526,8.9
0.21596308954203694,0.7978330739808904,3.906500778057329,8.9
0.2239617224880383,0.7307814992025534,3.9653907496012764,8.732695374800638
0.23196035543403967,1.0932998458090257,3.998883307634838,9.0
0.23995898838004104,1.0374954299066905,3.9895825716511153,9.0
0.2479576213260424,0.9816910140043554,3.9802818356673924,9.0
0.25595625427204377,0.9258865981020203,3.97098109968367,9.0
0.26395488721804516,0.870082182199685,3.9616803636999474,9.0
0.2719535201640465,0.81427776629735,3.952379627716225,9.0
0.2799521531100479,0.7584733503950147,3.9430788917325024,9.0
0.28795078605604923,0.7026689344926798,3.93377815574878,9.0
0.29594941900205063,0.6468645185903446,3.9244774197650574,9.0
0.30394805194805197,0.5910601026880096,3.915176683781335,9.0
0.31194668489405336,0.5352556867856743,3.9058759477976124,9.0
0.3199453178400547,0.7356254272043754,3.9,9.0
0.3279439507860561,0.8838004101161994,4.1,9.1
0.33594258373205743,0.8171451355661883,4.1,9.1
0.3439412166780588,0.8146696708100218,4.107334835405011,9.1
0.35193984962406016,0.8344193817878028,4.117209690893901,9.1
0.35993848257006156,0.8541690927655841,4.127084546382791,9.1
0.3679371155160629,0.8739188037433652,4.136959401871683,9.1
0.3759357484620643,0.8936685147211464,4.146834257360573,9.1
0.3839343814080657,0.9134182256989276,4.156709112849463,9.1
0.391933014354067,0.9331679366767087,4.1665839683383545,9.1
0.3999316473000684,0.9529176476544899,4.176458823827245,9.1
0.40793028024606975,0.972667358632271,4.186333679316135,9.1
0.41592891319207115,0.9924170696100523,4.196208534805026,9.1
0.4239275461380725,0.8036226930963751,4.003622693096375,8.903622693096375
0.4319261790840739,0.7092349054454318,4.090765094554568,8.790765094554569
0.4399248120300752,0.7198997493734336,4.0801002506265664,8.780100250626568
0.4479234449760766,0.7305645933014355,4.069435406698564,8.769435406698564
0.45592207792207795,0.7412294372294372,4.058770562770563,8.758770562770563
0.46392071086807934,0.7518942811574392,4.048105718842561,8.748105718842561
0.4719193438140807,0.7625591250854409,4.037440874914559,8.737440874914558
0.4799179767600821,0.7732239690134428,4.026776030986557,8.726776030986557
0.4879166097060834,0.7838888129414446,4.016111187058556,8.716111187058555
0.4959152426520848,0.7945536568694465,4.005446343130553,8.705446343130554
0.5039138755980862,0.65430622009569,3.80861244019138,8.51722488038276
0.5119125085440875,0.5763252600284938,3.2177560549786297,8.0
0.5199111414900889,0.5377776313730657,3.246666776470201,8.0
0.5279097744360903,0.49923000271763696,3.2755774979617724,8.0
0.5359084073820917,0.4606823740622088,3.3044882194533436,8.0
0.543907040328093,0.42213474540678064,3.3333989409449147,8.0
0.5519056732740943,0.3835871167513525,3.362309662436486,8.0
0.5599043062200958,0.3450394880959238,3.391220383928057,8.0
0.5679029391660971,0.3064918594404956,3.420131105419628,8.0
0.5759015721120985,0.26794423078506746,3.4490418269111993,8.0
0.5839002050580998,0.2293966021296393,3.4779525484027705,8.0
0.5918988380041013,-0.11924128503030218,4.076452494873392,7.31459330143545
0.5998974709501026,3.834309800475213,2.672629083531339,7.7
0.6078961038961039,3.7581323438466288,2.640888476602762,7.7
0.6158947368421053,3.6819548872180445,2.6091478696741857,7.7
0.6238933697881067,3.6057774305894594,2.5774072627456084,7.7
0.6318920027341081,3.529599973960875,2.5456666558170316,7.7
0.6398906356801094,3.453422517332291,2.5139260488884547,7.7
0.6478892686261108,3.377245060703706,2.4821854419598774,7.7
0.6558879015721122,3.3010676040751217,2.450444835031301,7.7
0.6638865345181135,3.224890147446538,2.4187042281027242,7.7
0.6718851674641149,3.1487126908179537,2.3869636211741474,7.7
0.6798838004101163,3.072535234189368,2.35522301424557,7.7
0.6878824333561177,2.9963577775607844,2.3234824073169937,7.7
0.695881066302119,2.9201803209322,2.291741800388417,7.7
0.7038796992481203,2.844002864303616,2.26000119345984,7.7
0.7118783321941218,2.767825407675031,2.228260586531263,7.7
0.7198769651401231,0.9460697197537165,2.4630895420369425,7.7
0.7278755980861245,-0.6251946011568958,1.891601799614368,7.519595800899808
0.7358742310321258,-0.7326389243121376,1.8557870252292874,7.603163607798329
0.7438728639781272,-0.840083247467381,1.8199722508442062,7.686731414696852
0.7518714969241286,-0.9475275706226227,1.7841574764591257,7.770299221595373
0.7598701298701299,-1.0549718937778645,1.7483427020740452,7.8538670284938945
0.7678687628161314,-1.1624162169331078,1.712527927688964,7.937434835392416
0.7758673957621327,-1.2698605400883496,1.6767131533038835,8.021002642290938
0.783866028708134,-1.3773048632435914,1.640898378918803,8.10457044918946
0.7918646616541354,-1.4847491863988331,1.6050836045337225,8.188138256087981
0.7998632946001368,-1.58579118250171,0.7420881749829017,7.8568352699931605
0.8078619275461382,-2.8930963773069056,1.003349282296683,6.244771018455247
0.8158605604921395,-2.987339561023772,1.0199387357282093,6.329113187007923
0.8238591934381408,-3.0762132604237866,0.9384711779448623,6.358737753474595
0.8318578263841423,-3.1650869598238027,0.8570036201615142,6.388362319941267
0.8398564593301436,-3.2539606592238175,0.7755360623781673,6.417986886407939
0.847855092276145,-3.3428343586238323,0.6940685045948203,6.447611452874611
0.8558537252221463,-3.4317080580238475,0.6126009468114733,6.477236019341283
0.8638523581681478,-3.520581757423863,0.5311333890281252,6.506860585807955
0.8718509911141491,-3.609455456823878,0.4496658312447782,6.536485152274627
0.8798496240601504,-3.698329156223893,0.3681982734614312,6.566109718741298
0.8878482570061518,-3.787202855623908,0.2867307156780843,6.5957342852079694
0.8958468899521532,-3.876076555023924,0.20526315789473615,6.625358851674641
0.9038455228981546,-3.964950254423939,0.12379560011138913,6.654983418141313
0.9118441558441559,-4.0538239538239536,0.042328042328042104,6.684607984607985
0.9198427887901574,-5.415721120984269,-3.1314422419685375,6.18427887901573
0.9278414217361587,-5.3209431277637504,-2.9628293832912527,6.334905212939585
0.93584005468216,-5.345428738822939,-3.0362862164688162,6.375714564704897
0.9438386876281614,-5.3699143498821265,-3.10974304964638,6.416523916470211
0.9518373205741628,-5.394399960941315,-3.1831998828239443,6.457333268235525
0.9598359535201642,-5.4188855720005025,-3.2566567160015074,6.498142620000837
0.9678345864661655,-5.44337118305969,-3.330113549179071,6.53895197176615
0.9758332194121668,-5.467856794118878,-3.4035703823566346,6.579761323531463
0.9838318523581683,-5.492342405178066,-3.477027215534199,6.6205706752967775
0.9918304853041696,-5.516828016237254,-3.550484048711762,6.66138002706209
0.999829118250171,-5.541313627296441,-3.6239408818893253,6.702189378827403
1.0078277511961724,-5.56579923835563,-3.6973977150668897,6.742998730592717
1.0158263841421737,-5.590284849414817,-3.7708545482444533,6.783808082358029
1.023825017088175,-7.136500341763502,-4.6,6.853998632945991
1.0318236500341764,-8.308384597858282,-5.80209614946457,5.995807701070859
1.0398222829801778,-8.345159921747944,-5.811289980436986,5.977420039126028
1.047820915926179,-8.381935245637605,-5.820483811409401,5.959032377181197
1.0558195488721807,-8.418710569527267,-5.829677642381816,5.940644715236366
1.063818181818182,-8.45548589341693,-5.838871473354232,5.922257053291536
1.0718168147641833,-8.49226121730659,-5.8480653043266475,5.903869391346705
1.0798154477101847,-8.529036541196252,-5.857259135299063,5.885481729401874
1.087814080656186,-8.565811865085912,-5.866452966271479,5.867094067457043
1.0958127136021873,-8.602587188975575,-5.875646797243894,5.848706405512213
1.1038113465481887,-8.639362512865235,-5.884840628216309,5.830318743567382
1.11180997949419,-8.676137836754895,-5.894034459188725,5.811931081622552
1.1198086124401916,-8.746810207336527,-5.9,5.659569377990421
1.127807245386193,-9.103833965077987,-5.565388678307338,5.434611321692662
1.1358058783321943,-9.420881749829139,-5.338824333561149,5.5
1.1438045112781956,-9.608505639097745,-5.108505639097745,5.5
1.151803144224197,-9.618503930280246,-5.118503930280246,5.5
1.1598017771701983,-9.628502221462748,-5.128502221462748,5.5
1.1678004101161996,-9.63850051264525,-5.138500512645249,5.5
1.1757990430622012,-9.648498803827751,-5.148498803827751,5.5
1.1837976760082025,-9.658497095010253,-5.158497095010253,5.5
1.1917963089542039,-9.668495386192754,-5.168495386192755,5.5
1.1997949419002052,-9.678493677375256,-5.178493677375257,5.5
1.2077935748462065,-9.688491968557758,-5.188491968557758,5.5
1.2157922077922079,-9.69849025974026,-5.19849025974026,5.5
1.2237908407382092,-10.079084073820912,-4.881373889268632,4.40228981544772
1.2317894736842105,-10.305321637426902,-4.5,3.4840350877192985
1.239788106630212,-10.314209007366903,-4.5,3.4573729778992934
1.2477867395762134,-10.323096377306904,-4.5,3.430710868079289
1.2557853725222148,-10.331983747246905,-4.5,3.404048758259284
1.2637840054682161,-10.340871117186907,-4.5,3.3773866484392796
1.2717826384142175,-10.349758487126909,-4.5,3.3507245386192754
1.2797812713602188,-10.35864585706691,-4.5,3.324062428799271
1.2877799043062201,-10.367533227006911,-4.5,3.297400318979266
1.2957785372522217,-10.376420596946913,-4.5,3.270738209159261
1.303777170198223,-10.385307966886915,-4.5,3.2440760993392566
1.3117758031442244,-10.394195336826916,-4.5,3.217413989519252
1.3197744360902257,-10.6,-4.7,2.9
1.327773069036227,-10.38508415926179,-4.990056106174527,2.080112212349054
1.3357717019822284,-10.360088431305536,-4.973392287537024,2.046784575074048
1.3437703349282297,-10.335092703349282,-4.956728468899521,2.0134569377990426
1.351768967874231,-10.310096975393028,-4.940064650262019,1.9801293005240372
1.3597676008202326,-10.285101247436772,-4.923400831624515,1.9468016632490306
1.367766233766234,-10.260105519480518,-4.906737012987012,1.913474025974025
1.3757648667122353,-10.235109791524264,-4.89007319434951,1.8801463886990195
1.3837634996582366,-10.21011406356801,-4.873409375712007,1.846818751424014
1.391762132604238,-10.185118335611756,-4.856745557074504,1.8134911141490084
1.3997607655502393,-10.160122607655502,-4.840081738437001,1.780163476874003
1.4077593984962407,-10.135126879699248,-4.823417919799499,1.7468358395989974
1.4157580314422422,-10.110131151742992,-4.806754101161995,1.713508202323991
1.4237566643882436,-10.05469843439768,-4.73204765159652,1.6773492171988402
1.431755297334245,-9.978520977769096,-4.6177814666536445,1.6392604888845481
1.4397539302802462,-9.902343521140512,-4.503515281710768,1.601171760570256
1.4477525632262476,-9.584707982076402,-3.788530986557302,1.2961769955191007
1.455751196172249,-9.540271132376395,-3.7552033492822963,1.2850677830940989
1.4637498291182502,-9.495834282676388,-3.7218757120072907,1.273958570669097
1.4717484620642516,-9.45139743297638,-3.688548074732285,1.262849358244095
1.4797470950102531,-9.406960583276371,-3.6552204374572783,1.2517401458190929
1.4877457279562545,-9.362523733576364,-3.6218928001822728,1.240630933394091
1.4957443609022558,-9.318086883876356,-3.5885651629072672,1.229521720969089
1.5037429938482572,-9.273650034176349,-3.5552375256322617,1.2184125085440871
1.5117416267942585,-9.22921318447634,-3.521909888357256,1.2073032961190853
1.5197402597402598,-9.183549783549779,-3.2835497835497796,1.0835497835497796
1.5277388926862612,-9.005802384749753,-3.1058023847497522,0.9058023847497522
1.5357375256322627,-8.63687628161314,-2.9631237183868593,0.8631237183868593
1.543736158578264,-8.708526783010461,-2.891473216989539,0.8
1.5517347915242654,-8.718651634840842,-2.8813483651591576,0.8
1.5597334244702667,-8.728776486671224,-2.871223513328776,0.8
1.567732057416268,-8.738901338501606,-2.861098661498395,0.8
1.5757306903622694,-8.749026190331987,-2.8509738096680133,0.8
1.5837293233082708,-8.759151042162369,-2.8408489578376317,0.8
1.591727956254272,-8.76927589399275,-2.8307241060072506,0.8
1.5997265892002737,-8.779400745823132,-2.8205992541768685,0.8
1.607725222146275,-8.789525597653514,-2.8104744023464874,0.8
1.6157238550922763,-8.799650449483895,-2.800349550516106,0.8
1.6237224880382777,-8.0,-2.1977655009125434,0.19776550091254327
1.631721120984279,-8.0,-2.173027460873364,0.17302746087336385
1.6397197539302804,-8.0,-2.1482894208341845,0.14828942083418445
1.6477183868762817,-8.0,-2.1235513807950053,0.12355138079500504
1.655717019822283,-8.0,-2.0988133407558256,0.09881334075582564
1.6637156527682846,-8.0,-2.0740753007166455,0.07407530071664553
1.671714285714286,-8.0,-2.0493372606774662,0.04933726067746613
1.6797129186602873,-8.0,-2.0245992206382866,0.024599220638286734
1.6877115516062886,-8.0,-1.9998611805991073,-0.0001388194008926924
1.69571018455229,-8.0,-1.9751231405599279,-0.02487685944007209
1.7037088174982913,-8.0,-1.9503851005207484,-0.04961489947925152
1.7117074504442926,-8.0,-1.9256470604815692,-0.07435293951843092
1.7197060833902942,-8.0,-1.900909020442389,-0.09909097955761098
1.7277047163362955,-7.100783018151439,-1.5992169818485606,0.10078301815143938
1.7357033492822969,-7.10967038809144,-1.5903296119085593,0.10967038809144088
1.7437019822282982,-7.118557758031442,-1.5814422419685576,0.11855775803144238
1.7517006151742995,-7.127445127971444,-1.5725548720285563,0.1274451279714439
1.7596992481203009,-7.136332497911445,-1.5636675020885547,0.1363324979114454
1.7676978810663022,-7.145219867851447,-1.5547801321485533,0.1452198678514469
1.7756965140123036,-7.1541072377914485,-1.5458927622085517,0.1541072377914484
1.7836951469583051,-7.16299460773145,-1.5370053922685498,0.16299460773145014
1.7916937799043064,-7.171881977671451,-1.5281180223285484,0.17188197767145164
1.7996924128503078,-7.180769347611453,-1.5192306523885468,0.18076934761145314
1.8076910457963091,-7.189656717551455,-1.5103432824485454,0.18965671755145463
1.8156896787423105,-7.198544087491456,-1.5014559125085438,0.19854408749145613
1.8236883116883118,-6.546753246753239,-1.1688311688311737,-0.031168831168826266
1.8316869446343131,-6.549593191189117,-1.2082655318648527,-0.008265531864852772
1.8396855775803147,-6.601197274711708,-1.2168662124519511,-0.01686621245195123
1.847684210526316,-6.652801358234297,-1.2254668930390493,-0.025466893039049445
1.8556828434723174,-6.704405441756886,-1.2340675736261477,-0.03406757362614766
1.8636814764183187,-6.756009525279475,-1.242668254213246,-0.042668254213245875
1.87168010936432,-6.807613608802065,-1.251268934800344,-0.05126893480034409
1.8796787423103214,-6.859217692324654,-1.2598696153874422,-0.05986961538744231
1.8876773752563227,-6.910821775847243,-1.2684702959745406,-0.06847029597454052
1.895676008202324,-6.962425859369832,-1.2770709765616388,-0.07707097656163873
1.9036746411483256,-7.014029942892423,-1.2856716571487372,-0.0856716571487372
1.911673274094327,-7.065634026415012,-1.2942723377358354,-0.09427233773583542
1.9196719070403283,-7.248439280018238,-1.2109364319890568,-0.21875142401459113
1.9276705399863296,-7.265892002734058,-0.8329460013670291,-0.6670539986329709
1.935669172932331,-7.370580521070119,-1.0837121874453572,-0.43800489596083325
1.9436678058783323,-7.491490088858511,-1.0558099794941898,-0.5031100478468908
1.9516664388243337,-7.612399656646904,-1.0279077715430223,-0.5682151997329483
1.9596650717703352,-7.7333092244353,-1.0000055635918539,-0.6333203516190077
1.9676637047163366,-7.854218792223692,-0.9721033556406864,-0.6984255035050652
1.975662337662338,-7.975128360012085,-0.9442011476895189,-0.7635306553911227
1.9836609706083392,-8.096037927800477,-0.9162989397383514,-0.8286358072771802
1.9916596035543406,-8.216947495588869,-0.8883967317871839,-0.8937409591632377
1.999658236500342,-8.337857063377262,-0.8604945238360164,-0.9588461110492953
2.0076568694463433,-8.458766631165656,-0.8325923158848489,-1.0239512629353529
2.015655502392345,-8.57967619895405,-0.8046901079336806,-1.0890564148214121
2.023654135338346,-8.101611170784084,-0.3664876476906574,-1.1670247046186852
2.0316527682843475,-8.182291768381988,0.21180548774534058,-0.9970486280636649
2.0396514012303486,-8.096592129674834,0.2689385802167771,-0.9827653549458057
2.04765003417635,-8.010892490967674,0.3260716726882168,-0.9684820818279458
2.0556486671223517,-7.925192852260515,0.3832047651596564,-0.9541988087100859
2.063647300068353,-7.83949321355336,0.4403378576310929,-0.9399155355922267
2.0716459330143544,-7.753793574846201,0.4974709501025326,-0.9256322624743669
2.0796445659603555,-7.668093936139046,0.5546040425739691,-0.9113489893565078
2.087643198906357,-7.582394297431886,0.6117371350454088,-0.8970657162386478
2.095641831852358,-7.496694658724731,0.6688702275168452,-0.8827824431207887
2.1036404647983598,-7.410995020017572,0.7260033199882849,-0.8684991700029288
2.1116390977443613,-7.325295381310413,0.7831364124597247,-0.8542158968850688
2.1196377306903624,-7.239595742603258,0.840269504931161,-0.8399326237672098
2.127636363636364,-7.153896103896098,0.8974025974026008,-0.8256493506493499
2.135634996582365,-7.068196465188944,0.9545356898740374,-0.8113660775314907
2.1436336295283667,-6.264866712235038,1.2450444292549874,-0.7183185235816709
2.151632262474368,-7.547744360902352,2.4316131237183956,-0.7580656185919783
2.1596308954203693,-8.25195003318573,2.403900066371459,-1.1192199867257082
2.1676295283663705,-8.193988924881374,2.287977849762747,-1.1424044300474507
2.175628161312372,-8.136027816577014,2.1720556331540286,-1.1655888733691944
2.1836267942583736,-8.078066708272656,2.0561334165453102,-1.188773316690938
2.1916254272043747,-8.0201055999683,1.9402111999365985,-1.2119577600126803
2.1996240601503763,-7.96214449166394,1.8242889833278801,-1.235142203334424
2.2076226930963774,-7.904183383359584,1.7083667667191682,-1.2583266466561664
2.215621326042379,-7.846222275055225,1.5924445501104498,-1.28151108997791
2.22361995898838,-8.042993848256984,0.2850307587150782,-1.5429938482569845
2.2316185919343816,-11.735673274094342,-2.040416951469605,-2.1785577580314475
2.239617224880383,-12.40568496600353,-3.003248552002017,-2.400812138000504
2.2476158578263843,-12.479356585243014,-3.0453466201388655,-2.411336655034716
2.255614490772386,-12.553028204482503,-3.0874446882757156,-2.4218611720689287
2.263613123718387,-12.626699823721987,-3.1295427564125635,-2.432385689103141
2.2716117566643885,-12.700371442961474,-3.1716408245494137,-2.4429102061373533
2.2796103896103896,-12.774043062200958,-3.2137388926862616,-2.4534347231715654
2.287609022556391,-12.847714681440445,-3.255836960823112,-2.463959240205778
2.2956076555023928,-12.921386300679934,-3.2979350289599623,-2.4744837572399905
2.303606288448394,-12.995057919919418,-3.34003309709681,-2.4850082742742026
2.3116049213943954,-13.068729539158905,-3.3821311652336603,-2.495532791308415
2.3196035543403966,-14.879289131920666,-2.841421736158669,-3.4810663021190016
2.327602187286398,-14.76379910816001,-2.978279464896005,-3.621720535103995
2.3356008202323992,-14.725710379845719,-2.9554262279074304,-3.6445737720925697
2.343599453178401,-14.687621651531424,-2.9325729909188545,-3.6674270090811456
2.3515980861244024,-14.649532923217132,-2.9097197539302786,-3.6902802460697215
2.3595967190704035,-14.611444194902841,-2.886866516941704,-3.713133483058296
2.367595352016405,-14.573355466588547,-2.864013279953128,-3.735986720046872
2.375593984962406,-14.535266738274256,-2.8411600429645536,-3.7588399570354465
2.3835926179084077,-14.497178009959963,-2.8183068059759777,-3.7816931940240224
2.391591250854409,-14.459089281645673,-2.795453568987403,-3.804546431012597
2.3995898838004104,-14.421000553331378,-2.7726003319988273,-3.827399668001173
2.4075885167464115,-14.382911825017088,-2.7497470950102523,-3.8502529049897474
2.415587149692413,-14.344823096702795,-2.7268938580216764,-3.8731061419783233
2.4235857826384146,-14.306734368388502,-2.704040621033101,-3.895959378966899
2.4315844155844157,-13.286753246753271,-1.9018181818182227,-2.0132467532467295
2.4395830485304173,-13.42244221089915,-2.1523651587646846,-1.8775577891008495
2.4475816814764184,-13.449710277760518,-2.215990648107875,-1.850289722239482
2.45558031442242,-13.476978344621887,-2.279616137451069,-1.8230216553781131
2.463578947368421,-13.504246411483255,-2.34324162679426,-1.7957535885167457
2.4715775803144227,-13.531514478344622,-2.406867116137454,-1.7684855216553768
2.479576213260424,-13.558782545205991,-2.470492605480648,-1.741217454794008
2.4875748462064253,-13.586050612067359,-2.534118094823839,-1.7139493879326406
2.495573479152427,-13.613318678928728,-2.597743584167033,-1.6866813210712717
2.503572112098428,-13.640586745790095,-2.6613690735102233,-1.6594132542099043
2.5115707450444296,-13.667854812651465,-2.724994562853418,-1.6321451873485353
2.5195693779904307,-13.695122879512832,-2.7886200521966082,-1.604877120487168
2.5275680109364322,-12.386397812713547,-3.3647983595351603,-1.8431989063567735
2.535566643882434,-12.274494458823257,-3.2914981529410854,-1.774494458823257
2.543565276828435,-12.247532774735614,-3.282510924911871,-1.7475327747356126
2.5515639097744365,-12.220571090647967,-3.2735236968826555,-1.720571090647967
2.5595625427204376,-12.193609406560324,-3.264536468853441,-1.6936094065603229
2.567561175666439,-12.166647722472678,-3.2555492408242257,-1.666647722472677
2.5755598086124403,-12.139686038385033,-3.2465620127950108,-1.639686038385033
2.583558441558442,-12.112724354297388,-3.237574784765796,-1.612724354297387
2.5915570745044434,-12.085762670209741,-3.2285875567365805,-1.5857626702097414
2.5995557074504445,-12.058800986122097,-3.219600328707366,-1.558800986122097
2.607554340396446,-12.031839302034452,-3.2106131006781506,-1.5318393020344514
2.615552973342447,-12.004877617946807,-3.2016258726489357,-1.5048776179468073
2.6235516062884487,-10.37935748462048,-4.87236272499448,-1.98623832308032
2.63155023923445,-9.765884170653909,-5.343067185007972,-1.6068231658692187
2.6395488721804514,-9.724224624060149,-5.151433270676685,-1.6151550751879702
2.6475475051264525,-9.682565077466394,-4.959799356345409,-1.6234869845067215
2.655546138072454,-9.640905530872637,-4.768165442014121,-1.631818893825473
2.6635447710184557,-9.599245984278877,-4.5765315276828336,-1.6401508031442247
2.6715434039644568,-9.557586437685123,-4.384897613351558,-1.6484827124629757
2.6795420369104583,-9.515926891091365,-4.19326369902027,-1.6568146217817274
2.6875406698564595,-9.474267344497608,-4.001629784688994,-1.6651465311004785
2.695539302802461,-9.43260779790385,-3.8099958703577066,-1.6734784404192302
2.703537935748462,-9.390948251310094,-3.6183619560264297,-1.6818103497379813
2.7115365686944637,-9.349288704716336,-3.4267280416951427,-1.690142259056733
2.7195352016404652,-9.307629158122579,-3.2350941273638556,-1.6984741683754845
2.7275338345864664,-8.495847953216371,-4.8881370091896335,-1.2
2.735532467532468,-8.43363636363636,-4.7103896103895995,-1.2
2.743531100478469,-8.37142477405635,-4.532642211589575,-1.2
2.7515297334244706,-8.30921318447634,-4.354894812789541,-1.2
2.7595283663704717,-8.24700159489633,-4.177147413989517,-1.2
2.7675269993164733,-8.18479000531632,-3.999400015189483,-1.2
2.775525632262475,-8.122578415736307,-3.8216526163894486,-1.2
2.783524265208476,-8.060366826156299,-3.6439052175894244,-1.2
2.7915228981544775,-7.998155236576286,-3.4661578187893904,-1.2
2.7995215311004786,-7.935943646996278,-3.288410419989366,-1.2
2.80752016404648,-7.873732057416266,-3.110663021189332,-1.2
2.8155187969924813,-7.8115204678362575,-2.9329156223893076,-1.2
2.823517429938483,-8.401651372144094,-6.292844054042257,-1.9983486278559055
2.8315160628844844,-8.427178924099419,-6.1822246622358525,-1.9728210759005813
2.8395146958304855,-8.452706476054741,-6.071605270429454,-1.9472935239452587
2.847513328776487,-8.478234028010066,-5.960985878623049,-1.9217659719899345
2.8555119617224882,-8.503761579965389,-5.850366486816651,-1.8962384200346118
2.86351059466849,-8.529289131920713,-5.739747095010246,-1.8707108680792877
2.871509227614491,-8.554816683876036,-5.629127703203848,-1.8451833161239648
2.8795078605604925,-8.580344235831358,-5.518508311397443,-1.8196557641686406
2.8875064935064936,-8.60587178778668,-5.407888919591044,-1.794128212213318
2.895505126452495,-8.631399339742005,-5.297269527784639,-1.7686006602579938
2.9035037593984967,-8.65692689169733,-5.186650135978235,-1.7430731083026696
2.911502392344498,-8.682454443652652,-5.076030744171836,-1.7175455563473467
2.9195010252904994,-9.02494873547503,-4.925563909774665,-1.1498974709500611
2.9274996582365005,-7.566491906749464,-4.452131295356378,-1.6622293160367085
2.935498291182502,-7.506927618853708,-4.367039455505298,-1.7728487078431132
2.943496924128503,-7.447363330957955,-4.2819476156542216,-1.883468099649512
2.9514955570745047,-7.3877990430621985,-4.196855775803141,-1.9940874914559163
2.9594941900205063,-7.328234755166442,-4.111763935952061,-2.1047068832623212
2.9674928229665074,-7.268670467270689,-4.0266720961009845,-2.21532627506872
2.975491455912509,-7.209106179374933,-3.941580256249904,-2.3259456668751244
2.98349008885851,-7.14954189147918,-3.8564884163988284,-2.436565058681523
2.9914887218045116,-7.089977603583423,-3.771396576547748,-2.5471844504879275
2.9994873547505128,-7.030413315687671,-3.686304736696672,-2.657803842294326
3.0074859876965143,-6.970849027791914,-3.6012128968455914,-2.768423234100731
3.015484620642516,-6.911284739896158,-3.516121056994511,-2.879042625907136
3.023483253588517,-6.716480595427968,-5.634077618288127,-4.88017012227546
3.0314818865345186,-6.801680999539018,-5.30448266543738,-6.305042998617053
3.0394805194805197,-6.8295832074901845,-5.378888553307158,-6.388749622470553
3.0474791524265212,-6.857485415441353,-5.453294441176941,-6.472456246324058
3.0554777853725223,-6.8853876233925195,-5.527700329046718,-6.556162870177558
3.063476418318524,-6.913289831343688,-5.602106216916501,-6.639869494031063
3.0714750512645255,-6.941192039294855,-5.6765121047862825,-6.723576117884568
3.0794736842105266,-6.969094247246023,-5.750917992656061,-6.807282741738068
3.087472317156528,-6.99699645519719,-5.8253238805258425,-6.890989365591573
3.0954709501025293,-7.024898663148358,-5.899729768395621,-6.974695989445074
3.103469583048531,-7.052800871099525,-5.974135656265402,-7.058402613298578
3.111468215994532,-7.080703079050693,-6.048541544135181,-7.142109237152079
3.1194668489405335,-7.053315105946666,-5.066575529733333,-6.093369788106667
3.1274654818865346,-7.773632203037237,-5.1660985467621625,-6.888699515587388
3.135464114832536,-7.712773039317661,-5.0878510505512775,-6.862617016850426
3.1434627477785377,-7.651913875598083,-5.009603554340393,-6.8365345181134645
3.151461380724539,-7.59105471187851,-4.931356058129513,-6.810452019376505
3.1594600136705404,-7.530195548158932,-4.853108561918628,-6.784369520639543
3.1674586466165415,-7.469336384439359,-4.774861065707747,-6.758287021902582
3.175457279562543,-7.4084772207197815,-4.696613569496862,-6.7322045231656205
3.183455912508544,-7.347618057000208,-4.618366073285982,-6.706122024428661
3.1914545454545458,-7.286758893280631,-4.540118577075098,-6.680039525691699
3.1994531784005473,-7.225899729561054,-4.461871080864213,-6.653957026954737
3.2074518113465484,-7.165040565841481,-4.383623584653332,-6.627874528217777
3.21545044429255,-7.104181402121903,-4.305376088442447,-6.601792029480816
3.223449077238551,-7.092129674836442,-5.652778049018651,-6.276389024509325
3.2314477101845527,-6.775290498974707,-5.765406698564589,-6.514825700615176
3.239446343130554,-6.7308536492747,-5.7031951089845805,-6.5414878104351795
3.2474449760765554,-6.686416799574692,-5.6409835194045685,-6.568149920255185
3.255443609022557,-6.641979949874683,-5.578771929824557,-6.59481203007519
3.263442241968558,-6.597543100174677,-5.516560340244548,-6.621474139895193
3.2714408749145596,-6.553106250474669,-5.454348750664536,-6.648136249715199
3.2794395078605607,-6.508669400774663,-5.392137161084528,-6.6747983595352025
3.2874381408065623,-6.464232551074654,-5.329925571504516,-6.701460469355207
3.2954367737525634,-6.419795701374648,-5.267713981924508,-6.728122579175211
3.303435406698565,-6.37535885167464,-5.205502392344496,-6.754784688995216
3.311434039644566,-6.330922001974634,-5.143290802764487,-6.781446798815219
3.3194326725905676,-5.871633629528386,-3.8865345181135442,-6.671633629528386
3.327431305536569,-4.490571690347725,-5.467000916217038,-6.665998167565925
3.3354299384825703,-4.4735533223775095,-5.4074366283212845,-6.785126743357431
3.343428571428572,-4.456534954407294,-5.347872340425528,-6.904255319148944
3.351427204374573,-4.439516586437079,-5.288308052529775,-7.02338389494045
3.3594258373205745,-4.422498218466862,-5.228743764634019,-7.142512470731963
3.3674244702665757,-4.405479850496647,-5.1691794767382655,-7.261641046523469
3.375423103212577,-4.388461482526431,-5.109615188842509,-7.380769622314982
3.3834217361585788,-4.371443114556215,-5.0500509009467525,-7.499898198106495
3.39142036910458,-4.354424746586,-4.990486613051,-7.619026773898001
3.3994190020505815,-4.337406378615784,-4.930922325155243,-7.738155349689514
3.4074176349965826,-4.320388010645568,-4.8713580372594905,-7.85728392548102
3.415416267942584,-4.303369642675352,-4.8117937493637335,-7.976412501272533
3.4234149008885852,-2.777233994076098,-4.659362041467314,-4.040637958532686
3.431413533834587,-2.723909774436088,-5.032631578947383,-3.667368421052617
3.4394121667805884,-3.026156025331683,-5.03196847540539,-3.4261560253316827
3.4474107997265895,-3.1128881898063936,-5.137974454207814,-3.5128881898063935
3.455409432672591,-3.199620354281109,-5.243980433010244,-3.599620354281109
3.463408065618592,-3.2863525187558196,-5.349986411812669,-3.6863525187558195
3.4714066985645937,-3.3730846832305352,-5.455992390615099,-3.773084683230535
3.479405331510595,-3.459816847705246,-5.561998369417522,-3.859816847705246
3.4874039644565964,-3.5465490121799617,-5.668004348219952,-3.946549012179961
3.495402597402598,-3.633281176654677,-5.774010327022383,-4.033281176654677
3.503401230348599,-3.7200133411293876,-5.880016305824807,-4.120013341129388
3.5113998632946006,-3.8067455056041033,-5.986022284627237,-4.206745505604103
3.5193984962406017,-3.8934776700788136,-6.092028263429661,-4.293477670078814
3.5273971291866033,-4.102206273258906,-7.111913875598095,-5.407501329080283
3.5353957621326044,-4.1466431229589125,-7.351872863978129,-5.558586618060303
3.543394395078606,-4.191079972658921,-7.591831852358176,-5.709671907040334
3.551393028024607,-4.235516822358927,-7.83179084073821,-5.860757196020355
3.5593916609706087,-4.279953672058936,-8.071749829118257,-6.011842485000384
3.5673902939166102,-4.324390521758945,-8.311708817498305,-6.162927773980414
3.5753889268626113,-4.368827371458951,-8.551667805878338,-6.314013062960435
3.583387559808613,-4.41326422115896,-8.791626794258386,-6.4650983519404654
3.591386192754614,-4.457701070858966,-9.03158578263842,-6.616183640920486
3.5993848257006156,-4.502137920558975,-9.271544771018467,-6.767268929900515
3.6073834586466167,-4.546574770258982,-9.5115037593985,-6.918354218880538
3.6153820915926183,-4.59101161995899,-9.751462747778548,-7.069439507860567
3.62338072453862,-7.333301435406781,-5.380915926179179,-3.4238550922760265
3.631379357484621,-7.658620327041377,-5.965518691834493,-2.9295569092561595
3.6393779904306225,-7.597092381302904,-6.211630474788387,-2.9735054419264975
3.6473766233766236,-7.535564435564433,-6.457742257742266,-3.017453974596833
3.655375256322625,-7.47403648982596,-6.70385404069616,-3.0614025072671716
3.6633738892686263,-7.41250854408749,-6.94996582365004,-3.1053510399375073
3.671372522214628,-7.350980598349016,-7.196077606603934,-3.149299572607845
3.6793711551606294,-7.289452652610543,-7.442189389557828,-3.1932481052781836
3.6873697881066305,-7.227924706872074,-7.688301172511707,-3.2371966379485193
3.695368421052632,-7.1663967611335995,-7.934412955465601,-3.2811451706188572
3.703367053998633,-7.10486881539513,-8.18052473841948,-3.325093703289193
3.7113656869446348,-7.043340869656657,-8.426636521373375,-3.3690422359595313
3.719364319890636,-6.236431989063575,-6.394600136705314,-2.4767600820231888
3.7273629528366374,-5.890617305727662,-5.334321140093628,-1.1624692229106446
3.735361585782639,-5.873415944553464,-5.21391161187425,-1.093663778213857
3.74336021872864,-5.856214583379269,-5.0935020836548786,-1.0248583335170731
3.7513588516746417,-5.839013222205072,-4.9730925554355,-0.9560528888202855
3.759357484620643,-5.821811861030875,-4.852683027216128,-0.8872474441235016
3.7673561175666443,-5.804610499856679,-4.73227349899675,-0.818441999426714
3.7753547505126455,-5.787409138682483,-4.611863970777378,-0.7496365547299302
3.783353383458647,-5.770207777508286,-4.491454442558,-0.6808311100331426
3.791352016404648,-5.75300641633409,-4.371044914338627,-0.6120256653363588
3.7993506493506497,-5.735805055159893,-4.250635386119249,-0.5432202206395712
3.8073492822966513,-5.718603693985696,-4.130225857899871,-0.4744147759427836
3.8153479152426524,-5.7014023328115,-4.0098163296805,-0.40560933124599974
3.823346548188654,-5.91260175231469,-5.006300876157345,-0.3842478096066373
3.831345181134655,-6.203461132169273,-5.151730566084637,-0.02067358478840875
3.8393438140806566,-5.408614192824722,-8.139700650226949,-0.9844944529155015
3.8473424470266577,-5.459887480940114,-7.780787633419206,-0.8922025343077962
3.8553410799726593,-5.5111607690555084,-7.4218746166114435,-0.7999106157000856
3.863339712918661,-5.562434057170903,-7.062961599803681,-0.7076186970923751
3.871338345864662,-5.613707345286295,-6.704048582995938,-0.6153267784846698
3.8793369788106635,-5.66498063340169,-6.3451355661881745,-0.5230348598769592
3.8873356117566646,-5.716253921517081,-5.9862225493804315,-0.43074294126925383
3.895334244702666,-5.767527209632476,-5.627309532572669,-0.33845102266154337
3.9033328776486673,-5.818800497747868,-5.268396515764926,-0.246159104053838
3.911331510594669,-5.870073785863263,-4.909483498957163,-0.15386718544612754
3.9193301435406704,-5.999521531100566,-8.362200956938615,0.5009569377988683
3.9273287764866716,-4.995345401627235,-8.78138160650894,-0.22327299186382538
3.935327409432673,-4.986744721040137,-8.746978884160546,-0.26627639479931764
3.9433260423786742,-4.978144040453039,-8.712576161812155,-0.3092797977348075
3.951324675324676,-4.96954335986594,-8.67817343946376,-0.35228320067029983
3.959323308270677,-4.960942679278842,-8.64377071711537,-0.3952866036057897
3.9673219412166785,-4.952341998691744,-8.609367994766975,-0.4382900065412819
3.97532057416268,-4.943741318104645,-8.57496527241858,-0.48129340947677424
3.983319207108681,-4.935140637517548,-8.54056255007019,-0.5242968124122641
3.9913178400546827,-4.926539956930449,-8.506159827721795,-0.5673002153477564
3.999316473000684,-4.917939276343351,-8.471757105373403,-0.6103036182832462
4.007315105946685,-4.909338595756252,-8.43735438302501,-0.6533070212187385
4.0153137388926865,-4.900737915169155,-8.402951660676617,-0.6963104241542284
4.023312371838688,-5.1,-7.6194726049573696,-0.8024340756196713
4.03131100478469,-5.1,-7.686829513976335,-0.8108536892470419
4.039309637730691,-5.1,-7.754186422995291,-0.8192733028744115
4.047308270676692,-5.1,-7.821543332014248,-0.8276929165017811
4.055306903622694,-5.1,-7.8889002410332125,-0.8361125301291517
4.063305536568695,-5.1,-7.95625715005217,-0.8445321437565213
4.071304169514696,-5.1,-8.023614059071127,-0.852951757383891
4.079302802460697,-5.1,-8.090970968090083,-0.8613713710112605
4.087301435406699,-5.1,-8.158327877109048,-0.869790984638631
4.0953000683527,-5.1,-8.225684786128005,-0.8782105982660007
4.1032987012987014,-5.1,-8.293041695146963,-0.8866302118933703
4.1112973342447034,-5.1,-8.360398604165926,-0.8950498255207409
4.119295967190705,-4.964798359535219,-8.7,0.06479835953521909
4.127294600136706,-5.290764300781278,-8.863057203125114,0.6676750527344749
4.135293233082707,-5.273562939607082,-8.79425175842833,0.6074702886247891
4.143291866028709,-5.256361578432885,-8.725446313731538,0.5472655245150966
4.15129049897471,-5.239160217258688,-8.656640869034755,0.4870607604054108
4.159289131920711,-5.221958856084493,-8.587835424337971,0.4268559962957249
4.167287764866713,-5.204757494910295,-8.51902997964118,0.3666512321860324
4.175286397812714,-5.1875561337360985,-8.450224534944397,0.30644646807634657
4.183285030758715,-5.170354772561903,-8.381419090247611,0.24624170396666073
4.191283663704716,-5.153153411387707,-8.312613645550828,0.1860369398569749
4.199282296650718,-5.1359520502135085,-8.243808200854037,0.12583217574728234
4.2072809295967195,-5.118750689039313,-8.175002756157253,0.06562741163759656
4.215279562542721,-5.101549327865117,-8.10619731146047,0.005422647527910662
4.223278195488723,-5.3,-8.87503759398505,0.9166917293233663
4.231276828434724,-4.900321893528749,-5.900965680586246,-0.20064378705749739
4.239275461380725,-4.909622629512471,-5.928867888537413,-0.2192452590249418
4.247274094326726,-4.918923365496194,-5.9567700964885795,-0.23784673099238618
4.255272727272728,-4.928224101479916,-5.98467230443975,-0.2564482029598326
4.263271360218729,-4.937524837463639,-6.012574512390916,-0.27504967492727705
4.27126999316473,-4.946825573447361,-6.040476720342083,-0.29365114689472144
4.279268626110732,-4.956126309431084,-6.068378928293252,-0.3122526188621679
4.287267259056733,-4.965427045414806,-6.096281136244419,-0.33085409082961226
4.2952658920027345,-4.974727781398529,-6.124183344195585,-0.3494555627970567
4.303264524948736,-4.98402851738225,-6.152085552146752,-0.3680570347645011
4.311263157894738,-4.993329253365974,-6.179987760097921,-0.3866585067319475
4.319261790840739,-5.0691045796306735,-8.283253588517058,-0.3047163362954612
4.32726042378674,-5.112870093895026,-8.508580062596684,-0.08712990610497393
4.335259056732741,-5.144443644997661,-8.529629096665108,-0.05555635500233814
4.343257689678743,-5.176017196100301,-8.550678130733534,-0.023982803899698854
4.351256322624744,-5.207590747202937,-8.571727164801958,0.007590747202936926
4.359254955570745,-5.239164298305573,-8.592776198870382,0.03916429830557269
4.367253588516747,-5.270737849408212,-8.613825232938808,0.07073784940821198
4.375252221462748,-5.302311400510848,-8.63487426700723,0.10231140051084775
4.383250854408749,-5.333884951613483,-8.655923301075655,0.13388495161348354
4.3912494873547505,-5.36545850271612,-8.676972335144079,0.1654585027161193
4.3992481203007525,-5.397032053818759,-8.698021369212505,0.19703205381875857
4.407246753246754,-4.811255411255383,-7.464069264069228,-0.4662337662338525
4.415245386192755,-5.301245386192755,-10.26761995898837,-1.9962638414217349
4.423244019138757,-5.309244019138757,-10.059655502392319,-1.972267942583729
4.431242652084758,-5.317242652084758,-9.85169104579629,-1.9482720437457257
4.439241285030759,-5.325241285030759,-9.643726589200263,-1.9242761449077226
4.44723991797676,-5.33323991797676,-9.435762132604234,-1.9002802460697192
4.455238550922762,-5.341238550922762,-9.227797676008183,-1.8762843472317134
4.463237183868763,-5.349237183868763,-9.019833219412156,-1.8522884483937103
4.471235816814764,-5.3572358168147645,-8.811868762816127,-1.828292549555707
4.479234449760766,-5.3652344497607665,-8.603904306220077,-1.8042966507177012
4.4872330827067675,-5.373233082706768,-8.395939849624048,-1.7803007518796978
4.495231715652769,-5.381231715652769,-8.18797539302802,-1.7563048530416947
4.50323034859877,-5.38923034859877,-7.980010936431992,-1.7323089542036914
4.511228981544772,-5.397228981544772,-7.772046479835941,-1.7083130553656856
4.519227614490773,-6.101379481762258,-6.904138445286777,-4.702069222643388
4.527226247436774,-6.149856045071356,-7.049568135214069,-4.774784067607035
4.535224880382776,-6.198332608380459,-7.194997825141378,-4.847498912570689
4.543223513328777,-6.246809171689557,-7.34042751506867,-4.920213757534335
4.551222146274778,-6.295285734998655,-7.4858572049959635,-4.992928602497981
4.559220779220779,-6.343762298307752,-7.631286894923256,-5.065643447461628
4.567219412166781,-6.392238861616855,-7.776716584850565,-5.138358292425282
4.575218045112782,-6.440715424925952,-7.922146274777857,-5.2110731373889285
4.5832166780587835,-6.48919198823505,-8.06757596470515,-5.283787982352575
4.5912153110047855,-6.537668551544153,-8.21300565463246,-5.35650282731623
4.599213943950787,-6.586145114853251,-8.358435344559751,-5.429217672279876
4.607212576896788,-6.634621678162349,-8.503865034487044,-5.501932517243522
4.615211209842789,-6.683098241471446,-8.649294724414336,-5.574647362207168
4.623209842788791,-6.557901572112088,-7.526425153793408,-5.2683937115516475
4.631208475734792,-6.733219412166493,-4.1166097060832465,-3.7667805878335074
4.639207108680793,-6.388284347231718,-3.655857826384141,-3.3910047846889864
4.647205741626795,-6.5902328548644435,-3.6832918660287173,-3.0624688995215377
4.655204374572796,-6.728875825928464,-3.811269993164736,-3.158452494873552
4.663203007518797,-6.867518796992485,-3.939248120300755,-3.2544360902255662
4.6712016404647985,-7.006161768056505,-4.067226247436774,-3.3504196855775805
4.6792002734108005,-7.144804739120541,-4.195204374572808,-3.4464032809296055
4.687198906356802,-7.2834477101845625,-4.323182501708827,-3.54238687628162
4.695197539302803,-7.422090681248583,-4.451160628844845,-3.6383704716336345
4.703196172248805,-7.560733652312619,-4.579138755980879,-3.7343540669856594
4.711194805194806,-7.699376623376639,-4.707116883116898,-3.8303376623376737
4.719193438140807,-5.783937115515955,-3.858373205741124,-2.2806561859193257
4.727192071086808,-5.390984793361703,-4.459431570127663,-2.1597755385531565
4.73519070403281,-5.373783432187505,-4.382025444843772,-3.0370449584372476
4.743189336978811,-5.356582071013309,-4.30461931955989,-3.914314378321242
4.751187969924812,-5.339380709839113,-4.2272131942760085,-4.791583798205235
4.759186602870814,-5.322179348664916,-4.149807068992119,-5.6688532180893265
4.767185235816815,-5.3049779874907195,-4.072400943708237,-6.546122637973321
4.7751838687628165,-5.287776626316523,-3.9949948184243547,-7.423392057857314
4.783182501708818,-5.270575265142328,-3.917588693140473,-8.300661477741308
4.79118113465482,-5.2533739039681295,-3.8401825678565826,-9.1779308976254
4.799179767600821,-5.236172542793934,-3.762776442572701,-10.055200317509392
4.807178400546822,-5.218971181619738,-3.685370317288819,-10.932469737393387
4.815177033492823,-5.201769820445541,-3.6079641920049372,-11.80973915727738
4.823175666438825,-3.2899943281802133,-8.356225185788434,-4.7562819039863005
4.831174299384826,-3.2219208562993527,-8.05840374630967,-5.13919518331614
4.839172932330827,-3.1538473844184924,-7.760582306830906,-5.5221084626459795
4.847171565276829,-3.0857739125376247,-7.462760867352109,-5.905021741975861
4.85517019822283,-3.0177004406567645,-7.164939427873344,-6.2879350213057
4.8631688311688315,-2.949626968775904,-6.867117988394581,-6.67084830063554
4.871167464114833,-2.8815534968950436,-6.569296548915816,-7.053761579965379
4.879166097060835,-2.813480025014176,-6.27147510943702,-7.436674859295261
4.887164730006836,-2.745406553133315,-5.973653669958256,-7.8195881386251
4.895163362952837,-2.6773330812524554,-5.675832230479491,-8.20250141795494
4.903161995898839,-2.609259609371587,-5.378010791000694,-8.585414697284822
4.91116062884484,-2.541186137490727,-5.0801893515219305,-8.96832797661466
4.919159261790841,-4.337593984962574,-2.8840738209158956,-7.97833219412153
4.927157894736842,-5.030317982456141,-2.6129934210526318,-6.387006578947369
4.935156527682844,-5.088641347687405,-2.637989149008888,-6.362010850991112
4.943155160628845,-5.146964712918663,-2.6629848769651416,-6.337015123034859
4.951153793574846,-5.205288078149922,-2.687980604921395,-6.312019395078606
4.959152426520848,-5.263611443381186,-2.712976332877651,-6.287023667122349
4.9671510594668495,-5.321934808612444,-2.7379720608339047,-6.262027939166096
4.975149692412851,-5.3802581738437025,-2.7629677887901583,-6.237032211209842
4.983148325358852,-5.43858153907496,-2.7879635167464114,-6.212036483253589
4.991146958304854,-5.496904904306225,-2.8129592447026677,-6.187040755297332
4.999145591250855,-5.555228269537483,-2.8379549726589213,-6.162045027341079
5.007144224196856,-5.613551634768741,-2.8629507006151744,-6.137049299384825
5.015142857142858,-5.671875000000005,-2.8879464285714307,-6.112053571428569
5.023141490088859,-6.114149008885899,-3.7800666438825368,-6.824760765550325
5.03114012303486,-8.61401230348605,-7.942036910458151,-8.11401230348605
5.039138755980861,-8.64900888585099,-8.123513328776484,-8.21699703804967
5.047137388926863,-8.591875793379547,-8.03781369006932,-8.236041402206817
5.0551360218728645,-8.53474270090811,-7.952114051362165,-8.255085766363964
5.063134654818866,-8.477609608436673,-7.8664144126550095,-8.274130130521108
5.071133287764868,-8.42047651596523,-7.780714773947845,-8.293174494678256
5.079131920710869,-8.363343423493793,-7.69501513524069,-8.312218858835402
5.08713055365687,-8.306210331022356,-7.609315496533535,-8.331263222992547
5.095129186602871,-8.24907723855092,-7.52361585782638,-8.350307587149693
5.103127819548873,-8.191944146079477,-7.437916219119215,-8.369351951306841
5.111126452494874,-8.13481105360804,-7.35221658041206,-8.388396315463988
5.119125085440875,-7.003127136021885,-5.403127136021886,-4.371855775803035
5.127123718386877,-7.306185919343848,-4.572163362952682,-3.139174641148265
5.135122351332878,-7.441802098829957,-3.5593550721723948,-2.7612013992199707
5.143120984278879,-7.3288802219452345,-3.2864605363676507,-2.6859201479634898
5.1511196172248805,-7.215958345060513,-3.0135660005629066,-2.6106388967070084
5.1591182501708825,-7.1030364681757785,-2.7406714647581323,-2.535357645450519
5.167116883116884,-6.990114591291057,-2.467776928953388,-2.4600763941940382
5.175115516062885,-6.877192714406336,-2.194882393148644,-2.384795142937557
5.183114149008887,-6.764270837521601,-1.9219878573438696,-2.3095138916810676
5.191112781954888,-6.651348960636879,-1.6490933215391252,-2.2342326404245862
5.199111414900889,-6.538427083752158,-1.3761987857343811,-2.158951389168105
5.20711004784689,-6.425505206867436,-1.103304249929637,-2.083670137911624
5.215108680792892,-6.312583329982702,-0.8304097141248628,-2.0083888866551347
5.223107313738893,-6.870121326042427,-1.0348769651402068,1.691951469583029
5.231105946684894,-5.527608414976841,-6.5207063112326304,0.9689405331510539
5.2391045796308955,-5.598707374496851,-6.574030530872638,0.8889542036910425
5.2471032125768975,-5.669806334016869,-6.6273547505126515,0.8089678742310223
5.255101845522899,-5.740905293536879,-6.680678970152659,0.7289815447710111
5.2631004784689,-5.812004253056889,-6.734003189792666,0.6489952153109998
5.271099111414902,-5.883103212576907,-6.78732740943268,0.5690088858509796
5.279097744360903,-5.954202172096917,-6.8406516290726875,0.48902255639096837
5.287096377306904,-6.025301131616927,-6.893975848712695,0.409036226930957
5.295095010252905,-6.096400091136937,-6.947300068352702,0.3290498974709457
5.303093643198907,-6.167499050656955,-7.000624287992716,0.24906356801092555
5.311092276144908,-6.238598010176965,-7.0539485076327235,0.16907723855091428
5.319090909090909,-5.9,-10.149999999999844,-0.9
5.327089542036911,-5.385703493182685,-6.766064683239179,-0.5535741267043286
5.335088174982912,-5.048918948087904,-6.55557434255494,-0.637770262978024
5.3430868079289136,-4.802745799906464,-6.41647479943879,-0.7329495988775795
5.351085440874915,-4.8132703169406765,-6.479621901644062,-0.859243803288124
5.359084073820917,-4.82379483397489,-6.542769003849342,-0.9855380076986826
5.367082706766918,-4.8343193510091025,-6.605916106054614,-1.1118322121092272
5.375081339712919,-4.844843868043315,-6.669063208259886,-1.2381264165197718
5.383079972658921,-4.8553683850775275,-6.732210310465165,-1.3644206209303302
5.391078605604922,-4.86589290211174,-6.7953574126704375,-1.4907148253408748
5.399077238550923,-4.876417419145952,-6.85850451487571,-1.6170090297514195
5.407075871496924,-4.886941936180164,-6.9216516170809825,-1.743303234161964
5.415074504442926,-4.897466453214378,-6.984798719286261,-1.8695974385725227
5.423073137388927,-4.751223513328741,-8.47316473000689,-5.717074504442913
5.4310717703349285,-4.406466884915639,-9.948264920674887,-4.822634097204737
5.4390704032809305,-4.423306112170381,-9.813551102636959,-4.881571392596331
5.447069036226932,-4.440145339425119,-9.678837284599044,-4.940508687987918
5.455067669172933,-4.456984566679859,-9.54412346656113,-4.9994459833795055
5.463066302118934,-4.473823793934598,-9.409409648523217,-5.0583832787710925
5.471064935064936,-4.490663021189339,-9.274695830485289,-5.117320574162687
5.479063568010937,-4.507502248444078,-9.139982012447375,-5.176257869554274
5.487062200956938,-4.524341475698817,-9.00526819440946,-5.2351951649458615
5.49506083390294,-4.541180702953558,-8.870554376371532,-5.294132460337455
5.503059466848941,-4.558019930208298,-8.735840558333617,-5.3530697557290425
5.511058099794942,-4.574859157463036,-8.601126740295705,-5.4120070511206295
5.519056732740943,-4.591698384717776,-8.46641292225779,-5.470944346512217
5.527055365686945,-4.705536568694532,-6.624914559125391,-5.4889268626109375
5.535053998632947,-6.386152818204858,-6.204615727265048,-5.109231454530095
5.543052631578948,-6.332229450029569,-6.222590183323478,-5.145180366646954
5.55105126452495,-6.278306081854274,-6.240564639381909,-5.181129278763818
5.559049897470951,-6.224382713678985,-6.258539095440339,-5.2170781908806765
5.567048530416952,-6.170459345503696,-6.276513551498768,-5.253027102997535
5.575047163362953,-6.116535977328407,-6.294488007557198,-5.288976015114395
5.583045796308955,-6.0626126091531125,-6.3124624636156295,-5.324924927231258
5.591044429254956,-6.008689240977824,-6.330436919674059,-5.360873839348117
5.599043062200957,-5.954765872802535,-6.348411375732488,-5.396822751464977
5.607041695146959,-5.90084250462724,-6.36638583179092,-5.432771663581839
5.61504032809296,-5.846919136451952,-6.38436028784935,-5.468720575698699
5.6230389610389615,-5.909740259740322,-6.1883116883116145,-5.609740259740321
5.631037593984963,-6.617365995634248,-5.03907349017706,-5.252097986902746
5.639036226930965,-6.651768717982645,-5.11647961546095,-5.355306153947934
5.647034859876966,-6.686171440331036,-5.1938857407448324,-5.4585143209931095
5.655033492822967,-6.720574162679428,-5.271291866028714,-5.561722488038285
5.663032125768969,-6.754976885027824,-5.348697991312604,-5.664930655083473
5.67103075871497,-6.789379607376215,-5.426104116596486,-5.768138822128648
5.679029391660971,-6.823782329724608,-5.503510241880368,-5.871346989173824
5.687028024606972,-6.858185052073,-5.580916367164249,-5.974555156219
5.695026657552974,-6.892587774421395,-5.65832249244814,-6.077763323264187
5.703025290498975,-6.926990496769787,-5.735728617732022,-6.180971490309362
5.7110239234449764,-6.961393219118179,-5.813134743015904,-6.284179657354539
5.719022556390978,-6.995795941466572,-5.8905408682997855,-6.387387824399714
5.72702118933698,-6.379506617784011,-7.342757720748012,-1.2409867644319785
5.735019822282981,-5.506928478220263,-6.324749891256973,-2.9861430435594762
5.743018455228982,-5.4259942786258595,-6.061363847328751,-3.355965671755156
5.751017088174984,-5.455618845092533,-5.90336615950649,-3.5337130705551996
5.759015721120985,-5.485243411559204,-5.745368471684246,-3.7114604693552233
5.767014354066986,-5.514867978025875,-5.587370783862003,-3.889207868155247
5.775012987012987,-5.544492544492545,-5.429373096039759,-4.066955266955271
5.783011619958989,-5.57411711095922,-5.271375408217498,-4.244702665755314
5.79101025290499,-5.60374167742589,-5.113377720395254,-4.422450064555338
5.799008885850991,-5.633366243892561,-4.955380032573011,-4.600197463355363
5.807007518796993,-5.662990810359235,-4.7973823447507495,-4.777944862155406
5.8150061517429945,-5.692615376825906,-4.639384656928506,-4.95569226095543
5.823004784688996,-6.199043062200954,-7.795693779904292,-4.4
5.831003417634997,-5.722491110308971,-5.248441328039205,-1.1775088896910293
5.839002050580999,-5.767427250455049,-5.545019853003324,-1.132572749544951
5.847000683527,-5.8123633906011225,-5.841598377967409,-1.0876366093988774
5.854999316473001,-5.857299530747196,-6.138176902931494,-1.042700469252804
5.862997949419003,-5.902235670893274,-6.434755427895611,-0.9977643291067255
5.870996582365004,-5.9471718110393486,-6.731333952859696,-0.952828188960652
5.878995215311005,-5.992107951185422,-7.027912477823782,-0.9078920488145785
5.886993848257006,-6.037044091331495,-7.324491002787867,-0.862955908668505
5.894992481203008,-6.081980231477574,-7.621069527751985,-0.8180197685224266
5.9029911141490095,-6.126916371623647,-7.9176480527160695,-0.7730836283763531
5.910989747095011,-6.17185251176972,-8.214226577680154,-0.7281474882302796
5.918988380041013,-5.901161995898747,-5.655228981544359,-3.4907040328100285
5.926987012987014,-6.166233766233793,-5.931168831168965,-3.4987012987013797
5.934985645933015,-6.184123531970421,-6.155567638103527,-3.7428882122662133
5.942984278879016,-6.165944820729509,-6.219193127446718,-3.9064966134344177
5.950982911825018,-6.147766109488596,-6.282818616789916,-4.070105014602641
5.958981544771019,-6.129587398247684,-6.346444106133106,-4.233713415770845
5.96698017771702,-6.111408687006772,-6.410069595476297,-4.3973218169390496
5.974978810663022,-6.093229975765858,-6.473695084819495,-4.560930218107273
5.982977443609023,-6.075051264524947,-6.537320574162685,-4.724538619275477
5.990976076555024,-6.056872553284036,-6.600946063505876,-4.888147020443681
5.9989747095010255,-6.0386938420431235,-6.6645715528490665,-5.051755421611886
6.0069733424470275,-6.0205151308022105,-6.728197042192264,-5.215363822780109
6.014971975393029,-6.002336419561298,-6.791822531535455,-5.378972223948313
6.02297060833903,-6.6926520847575155,-6.383834586466534,-4.305878332193988
6.030969241285032,-6.674292770048284,-6.382861846698856,-4.240016463445995
6.038967874231033,-6.64849072828699,-6.365660485524661,-4.179811699336309
6.046966507177034,-6.622688686525696,-6.348459124350464,-4.119606935226623
6.054965140123035,-6.596886644764402,-6.331257763176268,-4.059402171116938
6.062963773069037,-6.571084603003105,-6.314056402002071,-3.999197407007245
6.070962406015038,-6.5452825612418115,-6.296855040827874,-3.938992642897559
6.078961038961039,-6.519480519480518,-6.279653679653679,-3.8787878787878736
6.086959671907041,-6.493678477719221,-6.262452318479481,-3.818583114678181
6.0949583048530425,-6.467876435957927,-6.245250957305284,-3.758378350568495
6.102956937799044,-6.4420743941966325,-6.228049596131089,-3.6981735864588092
6.110955570745045,-6.416272352435339,-6.2108482349568925,-3.6379688223491233
6.118954203691047,-6.0,-5.827477785371858,-4.08626110731407
6.126952836637048,-5.938824333561168,-5.249419002050516,-3.8552973342446735
6.134951469583049,-5.9,-5.809282630078522,-5.005801643799077
6.142950102529051,-5.9,-5.887318073454152,-5.054573795908845
6.150948735475052,-5.9,-5.965353516829773,-5.1033459480186085
6.158947368421053,-5.9,-6.043388960205394,-5.152118100128371
6.166946001367054,-5.9,-6.121424403581014,-5.200890252238134
6.174944634313056,-5.9,-6.1994598469566435,-5.2496624043479025
6.182943267259057,-5.9,-6.277495290332265,-5.298434556457666
6.1909419002050585,-5.9,-6.3555307337078855,-5.347206708567429
6.19894053315106,-5.9,-6.433566177083506,-5.395978860677191
6.206939166097062,-5.9,-6.511601620459135,-5.44475101278696
6.214937799043063,-5.9,-6.589637063834757,-5.493523164896723
6.222936431989064,-5.691486981917604,-6.157434909588022,-5.082973963835208
6.230935064935066,-5.618772136953944,-5.793860684769724,-4.937544273907889
6.238933697881067,-5.809712834274238,-5.99514358286288,-5.366005080040165
6.246932330827068,-5.829462545252019,-5.98526872737399,-5.296881091617933
6.254930963773069,-5.8492122562298,-5.9753938718851,-5.2277571031957
6.262929596719071,-5.868961967207583,-5.965519016396208,-5.15863311477346
6.270928229665072,-5.888711678185364,-5.955644160907318,-5.089509126351228
6.2789268626110735,-5.908461389163144,-5.945769305418428,-5.020385137928995
6.2869254955570755,-5.928211100140927,-5.9358944499295365,-4.951261149506755
6.294924128503077,-5.9479608111187074,-5.926019594440646,-4.882137161084524
6.302922761449078,-5.967710522096488,-5.916144738951756,-4.813013172662291
6.310921394395079,-5.987460233074269,-5.9062698834628655,-4.743889184240059
6.318920027341081,-5.8,-5.8,-4.69200273410809
6.326918660287082,-5.50528888202912,-6.720666769563195,-6.342311056232962
6.334917293233083,-5.513889562616218,-6.591656560756726,-6.411116500929746
6.342915926179085,-5.522490243203317,-6.462646351950242,-6.479921945626537
6.350914559125086,-5.531090923790415,-6.333636143143772,-6.548727390323322
6.358913192071087,-5.539691604377513,-6.204625934337303,-6.617532835020105
6.366911825017088,-5.548292284964611,-6.075615725530833,-6.686338279716889
6.37491045796309,-5.55689296555171,-5.946605516724349,-6.7551437244136805
6.3829090909090915,-5.565493646138808,-5.8175953079178795,-6.823949169110464
6.390907723855093,-5.5740943267259055,-5.6885850991114095,-6.892754613807248
6.398906356801095,-5.582695007313005,-5.559574890304925,-6.961560058504039
6.406904989747096,-5.591295687900103,-5.430564681498456,-7.030365503200823
6.414903622693097,-5.599896368487201,-5.301554472691986,-7.099170947897607
6.422902255639098,-5.409774436090201,-5.546616541353013,-7.348872180451004
6.4309008885851,-6.132070046658153,-4.019242027994892,-5.948687925346955
6.438899521531101,-6.175540877886419,-4.045324526731852,-5.8791345953817284
6.446898154477102,-6.219011709114686,-4.071407025468812,-5.809581265416502
6.454896787423104,-6.262482540342957,-4.097489524205774,-5.740027935451267
6.462895420369105,-6.305953371571224,-4.123572022942735,-5.67047460548604
6.4708940533151065,-6.349424202799491,-4.149654521679695,-5.600921275520814
6.478892686261108,-6.392895034027758,-4.175737020416655,-5.531367945555587
6.48689131920711,-6.436365865256029,-4.201819519153617,-5.461814615590353
6.494889952153111,-6.479836696484296,-4.227902017890577,-5.392261285625127
6.502888585099112,-6.5233075277125625,-4.253984516627537,-5.3227079556599
6.510887218045114,-6.566778358940834,-4.280067015364501,-5.253154625694665
6.518885850991115,-6.977170198223018,-3.4199362041462917,-3.565595807700257
6.526884483937116,-7.372112098427906,-3.8179311916154974,-2.427887901572094
6.534883116883117,-2.310389610389351,-1.5935064935063783,-11.808441558442041
6.542881749829119,-2.245958330168872,-1.4902694446554086,-11.849700007594706
6.55088038277512,-2.394081162502227,-1.4803945891665182,-11.494205209994655
6.558879015721121,-2.542203994835582,-1.470519733677628,-11.138710412394603
6.566877648667123,-2.6903268271689535,-1.4606448781887365,-10.783215614794512
6.5748762816131245,-2.838449659502308,-1.4507700226998461,-10.42772081719446
6.582874914559126,-2.986572491835663,-1.4408951672109558,-10.072226019594408
6.590873547505127,-3.1346953241690176,-1.4310203117220655,-9.716731221994356
6.598872180451129,-3.2828181565023895,-1.421145456233174,-9.361236424394265
6.60687081339713,-3.4309409888357445,-1.4112706007442837,-9.005741626794213
6.614869446343131,-3.579063821169099,-1.4013957452553933,-8.650246829194161
6.622868079289132,-3.9184697721091966,-4.526781169558335,-4.292612091156321
6.630866712235134,-4.088653451811366,-4.773547505126481,-4.224538619275453
6.638865345181135,-4.258837131513517,-5.0203138406946,-4.156465147394593
6.646863978127136,-4.429020811215668,-5.267080176262718,-4.088391675513733
6.654862611073138,-4.599204490917838,-5.513846511830865,-4.020318203632865
6.6628612440191395,-4.7693881706199885,-5.760612847398984,-3.9522447317520046
6.670859876965141,-4.93957185032214,-6.007379182967102,-3.884171259871144
6.678858509911142,-5.109755530024291,-6.254145518535221,-3.8160977879902838
6.686857142857144,-5.279939209726461,-6.500911854103368,-3.748024316109416
6.694855775803145,-5.450122889428611,-6.747678189671486,-3.679950844228556
6.702854408749146,-5.620306569130762,-6.994444525239604,-3.6118773723476956
6.710853041695148,-5.790490248832932,-7.241210860807751,-3.5438039004668274
6.718851674641149,-6.761722488038313,-7.821052631578565,-2.691387559808439
6.72685030758715,-8.247607655502476,-7.762576896787482,-2.3101845522899565
6.734848940533151,-8.334125828405005,-7.535524829861215,-2.340279800291242
6.742847573479153,-8.368902493387623,-7.266005676245929,-2.2794206365716616
6.750846206425154,-8.403679158370236,-6.996486522630673,-2.2185614728520875
6.7588448393711555,-8.43845582335285,-6.7269673690154175,-2.1577023091325134
6.7668434723171575,-8.473232488335467,-6.457448215400131,-2.096843145412933
6.774842105263159,-8.508009153318081,-6.1879290617848755,-2.035983981693359
6.78284073820916,-8.542785818300693,-5.918409908169619,-1.9751248179737848
6.790839371155161,-8.577562483283307,-5.648890754554364,-1.914265654254211
6.798838004101163,-8.612339148265924,-5.379371600939077,-1.8534064905346304
6.806836637047164,-8.647115813248538,-5.109852447323821,-1.7925473268150562
6.814835269993165,-8.681892478231152,-4.840333293708564,-1.7316881630954823
6.822833902939167,-7.7083048530416605,-3.708646616541738,-2.0667805878333594
6.830832535885168,-7.662413609782022,-2.478522062732584,-0.08926103136629202
6.838831168831169,-7.600202020202014,-2.4429725829725792,-0.07148629148628968
6.8468298017771705,-7.537990430622006,-2.4074231032125746,-0.05371155160628735
6.8548284347231725,-7.475778841041991,-2.371873623452566,-0.03593681172628305
6.862827067669174,-7.413567251461982,-2.3363241436925613,-0.0181620718462807
6.870825700615175,-7.351355661881975,-2.3007746639325566,-0.0003873319662783675
6.878824333561177,-7.289144072301959,-2.2652251841725484,0.017387407913725936
6.886822966507178,-7.226932482721951,-2.2296757044125437,0.03516214779372828
6.894821599453179,-7.164720893141943,-2.194126224652539,0.052936887673730615
6.90282023239918,-7.102509303561935,-2.1585767448925344,0.07071162755373295
6.910818865345182,-7.04029771398192,-2.1230272651325257,0.08848636743373725
6.918817498291183,-6.915475051264513,-2.888899521531209,-0.2944497607656045
6.926816131237184,-6.648991797675991,-5.022419685577624,-1.4734278879016336
6.934814764183186,-5.14080656185741,-5.937047163362679,-3.651811346549286
6.942813397129187,-5.696298161672122,-7.7814404432133095,-5.84812389826241
6.9508120300751886,-5.68577364463791,-8.012979817965975,-5.984942619707167
6.95881066302119,-5.675249127603698,-8.24451919271864,-6.121761341151923
6.966809295967192,-5.664724610569485,-8.47605856747133,-6.258580062596695
6.974807928913193,-5.654200093535273,-8.707597942223996,-6.3953987840414515
6.982806561859194,-5.643675576501061,-8.93913731697666,-6.532217505486209
6.990805194805196,-5.633151059466847,-9.170676691729351,-6.66903622693098
6.998803827751197,-5.622626542432635,-9.402216066482016,-6.805854948375736
7.006802460697198,-5.612102025398423,-9.633755441234682,-6.942673669820493
7.014801093643199,-5.601577508364211,-9.865294815987347,-7.07949239126525
7.022799726589201,-4.234979494190086,-9.93017771701925,-5.0152255639090475
7.030798359535202,-4.457346412985515,-8.5446027656554,-3.1171662923542565
7.0387969924812035,-4.53645377179212,-8.60613071139387,-3.0029001074113824
7.0467956254272055,-4.615561130598734,-8.667658657132348,-2.888633922468496
7.054794258373207,-4.694668489405339,-8.729186602870818,-2.7743677375256217
7.062792891319208,-4.773775848211944,-8.790714548609289,-2.6601015525827476
7.070791524265209,-4.852883207018549,-8.85224249434776,-2.5458353676398735
7.078790157211211,-4.931990565825163,-8.913770440086237,-2.431569182696987
7.086788790157212,-5.011097924631768,-8.975298385824708,-2.317302997754113
7.094787423103213,-5.090205283438372,-9.036826331563178,-2.2030368128112388
7.102786056049214,-5.169312642244978,-9.098354277301649,-2.088770627868365
7.110784688995216,-5.248420001051592,-9.159882223040126,-1.9745044429254783
7.118783321941217,-5.265003417634742,-7.9758373205738655,-0.7191729323303601
7.126781954887218,-6.294912813949767,-8.364389697648374,-2.9949128139497674
7.1347805878332204,-6.286403629964659,-8.304825409752613,-2.986403629964659
7.142779220779222,-6.277894445979552,-8.24526112185686,-2.9778944459795516
7.150777853725223,-6.269385261994444,-8.185696833961108,-2.969385261994444
7.158776486671224,-6.260876078009336,-8.126132546065355,-2.960876078009336
7.166775119617226,-6.252366894024228,-8.066568258169596,-2.952366894024228
7.174773752563227,-6.24385771003912,-8.007003970273843,-2.9438577100391203
7.182772385509228,-6.235348526054013,-7.94743968237809,-2.9353485260540126
7.19077101845523,-6.226839342068905,-7.8878753944823305,-2.926839342068904
7.198769651401231,-6.218330158083797,-7.828311106586578,-2.918330158083797
7.206768284347232,-6.209820974098689,-7.768746818690825,-2.909820974098689
7.214766917293233,-6.201311790113582,-7.709182530795072,-2.9013117901135814
7.222765550239235,-6.22551834130785,-6.623444976076451,-3.1489633173843004
7.2307641831852365,-6.329942366246197,-7.15560725160008,-3.4342198471385106
7.238762816131238,-6.393567855589388,-7.273768874666005,-3.506934692102157
7.24676144907724,-6.457193344932585,-7.391930497731944,-3.5796495370658117
7.254760082023241,-6.520818834275776,-7.51009212079787,-3.6523643820294582
7.262758714969242,-6.584444323618967,-7.628253743863795,-3.725079226993105
7.270757347915243,-6.648069812962158,-7.74641536692972,-3.7977940719567513
7.278755980861245,-6.711695302305355,-7.864576989995659,-3.870508916920406
7.286754613807246,-6.775320791648546,-7.982738613061585,-3.9432237618840524
7.294753246753247,-6.8389462809917365,-8.10090023612751,-4.0159386068476985
7.302751879699249,-6.902571770334934,-8.219061859193449,-4.0886534518113535
7.31075051264525,-6.9661972596781245,-8.337223482259375,-4.161368296775
7.3187491455912514,-6.450170881749684,-5.2872863978128954,-2.549829118250316
7.326747778537253,-6.256231487810436,-5.719491911597175,-2.73673957621326
7.334746411483255,-6.3228867623604526,-5.861134370015961,-2.661752392344491
7.342745044429256,-6.389542036910462,-6.0027768284347305,-2.5867652084757307
7.350743677375257,-6.456197311460471,-6.1444192868535,-2.5117780246069703
7.358742310321259,-6.522852586010488,-6.286061745272285,-2.4367908407382015
7.36674094326726,-6.589507860560497,-6.427704203691055,-2.361803656869441
7.374739576213261,-6.656163135110506,-6.569346662109824,-2.286816473000681
7.382738209159262,-6.7228184096605155,-6.710989120528595,-2.2118292891319205
7.390736842105264,-6.789473684210532,-6.8526315789473795,-2.1368421052631517
7.398735475051265,-6.856128958760541,-6.994274037366149,-2.0618549213943913
7.406734107997266,-6.9227842333105505,-7.135916495784919,-1.986867737525631
7.414732740943268,-6.989439507860567,-7.2775589542037045,-1.9118805536568622
7.4227313738892695,-5.997665828012969,-5.303890286645052,-1.4766582801296873
7.430730006835271,-5.972138276057646,-5.34643620657059,-1.221382760576461
7.438728639781272,-5.946610724102324,-5.388982126496128,-0.9661072410232346
7.446727272727274,-5.921083172146998,-5.43152804642167,-0.71083172146998
7.454725905673275,-5.895555620191676,-5.474073966347207,-0.45555620191675383
7.462724538619276,-5.870028068236353,-5.516619886272745,-0.20028068236352747
7.470723171565278,-5.844500516281028,-5.559165806198288,0.054994837189727086
7.478721804511279,-5.818972964325705,-5.601711726123826,0.31027035674295345
7.48672043745728,-5.7934454123703825,-5.644257646049363,0.5655458762961798
7.494719070403281,-5.76791786041506,-5.686803565974901,0.8208213958494062
7.502717703349283,-5.7423903084597345,-5.7293494859004435,1.0760969154026605
7.5107163362952845,-5.716862756504412,-5.7718954058259815,1.3313724349558869
7.518714969241286,-5.928503075871474,-8.168120300751728,-0.21159261790846268
7.526713602187287,-5.309415396633441,-8.109415396633441,-1.592467682693247
7.534712235133289,-5.353363929303782,-8.153363929303783,-1.5573088565569742
7.54271086807929,-5.397312461974119,-8.197312461974118,-1.5221500304207052
7.550709501025291,-5.441260994644455,-8.241260994644454,-1.4869912042844362
7.558708133971293,-5.485209527314796,-8.285209527314795,-1.4518323781481635
7.566706766917294,-5.529158059985131,-8.329158059985131,-1.4166735520118945
7.574705399863295,-5.573106592655468,-8.373106592655468,-1.3815147258756255
7.582704032809296,-5.617055125325804,-8.417055125325804,-1.3463558997393568
7.590702665755298,-5.661003657996145,-8.461003657996145,-1.3111970736030838
7.598701298701299,-5.704952190666481,-8.504952190666481,-1.2760382474668148
7.6066999316473005,-5.748900723336817,-8.548900723336818,-1.240879421330546
7.6146985645933025,-5.792849256007158,-8.592849256007158,-1.205720595194273
7.622697197539304,-5.9,-7.232004253056923,-1.11314650262022
7.630695830485305,-5.9,-7.765208475734753,-1.7391660970609875
7.638694463431306,-5.892215740196156,-7.715568519607689,-2.0467055588230663
7.646693096377308,-5.882915004212433,-7.734169991575135,-2.1025099747254057
7.654691729323309,-5.87361426822871,-7.7527714635425795,-2.158314390627739
7.66269036226931,-5.864313532244988,-7.7713729355100245,-2.214118806530072
7.670688995215312,-5.855012796261265,-7.78997440747747,-2.2699232224324115
7.678687628161313,-5.845712060277543,-7.808575879444915,-2.3257276383347447
7.686686261107314,-5.83641132429382,-7.8271773514123595,-2.381532054237078
7.6946848940533155,-5.827110588310098,-7.845778823379804,-2.437336470139411
7.7026835269993175,-5.817809852326375,-7.86438029534725,-2.4931408860417505
7.710682159945319,-5.808509116342653,-7.8829817673146945,-2.5489453019440838
7.71868079289132,-5.76596035543401,-7.185167464114209,-2.70211893369797
7.726679425837322,-6.896225412014879,-8.106794258373217,-2.604529505582145
7.734678058783323,-6.851788562314874,-8.186780587833228,-2.6578537252221524
7.742676691729324,-6.807351712614867,-8.26676691729324,-2.71117794486216
7.750675324675325,-6.762914862914861,-8.34675324675325,-2.7645021645021677
7.758673957621327,-6.71847801321485,-8.42673957621327,-2.817826384142181
7.766672590567328,-6.674041163514843,-8.506725905673282,-2.8711506037821883
7.774671223513329,-6.629604313814837,-8.586712235133295,-2.9244748234221962
7.782669856459331,-6.585167464114826,-8.666698564593315,-2.9777990430622094
7.790668489405332,-6.540730614414819,-8.746684894053326,-3.031123262702217
7.7986671223513335,-6.496293764714814,-8.826671223513337,-3.0844474823422248
7.806665755297335,-6.451856915014807,-8.906657552973348,-3.137771701982232
7.814664388243337,-6.4074200653147955,-8.986643882433368,-3.1910959216222454
7.822663021189338,-6.304813983009466,-7.952953813104124,-4.913348305829615
7.830661654135339,-8.20578620464204,-1.3533344230140714,-0.6665413533834649
7.838660287081341,-8.223174537133348,-1.814125234033754,-0.8665071770335158
7.846658920027342,-8.240562869624656,-2.274916045053385,-1.0664730006835446
7.854657552973343,-8.257951202115963,-2.7357068560730164,-1.2664388243335731
7.862656185919344,-8.27533953460727,-3.1964976670926477,-1.4664046479836017
7.870654818865346,-8.292727867098579,-3.6572884781123305,-1.6663704716336527
7.878653451811347,-8.310116199589885,-4.118079289131962,-1.8663362952836815
7.8866520847573485,-8.327504532081193,-4.578870100151593,-2.06630211893371
7.8946507177033505,-8.3448928645725,-5.039660911171276,-2.266267942583761
7.902649350649352,-8.362281197063808,-5.500451722190907,-2.4662337662337896
7.910647983595353,-8.379669529555114,-5.961242533210538,-2.6661995898838184
7.918646616541354,-8.397057862046422,-6.42203334423017,-2.8661654135338472
7.926645249487356,-5.107541581225941,2.8804511278175795,-1.0002734108025022
7.934643882433357,-6.540680983643027,1.3838838639940856,-1.6168719896997403
7.942642515379358,-6.410470679870914,2.007033174903479,-4.946535471872321
7.95064114832536,-6.280260376098788,2.630182485812942,-8.27619895404527
7.958639781271361,-6.1500500723266756,3.2533317967223354,-11.605862436217851
7.966638414217362,-6.019839768554564,3.876481107631729,-14.93552591839043
7.974637047163363,-5.889629464782452,4.4996304185411224,-18.265189400563013
7.982635680109365,-5.759419161010325,5.122779729450585,-21.594852882735964
7.9906343130553665,-5.629208857238213,5.745929040359979,-24.924516364908545
7.998632946001368,-5.498998553466102,6.369078351269373,-28.254179847081126
8.006631578947369,-5.368788249693989,6.992227662178767,-31.583843329253703
8.01463021189337,-5.238577945921863,7.615376973088228,-34.91350681142666
8.022628844839373,-3.9142484309946486,-8.745560181444548,-1.1887404461575932
8.030627477785373,-2.823525756539996,-4.237239793698651,-6.133349903685352
8.038626110731375,-2.62349999166434,-2.8656944467599055,-7.6823333277762265
8.046624743677375,-2.799079739259465,-2.8169222946501487,-7.799386492839643
8.054623376623377,-2.9746594868546294,-2.7681501425403807,-7.916439657903086
8.06262200956938,-3.150239234449794,-2.719377990430613,-8.03349282296653
8.07062064251538,-3.325818982044919,-2.6706058383208555,-8.150545988029947
8.078619275461381,-3.5013987296400835,-2.6218336862110876,-8.26759915309339
8.086617908407383,-3.676978477235248,-2.5730615341013197,-8.384652318156832
8.094616541353384,-3.852558224830373,-2.524289381991563,-8.501705483220249
8.102615174299386,-4.0281379724255375,-2.475517229881795,-8.618758648283693
8.110613807245388,-4.203717720020702,-2.426745077772027,-8.735811813347135
8.118612440191388,-7.183732057416388,-3.1837320574163877,-5.263157894736622
8.12661107313739,-7.988061546516192,-3.494030773258096,-5.577599947644749
8.134609706083392,-7.971043178545975,-3.4855215892729876,-5.688219339451161
8.142608339029392,-7.954024810575762,-3.477012405287881,-5.798838731257547
8.150606971975394,-7.937006442605544,-3.468503221302772,-5.909458123063959
8.158605604921394,-7.919988074635332,-3.459994037317666,-6.020077514870345
8.166604237867396,-7.902969706665115,-3.4514848533325573,-6.130696906676757
8.174602870813398,-7.885951338694897,-3.4429756693474487,-6.241316298483168
8.182601503759399,-7.868932970724684,-3.434466485362342,-6.3519356902895545
8.1906001367054,-7.851914602754467,-3.4259573013772333,-6.4625550820959665
8.198598769651403,-7.8348962347842495,-3.4174481173921247,-6.573174473902378
8.206597402597403,-7.817877866814036,-3.408938933407018,-6.683793865708765
8.214596035543405,-7.800859498843819,-3.4004297494219093,-6.794413257515176
8.222594668489407,-7.101278856966467,-2.5083125702820386,-6.503836570899402
8.230593301435407,-7.118480218140661,-2.6201214179142998,-6.555440654421984
8.23859193438141,-7.135681579314859,-2.731930265546586,-6.6070447379445785
8.24659056732741,-7.152882940489053,-2.843739113178847,-6.65864882146716
8.254589200273411,-7.170084301663251,-2.955547960811133,-6.710252904989754
8.262587833219413,-7.187285662837449,-3.067356808443419,-6.761856988512347
8.270586466165414,-7.204487024011643,-3.1791656560756807,-6.813461072034929
8.278585099111416,-7.221688385185841,-3.2909745037079667,-6.865065155557523
8.286583732057418,-7.238889746360039,-3.402783351340253,-6.916669239080116
8.294582365003418,-7.256091107534233,-3.514592198972514,-6.968273322602698
8.30258099794942,-7.273292468708431,-3.6264010466048004,-7.019877406125292
8.310579630895422,-7.290493829882628,-3.7382098942370865,-7.071481489647885
8.318578263841422,-6.655434039644434,-2.9421736158577736,-4.815652768284452
8.326576896787424,-6.414764183185242,-2.7639781271360473,-5.329528366370483
8.334575529733426,-6.440566224946538,-2.8757869747683333,-5.381132449893077
8.342574162679426,-6.46636826670783,-2.9875958224005945,-5.4327365334156585
8.350572795625428,-6.4921703084691265,-3.0994046700328806,-5.484340616938253
8.358571428571429,-6.517972350230417,-3.2112135176651417,-5.535944700460835
8.36657006151743,-6.543774391991715,-3.323022365297428,-5.587548783983428
8.374568694463433,-6.569576433753011,-3.434831212929714,-5.639152867506022
8.382567327409433,-6.595378475514302,-3.5466400605619754,-5.690756951028604
8.390565960355435,-6.621180517275599,-3.6584489081942615,-5.742361034551198
8.398564593301437,-6.646982559036895,-3.7702577558265475,-5.793965118073792
8.406563226247437,-6.672784600798187,-3.882066603458809,-5.845569201596374
8.414561859193439,-6.6985866425594836,-3.993875451091095,-5.897173285118967
8.422560492139441,-6.867631889641448,-4.838159448207237,-6.597104331075657
8.430559125085441,-6.817203848782817,-4.482796151217183,-6.726883642673029
8.438557758031443,-7.063315631736726,-4.2366843682632735,-5.680908565118912
8.446556390977445,-7.209743536924509,-4.129230610773526,-5.090256463075491
8.454555023923445,-7.231657599790263,-4.194972799370787,-5.068342400209738
8.462553656869447,-7.253571662656022,-4.260714987968064,-5.046428337343978
8.470552289815448,-7.275485725521776,-4.3264571765653255,-5.024514274478225
8.47855092276145,-7.297399788387534,-4.392199365162602,-5.002600211612466
8.486549555707452,-7.319313851253293,-4.457941553759879,-4.980686148746707
8.494548188653452,-7.341227914119047,-4.52368374235714,-4.958772085880954
8.502546821599454,-7.363141976984806,-4.589425930954417,-4.936858023015195
8.510545454545456,-7.385056039850564,-4.655168119551693,-4.914943960149436
8.518544087491456,-7.478236500341775,-4.467354750512663,-5.15647300068355
8.526542720437458,-7.9,-3.898820172962047,-4.19823025944307
8.53454135338346,-7.9,-3.8814318404707384,-4.172147760706108
8.54253998632946,-7.9,-3.8640435079794337,-4.1460652619691505
8.550538619275462,-7.9,-3.846655175488125,-4.119982763232188
8.558537252221464,-7.9,-3.8292668429968164,-4.0939002644952245
8.566535885167465,-7.9,-3.8118785105055117,-4.067817765758267
8.574534518113467,-7.9,-3.794490178014203,-4.041735267021305
8.582533151059467,-7.9,-3.7771018455228984,-4.0156527682843475
8.590531784005469,-7.9,-3.7597135130315897,-3.9895702695473845
8.598530416951471,-7.9,-3.742325180540281,-3.9634877708104215
8.606529049897471,-7.9,-3.7249368480489764,-3.9374052720734642
8.614527682843473,-7.9,-3.7075485155576677,-3.9113227733365017
8.622526315789475,-7.5526315789475555,-4.3631578947377765,-3.131578947367112
8.630524948735475,-7.742515379357407,-4.833732057416357,-4.648701298701543
8.638523581681477,-7.573130065423295,-4.964173420564395,-5.16269651401231
8.64652221462748,-7.544563519187574,-4.9260846922500985,-5.229351788562327
8.65452084757348,-7.515996972951859,-4.887995963935812,-5.296007063112329
8.662519480519482,-7.487430426716137,-4.849907235621516,-5.3626623376623455
8.670518113465482,-7.458863880480422,-4.81181850730723,-5.429317612212348
8.678516746411484,-7.430297334244701,-4.773729778992934,-5.495972886762365
8.686515379357486,-7.401730788008979,-4.735641050678638,-5.562628161312382
8.694514012303486,-7.373164241773264,-4.697552322364351,-5.629283435862384
8.702512645249488,-7.3445976955375425,-4.659463594050056,-5.695938710412401
8.71051127819549,-7.31603114930182,-4.621374865735761,-5.762593984962418
8.71850991114149,-7.200660742765982,-3.775495557074487,-5.423182957393548
8.726508544087492,-7.498857204297772,-4.899428602148887,-4.7
8.734507177033494,-7.48088274823934,-4.89044137411967,-4.7
8.742505809979495,-7.462908292180913,-4.881454146090457,-4.7
8.750504442925497,-7.44493383612248,-4.8724669180612405,-4.7
8.758503075871499,-7.426959380064049,-4.863479690032024,-4.7
8.766501708817499,-7.408984924005622,-4.854492462002811,-4.7
8.7745003417635,-7.391010467947189,-4.8455052339735944,-4.7
8.782498974709501,-7.373036011888762,-4.836518005944381,-4.7
8.790497607655503,-7.35506155583033,-4.827530777915165,-4.7
8.798496240601505,-7.337087099771898,-4.818543549885949,-4.7
8.806494873547505,-7.319112643713471,-4.809556321856735,-4.7
8.814493506493507,-7.301138187655039,-4.800569093827519,-4.7
8.82249213943951,-7.150157211209801,-4.425393028024503,-4.400314422419603
8.83049077238551,-7.142236710657771,-4.088816446711144,-3.666449340133432
8.838489405331512,-7.346821599453646,-4.289405331512152,-2.6776486671219617
8.846488038277514,-7.888995215311041,-5.492583732057414,-3.059330143540694
8.854486671223514,-8.018702776597532,-5.481774768616872,-3.145801851065021
8.862485304169516,-8.148410337884052,-5.470965805176329,-3.2322735585893674
8.870483937115518,-8.27811789917057,-5.4601568417357855,-3.3187452661137136
8.878482570061518,-8.40782546045706,-5.449347878295245,-3.4052169736380407
8.88648120300752,-8.537533021743581,-5.438538914854702,-3.491688681162387
8.89447983595352,-8.66724058303007,-5.427729951414161,-3.5781603886867135
8.902478468899522,-8.79694814431659,-5.416920987973618,-3.6646320962110597
8.910477101845524,-8.926655705603109,-5.4061120245330745,-3.751103803735406
8.918475734791524,-8.74757347915246,-4.2,-4.566985645932778
8.926474367737526,-8.768856801093643,-4.254500598086127,-4.2
8.934473000683528,-8.735529163818635,-4.312823963317392,-4.2
8.942471633629529,-8.702201526543632,-4.371147328548643,-4.2
8.95047026657553,-8.668873889268625,-4.4294706937799075,-4.2
8.958468899521533,-8.635546251993617,-4.487794059011172,-4.2
8.966467532467533,-8.602218614718616,-4.546117424242424,-4.2
8.974466165413535,-8.568890977443607,-4.6044407894736885,-4.2
8.982464798359537,-8.535563340168599,-4.662764154704953,-4.2
8.990463431305537,-8.502235702893598,-4.721087519936205,-4.2
8.99846206425154,-8.468908065618589,-4.7794108851674695,-4.2
9.00646069719754,-8.435580428343588,-4.837734250398721,-4.2
9.014459330143541,-8.40225279106858,-4.896057615629985,-4.2
9.022457963089543,-7.801477300288849,-5.298030266281534,-4.797537832851918
9.030456596035544,-7.82727934205014,-5.263627543933147,-4.754534429916434
9.038455228981546,-7.853081383811436,-5.229224821584751,-4.711531026980938
9.046453861927548,-7.878883425572734,-5.194822099236355,-4.668527624045444
9.054452494873548,-7.9046854673340246,-5.160419376887967,-4.625524221109959
9.06245112781955,-7.930487509095321,-5.126016654539572,-4.582520818174464
9.070449760765552,-7.956289550856618,-5.0916139321911755,-4.5395174152389695
9.078448393711552,-7.982091592617909,-5.057211209842788,-4.496514012303484
9.086447026657554,-8.007893634379206,-5.022808487494392,-4.4535106093679895
9.094445659603556,-8.033695676140503,-4.9884057651459965,-4.410507206432495
9.102444292549556,-8.059497717901793,-4.954003042797608,-4.36750380349701
9.110442925495558,-8.08529975966309,-4.919600320449213,-4.324500400561515
9.118441558441559,-9.332467532467547,-5.066233766233773,-3.4441558441558486
9.12644019138756,-10.84296959407317,-5.176128003292685,-4.014323198024389
9.134438824333563,-10.92037571935706,-5.13312460035719,-4.040125239785686
9.142437457279563,-10.997781844640931,-5.090121197421705,-4.065927281546977
9.150436090225565,-11.075187969924823,-5.04711779448621,-4.091729323308274
9.158434723171567,-11.152594095208713,-5.004114391550716,-4.117531365069571
9.166433356117567,-11.230000220492586,-4.96111098861523,-4.143333406830862
9.174431989063569,-11.307406345776476,-4.918107585679736,-4.169135448592159
9.182430622009571,-11.384812471060366,-4.875104182744241,-4.194937490353455
9.190429254955571,-11.46221859634424,-4.832100779808756,-4.220739532114746
9.198427887901573,-11.53962472162813,-4.789097376873261,-4.246541573876043
9.206426520847574,-11.617030846912002,-4.746093973937776,-4.272343615637334
9.214425153793576,-11.694436972195893,-4.7030905710022815,-4.298145657398631
9.222423786739578,-12.05346423911012,-4.550692847822024,-4.5
9.230422419685578,-11.31551606288442,-4.25775803144221,-4.74224196855779
9.23842105263158,-10.550657894736833,-4.571052631578953,-4.892763157894739
9.246419685577582,-10.39923883783532,-4.673280845210677,-4.890839894348666
9.254418318523582,-10.290615427457539,-4.75227968912179,-4.8809650388597765
9.262416951469584,-10.181992017079732,-4.831278533032922,-4.871090183370885
9.270415584415586,-10.073368606701926,-4.9102773769440535,-4.861215327881993
9.278414217361586,-9.964745196324145,-4.989276220855167,-4.851340472393105
9.286412850307588,-9.856121785946339,-5.068275064766299,-4.8414656169042125
9.29441148325359,-9.747498375568535,-5.14727390867743,-4.831590761415321
9.30241011619959,-9.638874965190752,-5.226272752588544,-4.821715905926432
9.310408749145592,-9.530251554812947,-5.305271596499676,-4.811841050437541
9.318407382091593,-9.421628144435164,-5.3842704404107895,-4.801966194948651
9.326406015037595,-7.581203007518883,-6.103007518797207,-2.996992481202794
9.334404647983597,-9.113120539191549,-6.562293153602817,-2.7251378975981218
9.342403280929597,-9.280533786898532,-6.506488737700489,-2.7623408415330073
9.350401913875599,-9.447947034605553,-6.450684321798149,-2.799543785467901
9.358400546821601,-9.615360282312576,-6.394879905895808,-2.836746729402795
9.366399179767601,-9.78277353001956,-6.33907548999348,-2.87394967333768
9.374397812713603,-9.950186777726582,-6.2832710740911395,-2.911152617272574
9.382396445659605,-10.117600025433603,-6.227466658188799,-2.9483555612074674
9.390395078605605,-10.285013273140589,-6.17166224228647,-2.985558505142353
9.398393711551607,-10.45242652084761,-6.11585782638413,-3.0227614490772465
9.40639234449761,-10.61983976855463,-6.06005341048179,-3.05996439301214
9.41439097744361,-10.787253016261616,-6.004248994579462,-3.0971673369470256
9.422389610389612,-11.699581064097192,-5.39832425638877,-2.3995810640971924
9.430388243335612,-11.690980383510094,-5.363921534040382,-2.390980383510095
9.438386876281614,-11.682379702922995,-5.329518811691986,-2.3823797029229965
9.446385509227616,-11.673779022335896,-5.2951160893435905,-2.3737790223358974
9.454384142173616,-11.665178341748799,-5.260713366995202,-2.3651783417488006
9.462382775119618,-11.656577661161702,-5.226310644646807,-2.3565776611617015
9.47038140806562,-11.647976980574603,-5.191907922298411,-2.3479769805746025
9.47838004101162,-11.639376299987505,-5.157505199950022,-2.3393762999875056
9.486378673957622,-11.630775619400406,-5.123102477601627,-2.3307756194004066
9.494377306903624,-11.622174938813307,-5.088699755253231,-2.3221749388133075
9.502375939849625,-11.61357425822621,-5.054297032904843,-2.3135742582262107
9.510374572795627,-11.604973577639111,-5.019894310556447,-2.3049735776391116
9.518373205741629,-11.174641148325623,-4.088038277511564,-2.437320574162812
9.526371838687629,-11.877141111967541,-3.0771411119675403,-2.782855833975655
9.53437047163363,-11.843104376027107,-3.043104376027106,-2.757328282020329
9.542369104579631,-11.80906764008668,-3.009067640086679,-2.731800730065009
9.550367737525633,-11.775030904146245,-2.975030904146245,-2.7062731781096834
9.558366370471635,-11.74099416820581,-2.940994168205811,-2.680745626154358
9.566365003417635,-11.706957432265384,-2.906957432265384,-2.6552180741990377
9.574363636363637,-11.67292069632495,-2.87292069632495,-2.6296905222437124
9.58236226930964,-11.638883960384515,-2.8388839603845155,-2.6041629702883866
9.59036090225564,-11.60484722444409,-2.8048472244440887,-2.5786354183330666
9.598359535201642,-11.570810488503655,-2.7708104885036544,-2.553107866377741
9.606358168147644,-11.53677375256322,-2.73677375256322,-2.527580314422415
9.614356801093644,-11.502737016622794,-2.7027370166227938,-2.502052762467095
9.622355434039646,-11.070933014354026,-2.516114149008868,-2.2548188653451575
9.630354066985646,-10.329186602870918,-1.7937799043063756,-2.0645933014354587
9.638352699931648,-9.983236500341759,-1.4041908749145602,-2.1041908749145604
9.64635133287765,-9.943243335611749,-1.4141891660970627,-2.114189166097063
9.65434996582365,-9.903250170881748,-1.424187457279563,-2.124187457279563
9.662348598769652,-9.863257006151738,-1.4341857484620655,-2.1341857484620657
9.670347231715654,-9.823263841421728,-1.444184039644568,-2.144184039644568
9.678345864661654,-9.783270676691727,-1.4541823308270683,-2.1541823308270684
9.686344497607656,-9.743277511961717,-1.4641806220095708,-2.164180622009571
9.694343130553658,-9.703284347231707,-1.4741789131920733,-2.1741789131920735
9.702341763499659,-9.663291182501705,-1.4841772043745736,-2.1841772043745737
9.71034039644566,-9.623298017771695,-1.494175495557076,-2.1941754955570762
9.718339029391663,-9.474786397812657,-1.3330485304168755,-2.0330485304168757
9.726337662337663,-8.266233766233773,-1.3844155844155672,-1.4324675324675464
9.734336295283665,-8.092716901972798,-1.8072830980272014,-1.0927169019727987
9.742334928229665,-8.083523071000384,-1.8164769289996154,-1.0835230710003847
9.750333561175667,-8.074329240027968,-1.8256707599720317,-1.0743292400279685
9.75833219412167,-8.065135409055552,-1.8348645909444476,-1.0651354090555523
9.76633082706767,-8.055941578083138,-1.8440584219168619,-1.0559415780831383
9.774329460013671,-8.046747747110722,-1.8532522528892779,-1.046747747110722
9.782328092959673,-8.037553916138306,-1.862446083861694,-1.037553916138306
9.790326725905674,-8.028360085165891,-1.871639914834108,-1.0283600851658918
9.798325358851676,-8.019166254193475,-1.8808337458065243,-1.0191662541934758
9.806323991797678,-8.00997242322106,-1.8900275767789403,-1.0099724232210596
9.814322624743678,-8.000778592248645,-1.8992214077513543,-1.0007785922486456
9.82232125768968,-6.497581931367995,-2.0993091232479983,-0.0986182464959969
9.830319890635682,-6.437377167258302,-2.0821077620738007,-0.06421552414760118
9.838318523581682,-6.377172403148623,-2.0649064008996065,-0.029812801799213084
9.846317156527684,-6.31696763903893,-2.047705039725409,0.004589920549182641
9.854315789473684,-6.256762874929251,-2.0305036785512147,0.038992642897570734
9.862314422419686,-6.196558110819558,-2.0133023173770166,0.07339536524596646
9.870313055365688,-6.136353346709866,-1.996100956202819,0.10779808759436219
9.878311688311689,-6.076148582600187,-1.9788995950286248,0.14220080994275028
9.88631032125769,-6.015943818490494,-1.9616982338544269,0.17660353229114603
9.894308954203693,-5.9557390543808015,-1.944496872680229,0.21100625463954173
9.902307587149693,-5.895534290271122,-1.927295511506035,0.24540897698792982
9.910306220095695,-5.83532952616143,-1.9100941503318372,0.27981169933632555
9.918304853041697,-4.969514695830251,-1.9,0.7457279562546222
9.926303485987697,-4.801416832595322,-1.9,1.098583167404678
9.934302118933699,-4.810110998840977,-1.9,1.0898890011590234
9.942300751879701,-4.818805165086631,-1.9,1.0811948349133689
9.950299384825701,-4.827499331332284,-1.9,1.0725006686677165
9.958298017771703,-4.836193497577938,-1.9,1.063806502422062
9.966296650717704,-4.844887663823591,-1.9,1.0551123361764094
9.974295283663706,-4.8535818300692455,-1.9,1.0464181699307549
9.982293916609708,-4.862275996314899,-1.9,1.0377240036851005
9.990292549555708,-4.870970162560552,-1.9,1.029029837439448
9.99829118250171,-4.879664328806207,-1.9,1.0203356711937934
10.006289815447712,-4.888358495051861,-1.9,1.0116415049481389
10.014288448393712,-4.897052661297514,-1.9,1.0029473387024863
10.022287081339714,-5.033492822966607,-2.4143540669856884,0.9952153110047706
10.030285714285716,-5.7048632218845015,-2.707294832826752,0.8951367781154989
10.038284347231716,-5.721881589854715,-2.732822384782072,0.8781184101452855
10.046282980177718,-5.738899957824932,-2.758349936737398,0.8611000421750683
10.054281613123718,-5.755918325795145,-2.783877488692718,0.8440816742048549
10.06228024606972,-5.772936693765362,-2.8094050406480435,0.8270633062346378
10.070278879015722,-5.789955061735579,-2.8349325926033693,0.8100449382644207
10.078277511961723,-5.806973429705793,-2.8604601445586892,0.7930265702942073
10.086276144907725,-5.82399179767601,-2.885987696514015,0.7760082023239901
10.094274777853727,-5.841010165646227,-2.9115152484693403,0.758989834353773
10.102273410799727,-5.858028533616441,-2.9370428004246607,0.7419714663835597
10.110272043745729,-5.875046901586658,-2.962570352379986,0.7249530984133425
10.118270676691731,-5.892065269556875,-2.9880979043353117,0.7079347304431254
10.126269309637731,-7.007723855092665,-3.653861927546332,0.2730690362268338
10.134267942583733,-8.749004117057986,-4.512251029264497,-0.08774897073550321
10.142266575529735,-8.823410004927773,-4.530852501231943,-0.06914749876805674
10.150265208475735,-8.897815892797542,-4.549453973199386,-0.050546026800614416
10.158263841421737,-8.972221780667327,-4.5680554451668325,-0.03194455483316795
10.166262474367738,-9.046627668537097,-4.586656917134275,-0.013343082865725636
10.17426110731374,-9.121033556406882,-4.605258389101721,0.005258389101720828
10.182259740259742,-9.19543944427667,-4.6238598610691675,0.023859861069167293
10.190258373205742,-9.269845332146438,-4.64246133303661,0.04246133303660962
10.198257006151744,-9.344251220016224,-4.661062805004057,0.06106280500405609
10.206255639097746,-9.418657107886009,-4.6796642769715024,0.07966427697150252
10.214254272043746,-9.49306299575578,-4.698265748938945,0.09826574893894485
10.222252904989748,-9.224128503075441,-4.825290498974853,0.325290498974853
10.23025153793575,-8.686260356185164,-5.048088753351923,0.4931301780925824
10.23825017088175,-8.668680943117032,-5.109616699090387,0.4843404715585162
10.246248803827752,-8.651101530048896,-5.171144644828864,0.475550765024448
10.254247436773754,-8.633522116980759,-5.232672590567342,0.46676105849037974
10.262246069719755,-8.615942703912626,-5.294200536305805,0.4579713519563135
10.270244702665757,-8.59836329084449,-5.355728482044283,0.4491816454222453
10.278243335611757,-8.580783877776359,-5.417256427782747,0.44039193888817907
10.286241968557759,-8.563204464708221,-5.478784373521224,0.4316022323541109
10.29424060150376,-8.545625051640085,-5.5403123192597015,0.4228125258200427
10.302239234449761,-8.528045638571953,-5.601840264998166,0.4140228192859764
10.310237867395763,-8.510466225503816,-5.6633682107366425,0.4052331127519082
10.318236500341765,-8.2,-4.488174982911727,-0.1960583276372422
10.326235133287765,-8.31175666438827,-4.386261107313783,-0.06274777853724345
10.334233766233767,-8.711688311688356,-5.052813852813925,0.07056277056278493
10.34223239917977,-8.83944556442892,-5.223667338657351,0.1157782257715674
10.35023103212577,-8.89006982358082,-5.254041894148492,0.13602792943232778
10.358229665071772,-8.940694082732731,-5.2844164496396395,0.15627763309309262
10.366228298017774,-8.991318341884645,-5.314791005130786,0.17652733675385748
10.374226930963774,-9.041942601036546,-5.345165560621927,0.19677704041461785
10.382225563909776,-9.092566860188457,-5.375540116113074,0.21702674407538272
10.390224196855776,-9.143191119340358,-5.405914671604215,0.2372764477361431
10.398222829801778,-9.193815378492271,-5.4362892270953616,0.25752615139690793
10.40622146274778,-9.244439637644183,-5.466663782586509,0.27777585505767277
10.41422009569378,-9.295063896796083,-5.49703833807765,0.29802555871843317
10.422218728639782,-9.894813920681775,-6.703889559488669,0.4038895594886688
10.430217361585784,-9.860777184741341,-6.729417111443994,0.429417111443994
10.438215994531785,-9.826740448800916,-6.754944663399313,0.45494466339931355
10.446214627477787,-9.792703712860481,-6.780472215354639,0.4804722153546388
10.454213260423789,-9.758666976920049,-6.805999767309964,0.505999767309964
10.462211893369789,-9.724630240979621,-6.831527319265284,0.5315273192652835
10.47021052631579,-9.690593505039189,-6.857054871220609,0.5570548712206087
10.478209159261791,-9.656556769098762,-6.882582423175928,0.5825824231759282
10.486207792207793,-9.62252003315833,-6.908109975131254,0.6081099751312535
10.494206425153795,-9.588483297217895,-6.933637527086579,0.6336375270865787
10.502205058099795,-9.55444656127747,-6.959165079041898,0.6591650790418982
10.510203691045797,-9.520409825337035,-6.984692630997223,0.6846926309972234
10.5182023239918,-9.210116199589931,-8.340464798359731,0.9797676008201351
10.5262009569378,-9.498650610182247,-8.704048169453255,0.4946024407289929
10.534199589883801,-9.489663382153033,-8.731009853540902,0.4586535286121301
10.542198222829803,-9.480676154123817,-8.75797153762855,0.42270461649526736
10.550196855775804,-9.471688926094604,-8.78493322171619,0.38675570437841256
10.558195488721806,-9.462701698065388,-8.811894905803838,0.35080679226154976
10.566194121667808,-9.453714470036171,-8.838856589891485,0.31485788014468696
10.574192754613808,-9.444727242006959,-8.865818273979125,0.27890896802783216
10.58219138755981,-9.435740013977743,-8.892779958066773,0.24296005591096942
10.59019002050581,-9.426752785948528,-8.919741642154413,0.20701114379411462
10.598188653451812,-9.417765557919314,-8.94670332624206,0.17106223167725187
10.606187286397814,-9.408778329890097,-8.973665010329707,0.13511331956038908
10.614185919343814,-9.353520164046568,-9.120847573478922,0.034928229665195876
10.622184552289816,-6.8800965481886465,-10.636489661654148,-1.2398069036227077
10.630183185235818,-6.830105092276134,-10.72814066416042,-1.3397898154477326
10.638181818181819,-6.780113636363632,-10.819791666666674,-1.4397727272727354
10.64618045112782,-6.73012218045112,-10.911442669172947,-1.5397556390977605
10.654179084073823,-6.680130724538607,-11.003093671679219,-1.6397385509227853
10.662177717019823,-6.630139268626106,-11.094744674185472,-1.739721462747788
10.670176349965825,-6.5801478127135935,-11.186395676691745,-1.839704374572813
10.678174982911827,-6.530156356801081,-11.278046679198019,-1.939687286397838
10.686173615857827,-6.48016490088858,-11.36969768170427,-2.039670198222841
10.694172248803829,-6.430173444976067,-11.461348684210543,-2.139653110047866
10.70217088174983,-6.380181989063566,-11.552999686716795,-2.2396360218728684
10.710169514695831,-6.330190533151053,-11.644650689223068,-2.3396189336978934
10.718168147641833,-5.908407382091666,-13.324333561175008,-3.8747778537250026
10.726166780587834,-6.0,-11.0984589573106,-3.487876716584848
10.734165413533836,-5.99636159363927,-9.84354852648858,-3.323593466424655
10.742164046479838,-5.987167762666854,-9.448213794674686,-3.1305230160039166
10.750162679425838,-5.977973931694439,-9.052879062860882,-2.9374525655832207
10.75816131237184,-5.968780100722023,-8.657544331046987,-2.744382115162482
10.766159945317842,-5.959586269749607,-8.262209599233094,-2.5513116647417435
10.774158578263842,-5.950392438777193,-7.866874867419289,-2.358241214321048
10.782157211209844,-5.941198607804777,-7.471540135605395,-2.1651707639003095
10.790155844155846,-5.932004776832361,-7.076205403791502,-1.972100313479571
10.798154477101846,-5.922810945859947,-6.680870671977697,-1.7790298630588752
10.806153110047848,-5.913617114887531,-6.285535940163803,-1.5859594126381367
10.814151742993849,-5.904423283915117,-5.890201208349998,-1.392888962217441
10.82215037593985,-2.339849624059536,2.294736842104188,7.1609022556427835
10.830149008885853,-1.6678186944634172,-1.248271958304874,8.266685534859775
10.838147641831853,-1.6178272385509158,-1.3232591421736262,7.90424747949414
10.846146274777855,-1.5678357826384035,-1.3982463260423947,7.541809424128425
10.854144907723857,-1.517844326725891,-1.4732335099111635,7.179371368762709
10.862143540669857,-1.4678528708133896,-1.5482206937799157,6.816933313397074
10.870142173615859,-1.417861414900877,-1.6232078776486842,6.454495258031359
10.878140806561861,-1.3678699589883647,-1.698195061517453,6.092057202665643
10.886139439507861,-1.3178785030758633,-1.7731822453862052,5.729619147300008
10.894138072453863,-1.2092048302575398,-1.056903622693155,6.579915698337005
10.902136705399865,-0.3,0.10507457767797068,7.497970168928812
10.910135338345865,-0.3,0.14078276047261454,7.483686895810954
10.918133971291867,-0.3,0.1764909432672663,7.469403622693093
10.926132604237868,-0.3,0.21219912606191016,7.455120349575236
10.93413123718387,-0.3,0.24790730885656193,7.440837076457375
10.942129870129872,-0.3,0.2836154916512137,7.426553803339514
10.950128503075872,-0.3,0.3193236744458575,7.412270530221657
10.958127136021874,-0.3,0.35503185724050934,7.397987257103797
10.966125768967876,-0.3,0.39074004003516105,7.383703983985935
10.974124401913876,-0.3,0.4264482228298049,7.369420710868078
10.982123034859878,-0.3,0.4621564056244567,7.355137437750217
10.99012166780588,-0.3,0.4978645884191084,7.340854164632357
10.99812030075188,-0.3,0.5335727712137522,7.326570891514499
11.006118933697882,-0.3,0.5692809540084041,7.312287618396638
11.014117566643883,-0.28758259284574783,0.5875825928457478,7.337252221462756
11.022116199589885,-0.2116199589884467,0.5232399179768934,7.6
11.030114832535887,-0.1819476498733423,1.0240698001688768,8.6
11.038113465481887,-0.15371718065216472,1.0617104257971137,8.6
11.046112098427889,-0.12548671143098086,1.0993510514253588,8.6
11.05411073137389,-0.097256242209797,1.136991677053604,8.6
11.062109364319891,-0.06902577298861942,1.1746323026818408,8.6
11.070107997265893,-0.040795303767435565,1.212272928310086,8.6
11.078106630211895,-0.012564834546251707,1.249913553938331,8.6
11.086105263157895,0.015665634674925877,1.2875541795665677,8.6
11.094103896103897,0.043896103896109734,1.3251948051948128,8.6
11.1021025290499,0.07212657311729359,1.362835430823058,8.6
11.1101011619959,0.11011619959001226,1.405058099795006,8.584825700614982
11.118099794941902,0.5741683754841561,1.4774948735475315,8.390020505809874
11.126098427887902,0.5075131009341568,1.6774606971975297,7.590157211209881
11.134097060833904,0.9950637821278275,1.8950637821278276,8.134553525105206
11.142095693779906,0.9854268749639695,1.8854268749639695,8.202011875252213
11.150094326725906,0.9757899678001136,1.8757899678001135,8.269470225399203
11.158092959671908,0.9661530606362556,1.8661530606362555,8.33692857554621
11.16609159261791,0.9565161534723976,1.8565161534723975,8.404386925693217
11.17409022556391,0.9468792463085418,1.8468792463085417,8.471845275840208
11.182088858509912,0.9372423391446837,1.8372423391446837,8.539303625987214
11.190087491455914,0.9276054319808257,1.8276054319808257,8.606761976134221
11.198086124401915,0.9179685248169698,1.81796852481697,8.674220326281212
11.206084757347917,0.9083316176531118,1.808331617653112,8.741678676428219
11.214083390293919,0.9541695146959495,1.5833219412162023,8.908339029391898
11.222082023239919,0.13748796852986622,2.179173350816741,9.283338680653394
11.23008065618592,0.2109448017074351,2.138363999051425,9.25069119924114
11.238079289131921,0.28440163488498765,2.097554647286118,9.218043717828895
11.246077922077923,0.3578584680625565,2.056745295520802,9.185396236416642
11.254076555023925,0.4313153012401254,2.015935943755486,9.152748755004389
11.262075187969925,0.504772134417678,1.975126591990179,9.120101273592145
11.270073820915927,0.5782289675952468,1.934317240224863,9.087453792179891
11.27807245386193,0.6516858007728157,1.8935078884595469,9.054806310767638
11.28607108680793,0.7251426339503682,1.85269853669424,9.022158829355392
11.294069719753931,0.7985994671279371,1.8118891849289238,8.98951134794314
11.302068352699933,0.872056300305506,1.7710798331636077,8.956863866530886
11.310066985645934,0.9455131334830584,1.7302704813983008,8.92421638511864
11.318065618591936,1.0409432672575816,2.8671907040319895,9.386876281612796
11.326064251537938,0.29036226930924125,2.7322624743676935,9.193574846206161
11.334062884483938,-0.013180183660735898,2.6934099081696323,9.0
11.34206151742994,-0.030568516152044506,2.684715741923978,9.0
11.35006015037594,-0.04795684864334925,2.6760215756783254,9.0
11.358058783321942,-0.06534518113465786,2.667327409432671,9.0
11.366057416267944,-0.08273351362596647,2.6586332431870168,9.0
11.374056049213944,-0.10012184611727122,2.6499390769413647,9.0
11.382054682159946,-0.11751017860857982,2.6412449106957103,9.0
11.390053315105948,-0.13489851109988843,2.632550744450056,9.0
11.398051948051949,-0.15228684359119318,2.6238565782044034,9.0
11.40605058099795,-0.1696751760825018,2.615162411958749,9.0
11.414049213943953,-0.1870635085738104,2.6064682457130948,9.0
11.422047846889953,0.3904306220095354,2.628708133971394,9.295215311004767
11.430046479835955,-0.08599319615652734,3.103501700960868,9.396498299039132
11.438045112781955,-0.04921787226687101,3.1126955319332823,9.387304468066718
11.446043745727957,-0.0124425483772065,3.1218893629056983,9.378110637094302
11.45404237867396,0.024332775512457994,3.1310831938781147,9.368916806121886
11.46204101161996,0.06110809940211431,3.1402770248505285,9.359722975149472
11.470039644565961,0.09788342329177882,3.149470855822945,9.350529144177056
11.478038277511963,0.13465874718144333,3.158664686795361,9.34133531320464
11.486036910457964,0.17143407107109968,3.167858517767775,9.332141482232226
11.494035543403966,0.20820939496076415,3.177052348740191,9.32294765125981
11.502034176349968,0.24498471885042863,3.186246179712607,9.313753820287394
11.510032809295968,0.28176004274008504,3.1954400106850214,9.30455998931498
11.51803144224197,0.16561859193432193,2.998427887901483,9.098427887901483
11.526030075187972,0.04518113465480256,2.8451811346548026,9.109637730690395
11.534028708133972,0.2985645933014303,2.704306220095709,9.595693779904291
11.542027341079974,0.17767651451861335,3.0,9.285117676345743
11.550025974025974,0.14805194805194632,3.0,9.265367965367965
11.558024606971976,0.11842738158527269,3.0,9.245618254390182
11.566023239917978,0.08880281511859907,3.0,9.2258685434124
11.574021872863979,0.059178248651932025,3.0,9.20611883243462
11.58202050580998,0.029553682185258418,3.0,9.186369121456838
11.590019138755983,-7.088428141521774e-05,3.0,9.166619410479056
11.598017771701983,-0.029695450748082247,3.0,9.146869699501279
11.606016404647985,-0.05932001721475588,3.0,9.127119988523496
11.614015037593987,-0.08894458368142949,3.0,9.107370277545714
11.622013670539987,0.06712235133291439,3.0835611756664574,9.1
11.630012303485989,-0.10638826503488537,3.0,9.406388265034886
11.638010936431991,-0.13178075057774863,3.0,9.43178075057775
11.646009569377991,-0.15717323612060624,3.0,9.457173236120607
11.654008202323993,-0.18256572166346952,3.0,9.48256572166347
11.662006835269993,-0.20795820720632713,3.0,9.507958207206327
11.670005468215995,-0.23335069274919037,3.0,9.53335069274919
11.678004101161997,-0.2587431782920536,3.0,9.558743178292053
11.686002734107998,-0.28413566383491123,3.0,9.58413566383491
11.694001367054,0.10013670539997785,3.150068352699989,9.6
11.702,-0.8,3.6,6.5
