gyro_time_list,gyro_x_list,gyro_y_list,gyro_z_list
0.0,0.0,0.0,0.0
0.007996156802459646,-0.1970335081163766,-0.18813403246550636,-0.18813403246550636
0.015992313604919293,-0.18911652118324823,-0.1564660847329929,-0.1564660847329929
0.02398847040737894,-0.18119953425011986,-0.12479813700047945,-0.12479813700047945
0.031984627209838586,-0.1732825473169915,-0.093130189267966,-0.093130189267966
0.03998078401229823,-0.16536556038386313,-0.061462241535452544,-0.061462241535452544
0.04797694081475788,-0.15744857345073476,-0.029794293802939076,-0.029794293802939076
0.055973097617217527,-0.1495315865176064,0.0018736539295743926,0.0018736539295743926
0.06396925441967717,-0.14161459958447806,0.03354160166208783,0.03354160166208783
0.07196541122213682,-0.1336976126513497,0.06520954939460127,0.06520954939460127
0.07996156802459646,-0.12578062571822135,0.09687749712711469,0.09687749712711469
0.0879577248270561,-0.11786363878509297,0.12854544485962816,0.12854544485962816
0.09595388162951576,-0.1099466518519646,0.16021339259214162,0.16021339259214162
0.10395003843197541,-0.10202966491883624,0.1918813403246551,0.1918813403246551
0.11194619523443505,-0.1,0.035126825518831645,0.2
0.1199423520368947,-0.1973005944615645,0.0,0.09730059446156451
0.12793850883935434,-0.18996467078958318,0.0,0.08996467078958319
0.135934665641814,-0.18262874711760185,0.0,0.08262874711760185
0.14393082244427363,-0.17529282344562053,0.0,0.07529282344562054
0.1519269792467333,-0.1679568997736392,0.0,0.0679568997736392
0.15992313604919292,-0.16062097610165788,0.0,0.060620976101657884
0.16791929285165258,-0.15328505242967655,0.0,0.053285052429676544
0.1759154496541122,-0.14594912875769522,0.0,0.04594912875769523
0.18391160645657187,-0.1386132050857139,0.0,0.03861320508571389
0.19190776325903153,-0.13127728141373257,0.0,0.03127728141373255
0.19990392006149116,-0.12394135774175125,0.0,0.02394135774175124
0.20790007686395082,-0.1166054340697699,0.0,0.0166054340697699
0.21589623366641045,-0.1092695103977886,0.0,0.009269510397788588
0.2238923904688701,-0.10193358672580725,0.0,0.0019335867258072487
0.23188854727132974,-0.08885472713297253,0.1,0.0
0.2398847040737894,-0.1,0.1,0.0
0.24788086087624903,-0.1,0.1,0.0
0.2558770176787087,-0.1,0.1,0.0
0.2638731744811683,-0.1,0.1,0.0
0.271869331283628,-0.1,0.1,0.0
0.27986548808608763,-0.1,0.1,0.0
0.28786164488854726,-0.1,0.1,0.0
0.2958578016910069,-0.1,0.1,0.0
0.3038539584934666,-0.1,0.1,0.0
0.3118501152959262,-0.1,0.1,0.0
0.31984627209838584,-0.1,0.1,0.0
0.32784242890084553,-0.1,0.1,0.0
0.33583858570330516,-0.13489623366641035,0.13489623366641035,0.03489623366641035
0.3438347425057648,-0.20130428516525745,0.2,0.1
0.3518308993082244,-0.21379828016910063,0.2,0.1
0.3598270561106841,-0.2262922751729439,0.2,0.1
0.36782321291314374,-0.23878627017678708,0.2,0.1
0.37581936971560337,-0.2512802651806303,0.2,0.1
0.38381552651806305,-0.26377426018447353,0.2,0.1
0.3918116833205227,-0.2762682551883167,0.2,0.1
0.3998078401229823,-0.2887622501921599,0.2,0.1
0.40780399692544195,-0.3,0.2,0.1
0.41580015372790163,-0.5057145994446972,0.3028572997223486,0.3028572997223486
0.42379631053036126,-0.5220332867966557,0.31101664339832785,0.31101664339832785
0.4317924673328209,-0.5383519741486141,0.31917598707430705,0.31917598707430705
0.4397886241352805,-0.5546706615005725,0.32733533075028626,0.32733533075028626
0.4477847809377402,-0.570989348852531,0.3354946744262655,0.3354946744262655
0.45578093774019984,-0.5873080362044895,0.3436540181022448,0.3436540181022448
0.4637770945426595,-0.6036267235564479,0.351813361778224,0.351813361778224
0.47177325134511916,-0.6199454109084064,0.35997270545420323,0.35997270545420323
0.4797694081475788,-0.6362640982603649,0.36813204913018244,0.36813204913018244
0.4877655649500384,-0.6525827856123232,0.37629139280616164,0.37629139280616164
0.49576172175249805,-0.6689014729642817,0.3844507364821409,0.3844507364821409
0.5037578785549577,-0.6852201603162401,0.3926100801581201,0.3926100801581201
0.5117540353574174,-0.9262106072252076,0.4754035357417359,0.4754035357417359
0.5197501921598771,-2.8196650804480563,0.7019665080448056,1.005899524134417
0.5277463489623366,-2.9095095389026584,0.7109509538902659,1.0328528616707975
0.5357425057647963,-2.999353997357262,0.7199353997357262,1.0598061992071786
0.543738662567256,-3.089198455811865,0.7289198455811865,1.0867595367435596
0.5517348193697156,-3.179042914266467,0.7379042914266467,1.11371287427994
0.5597309761721753,-3.2688873727210703,0.746888737272107,1.140666211816321
0.5677271329746348,-3.358731831175672,0.7558731831175672,1.1676195493527017
0.5757232897770945,-3.4485762896302754,0.7648576289630276,1.1945728868890828
0.5837194465795542,-3.538420748084879,0.7738420748084879,1.2215262244254637
0.5917156033820138,-3.6282652065394805,0.7828265206539481,1.2484795619618443
0.5997117601844735,-3.718109664994084,0.7918109664994084,1.2754328994982251
0.6077079169869332,-4.189354342813247,0.8,1.4061875480399766
0.6157040737893927,-6.089876789369944,1.2949383946849722,2.3
0.6237002305918524,-6.042374867771174,1.2711874338855869,2.3
0.6316963873943121,-5.994872946172403,1.2474364730862018,2.3
0.6396925441967717,-5.947371024573633,1.2236855122868167,2.3
0.6476887009992314,-5.899869102974863,1.1999345514874316,2.3
0.6556848578016911,-5.852367181376092,1.1761835906880465,2.3
0.6636810146041506,-5.804865259777323,1.1524326298886614,2.3
0.6716771714066103,-5.7573633381785525,1.1286816690892763,2.3
0.6796733282090699,-5.709861416579782,1.1049307082898914,2.3
0.6876694850115296,-5.662359494981012,1.081179747490506,2.3
0.6956656418139893,-5.614857573382242,1.057428786691121,2.3
0.7036617986164488,-5.567355651783472,1.033677825891736,2.3
0.7116579554189085,-5.5198537301847015,1.0099268650923507,2.3
0.7196541122213682,-5.366352805534206,0.6442352036894706,2.2221176018447353
0.7276502690238278,-5.566256725595695,0.7775044837304635,2.2887522418652315
0.7356464258262875,-5.655386881885729,1.0769344094286453,2.355386881885729
0.7436425826287472,-5.523827824750189,1.5642582628747168,2.4
0.7516387394312067,-5.536374949672413,1.5878750167758624,2.3757500335517245
0.7596348962336664,-5.574451886826983,1.5751827043910058,2.3503654087820114
0.7676310530361261,-5.6125288239815525,1.562490392006149,2.3249807840122982
0.7756272098385857,-5.650605761136122,1.5497980796212927,2.299596159242585
0.7836233666410454,-5.688682698290692,1.537105767236436,2.274211534472872
0.791619523443505,-5.726759635445261,1.5244134548515795,2.2488269097031592
0.7996156802459646,-5.764836572599831,1.511721142466723,2.223442284933446
0.8076118370484243,-5.9223674096848535,1.5611837048424269,2.261183704842427
0.8156079938508839,-5.637202152190619,1.8,3.0215987701767895
0.8236041506533436,-4.428778767463942,1.6935253424967218,3.525898630013112
0.8316003074558033,-4.342545703908003,1.6856859730825458,3.557256107669817
0.8395964642582628,-4.256312640352067,1.6778466036683697,3.588613585326521
0.8475926210607225,-4.170079576796129,1.6700072342541936,3.619971062983226
0.8555887778631822,-4.083846513240191,1.6621678648400173,3.6513285406399305
0.8635849346656418,-3.997613449684255,1.6543284954258415,3.6826860182966343
0.8715810914681015,-3.911380386128317,1.6464891260116652,3.714043495953339
0.879577248270561,-3.8251473225723807,1.6386497565974891,3.7454009736100433
0.8875734050730207,-3.7389142590164433,1.630810387183313,3.776758451266748
0.8955695618754804,-3.6526811954605054,1.622971017769137,3.8081159289234527
0.90356571867794,-3.566448131904569,1.615131648354961,3.8394734065801566
0.9115618754803997,-3.480215068348631,1.6072922789407846,3.8708308842368613
0.9195580322828594,-2.8977709454266005,1.7116064565718665,4.011606456571866
0.927554189085319,-0.2876906550105113,2.7061546724947445,4.596922663752627
0.9355503458877786,-0.24915495957697062,2.7254225202115148,4.587288739894242
0.9435465026902383,-0.21061926414342996,2.744690367928285,4.577654816035857
0.9515426594926979,-0.1720835687098898,2.7639582156450553,4.568020892177472
0.9595388162951576,-0.13354787327634912,2.7832260633618255,4.558386968319087
0.9675349730976173,-0.09501217784280847,2.802493911078596,4.548753044460702
0.9755311299000768,-0.05647648240926831,2.821761758795366,4.539119120602317
0.9835272867025365,-0.01794078697572765,2.8410296065121363,4.529485196743932
0.9915234435049961,0.020594908457812477,2.860297454228906,4.519851272885547
0.9995196003074558,0.05913060389135316,2.8795653019456764,4.510217349027162
1.0075157571099154,0.09766629932489329,2.8988331496624467,4.500583425168776
1.0155119139123752,1.6488086087624851,2.3732129131437274,2.3196387394311824
1.0235080707148347,1.5708424438258846,2.278131832869413,2.041684887651769
1.0315042275172943,1.539789407699828,2.254842055774871,1.979578815399656
1.0395003843197541,1.5087363715737705,2.231552278680328,1.9174727431475411
1.0474965411222137,1.477683335447714,2.2082625015857853,1.8553666708954277
1.0554926979246733,1.4466302993216573,2.1849727244912427,1.7932605986433146
1.063488854727133,1.4155772631955998,2.1616829473966996,1.7311545263911996
1.0714850115295926,1.3845242270695433,2.1383931703021575,1.6690484541390864
1.0794811683320522,1.3534711909434867,2.115103393207615,1.6069423818869732
1.087477325134512,1.3224181548174292,2.091813616113072,1.5448363096348583
1.0954734819369716,1.2913651186913726,2.068523839018529,1.4827302373827451
1.1034696387394312,1.2603120825653158,2.045234061923987,1.420624165130632
1.111465795541891,1.2292590464392583,2.021944284829444,1.358518092878517
1.1194619523443505,1.0845119139123662,1.9076095311298928,1.2076095311298929
1.12745810914681,0.2156418139892422,1.5461824237765824,0.6309121188829123
1.1354542659492697,-0.2818088649756567,1.4181911350243432,0.4
1.1434504227517295,-0.3006434610738992,0.8987130778522016,0.3
1.151446579554189,-0.31206654222027,0.87586691555946,0.3
1.1594427363566486,-0.32348962336664083,0.8530207532667183,0.3
1.1674388931591084,-0.33491270451301197,0.8301745909739761,0.3
1.175435049961568,-0.3463357856593828,0.8073284286812344,0.3
1.1834312067640276,-0.35775886680575364,0.7844822663884927,0.3
1.1914273635664874,-0.3691819479521248,0.7616361040957504,0.3
1.199423520368947,-0.3806050290984956,0.7387899418030088,0.3
1.2074196771714065,-0.3920281102448664,0.7159437795102672,0.3
1.2154158339738663,-0.4966333589546518,0.6033666410453482,0.3
1.223411990776326,-0.8994850115295927,0.09897002305918548,0.39948501152959276
1.2314081475787855,-0.8894898155265183,0.0789796310530365,0.3894898155265183
1.2394043043812453,-0.8794946195234435,0.058989239046886965,0.3794946195234435
1.2474004611837048,-0.869499423520369,0.03899884704073799,0.369499423520369
1.2553966179861644,-0.8595042275172945,0.01900845503458902,0.3595042275172945
1.2633927747886242,-0.8495090315142197,-0.0009819369715605153,0.34950903151421975
1.2713889315910838,-0.8395138355111453,-0.020972328977709495,0.3395138355111452
1.2793850883935434,-0.8295186395080708,-0.040962720983858475,0.32951863950807075
1.2873812451960032,-0.8195234435049961,-0.060953112990007996,0.319523443504996
1.2953774019984627,-0.8095282475019215,-0.08094350499615699,0.3095282475019215
1.3033735588009223,-0.762644119907762,-0.118677940046119,0.281322059953881
1.3113697156033821,-0.18067298659150832,-0.3193270134084917,-0.05966350670424583
1.3193658724058417,0.0,-0.6042628331636788,-0.3021314165818394
1.3273620292083013,0.0,-0.6186703228978402,-0.3093351614489201
1.3353581860107608,0.0,-0.6330778126320016,-0.3165389063160008
1.3433543428132206,0.0,-0.6474853023661634,-0.3237426511830817
1.3513504996156802,0.0,-0.6618927921003248,-0.3309463960501624
1.3593466564181398,0.0,-0.6763002818344862,-0.3381501409172431
1.3673428132205996,0.0,-0.690707771568648,-0.345353885784324
1.3753389700230592,0.0,-0.7051152613028094,-0.3525576306514047
1.3833351268255187,0.0,-0.7195227510369708,-0.3597613755184854
1.3913312836279785,0.0,-0.7339302407711326,-0.3669651203855663
1.399327440430438,0.0,-0.7483377305052941,-0.37416886525264703
1.4073235972328977,0.0,-0.7627452202394555,-0.38137261011972773
1.4153197540353575,0.0,-0.7771527099736172,-0.3885763549868086
1.423315910837817,0.0,-0.7915601997077786,-0.3957800998538893
1.4313120676402766,-0.1,-1.015603382013829,-0.8156033820138291
1.4393082244427364,-0.1,-1.2,-1.1042655687551846
1.447304381245196,-0.1,-1.2,-1.112182555688313
1.4553005380476556,-0.1,-1.2,-1.1200995426214413
1.4632966948501154,-0.1,-1.2,-1.1280165295545697
1.471292851652575,-0.1,-1.2,-1.135933516487698
1.4792890084550345,-0.1,-1.2,-1.1438505034208262
1.4872851652574943,-0.1,-1.2,-1.1517674903539548
1.495281322059954,-0.1,-1.2,-1.1596844772870831
1.5032774788624135,-0.1,-1.2,-1.1676014642202113
1.5112736356648733,-0.1,-1.2,-1.1755184511533399
1.5192697924673328,-0.1,-1.2,-1.183435438086468
1.5272659492697924,-0.1,-1.2,-1.1913524250195964
1.5352621060722522,-0.1,-1.2,-1.199269411952725
1.5432582628747118,-0.027417371252882447,-1.2,-1.2725826287471176
1.5512544196771714,0.0,-1.2,-1.362720983858566
1.559250576479631,0.1,-1.1932279656674356,-1.4
1.5672467332820907,0.1,-1.176569305662311,-1.4
1.5752428900845503,0.1,-1.159910645657187,-1.4
1.58323904688701,0.1,-1.1432519856520629,-1.4
1.5912352036894697,0.1,-1.1265933256469385,-1.4
1.5992313604919293,0.1,-1.1099346656418143,-1.4
1.6072275172943888,0.30021876662922004,-0.8995624667415599,-1.3997812333707798
1.6152236740968486,0.30790737893927755,-0.8841852421214449,-1.3920926210607223
1.6232198308993082,0.3155959912493348,-0.8688080175013304,-1.384404008750665
1.6312159877017678,0.3232846035593921,-0.8534307928812158,-1.3767153964406078
1.6392121445042276,0.3309732158694496,-0.8380535682611008,-1.3690267841305503
1.6472083013066872,0.33866182817950685,-0.8226763436409863,-1.361338171820493
1.6552044581091467,0.34635044048956415,-0.8072991190208717,-1.3536495595104359
1.6632006149116065,0.35403905279962167,-0.7919218944007567,-1.3459609472003784
1.671196771714066,0.3617276651096789,-0.7765446697806422,-1.3382723348903212
1.6791929285165257,0.3694162774197362,-0.7611674451605276,-1.330583722580264
1.6871890853189855,0.3771048897297937,-0.7457902205404126,-1.3228951102702062
1.695185242121445,0.38479350203985097,-0.7304129959202981,-1.315206497960149
1.7031813989239046,0.39248211434990826,-0.7150357713001835,-1.3075178856500917
1.7111775557263644,0.4355111452728746,-0.7,-1.2822444273635627
1.719173712528824,0.6,-0.39766267470018934,-0.8953253494003787
1.7271698693312836,0.6,-0.3890646566330285,-0.878129313266057
1.7351660261337434,0.6,-0.38046663856586743,-0.8609332771317348
1.743162182936203,0.6,-0.3718686204987066,-0.8437372409974132
1.7511583397386625,0.6,-0.36327060243154574,-0.8265412048630915
1.759154496541122,0.6,-0.3546725843643849,-0.8093451687287698
1.767150653343582,0.6,-0.34607456629722383,-0.7921491325944476
1.7751468101460415,0.6,-0.337476548230063,-0.774953096460126
1.783142966948501,0.6,-0.32887853016290214,-0.7577570603258044
1.7911391237509608,0.6,-0.3202805120957411,-0.7405610241914822
1.7991352805534204,0.6,-0.3116824940285803,-0.7233649880571604
1.80713143735588,0.6,-0.3030844759614194,-0.7061689519228388
1.8151275941583398,-0.012759415833973872,0.05637970791698694,0.012759415833973872
1.8231237509607994,-0.10705321877306863,0.10705321877306863,0.11410643754613727
1.831119907763259,-0.11497020570619693,0.11497020570619693,0.12994041141239385
1.8391160645657187,-0.12288719263932545,0.12288719263932545,0.1457743852786509
1.8471122213681783,-0.13080417957245374,0.13080417957245374,0.16160835914490745
1.855108378170638,-0.13872116650558203,0.13872116650558203,0.17744233301116405
1.8631045349730977,-0.14663815343871056,0.14663815343871056,0.1932763068774211
1.8711006917755573,-0.15455514037183885,0.15455514037183885,0.20911028074367766
1.8790968485780168,-0.16247212730496713,0.16247212730496713,0.22494425460993422
1.8870930053804766,-0.17038911423809566,0.17038911423809566,0.24077822847619126
1.8950891621829362,-0.17830610117122395,0.17830610117122395,0.25661220234244786
1.9030853189853958,-0.18622308810435223,0.18622308810435223,0.2724461762087045
1.9110814757878556,-0.19414007503748076,0.19414007503748076,0.28828015007496144
1.9190776325903152,-0.21731360491929272,0.21731360491929272,0.3346272098385854
1.9270737893927747,-0.2839482449397891,0.2839482449397891,0.4678964898795782
1.9350699461952345,-0.6014078239410982,0.7,1.2028156478821963
1.9430661029976941,-0.6119290828917029,0.7,1.2238581657834058
1.9510622598001537,-0.6224503418423075,0.7,1.244900683684615
1.9590584166026133,-0.6329716007929123,0.7,1.2659432015858245
1.967054573405073,-0.6434928597435173,0.7,1.2869857194870347
1.9750507302075326,-0.6540141186941221,0.7,1.3080282373882441
1.9830468870099922,-0.6645353776447267,0.7,1.3290707552894534
1.991043043812452,-0.6750566365953318,0.7,1.3501132731906635
1.9990392006149116,-0.6855778955459365,0.7,1.371155791091873
2.0070353574173714,-0.6960991544965415,0.7,1.392198308993083
2.0150315142198307,-0.2986493905786881,1.0004502031404372,1.3995497968595627
2.0230276710222905,0.004724924240417151,1.0988187689398958,1.2988187689398958
2.0310238278247503,0.041488863562071314,1.0896277841094824,1.2896277841094823
2.0390199846272097,0.07825280288372342,1.080436799279069,1.280436799279069
2.0470161414296695,0.1150167422053776,1.0712458144486556,1.2712458144486556
2.0550122982321293,0.15178068152703175,1.0620548296182422,1.2620548296182421
2.0630084550345886,0.18854462084868387,1.0528638447878291,1.252863844787829
2.0710046118370484,0.22530856017033804,1.0436728599574154,1.2436728599574154
2.0790007686395082,0.2620724994919922,1.034481875127002,1.234481875127002
2.0869969254419676,0.2988364388136443,1.025290890296589,1.2252908902965889
2.0949930822444274,0.33560037813529847,1.0160999054661755,1.2160999054661754
2.102989239046887,0.37236431745695264,1.0069089206357618,1.2069089206357617
2.1109853958493465,0.5985395849346538,0.8507302075326731,1.0507302075326732
2.1189815526518063,0.6879346889339208,0.19195645928928057,0.5919564592892805
2.126977709454266,0.6637039107446486,0.17580260716309914,0.5758026071630991
2.1349738662567255,0.6394731325553779,0.15964875503691858,0.5596487550369186
2.1429700230591853,0.6152423543661056,0.14349490291073713,0.5434949029107371
2.150966179861645,0.5910115761768335,0.12734105078455568,0.5273410507845556
2.1589623366641044,0.5667807979875626,0.11118719865837513,0.5111871986583751
2.166958493466564,0.5425500197982905,0.09503334653219368,0.49503334653219366
2.174954650269024,0.5183192416090183,0.07887949440601223,0.47887949440601224
2.1829508070714834,0.49408846341974755,0.06272564227983168,0.4627256422798317
2.190946963873943,0.46985768523047533,0.04657179015365023,0.4465717901536502
2.198943120676403,0.44562690704120317,0.030417938027468783,0.43041793802746875
2.2069392774788623,0.4213961288519324,0.01426408590128822,0.41426408590128827
2.214935434281322,0.2596848578016939,-0.14031514219830604,0.2596848578016939
2.222931591083782,-0.20807071483474657,-0.4540353574173733,-0.05403535741737328
2.2309277478862413,-1.3115568995509517,-0.8038522998503173,-0.5038522998503172
2.238923904688701,-1.3431206764027668,-0.8143735588009223,-0.5143735588009223
2.246920061491161,-1.3746844532545819,-0.8248948177515274,-0.5248948177515274
2.25491621829362,-1.4062482301063954,-0.8354160767021318,-0.5354160767021318
2.26291237509608,-1.4378120069582105,-0.8459373356527369,-0.5459373356527368
2.2709085318985394,-1.4693757838100239,-0.8564585946033413,-0.5564585946033412
2.278904688700999,-1.500939560661839,-0.8669798535539464,-0.5669798535539463
2.286900845503459,-1.5325033375136543,-0.8775011125045514,-0.5775011125045514
2.2948970023059183,-1.5640671143654676,-0.8880223714551558,-0.5880223714551558
2.302893159108378,-1.5956308912172827,-0.8985436304057609,-0.5985436304057609
2.310889315910838,-2.0,-0.885178068152702,-0.8
2.3188854727132973,-1.7979875620152337,-0.6979875620152336,-0.7989937810076169
2.326881629515757,-1.7798144783732797,-0.6798144783732796,-0.7899072391866399
2.334877786318217,-1.7616413947313256,-0.6616413947313254,-0.7808206973656627
2.342873943120676,-1.7434683110893725,-0.6434683110893724,-0.7717341555446863
2.350870099923136,-1.7252952274474185,-0.6252952274474184,-0.7626476137237092
2.358866256725596,-1.7071221438054645,-0.6071221438054643,-0.7535610719027321
2.366862413528055,-1.6889490601635113,-0.5889490601635112,-0.7444745300817556
2.374858570330515,-1.6707759765215573,-0.5707759765215572,-0.7353879882607786
2.3828547271329747,-1.6526028928796033,-0.5526028928796031,-0.7263014464398015
2.390850883935434,-1.6344298092376501,-0.53442980923765,-0.717214904618825
2.398847040737894,-1.616256725595696,-0.516256725595696,-0.708128362797848
2.4068431975403537,-1.178401229823175,-0.33136049192927,-0.5313604919292699
2.414839354342813,0.2839354342813014,0.2919677171406507,-0.2
2.422835511145273,0.32671196981343,0.30890398993781,-0.19109601006219
2.4308316679477326,0.35397159527636113,0.31799053175878705,-0.18200946824121297
2.438827824750192,0.3812312207392907,0.32707707357976357,-0.17292292642023643
2.446823981552652,0.4084908462022218,0.3361636154007406,-0.16383638459925942
2.4548201383551116,0.4357504716651529,0.34525015722171765,-0.15474984277828238
2.462816295157571,0.4630100971280825,0.35433669904269416,-0.14566330095730584
2.4708124519600307,0.4902697225910136,0.3634232408636712,-0.13657675913632883
2.4788086087624905,0.5175293480539447,0.37250978268464824,-0.12749021731535176
2.48680476556495,0.5447889735168743,0.3815963245056248,-0.11840367549437525
2.4948009223674097,0.5720485989798054,0.3906828663266018,-0.10931713367339821
2.5027970791698695,0.5993082244427366,0.3997694081475789,-0.10023059185242118
2.510793235972329,0.09341931753273783,0.19835482938318447,-0.2
2.5187893927747886,0.06407562284481196,0.191018905711203,-0.2
2.5267855495772484,0.0347319281568861,0.18368298203922154,-0.2
2.534781706379708,0.005388233468961848,0.17634705836724046,-0.2
2.5427778631821676,-0.02395546121896401,0.169011134695259,-0.2
2.5507740199846274,-0.053299155906889883,0.16167521102327753,-0.2
2.5587701767870867,-0.0826428505948141,0.15433928735129648,-0.2
2.5667663335895465,-0.11198654528273999,0.14700336367931502,-0.2
2.5747624903920063,-0.14133023997066585,0.13966744000733355,-0.2
2.5827586471944657,-0.17067393465859007,0.1323315163353525,-0.2
2.5907548039969255,-0.20001762934651593,0.12499559266337103,-0.2
2.5987509607993853,-0.22936132403444184,0.11765966899138955,-0.2
2.6067471176018446,-0.25870501872236606,0.1103237453194085,-0.2
2.6147432744043044,-0.2880487134102919,0.10298782164742702,-0.2
2.6227394312067642,-0.5130284396617982,-0.013028439661798216,0.0
2.6307355880092236,-0.306610299769409,0.064463233410197,0.064463233410197
2.6387317448116834,-0.18963404218976782,0.1051829789051161,0.1051829789051161
2.646727901614143,-0.16742249551626842,0.1162887522418658,0.1162887522418658
2.6547240584166025,-0.14521094884277022,0.12739452557861491,0.12739452557861491
2.6627202152190623,-0.1229994021692708,0.1385002989153646,0.1385002989153646
2.6707163720215217,-0.10078785549577261,0.1496060722521137,0.1496060722521137
2.6787125288239815,-0.0785763088222732,0.16071184558886342,0.16071184558886342
2.6867086856264413,-0.056364762148773784,0.17181761892561312,0.17181761892561312
2.6947048424289006,-0.03415321547527558,0.1829233922623622,0.1829233922623622
2.7027009992313604,-0.01194166880177619,0.19402916559911193,0.19402916559911193
2.71069715603382,0.28485780169101665,0.3,0.3
2.7186933128362796,0.30488886753779126,0.3,0.5
2.7266894696387394,0.3132181975403535,0.3,0.5
2.734685626441199,0.3215475275429158,0.3,0.5
2.7426817832436585,0.32987685754547763,0.3,0.5
2.7506779400461183,0.33820618754803994,0.3,0.5
2.758674096848578,0.3465355175506022,0.3,0.5
2.7666702536510375,0.35486484755316405,0.3,0.5
2.7746664104534973,0.3631941775557263,0.3,0.5
2.782662567255957,0.37152350755828856,0.3,0.5
2.7906587240584164,0.3798528375608504,0.3,0.5
2.798654880860876,0.38818216756341273,0.3,0.5
2.806651037663336,0.396511497565975,0.3,0.5
2.8146471944657954,0.6176402767102309,0.282359723289769,0.6
2.822643351268255,0.37709189217843,0.4942729730446075,0.6942729730446074
2.830639508070715,0.3495189376871893,0.48737973442179733,0.6873797344217972
2.8386356648731743,0.32194598319595014,0.48048649579898756,0.6804864957989875
2.846631821675634,0.2943730287047095,0.4735932571761774,0.6735932571761774
2.854627978478094,0.26680007421346885,0.46670001855336724,0.6667000185533671
2.8626241352805533,0.23922711972222974,0.4598067799305574,0.6598067799305574
2.870620292083013,0.21165416523098907,0.4529135413077473,0.6529135413077473
2.878616448885473,0.18408121073974842,0.4460203026849371,0.646020302684937
2.886612605687932,0.15650825624850928,0.4391270640621273,0.6391270640621273
2.894608762490392,0.12893530175726864,0.43223382543931715,0.6322338254393172
2.902604919292852,0.101362347266028,0.425340586816507,0.625340586816507
2.910601076095311,0.07378939277478885,0.4184473481936972,0.6184473481936972
2.918597232897771,0.04621643828354821,0.41155410957088706,0.611554109570887
2.9265933897002308,0.018643483792307514,0.4046608709480769,0.6046608709480769
2.93458954650269,-0.3397386625672569,0.2205226748654863,0.5602613374327431
2.94258570330515,0.001887742029940553,-0.10188774202994055,0.2962245159401189
2.9505818601076097,0.011406976318583163,-0.11140697631858316,0.2771860473628337
2.958578016910069,0.020926210607225243,-0.12092621060722525,0.2581475787855495
2.966574173712529,0.03044544489586785,-0.13044544489586785,0.2391091102082643
2.9745703305149886,0.03996467918451046,-0.13996467918451047,0.22007064163097909
2.982566487317448,0.04948391347315254,-0.14948391347315254,0.20103217305369492
2.990562644119908,0.05900314776179515,-0.15900314776179514,0.18199370447640972
2.9985588009223676,0.06852238205043776,-0.16852238205043776,0.1629552358991245
3.006554957724827,0.07804161633907984,-0.17804161633907983,0.14391676732184033
3.0145511145272867,0.08756085062772244,-0.18756085062772243,0.12487829874455514
3.0225472713297465,0.09708008491636505,-0.19708008491636506,0.10583983016726992
3.030543428132206,0.3012408037773122,-0.3506204018886561,-0.20124080377731218
3.0385395849346657,0.4412689539515076,-0.4,-0.38253790790301523
3.0465357417371255,0.44642582628743877,-0.5,-0.6535741737125612
3.054531898539585,0.27624764167423715,-0.5118761791628814,-0.8118761791628815
3.0625280553420446,0.2471707078471107,-0.5264146460764446,-0.8264146460764447
3.0705242121445044,0.21809377401998425,-0.5409531129900078,-0.8409531129900079
3.078520368946964,0.18901684019285941,-0.5554915799035702,-0.8554915799035703
3.0865165257494236,0.15993990636573296,-0.5700300468171335,-0.8700300468171336
3.094512682551883,0.13086297253860812,-0.584568513730696,-0.884568513730696
3.1025088393543427,0.10178603871148167,-0.5991069806442592,-0.8991069806442592
3.1105049961568025,0.19009992313604723,-0.5,-0.9
3.118501152959262,0.2,-0.5080657558701739,-0.8919342441298261
3.1264973097617217,0.2,-0.516663773937335,-0.8833362260626652
3.1344934665641815,0.2,-0.525261792004496,-0.8747382079955041
3.142489623366641,0.2,-0.5338598100716566,-0.8661401899283434
3.1504857801691006,0.2,-0.5424578281388177,-0.8575421718611823
3.1584819369715604,0.2,-0.5510558462059787,-0.8489441537940213
3.16647809377402,0.2,-0.5596538642731393,-0.8403461357268607
3.1744742505764796,0.2,-0.5682518823403004,-0.8317481176596996
3.1824704073789394,0.2,-0.5768499004074614,-0.8231500995925385
3.1904665641813987,0.2,-0.5854479184746221,-0.814552081525378
3.1984627209838585,0.2,-0.5940459365417832,-0.8059540634582169
3.2064588777863183,0.17705611068408417,-0.6,-0.7770561106840842
3.2144550345887777,0.1,-0.5,-0.5951575710991547
3.2224511913912375,0.1,-0.5,-0.5864660963138723
3.2304473481936973,0.1,-0.5,-0.5777746215285898
3.2384435049961566,0.1,-0.5,-0.569083146743308
3.2464396617986164,0.1,-0.5,-0.5603916719580256
3.2544358186010762,0.1,-0.5,-0.5517001971727432
3.2624319754035356,0.1,-0.5,-0.5430087223874613
3.2704281322059954,0.1,-0.5,-0.5343172476021789
3.278424289008455,0.1,-0.5,-0.5256257728168966
3.2864204458109145,0.1,-0.5,-0.5169342980316147
3.2944166026133743,0.1,-0.5,-0.5082428232463323
3.302412759415834,0.1,-0.45872405841658803,-0.5
3.3104089162182935,0.0,-0.3591083781706535,-0.3591083781706535
3.3184050730207533,0.0,-0.19490087450872348,-0.2949008745087235
3.326401229823213,0.0,-0.1873573303554595,-0.2873573303554595
3.3343973866256724,0.0,-0.17981378620219596,-0.27981378620219594
3.342393543428132,0.0,-0.172270242048932,-0.27227024204893197
3.350389700230592,0.0,-0.16472669789566802,-0.26472669789566805
3.3583858570330514,0.0,-0.1571831537424045,-0.25718315374240447
3.366382013835511,0.0,-0.14963960958914052,-0.2496396095891405
3.374378170637971,0.0,-0.14209606543587655,-0.24209606543587653
3.3823743274404303,0.0,-0.134552521282613,-0.234552521282613
3.39037048424289,0.0,-0.12700897712934903,-0.22700897712934903
3.39836664104535,0.0,-0.11946543297608506,-0.21946543297608506
3.4063627978478093,0.0,-0.1119218888228215,-0.2119218888228215
3.414358954650269,0.0,-0.10437834466955753,-0.20437834466955754
3.422355111452729,0.06775557263644447,0.06775557263644447,-0.03224442736355554
3.430351268255188,0.1,0.16682971141080083,0.06682971141080082
3.438347425057648,0.14830472286275442,0.2483047228627544,0.14830472286275442
3.446343581860108,0.2,0.30514397209247346,0.20514397209247348
3.454339738662567,0.2,0.31744575178856477,0.2174457517885648
3.462335895465027,0.2,0.3297475314846568,0.2297475314846568
3.4703320522674868,0.2,0.34204931118074877,0.2420493111807488
3.478328209069946,0.2,0.35435109087684014,0.2543510908768401
3.486324365872406,0.2,0.36665287057293217,0.26665287057293213
3.4943205226748653,0.2,0.3789546502690235,0.27895465026902344
3.502316679477325,0.2,0.39125642996511545,0.29125642996511547
3.510312836279785,0.2,0.5156418139892516,0.4156418139892516
3.518308993082244,0.1,0.8,0.6035967316111348
3.526305149884704,0.1,0.8,0.6122882063964172
3.534301306687164,0.1,0.8,0.6209796811816997
3.542297463489623,0.1,0.8,0.6296711559669815
3.550293620292083,0.1,0.8,0.6383626307522638
3.5582897770945427,0.1,0.8,0.6470541055375463
3.566285933897002,0.1,0.8,0.6557455803228281
3.574282090699462,0.1,0.8,0.6644370551081106
3.5822782475019217,0.1,0.8,0.6731285298933929
3.590274404304381,0.1,0.8,0.6818200046786748
3.598270561106841,0.1,0.8,0.6905114794639572
3.6062667179093006,0.1,0.8,0.6992029542492395
3.61426287471176,0.1,1.0,0.9
3.62225903151422,0.1,1.0,0.9
3.6302551883166796,0.1,1.0,0.9
3.638251345119139,0.1,1.0,0.9
3.6462475019215987,0.1,1.0,0.9
3.6542436587240585,0.1,1.0,0.9
3.662239815526518,0.1,1.0,0.9
3.6702359723289777,0.1,1.0,0.9
3.6782321291314375,0.1,1.0,0.9
3.686228285933897,0.1,1.0,0.9
3.6942244427363566,0.1,1.0,0.9
3.7022205995388164,0.1,1.0,0.9
3.710216756341276,0.026108121957471683,0.9,0.8261081219574717
3.7182129131437356,-0.30818041387133127,0.8081804138713313,0.8
3.7262090699461954,-0.32370693193435995,0.8237069319343601,0.8
3.7342052267486547,-0.3392334499973878,0.8392334499973879,0.8
3.7422013835511145,-0.35475996806041654,0.8547599680604165,0.8
3.7501975403535743,-0.3702864861234452,0.8702864861234453,0.8
3.7581936971560337,-0.3858130041864731,0.8858130041864731,0.8
3.7661898539584935,-0.40133952224950176,0.9013395222495018,0.8
3.7741860107609533,-0.4168660403125305,0.9168660403125305,0.8
3.7821821675634126,-0.43239255837555834,0.9323925583755583,0.8
3.7901783243658724,-0.44791907643858697,0.947919076438587,0.8
3.7981744811683322,-0.4634455945016157,0.9634455945016157,0.8
3.8061706379707916,-0.47897211256464356,0.9789721125646436,0.8
3.8141667947732514,-0.49449863062767224,0.9944986306276723,0.8
3.822162951575711,-0.752715859595187,0.46821035101203234,0.647284140404813
3.8301591083781705,-0.8859851396361762,0.1350371509095596,0.5140148603638238
3.8381552651806303,-1.2971641247623285,-0.09432824952465665,0.19432824952465666
3.84615142198309,-1.2866428658117233,-0.07328573162344669,0.17328573162344668
3.8541475787855495,-1.276121606861119,-0.05224321372223788,0.15224321372223787
3.8621437355880093,-1.265600347910514,-0.0312006958210279,0.1312006958210279
3.870139892390469,-1.255079088959909,-0.01015817791981792,0.11015817791981793
3.8781360491929284,-1.2445578300093045,0.010884339981390878,0.08911566001860913
3.8861322059953882,-1.2340365710586996,0.031926857882600856,0.06807314211739915
3.8941283627978476,-1.223515312108095,0.05296937578380967,0.047030624216190337
3.9021245196003074,-1.21299405315749,0.07401189368501965,0.025988106314980358
3.910120676402767,-1.2024727942068851,0.09505441158622963,0.00494558841377038
3.9181168332052265,1.1003215592804396,-0.20032155928043957,-0.4
3.9261129900076863,1.122329330296384,-0.22232933029638396,-0.4
3.934109146810146,1.1443371013123285,-0.2443371013123284,-0.4
3.9421053036126055,1.1663448723282717,-0.26634487232827153,-0.4
3.9501014604150653,1.188352643344216,-0.28835264334421595,-0.4
3.958097617217525,1.2103604143601603,-0.3103604143601604,-0.4
3.9660937740199844,1.2323681853761035,-0.3323681853761035,-0.4
3.974089930822444,1.2543759563920478,-0.3543759563920479,-0.4
3.982086087624904,1.2763837274079923,-0.3763837274079923,-0.4
3.9900822444273634,1.2983914984239355,-0.3983914984239355,-0.4
3.998078401229823,1.3203992694398798,-0.42039926943987993,-0.4
4.0060745580322825,1.342407040455823,-0.4424070404558231,-0.4
4.014070714834743,1.3644148114717687,-0.4644148114717687,-0.4
4.022066871637202,1.3864225824877119,-0.48642258248771186,-0.4
4.0300630284396615,1.0936971560338777,-1.0010504739943538,-0.6021009479887074
4.038059185242122,-0.2003522931078658,-1.3,-1.0000704586215732
4.046055342044581,-0.24794846455107644,-1.3,-1.0095896929102153
4.05405149884704,-0.2955446359942871,-1.3,-1.0191089271988574
4.062047655649501,-0.34314080743750297,-1.3,-1.0286281614875006
4.07004381245196,-0.3907369788807137,-1.3,-1.0381473957761427
4.078039969254419,-0.4383331503239243,-1.3,-1.047666630064785
4.08603612605688,-0.4859293217671402,-1.3,-1.057185864353428
4.094032282859339,-0.5335254932103508,-1.3,-1.0667050986420703
4.102028439661798,-0.5811216646535615,-1.3,-1.0762243329307124
4.1100245964642586,-0.6287178360967774,-1.3,-1.0857435672193556
4.118020753266718,-0.676314007539988,-1.3,-1.0952628015079977
4.126016910069177,-1.201691006917737,-1.3,-1.2508455034588684
4.1340130668716375,-1.1827824750192155,-1.291391237509608,-1.1913912375096078
4.142009223674097,-1.1370901504337338,-1.268545075216867,-1.168545075216867
4.150005380476556,-1.091397825848252,-1.245698912924126,-1.145698912924126
4.1580015372790164,-1.0457055012627652,-1.2228527506313824,-1.1228527506313826
4.165997694081476,-1.0000131766772833,-1.2000065883386415,-1.1000065883386416
4.173993850883935,-0.9797624028254815,-1.1797624028254814,-1.0898812014127408
4.181990007686395,-0.9595189678825441,-1.1595189678825442,-1.079759483941272
4.189986164488855,-0.939275532939609,-1.139275532939609,-1.0696377664698045
4.197982321291314,-0.9190320979966738,-1.1190320979966737,-1.059516048998337
4.205978478093774,-0.8987886630537365,-1.0987886630537365,-1.0493943315268683
4.213974634896234,-0.8785452281108014,-1.0785452281108012,-1.0392726140554007
4.221970791698693,-0.8583017931678663,-1.0583017931678662,-1.029150896583933
4.229966948501153,-0.8380583582249288,-1.0380583582249288,-1.0190291791124644
4.237963105303613,-0.8178149232819937,-1.0178149232819935,-1.0089074616409968
4.245959262106072,-0.6561106840892007,-0.9520368946964003,-0.9040737893928005
4.253955418908532,0.12281972447230155,-0.384786850351799,-0.48478685035179897
4.261951575710992,0.16895139833264433,-0.35403240111157047,-0.45403240111157045
4.269947732513451,0.2150830721929871,-0.32327795187134195,-0.42327795187134193
4.277943889315911,0.26121474605333506,-0.29252350263111004,-0.39252350263111
4.2859400461183705,0.30734641991367784,-0.2617690533908815,-0.3617690533908815
4.29393620292083,0.3534780937740206,-0.23101460415065297,-0.331014604150653
4.30193235972329,0.3996097676343685,-0.20026015491042104,-0.300260154910421
4.3099285165257495,-1.9082064533010623,-0.004103226650531173,-0.4020516133252656
4.317924673328209,-1.9422326524604636,-0.02111632623023187,-0.41055816311511595
4.325920830130669,-1.9762588516198687,-0.03812942580993446,-0.4190647129049672
4.333916986933128,-2.01028505077927,-0.055142525389635155,-0.4275712626948176
4.341913143735588,-2.0443112499386715,-0.07215562496933585,-0.4360778124846679
4.349909300538048,-2.078337449098077,-0.08916872454903844,-0.44458436227451925
4.357905457340507,-2.112363648257478,-0.10618182412873914,-0.4530909120643696
4.365901614142967,-2.1463898474168794,-0.12319492370843983,-0.4615974618542199
4.373897770945427,-2.1804160465762847,-0.1402080232881424,-0.47010401164407123
4.381893927747886,-2.214442245735686,-0.15722112286784312,-0.47861056143392156
4.389890084550346,-2.2484684448950873,-0.17423422244754383,-0.4871171112237719
4.397886241352806,-2.2824946440544926,-0.1912473220272464,-0.4956236610136232
4.405882398155265,-2.8344570110903895,-0.35378280443615573,-0.8537828044361557
4.413878554957725,-2.760722521137764,-1.0757109915448946,-1.3
4.421874711760185,-2.1123811246250956,-1.3202197404711318,-1.3
4.429870868562644,-2.01046932224081,-1.3437378487136593,-1.3
4.437867025365104,-1.9085575198565246,-1.3672559569561868,-1.3
4.445863182167564,-1.8066457174722275,-1.3907740651987168,-1.3
4.453859338970023,-1.704733915087942,-1.4142921734412441,-1.3
4.4618554957724825,-1.6028221127036564,-1.4378102816837717,-1.3
4.469851652574943,-1.5009103103193595,-1.4613283899263017,-1.3
4.477847809377402,-1.398998507935074,-1.4848464981688292,-1.3
4.4858439661798615,-1.2970867055507882,-1.5083646064113565,-1.3
4.493840122982322,-1.1951749031664913,-1.5318827146538867,-1.3
4.501836279784781,-1.0932631007822058,-1.555400822896414,-1.3
4.50983243658724,-0.9913512983979202,-1.5789189311389416,-1.3
4.5178285933897,-0.6790417627467622,-1.6828593389699642,-1.3552395593133095
4.52582475019216,0.21065334358187857,-1.8223366641045302,-1.538831667947735
4.533820906994619,0.637115039713028,-1.715721240071743,-1.5921393799641286
4.541817063797079,1.9,-2.1268291790198,-1.6955284701633666
4.549813220599539,1.9,-2.2029830533289445,-1.6828361577785091
4.557809377401998,1.9,-2.2791369276380804,-1.6701438453936532
4.565805534204458,1.9,-2.3552908019472163,-1.6574515330087973
4.573801691006918,1.9,-2.431444676256361,-1.6447592206239399
4.581797847809377,1.9,-2.507598550565497,-1.632066908239084
4.589794004611837,1.9,-2.583752424874633,-1.619374595854228
4.597790161414297,1.9,-2.659906299183777,-1.6066822834693706
4.605786318216756,2.0,-3.0357263643351233,-1.2928209069946304
4.613782475019216,1.72175249807846,-3.6188316679476933,-0.9782475019215401
4.621778631821676,1.5851019080842295,-3.6553057242526887,-1.1074490459578854
4.629774788624135,1.5675279370898134,-3.60258381126944,-1.1162360314550934
4.6377709454265945,1.5499539660953974,-3.549861898286192,-1.1250230169523014
4.645767102229055,1.532379995100979,-3.4971399853029377,-1.1338100024495104
4.653763259031514,1.514806024106563,-3.444418072319689,-1.1425969879467186
4.6617594158339735,1.497232053112147,-3.391696159336441,-1.1513839734439266
4.669755572636434,1.4796580821177288,-3.3389742463531866,-1.1601709589411355
4.677751729438893,1.4620841111233127,-3.286252333369938,-1.1689579444383436
4.685747886241352,1.4445101401288964,-3.23353042038669,-1.1777449299355518
4.693744043043813,1.4269361691344784,-3.1808085074034356,-1.1865319154327607
4.701740199846272,1.4093621981400624,-3.1280865944201874,-1.1953189009299687
4.709736356648731,1.7159108378171293,-1.4895465026902777,-1.1263643351268517
4.717732513451192,0.7845678909200277,-0.9948559636400092,-0.7897119272800184
4.725728670253651,0.7584934665641818,-0.9861644888547273,-0.7723289777094545
4.73372482705611,0.732419042208336,-0.9774730140694453,-0.7549460281388907
4.7417209838585705,0.7063446178524873,-0.9687815392841624,-0.7375630785683248
4.74971714066103,0.6802701934966414,-0.9600900644988805,-0.720180128997761
4.757713297463489,0.6541957691407956,-0.9513985897135986,-0.7027971794271971
4.7657094542659495,0.628121344784947,-0.9427071149283156,-0.6854142298566313
4.773705611068409,0.602046920429101,-0.9340156401430337,-0.6680312802860674
4.781701767870868,0.5759724960732553,-0.9253241653577517,-0.6506483307155035
4.7896979246733284,0.5498980717174065,-0.9166326905724689,-0.6332653811449377
4.797694081475788,0.5238236473615607,-0.9079412157871869,-0.6158824315743738
4.805690238278247,0.5345119139123602,-0.8654880860876398,-0.5309761721752796
4.813686395080707,0.12090699461951021,-0.3209069946195102,0.08431975403536734
4.821682551883167,0.07671953974797978,-0.2379187726612794,0.13104061366936032
4.829678708685626,0.05248876155870906,-0.17330336415655748,0.16334831792172128
4.837674865488086,0.02825798336943565,-0.10868795565182837,0.19565602217408581
4.845671022290546,0.0040272051801649306,-0.044072547147106456,0.22796372642644677
4.853667179093005,-0.020203573009105788,0.02054286135761546,0.26027143067880776
4.861663335895465,-0.04443435119837921,0.0851582698623446,0.29257913493117227
4.869659492697925,-0.06866512938764993,0.1497736783670665,0.3248868391835332
4.877655649500384,-0.09289590757692065,0.21438908687178843,0.3571945434358942
4.885651806302844,-0.11712668576619406,0.27900449537651756,0.3895022476882588
4.893647963105304,-0.14135746395546478,0.3436199038812395,0.42180995194061977
4.901644119907763,-0.16558824214473553,0.4082353123859614,0.4541176561929807
4.909640276710223,-0.1898190203340089,0.4728507208906904,0.48642536044534523
4.9176364335126825,0.1636433512682509,2.6909300538047525,0.9090699461952474
4.925632590315142,0.11251686736698216,3.2312921684174554,0.28122469894952673
4.933628747117602,0.13028610470578272,3.275715261764457,0.2545708429413259
4.9416249039200615,0.14805534204458132,3.3201383551114536,0.227916986933128
4.949621060722521,0.1658245793833799,3.36456144845845,0.20126313092493014
4.957617217524981,0.18359381672218045,3.4089845418054514,0.1746092749167293
4.96561337432744,0.20136305406097904,3.453407635152448,0.14795541890853142
4.9736095311299,0.21913229139977763,3.4978307284994443,0.12130156290033353
4.98160568793236,0.2369015287385782,3.5422538218464457,0.09464770689213267
4.989601844734819,0.2546707660773768,3.586676915193442,0.06799385088393481
4.997598001537279,0.27244000341617536,3.6311000085404386,0.04133999487573692
5.005594158339739,0.29020924075497595,3.67552310188744,0.014686138867536058
5.013590315142198,1.388547271329774,3.740968485780151,-0.15903151421984926
5.021586471944658,2.0491118412717158,3.4754440793641423,-0.7184169404768933
5.029582628747118,2.119407725249388,3.440296137375306,-0.7447778969685205
5.037578785549577,2.1897036092270525,3.4051481953864737,-0.7711388534601447
5.045574942352037,2.2599994932047167,3.3700002533976416,-0.7974998099517688
5.053571099154497,2.3302953771823893,3.3348523114088056,-0.8238607664433959
5.061567255956956,2.4005912611600535,3.299704369419973,-0.8502217229350202
5.069563412759416,2.470887145137718,3.264556427431141,-0.8765826794266444
5.077559569561876,2.5411830291153903,3.229408485442305,-0.9029436359182714
5.085555726364335,2.611478913093055,3.1942605434534723,-0.9293045924098956
5.0935518831667945,2.6817747970707195,3.1591126014646402,-0.9556655489015198
5.101548039969255,2.7520706810483917,3.123964659475804,-0.982026505393147
5.109544196771714,3.7,1.5051114527287217,-1.6316295157570928
5.1175403535741735,2.1761034022411945,0.4713240826894334,-1.4904413608964777
5.125536510376634,2.134018366438772,0.42082203972652643,-1.4736073465755088
5.133532667179093,2.0919333306363543,0.37031999676362515,-1.4567733322545418
5.141528823981552,2.0498482948339367,0.31981795380072386,-1.4399393179335747
5.149524980784013,2.007763259031514,0.2693159108378169,-1.4231053036126056
5.157521137586472,1.9656782232290964,0.21881386787491564,-1.4062712892916385
5.165517294388931,1.9235931874266785,0.1683118249120143,-1.3894372749706714
5.173513451191392,1.8815081516242562,0.1178097819491074,-1.3726032606497025
5.181509607993851,1.8394231158218384,0.06730773898620607,-1.3557692463287354
5.18950576479631,1.7973380800194205,0.016805696023304784,-1.3389352320077683
5.197501921598771,1.7552530442169982,-0.033696346939602106,-1.3221012176867992
5.20549807840123,1.7131680084145804,-0.0841983899025035,-1.3052672033658321
5.213494235203689,-1.7907763259024336,-1.7482705611067062,-0.5011529592621958
5.2214903920061495,-2.6777304830826796,-1.850535147129204,-0.3505351471292041
5.229486548808609,-2.7607094687685785,-1.7977303380563592,-0.29773033805635923
5.237482705611068,-2.8436884544544774,-1.7449255289835142,-0.24492552898351436
5.2454788624135285,-2.9266674401403856,-1.6921207199106636,-0.19212071991066365
5.253475019215988,-3.009646425826285,-1.6393159108378188,-0.1393159108378188
5.261471176018447,-3.092625411512184,-1.5865111017649738,-0.08651110176497395
5.269467332820907,-3.175604397198092,-1.533706292692123,-0.03370629269212322
5.277463489623367,-3.2585833828839914,-1.4809014836192782,0.01909851638072163
5.285459646425826,-3.3415623685698903,-1.4280966745464334,0.07190332545356648
5.293455803228286,-3.4245413542557985,-1.3752918654735828,0.12470813452641716
5.301451960030746,-3.5075203399416974,-1.3224870564007378,0.17751294359926206
5.309448116833205,-3.5904993256275968,-1.269682247327893,0.23031775267210686
5.317444273635665,-3.673478311313505,-1.2168774382550422,0.28312256174495753
5.325440430438125,-3.696387394312245,1.7083013066873018,3.1083013066873018
5.333436587240584,-4.6647867025365235,2.4253506917755665,3.7323933512682617
5.341432744043043,-5.164546502690232,2.7751825518831623,3.9822732513451164
5.349428900845504,-4.991062163720201,2.8580382878554995,4.0116076575710995
5.357425057647963,-4.766170253651032,2.920508262874713,4.0241016525749425
5.365421214450422,-4.5412783435818636,2.982978237893927,4.036595647578785
5.3734173712528825,-4.316386433512669,3.0454482129131475,4.049089642582629
5.381413528055342,-4.0914945234435,3.107918187932361,4.061583637586472
5.389409684857801,-3.8666026133743308,3.1703881629515744,4.074077632590314
5.3974058416602615,-3.6417107033051366,3.232858137970795,4.086571627594159
5.405401998462721,-3.4168187932359677,3.295328112990009,4.099065622598001
5.41339815526518,-1.187027425374616,1.6014413971805983,1.9985586028194018
5.42139431206764,-1.112836279784779,1.6096848578016913,1.9903151421983087
5.4293904688701,-1.0386451341949503,1.6179283184227833,1.9820716815772166
5.437386625672559,-0.9644539886051215,1.6261717790438754,1.9738282209561246
5.445382782475019,-0.8902628430152846,1.6344152396649685,1.9655847603350316
5.453378939277479,-0.8160716974254559,1.6426587002860604,1.9573412997139394
5.461375096079938,-0.7418805518356273,1.6509021609071526,1.9490978390928475
5.469371252882398,-0.6676894062457902,1.6591456215282456,1.9408543784717545
5.477367409684858,-0.5934982606559616,1.6673890821493376,1.9326109178506623
5.485363566487317,-0.5193071150661328,1.6756325427704297,1.9243674572295701
5.493359723289777,-0.44511596947629584,1.6838760033915228,1.9161239966084773
5.501355880092237,-0.3709248238864672,1.6921194640126147,1.9078805359873852
5.509352036894696,-0.14158339738693965,1.5767870868565086,1.8471944657956465
5.517348193697156,1.834819369715607,-0.23392774788624282,0.7991083781706357
5.525344350499616,2.0072923568961096,-0.29270764310389025,0.6781229293116707
5.533340507302075,2.0164833417265227,-0.28351665827347716,0.6505499748204315
5.541336664104535,2.025674326556937,-0.2743256734430631,0.6229770203291892
5.5493328209069945,2.03486531138735,-0.26513468861265,0.59540406583795
5.557328977709454,2.044056296217763,-0.2559437037822369,0.5678311113467107
5.565325134511914,2.053247281048177,-0.24675271895182282,0.5402581568554685
5.5733212913143735,2.0624382658785905,-0.23756173412140977,0.5126852023642292
5.581317448116833,2.0716292507090035,-0.22837074929099668,0.48511224787299
5.589313604919293,2.0808202355394174,-0.2191797644605826,0.4575392933817477
5.597309761721752,2.0900112203698304,-0.20998877963016951,0.4299663388905085
5.605305918524212,2.0992022052002435,-0.20079779479975646,0.4023933843992693
5.613302075326672,0.19131949782218713,-0.8012400717396876,-0.40124007173968756
5.621298232129131,0.1380117858057912,-0.8088554591706013,-0.4088554591706013
5.629294388931591,0.0847040737893953,-0.816470846601515,-0.41647084660151495
5.637290545734051,0.03139636177299346,-0.8240862340324295,-0.4240862340324295
5.64528670253651,-0.02191135024340246,-0.8317016214633433,-0.43170162146334323
5.65328285933897,-0.07521906225979835,-0.839317008894257,-0.43931700889425696
5.66127901614143,-0.12852677427620018,-0.8469323963251715,-0.44693239632517145
5.669275172943889,-0.18183448629259613,-0.8545477837560852,-0.4545477837560852
5.677271329746349,-0.23514219830899202,-0.8621631711869989,-0.4621631711869989
5.685267486548809,-0.2884499103253939,-0.8697785586179134,-0.4697785586179134
5.693263643351268,-0.3417576223417898,-0.8773939460488271,-0.4773939460488271
5.701259800153728,-0.39506533435818575,-0.8850093334797409,-0.48500933347974085
5.709255956956188,-0.4483730463745876,-0.8926247209106554,-0.49262472091065534
5.717252113758647,-0.5336151678196697,-0.9168075839098349,-0.5084037919549174
5.7252482705611065,-1.2,-1.3124903920061484,-0.8249807840122965
5.733244427363567,-1.2,-1.3569134853531502,-0.9138269707063001
5.741240584166026,-1.1037663335894488,-1.4240584166026378,-1.0481168332052757
5.7492367409684855,-0.7561409638273606,-1.4890352409568401,-1.2109647590431598
5.757232897770946,-0.7076794074488136,-1.4769198518622033,-1.2230801481377966
5.765229054573405,-0.659217851070272,-1.464804462767568,-1.235195537232432
5.773225211375864,-0.6107562946917303,-1.4526890736729325,-1.2473109263270674
5.781221368178325,-0.5622947383131833,-1.4405736845782957,-1.2594263154217042
5.789217524980784,-0.5138331819346416,-1.4284582954836604,-1.2715417045163395
5.797213681783243,-0.46537162555609995,-1.416342906389025,-1.283657093610975
5.805209838585704,-0.41691006917755297,-1.404227517294388,-1.2957724827056118
5.813205995388163,0.0617986164489508,-1.2794004611836831,-1.4
5.821202152190622,0.4926387305962697,-1.1,-1.2963193652981349
5.8291983089930826,0.4742567609354417,-1.1,-1.287128380467721
5.837194465795542,0.4558747912746157,-1.1,-1.277937395637308
5.845190622598001,0.4374928216137898,-1.1,-1.2687464108068949
5.8531867794004615,0.41911085195296177,-1.1,-1.259555425976481
5.861182936202921,0.40072888229213577,-1.1,-1.250364441146068
5.86917909300538,0.3823469126313098,-1.1,-1.241173456315655
5.8771752498078405,0.3639649429704818,-1.1,-1.231982471485241
5.8851714066103,0.3455829733096558,-1.1,-1.222791486654828
5.893167563412759,0.32720100364882987,-1.1,-1.213600501824415
5.901163720215219,0.30881903398800187,-1.1,-1.204409516994001
5.909159877017679,-0.015987701767851775,-1.1,-1.1420061491160742
5.917156033820138,-0.4013442253722532,-0.9986557746277468,-1.098655774627747
5.925152190622598,-0.4106420821193001,-0.9893579178806999,-1.0893579178807
5.933148347425058,-0.4199399388663459,-0.9800600611336542,-1.0800600611336542
5.941144504227517,-0.4292377956133917,-0.9707622043866083,-1.0707622043866083
5.949140661029977,-0.43853565236043857,-0.9614643476395615,-1.0614643476395615
5.957136817832437,-0.4478335091074844,-0.9521664908925156,-1.0521664908925157
5.965132974634896,-0.4571313658545302,-0.9428686341454698,-1.0428686341454698
5.973129131437356,-0.46642922260157704,-0.933570777398423,-1.033570777398423
5.981125288239816,-0.4757270793486229,-0.9242729206513771,-1.0242729206513772
5.989121445042275,-0.4850249360956687,-0.9149750639043314,-1.0149750639043313
5.997117601844735,-0.4943227928427155,-0.9056772071572845,-1.0056772071572844
6.0051137586471945,-0.8,-0.7983748764686478,-0.7967497529372956
6.013109915449654,-0.8,-0.644504227517302,-0.544504227517302
6.021106072252114,-0.8,-0.5930332624979275,-0.486066524995855
6.0291022290545735,-0.8,-0.5851938930837516,-0.47038778616750326
6.037098385857033,-0.8,-0.5773545236695757,-0.45470904733915146
6.045094542659493,-0.8,-0.569515154255399,-0.439030308510798
6.053090699461952,-0.8,-0.561675784841223,-0.42335156968244625
6.061086856264412,-0.8,-0.5538364154270472,-0.40767283085409445
6.069083013066872,-0.8,-0.5459970460128705,-0.391994092025741
6.077079169869331,-0.8,-0.5381576765986946,-0.3763153531973892
6.085075326671791,-0.8,-0.5303183071845187,-0.36063661436903743
6.093071483474251,-0.8,-0.5224789377703419,-0.3449578755406839
6.10106764027671,-0.8,-0.5146395683561661,-0.32927913671233217
6.10906379707917,-0.8,-0.5068001989419902,-0.3136003978839804
6.11705995388163,-0.8,-0.44700230591850415,-0.24700230591850414
6.125056110684089,-0.7411990776325899,-0.3411990776325899,-0.14119907763258993
6.133052267486549,-0.6389546502690238,-0.2694773251345119,-0.03895465026902384
6.141048424289009,-0.4,-0.1,0.20013451191391352
6.149044581091468,-0.4,-0.1,0.22234605858741172
6.157040737893928,-0.4,-0.1,0.2445576052609099
6.165036894696387,-0.4,-0.1,0.2667691519344081
6.173033051498847,-0.4,-0.1,0.28898069860790876
6.1810292083013065,-0.4,-0.1,0.31119224528140693
6.189025365103766,-0.4,-0.1,0.3334037919549051
6.197021521906226,-0.4,-0.1,0.3556153386284058
6.2050176787086855,-0.4,-0.1,0.37782688530190395
6.213013835511145,-0.4013835511144751,-0.09861644888552494,0.4013835511144751
6.221009992313605,-0.5,0.197741581670107,0.8
6.229006149116064,-0.5,0.188757135824647,0.8
6.237002305918524,-0.5,0.179772689979187,0.8
6.244998462720984,-0.5,0.170788244133726,0.8
6.252994619523443,-0.5,0.16180379828826602,0.8
6.260990776325903,-0.5,0.15281935244280603,0.8
6.268986933128363,-0.5,0.14383490659734502,0.8
6.276983089930822,-0.5,0.13485046075188503,0.8
6.284979246733282,-0.5,0.12586601490642502,0.8
6.292975403535742,-0.5,0.11688156906096404,0.8
6.300971560338201,-0.5,0.10789712321550404,0.8
6.308967717140661,-0.5,0.1,0.8
6.316963873943121,0.0022316749353641975,0.1022316749353642,0.5
6.32496003074558,0.011318216756340819,0.11131821675634082,0.5
6.33295618754804,0.020404758577317442,0.12040475857731744,0.5
6.3409523443505,0.029491300398295072,0.12949130039829507,0.5
6.348948501152959,0.03857784221927169,0.1385778422192717,0.5
6.3569446579554185,0.047664384040248316,0.14766438404024831,0.5
6.364940814757879,0.056750925861225945,0.15675092586122596,0.5
6.372936971560338,0.06583746768220257,0.1658374676822026,0.5
6.3809331283627975,0.07492400950317919,0.1749240095031792,0.5
6.388929285165258,0.08401055132415683,0.18401055132415683,0.5
6.396925441967717,0.09309709314513344,0.19309709314513346,0.5
6.404921598770176,0.29215987701761936,0.2,0.5
6.412917755572637,0.6,0.39593573919616837,0.39593573919616837
6.420913912375096,0.6,0.38932734514454903,0.38932734514454903
6.428910069177555,0.6,0.3827189510929297,0.3827189510929297
6.436906225980016,0.6,0.37611055704130963,0.37611055704130963
6.444902382782475,0.6,0.3695021629896903,0.3695021629896903
6.452898539584934,0.6,0.362893768938071,0.362893768938071
6.4608946963873946,0.6,0.35628537488645096,0.35628537488645096
6.468890853189854,0.6,0.3496769808348316,0.3496769808348316
6.476887009992313,0.6,0.3430685867832123,0.3430685867832123
6.4848831667947735,0.6,0.3364601927315922,0.3364601927315922
6.492879323597233,0.6,0.3298517986799729,0.3298517986799729
6.500875480399692,0.6,0.32324340462835355,0.32324340462835355
6.5088716372021524,0.6,0.3166350105767335,0.3166350105767335
6.516867794004612,0.6,0.31002661652511415,0.31002661652511415
6.524863950807071,0.6,0.3034182224734948,0.3034182224734948
6.532860107609531,0.7190673840635413,0.2,-0.07626953625416559
6.540856264411991,0.7723750960799383,0.2,-0.2895003843197529
6.54885242121445,0.7735368397935679,0.2264631602064321,-0.8529263204128642
6.55684857801691,0.711170894183961,0.3055854470919805,-1.0
6.56484473481937,0.7425283718406642,0.3212641859203321,-1.0
6.572840891621829,0.7738858494973675,0.33694292474868376,-1.0
6.580837048424289,0.8052433271540742,0.35262166357703717,-1.0
6.588833205226749,0.8366008048107776,0.36830040240538875,-1.0
6.596829362029208,0.8679582824674807,0.3839791412337404,-1.0
6.604825518831668,0.8993157601241875,0.3996578800620938,-1.0
6.612821675634128,1.5980824467009183,0.2980824467009181,-0.39808244670091814
6.620817832436587,1.5896654395404346,0.2896654395404346,-0.38966543954043464
6.628813989239047,1.5812484323799503,0.28124843237995023,-0.3812484323799502
6.6368101460415065,1.5728314252194668,0.27283142521946674,-0.37283142521946677
6.644806302843966,1.5644144180589834,0.26441441805898325,-0.3644144180589833
6.652802459646426,1.5559974108984989,0.25599741089849887,-0.35599741089849885
6.6607986164488855,1.5475804037380154,0.24758040373801538,-0.34758040373801535
6.668794773251345,1.539163396577532,0.2391633965775319,-0.3391633965775319
6.676790930053805,1.5307463894170474,0.2307463894170475,-0.3307463894170475
6.684787086856264,1.522329382256564,0.22232938225656404,-0.32232938225656405
6.692783243658724,1.5139123750960806,0.21391237509608058,-0.31391237509608055
6.700779400461184,1.5054953679355962,0.20549536793559614,-0.3054953679355961
6.708775557263643,1.322444273635637,0.1,-0.3
6.716771714066103,1.1,0.004144740731980937,-0.5041447407319809
6.724767870868563,1.1,0.012931726229189974,-0.5129317262291899
6.732764027671022,1.1,0.021718711726398037,-0.521718711726398
6.740760184473482,1.1,0.030505697223606097,-0.5305056972236061
6.748756341275942,1.1,0.03929268272081513,-0.5392926827208151
6.756752498078401,1.1,0.048079668218023196,-0.5480796682180232
6.764748654880861,1.1,0.05686665371523126,-0.5568666537152313
6.772744811683321,1.1,0.0656536392124403,-0.5656536392124403
6.78074096848578,1.1,0.07444062470964836,-0.5744406247096483
6.78873712528824,1.1,0.08322761020685641,-0.5832276102068564
6.7967332820907,1.1,0.09201459570406546,-0.5920145957040654
6.804729438893159,1.1,0.0895794443834437,-0.6104205556165563
6.8127255956956185,1.2241865231872742,0.0,-0.7
6.820721752498079,1.4,0.0,-0.7045401466327682
6.828717909300538,1.4,0.0,-0.7122287589428252
6.8367140661029975,1.4,0.0,-0.7199173712528824
6.844710222905458,1.4,0.0,-0.7276059835629403
6.852706379707917,1.4,0.0,-0.7352945958729973
6.860702536510376,1.4,0.0,-0.7429832081830544
6.868698693312837,1.4,0.0,-0.7506718204931123
6.876694850115296,1.4,0.0,-0.7583604328031693
6.884691006917755,1.4,0.0,-0.7660490451132265
6.892687163720216,1.4,0.0,-0.7737376574232844
6.900683320522675,1.4,0.0,-0.7814262697333414
6.908679477325134,1.4,0.0,-0.7891148820433985
6.916675634127595,1.4,0.0,-0.7968034943534564
6.924671790930054,1.4849416532737079,0.0,-0.8
6.932667947732513,1.8501921598770106,0.0,-0.8
6.9406641045349735,2.7259116918609645,-0.006477922965241061,-0.6935220770347589
6.948660261337433,2.770334785207961,-0.017583696301990154,-0.6824163036980098
6.956656418139892,2.814757878554957,-0.028689469638739244,-0.6713105303612608
6.964652574942352,2.8591809719019534,-0.03979524297548834,-0.6602047570245116
6.972648731744812,2.9036040652489548,-0.050901016312238666,-0.6490989836877613
6.980644888547271,2.948027158595951,-0.06200678964898776,-0.6379932103510122
6.9886410453497305,2.9924502519429477,-0.07311256298573685,-0.6268874370142631
6.996637202152191,3.0368733452899486,-0.08421833632248718,-0.6157816636775129
7.00463335895465,3.081296438636945,-0.09532410965923627,-0.6046758903407637
7.0126295157571095,3.2185242121445237,-0.3444273635664288,-0.31852421214452376
7.02062567255957,2.6623541331842646,-0.6,-0.3924708266368529
7.028621829362029,2.616921424079382,-0.6,-0.3833842848158764
7.036617986164488,2.571488714974499,-0.6,-0.3742977429948998
7.044614142966949,2.5260560058696115,-0.6,-0.3652112011739223
7.052610299769408,2.480623296764729,-0.6,-0.35612465935294574
7.060606456571867,2.435190587659846,-0.6,-0.3470381175319692
7.068602613374328,2.3897578785549585,-0.6,-0.33795157571099166
7.076598770176787,2.3443251694500757,-0.6,-0.32886503389001515
7.084594926979246,2.2988924603451935,-0.6,-0.31977849206903863
7.0925910837817066,2.2534597512403054,-0.6,-0.31069195024806107
7.100587240584166,2.2080270421354227,-0.6,-0.30160540842708455
7.108583397386625,1.703568683430341,-0.7654771055232197,-0.3
7.1165795541890855,1.4948919719028007,-0.6051080280971992,-0.002554014048599624
7.124575710991545,1.4790579980365446,-0.6209420019634554,-0.010471000981727699
7.132571867794004,1.4632240241702885,-0.6367759758297116,-0.018387987914855772
7.1405680245964644,1.4473900503040307,-0.6526099496959694,-0.026304974847984726
7.148564181398924,1.4315560764377744,-0.6684439235622256,-0.0342219617811128
7.156560338201383,1.4157221025715183,-0.6842778974284818,-0.04213894871424088
7.164556495003843,1.3998881287052605,-0.7001118712947396,-0.05005593564736983
7.172552651806303,1.3840541548390042,-0.7159458451609958,-0.0579729225804979
7.180548808608762,1.3682201809727481,-0.731779819027252,-0.06588990951362597
7.188544965411222,1.3523862071064903,-0.7476137928935098,-0.07380689644675494
7.196541122213682,1.336552233240234,-0.7634477667597661,-0.08172388337988301
7.204537279016141,1.320718259373978,-0.7792817406260222,-0.08964087031301107
7.212533435818601,1.30488428550772,-0.7951157144922801,-0.09755785724614004
7.220529592621061,1.0,-1.1,-0.5019728414040187
7.22852574942352,0.9932612811908291,-1.1,-0.6
7.23652190622598,0.9835098704561215,-1.1,-0.6
7.24451806302844,0.973758459721415,-1.1,-0.6
7.252514219830899,0.9640070489867084,-1.1,-0.6
7.260510376633359,0.9542556382520008,-1.1,-0.6
7.2685065334358185,0.9445042275172942,-1.1,-0.6
7.276502690238278,0.9347528167825877,-1.1,-0.6
7.284498847040738,0.9250014060478801,-1.1,-0.6
7.2924950038431975,0.9152499953131735,-1.1,-0.6
7.300491160645657,0.905498584578467,-1.1,-0.6
7.308487317448117,0.6756341275941347,-1.1243658724058654,-0.4756341275941347
7.316483474250576,0.6,-1.2,-0.39528055342044616
7.324479631053036,0.6,-1.2,-0.3868635462599626
7.332475787855496,0.6,-1.2,-0.3784465390994781
7.340471944657955,0.6,-1.2,-0.37002953193899457
7.348468101460415,0.6,-1.2,-0.361612524778511
7.356464258262875,0.6,-1.2,-0.35319551761802653
7.364460415065334,0.6,-1.2,-0.344778510457543
7.372456571867794,0.6,-1.2,-0.3363615032970594
7.380452728670254,0.6,-1.2,-0.32794449613657495
7.388448885472713,0.6,-1.2,-0.3195274889760914
7.396445042275173,0.6,-1.2,-0.3111104818156078
7.404441199077633,0.6,-1.2,-0.3026934746551233
7.412437355880092,0.6874711760184318,-1.0562644119907842,-0.1562644119907841
7.420433512682552,0.8077432423776577,-0.9922567576223423,-0.09225675762234238
7.428429669485012,0.8160725723802205,-0.9839274276197796,-0.08392742761977964
7.436425826287471,0.8244019023827822,-0.9755980976172178,-0.07559809761721782
7.4444219830899305,0.8327312323853441,-0.967268767614656,-0.067268767614656
7.452418139892391,0.8410605623879068,-0.9589394376120932,-0.058939437612093255
7.46041429669485,0.8493898923904686,-0.9506101076095315,-0.050610107609531434
7.4684104534973095,0.8577192223930304,-0.9422807776069696,-0.04228077760696961
7.47640661029977,0.8660485523955932,-0.9339514476044068,-0.03395144760440687
7.484402767102229,0.874377882398155,-0.9256221176018451,-0.025622117601845046
7.492398923904688,0.8827072124007168,-0.9172927875992832,-0.017292787599283224
7.500395080707149,0.8910365424032796,-0.9089634575967205,-0.008963457596720487
7.508391237509608,0.8993658724058413,-0.9006341275941587,-0.0006341275941586649
7.516387394312067,0.9,-0.6013088625585544,0.1
7.524383551114528,0.9,-0.6088524067118187,0.1
7.532379707916987,0.9,-0.6163959508650823,0.1
7.540375864719446,0.9,-0.6239394950183457,0.1
7.548372021521907,0.9,-0.63148303917161,0.1
7.556368178324366,0.9,-0.6390265833248735,0.1
7.564364335126825,0.9,-0.646570127478137,0.1
7.5723604919292855,0.9,-0.6541136716314013,0.1
7.580356648731745,0.9,-0.6616572157846647,0.1
7.588352805534204,0.9,-0.6692007599379283,0.1
7.5963489623366645,0.9,-0.6767443040911926,0.1
7.604345119139124,0.9,-0.6842878482444561,0.1
7.612341275941583,0.9,-0.6918313923977195,0.1
7.620337432744043,0.9,-0.6993749365509839,0.1
7.628333589546503,0.9,-0.5888867537791422,0.08888675377914228
7.636329746348962,0.9,-0.5222521137586502,0.022252113758650188
7.644325903151422,0.8841017816375459,-0.5,0.0
7.652322059953882,0.8602326568540852,-0.5,0.0
7.660318216756341,0.8363635320706245,-0.5,0.0
7.668314373558801,0.8124944072871612,-0.5,0.0
7.676310530361261,0.7886252825037006,-0.5,0.0
7.68430668716372,0.7647561577202397,-0.5,0.0
7.69230284396618,0.7408870329367765,-0.5,0.0
7.70029900076864,0.7170179081533157,-0.5,0.0
7.708295157571099,0.5852421214450598,-0.4,-0.1
7.716291314373559,0.3,-0.30236217976655544,-0.20236217976655546
7.7242874711760185,0.3,-0.3106056403876476,-0.21060564038764762
7.732283627978478,0.3,-0.31884910100873975,-0.21884910100873978
7.740279784780938,0.3,-0.32709256162983286,-0.22709256162983285
7.7482759415833975,0.3,-0.335336022250925,-0.235336022250925
7.756272098385857,0.3,-0.3435794828720172,-0.24357948287201717
7.764268255188317,0.3,-0.3518229434931102,-0.25182294349311024
7.7722644119907764,0.3,-0.3600664041142024,-0.2600664041142024
7.780260568793236,0.3,-0.36830986473529453,-0.26830986473529456
7.788256725595695,0.3,-0.3765533253563867,-0.2765533253563867
7.796252882398155,0.3,-0.3847967859774798,-0.28479678597747976
7.804249039200615,0.3,-0.39304024659857195,-0.2930402465985719
7.812245196003074,0.17548039969257068,-0.33774019984628534,-0.3
7.820241352805534,0.26206764027672635,-0.3,-0.2
7.828237509607994,0.30831897656091256,-0.2916810234390875,-0.19168102343908747
7.836233666410453,0.31750996139132553,-0.28249003860867444,-0.1824900386086745
7.844229823212913,0.3267009462217395,-0.27329905377826047,-0.1732990537782605
7.852225980015373,0.33589193105215254,-0.2641080689478475,-0.1641080689478475
7.860222136817832,0.3450829158825655,-0.2549170841174345,-0.15491708411743452
7.868218293620292,0.3542739007129795,-0.2457260992870205,-0.14572609928702052
7.876214450422752,0.3634648855433925,-0.23653511445660752,-0.13653511445660754
7.884210607225211,0.3726558703738055,-0.22734412962619455,-0.12734412962619454
7.892206764027671,0.38184685520421946,-0.21815314479578052,-0.11815314479578054
7.9002029208301305,0.3910378400346325,-0.20896215996536754,-0.10896215996536755
7.90819907763259,0.4199077632589639,-0.2,-0.1
7.91619523443505,0.19589675806532636,0.20205162096733684,-0.09794837903266318
7.9241913912375095,0.18095067058409406,0.20952466470795297,-0.09047533529204703
7.932187548039969,0.16600458310286179,0.2169977084485691,-0.08300229155143089
7.940183704842429,0.15105849562162785,0.22447075218918608,-0.07552924781081392
7.948179861644888,0.13611240814039555,0.23194379592980224,-0.06805620407019777
7.956176018447348,0.12116632065916327,0.23941683967041838,-0.06058316032958164
7.964172175249808,0.10622023317792934,0.24688988341103535,-0.05311011658896467
7.972168332052267,0.09127414569669705,0.2543629271516515,-0.045637072848348524
7.980164488854727,0.07632805821546476,0.2618359708922676,-0.03816402910773238
7.988160645657187,0.06138197073423082,0.2693090146328846,-0.03069098536711541
7.996156802459646,0.04643588325299855,0.27678205837350073,-0.023217941626499275
8.004152959262106,0.03148979577176625,0.28425510211411686,-0.015744897885883125
8.012149116064565,0.016543708290533976,0.291728145854733,-0.008271854145266988
8.020145272867026,0.0015976208092983724,0.2992011895953508,-0.0007988104046491862
8.028141429669486,0.13764936063169098,0.037649360631690956,-0.1
8.036137586471945,0.30021839122530997,0.0,0.0
8.044133743274404,0.31291070361016593,0.0,0.0
8.052129900076864,0.32560301599502195,0.0,0.0
8.060126056879323,0.33829532837987797,0.0,0.0
8.068122213681784,0.35098764076473676,0.0,0.0
8.076118370484243,0.3636799531495928,0.0,0.0
8.084114527286703,0.37637226553444875,0.0,0.0
8.092110684089162,0.38906457791930477,0.0,0.0
8.100106840891621,0.4,0.0,0.0
8.10810299769408,0.4,0.0,0.1
8.116099154496542,0.39260504739943547,0.0,0.1
8.124095311299001,0.38427571739687366,0.0,0.1
8.13209146810146,0.37594638739431185,0.0,0.1
8.14008762490392,0.36761705739175,0.0,0.1
8.14808378170638,0.3592877273891882,0.0,0.1
8.156079938508839,0.3509583973866264,0.0,0.1
8.1640760953113,0.3426290673840627,0.0,0.1
8.17207225211376,0.33429973738150087,0.0,0.1
8.180068408916219,0.32597040737893906,0.0,0.1
8.188064565718678,0.31764107737637726,0.0,0.1
8.196060722521137,0.3093117473738154,0.0,0.1
8.204056879323597,0.3009824173712536,0.0,0.1
8.212053036126056,0.1,0.1,0.2
8.220049192928517,-0.005871154568043286,0.1,0.19412884543195671
8.228045349730976,-0.015169011315089014,0.1,0.184830988684911
8.236041506533436,-0.02446686806213474,0.1,0.17553313193786527
8.244037663335895,-0.03376472480918047,0.1,0.16623527519081954
8.252033820138355,-0.0430625815562262,0.1,0.15693741844377382
8.260029976940814,-0.052360438303271924,0.1,0.1476395616967281
8.268026133743275,-0.06165829505031972,0.1,0.1383417049496803
8.276022290545734,-0.07095615179736545,0.1,0.12904384820263456
8.284018447348194,-0.08025400854441117,0.1,0.11974599145558884
8.292014604150653,-0.08955186529145691,0.1,0.1104481347085431
8.300010760953112,-0.09884972203850263,0.1,0.10115027796149738
8.308006917755572,0.0,0.0,0.04988470407380112
8.316003074558033,-0.004589976658745826,0.0,0.0
8.323999231360492,-0.011925900330726885,0.0,0.0
8.331995388162952,-0.019261824002707945,0.0,0.0
8.339991544965411,-0.026597747674689004,0.0,0.0
8.34798770176787,-0.033933671346670066,0.0,0.0
8.35598385857033,-0.04126959501865112,0.0,0.0
8.36398001537279,-0.048605518690633814,0.0,0.0
8.37197617217525,-0.05594144236261487,0.0,0.0
8.37997232897771,-0.06327736603459592,0.0,0.0
8.387968485780169,-0.07061328970657699,0.0,0.0
8.395964642582628,-0.07794921337855805,0.0,0.0
8.403960799385088,-0.08528513705053911,0.0,0.0
8.411956956187549,-0.0926210607225218,0.0,0.0
8.419953112990008,-0.09995698439450286,0.0,0.0
8.427949269792467,-0.1,0.09936587240583215,0.0
8.435945426594927,0.0,0.1,0.0
8.443941583397386,0.0,0.09850542317875163,0.0
8.451937740199845,0.0,0.08581311079389564,0.0
8.459933897002307,0.0,0.07312079840903683,0.0
8.467930053804766,0.0,0.06042848602418084,0.0
8.475926210607225,0.0,0.04773617363932485,0.0
8.483922367409685,0.0,0.03504386125446886,0.0
8.491918524212144,0.0,0.022351548869612867,0.0
8.499914681014603,0.0,0.009659236484756861,0.0
8.507910837817064,-0.09554189085326537,0.09554189085326537,0.0
8.515906994619524,0.0,0.0,-0.003159776760352078
8.523903151421983,0.0,0.0,-0.011851251545633936
8.531899308224443,0.0,0.0,-0.020542726330915792
8.539895465026902,0.0,0.0,-0.02923420111619765
8.547891621829361,0.0,0.0,-0.03792567590147951
8.555887778631822,0.0,0.0,-0.046617150686763295
8.563883935434282,0.0,0.0,-0.05530862547204515
8.571880092236741,0.0,0.0,-0.06400010025732701
8.5798762490392,0.0,0.0,-0.07269157504260887
8.58787240584166,0.0,0.0,-0.08138304982789073
8.59586856264412,0.0,0.0,-0.09007452461317259
8.60386471944658,0.0,0.0,-0.09876599939845637
8.61186087624904,0.1,0.1,0.0
8.619857033051499,0.11490659359021607,-0.007453296795108032,-0.1
8.627853189853958,0.1322895431607798,-0.01614477158038989,-0.1
8.635849346656418,0.14967249273134348,-0.024836246365671746,-0.1
8.643845503458877,0.16705544230190722,-0.03352772115095361,-0.1
8.651841660261338,0.1844383918724748,-0.042219195936237394,-0.1
8.659837817063798,0.20182134144303848,-0.05091067072151925,-0.1
8.667833973866257,0.2192042910136022,-0.05960214550680111,-0.1
8.675830130668716,0.23658724058416591,-0.06829362029208297,-0.1
8.683826287471176,0.25397019015472966,-0.07698509507736483,-0.1
8.691822444273635,0.2713531397252933,-0.08567656986264668,-0.1
8.699818601076096,0.2887360892958609,-0.09436804464793047,-0.1
8.707814757878555,0.2,-0.2814757878555124,-0.2
8.715810914681015,-0.19337232229388696,-0.4165691942652827,-0.4900584834408304
8.723807071483474,-0.17946596263743592,-0.45133509340641026,-0.46919894395615386
8.731803228285933,-0.1655596029809849,-0.4861009925475378,-0.44833940447147735
8.739799385088393,-0.15165324332453387,-0.5208668916886654,-0.4274798649868008
8.747795541890854,-0.13774688366807974,-0.5556327908298007,-0.40662032550211963
8.755791698693313,-0.12384052401162873,-0.5903986899709281,-0.3857607860174431
8.763787855495773,-0.10993416435517771,-0.6251645891120557,-0.36490124653276657
8.771784012298232,-0.09602780469872668,-0.6599304882531833,-0.34404170704809
8.779780169100691,-0.08212144504227567,-0.6946963873943108,-0.32318216756341345
8.78777632590315,-0.06821508538582463,-0.7294622865354384,-0.30232262807873694
8.795772482705612,-0.05430872572937054,-0.7642281856765737,-0.2814630885940558
8.803768639508071,-0.0404023660729195,-0.7989940848177013,-0.2606035491093792
8.81176479631053,-0.026496006416468487,-0.8337599839588288,-0.23974400962470271
8.81976095311299,-0.012589646760017448,-0.8685258830999564,-0.21888447014002615
8.82775710991545,0.45426594926983505,-1.1271329746349175,-0.2757109915449725
8.835753266717909,0.26079458109147224,-0.4246733282090793,-0.15462624903920238
8.84374942352037,-0.08903727901620184,0.37494235203703297,-0.004698308993056344
8.851745580322829,0.006465112306775725,0.4935348876932243,0.2193953369203272
8.859741737125288,0.03608050787143985,0.46391949212856015,0.30824152361431956
8.867737893927748,0.06569590343610397,0.434304096563896,0.3970877103083119
8.875734050730207,0.0953112990007681,0.40468870099923193,0.4859338970023043
8.883730207532667,0.12492669456543223,0.37507330543456774,0.5747800836962967
8.891726364335128,0.15454209013010292,0.3454579098698971,0.6636262703903089
8.899722521137587,0.18415748569476706,0.3158425143052329,0.7524724570843013
8.907718677940046,0.9,-0.63593389700232,-0.3718677940046399
8.915714834742506,0.6171099154496774,-0.5171099154496774,-0.32281322059956985
8.923710991544965,0.5393517518935365,-0.5,-0.24801578733731697
8.931707148347424,0.4764606309753171,-0.5,-0.19410911226455752
8.939703305149886,0.4135695100570838,-0.5,-0.14020243719178613
8.947699461952345,0.35067838913886445,-0.5,-0.08629576211902668
8.955695618754804,0.2877872682206451,-0.5,-0.03238908704626725
8.963691775557264,0.2248961473024258,-0.5,0.021517588026492174
8.971687932359723,0.16200502638420644,-0.5,0.0754242630992516
8.979684089162182,0.09911390546598708,-0.5,0.12933093817201102
8.987680245964643,0.03622278454775385,-0.5,0.18323761324478244
8.995676402767103,-0.026668336370465506,-0.5,0.23714428831754192
9.003672559569562,-0.08955945728868486,-0.5,0.2910509633903013
9.011668716372021,-0.08343581860105742,0.4331283627978852,-0.23312836279788518
9.01966487317448,-0.09138778295002208,0.3913877829500221,-0.18277556590004415
9.02766102997694,-0.08240333710456217,0.3824033371045622,-0.16480667420912434
9.0356571867794,-0.07341889125910227,0.37341889125910227,-0.14683778251820453
9.04365334358186,-0.06443444541364036,0.36443444541364034,-0.12886889082728073
9.05164950038432,-0.05544999956818046,0.35544999956818046,-0.11089999913636092
9.05964565718678,-0.04646555372272056,0.34646555372272053,-0.09293110744544111
9.067641813989239,-0.03748110787726065,0.33748110787726066,-0.0749622157545213
9.075637970791698,-0.02849666203180075,0.3284966620318007,-0.0569933240636015
9.083634127594157,-0.019512216186340844,0.31951221618634085,-0.03902443237268169
9.091630284396619,-0.010527770340878942,0.3105277703408789,-0.021055540681757884
9.099626441199078,-0.0015433244954190378,0.301543324495419,-0.0030866489908380756
9.107622598001537,0.2995552871417586,-0.00044471285824140264,-0.1
9.115618754803997,0.29384374656857337,-0.006156253431426632,-0.1
9.123614911606456,0.28813220599538814,-0.011867794004611862,-0.1
9.131611068408915,0.2824206654222029,-0.01757933457779709,-0.1
9.139607225211376,0.2767091248490164,-0.02329087515098359,-0.1
9.147603382013836,0.2709975842758312,-0.02900241572416882,-0.1
9.155599538816295,0.26528604370264597,-0.03471395629735405,-0.1
9.163595695618755,0.25957450312946073,-0.04042549687053928,-0.1
9.171591852421214,0.2538629625562755,-0.04613703744372451,-0.1
9.179588009223673,0.24815142198309026,-0.05184857801690974,-0.1
9.187584166026134,0.24243988140990377,-0.057560118590096236,-0.1
9.195580322828594,0.23672834083671856,-0.06327165916328147,-0.1
9.203576479631053,0.23101680026353333,-0.06898319973646669,-0.1
9.211572636433512,0.2253052596903481,-0.07469474030965192,-0.1
9.219568793235972,0.21959371911716286,-0.08040628088283715,-0.1
9.227564950038431,0.21388217854397762,-0.08611782145602238,-0.1
9.235561106840892,0.20817063797079113,-0.09182936202920888,-0.1
9.243557263643352,0.20245909739760592,-0.0975409026023941,-0.1
9.251553420445811,0.1520692584651468,-0.1,-0.12396537076742661
9.25954957724827,0.06789918686031207,-0.1,-0.166050406569844
9.26754573405073,-0.1272867025365018,-0.1,-0.22728670253650177
9.275541890853189,-0.08348403326113361,0.1,-0.1917420166305668
9.28353804765565,-0.05440709943400208,0.1,-0.17720354971700106
9.29153420445811,-0.02533016560687701,0.1,-0.1626650828034385
9.299530361260569,0.0037467682202480673,0.1,-0.14812661588987597
9.307526518063028,0.03282370204737314,0.1,-0.13358814897631344
9.315522674865488,0.061900635874498205,0.1,-0.1190496820627509
9.323518831667947,0.0909775697016233,0.1,-0.10451121514918836
9.331514988470408,0.1497002305918414,0.0,-0.1
9.339511145272867,-0.00673305264606965,-0.1134661052921393,0.0134661052921393
9.347507302075327,-0.018667615037800313,-0.1373352300756006,0.03733523007560063
9.355503458877786,-0.030602177429530978,-0.16120435485906195,0.061204354859061956
9.363499615680245,-0.042536739821261646,-0.1850734796425233,0.08507347964252329
9.371495772482705,-0.05447130221299231,-0.2089426044259846,0.10894260442598462
9.379491929285166,-0.06640586460472563,-0.23281172920945123,0.13281172920945125
9.387488086087625,-0.07834042699645628,-0.2566808539929125,0.15668085399291257
9.395484242890085,-0.09027498938818695,-0.2805499787763739,0.1805499787763739
9.403480399692544,-0.2480399692544709,-0.3,0.29869331283631395
9.411476556495003,-0.3720983858570416,-0.2,0.4360491929285208
9.419472713297463,-0.10365548768153936,-0.10731097536307872,0.20365548768153938
9.427468870099924,-0.11207249484202486,-0.12414498968404972,0.21207249484202487
9.435465026902383,-0.12048950200250849,-0.14097900400501698,0.2204895020025085
9.443461183704843,-0.12890650916299212,-0.15781301832598424,0.22890650916299213
9.451457340507302,-0.13732351632347575,-0.1746470326469515,0.23732351632347576
9.459453497309761,-0.14574052348395938,-0.19148104696791876,0.2457405234839594
9.46744965411222,-0.154157530644443,-0.20831506128888602,0.254157530644443
9.475445810914682,-0.16257453780492853,-0.22514907560985703,0.2625745378049285
9.483441967717141,-0.17099154496541213,-0.2419830899308243,0.2709915449654121
9.4914381245196,-0.1794085521258958,-0.25881710425179155,0.27940855212589577
9.49943428132206,-0.1878255592863794,-0.2756511185727588,0.28782555928637943
9.50743043812452,-0.19624256644686305,-0.2924851328937261,0.29624256644686303
9.515426594926979,-0.07156033820147167,-0.01421983089926417,-0.24312067640294333
9.52342275172944,0.05828652515816155,-0.1834269496836769,-0.025140424525515376
9.531418908531899,0.002618178324365059,-0.29895272867025396,-0.198952728670254
9.539415065334358,0.05259415833973598,-0.2789623366641056,-0.17896233666410563
9.547411222136818,0.1025701383551069,-0.25897194465795725,-0.15897194465795725
9.555407378939277,0.1525461183704778,-0.23898155265180887,-0.1389815526518089
9.563403535741736,0.20252209838584873,-0.2189911606456605,-0.11899116064566052
9.571399692544198,0.25249807840123073,-0.1990007686395077,-0.09900076863950771
9.579395849346657,0.30247405841660163,-0.17901037663335934,-0.07901037663335936
9.587392006149116,0.3524500384319726,-0.15901998462721098,-0.059019984627211
9.595388162951576,0.4024260184473435,-0.1390295926210626,-0.03902959262106262
9.603384319754035,0.4524019984627144,-0.11903920061491424,-0.019039200614914265
9.611380476556494,0.4239046887012283,0.12828593389631496,-0.3804765564938583
9.619376633358955,-0.17506533435824354,-0.25013066871648704,-0.18753266717912176
9.627372790161415,-0.2,-0.3,-0.1912228688554578
9.635368946963874,-0.2,-0.3,-0.18170363456681587
9.643365103766333,-0.2,-0.3,-0.17218440027817394
9.651361260568793,-0.2,-0.3,-0.16266516598953204
9.659357417371252,-0.2,-0.3,-0.1531459317008901
9.667353574173713,-0.2,-0.3,-0.14362669741224604
9.675349730976173,-0.2,-0.3,-0.1341074631236041
9.683345887778632,-0.2,-0.3,-0.12458822883496219
9.691342044581091,-0.2,-0.3,-0.11506899454632027
9.69933820138355,-0.2,-0.3,-0.10554976025767834
9.70733435818601,-0.1334358186009539,0.0668716372019078,0.2334358186009539
9.715330514988471,-0.2,0.20586441199077685,0.31759323597233047
9.72332667179093,-0.2,0.21226133743274433,0.3367840122982329
9.73132282859339,-0.2,0.2186582628747118,0.3559747886241354
9.73931898539585,-0.2,0.22505518831667928,0.37516556495003783
9.747315142198309,-0.2,0.23145211375864677,0.39435634127594027
9.755311299000768,-0.2,0.23784903920061423,0.4135471176018427
9.76330745580323,-0.2,0.24424596464258314,0.4327378939277494
9.771303612605688,-0.2,0.25064289008455065,0.4519286702536519
9.779299769408148,-0.2,0.2570398155265181,0.4711194465795543
9.787295926210607,-0.2,0.26343674096848557,0.4903102229054568
9.795292083013067,-0.2,0.2698336664104531,0.5095009992313593
9.803288239815526,-0.2,0.27623059185242055,0.5286917755572617
9.811284396617987,-0.2,0.28262751729438945,0.5478825518831684
9.819280553420446,-0.2,0.28902444273635697,0.5670733282090707
9.827276710222906,-0.2,0.29542136817832443,0.5862641045349732
9.835272867025365,-0.19090443248785427,0.18180886497570856,0.47271329746356283
9.843269023827824,0.4968917481810615,0.3,-0.4968917481810615
9.851265180630284,0.4859381087256378,0.3,-0.4859381087256378
9.859261337432743,0.4749844692702141,0.3,-0.4749844692702141
9.867257494235204,0.46403082981478794,0.3,-0.46403082981478794
9.875253651037664,0.4530771903593642,0.3,-0.4530771903593642
9.883249807840123,0.4421235509039405,0.3,-0.4421235509039405
9.891245964642582,0.4311699114485168,0.3,-0.4311699114485168
9.899242121445042,0.4202162719930931,0.3,-0.4202162719930931
9.907238278247501,0.40926263253766937,0.3,-0.40926263253766937
9.915234435049962,0.235408660005012,0.13540866000501198,-0.441147834998747
9.923230591852422,-0.5994235203689463,0.20028823981552685,-0.09971176018447317
9.93122674865488,-0.5794331283627979,0.21028343581860104,-0.08971656418139899
9.93922290545734,-0.5594427363566495,0.2202786318216752,-0.0797213681783248
9.9472190622598,-0.5394523443505013,0.2302738278247494,-0.06972617217525062
9.955215219062259,-0.5194619523443529,0.24026902382782356,-0.05973097617217644
9.96321137586472,-0.49947156033820006,0.25026421983089997,-0.04973578016910003
9.97120753266718,-0.4794811683320517,0.26025941583397416,-0.039740584166025855
9.979203689469639,-0.4594907763259033,0.27025461183704835,-0.029745388162951664
9.987199846272098,-0.43950038431975497,0.28024980784012254,-0.019750192159877486
9.995196003074557,-0.41950999231360664,0.2902450038431967,-0.009754996156803308
10.003192159877017,-0.3615680245966374,0.3,0.0
10.011188316679478,-0.10306568911488347,0.28773724354046615,-0.4754744870809323
10.019184473481937,-0.11075430142494047,0.2569827943002381,-0.4139655886004763
10.027180630284397,-0.11844291373499746,0.22622834506001016,-0.35245669012002034
10.035176787086856,-0.12613152604505445,0.19547389581978214,-0.2909477916395643
10.043172943889315,-0.13382013835511147,0.16471944657955415,-0.22943889315910831
10.051169100691775,-0.14150875066516846,0.13396499733932615,-0.16792999467865233
10.059165257494236,-0.14919736297522718,0.10321054809909133,-0.10642109619818269
10.067161414296695,-0.15688597528528417,0.07245609885886334,-0.0449121977177267
10.075157571099155,-0.16457458759534116,0.04170164961863537,0.016596700762729233
10.083153727901614,-0.17226319990539818,0.010947200378407351,0.07810559924318528
10.091149884704073,-0.17995181221545517,-0.01980724886182067,0.13961449772364132
10.099146041506533,-0.18764042452551216,-0.050561698102048636,0.20112339620409725
10.107142198308994,-0.19532903683557087,-0.08131614734228348,0.26263229468456695
10.115138355111453,0.0569177555726479,-0.0569177555726479,0.5138355111452958
10.123134511913912,-0.20024681085121673,-0.39901275659513313,-0.2993829728719582
10.131130668716372,-0.21491865819517886,-0.34032536721928464,-0.2627033545120529
10.139126825518831,-0.22959050553914098,-0.28163797784343614,-0.22602373615214758
10.14712298232129,-0.2442623528831031,-0.2229505884675877,-0.18934411779224228
10.155119139123752,-0.2589342002270685,-0.16426319909172618,-0.15266449943232885
10.163115295926211,-0.2736060475710306,-0.10557580971587771,-0.11598488107242355
10.17111145272867,-0.2882778949149927,-0.04688842034002921,-0.07930526271251825
10.17910760953113,-0.3029497422589548,0.011798969035819229,-0.04262564435261296
10.187103766333589,-0.317621589602917,0.07048635841166773,-0.00594602599270766
10.195099923136048,-0.3322934369468791,0.12917374778751622,0.030733592367197637
10.20309607993851,-0.34696528429084444,0.1878611371633777,0.0674132107271111
10.211092236740969,-0.3616371316348066,0.2465485265392262,0.10409282908701639
10.219088393543428,-0.3763089789787687,0.3052359159150746,0.1407724474469217
10.227084550345888,-0.3909808263227308,0.3639233052909231,0.177452065806827
10.235080707148347,0.10403535741737437,-0.9394696387393846,-0.2878939277478769
10.243076863950806,0.0,0.46239360036439503,0.1749290669095967
10.251073020753267,0.0,0.40316280923505426,0.1354418728233695
10.259069177555727,0.0,0.34393201810572666,0.09595467873715112
10.267065334358186,0.0,0.2847012269763991,0.05646748465093271
10.275061491160645,0.0,0.2254704358470715,0.016980290564714312
10.283057647963105,0.0,0.16623964471774388,-0.022506903521504085
10.291053804765564,0.0,0.10700885358841628,-0.06199409760772251
10.299049961568025,0.0,0.04777806245907551,-0.10148129169394965
10.307046118370485,0.0,-0.011452728670252044,-0.14096848578016807
10.315042275172944,0.0,-0.07068351979957965,-0.18045567986638644
10.323038431975403,0.05192159877019307,0.10768639508077227,0.1
10.331034588777863,0.04137842685114478,0.18275685370228956,0.1
10.339030745580322,0.0,0.0940573616072122,0.0940573616072122
10.347026902382783,0.0,0.07837862277885708,0.07837862277885708
10.355023059185243,0.0,0.06269988395050546,0.06269988395050546
10.363019215987702,0.0,0.047021145122153836,0.047021145122153836
10.371015372790161,0.0,0.03134240629380221,0.03134240629380221
10.37901152959262,0.0,0.015663667465450587,0.015663667465450587
10.38700768639508,-0.0007686395079535654,0.0015372790159071308,0.0
10.395003843197541,0.0,-0.027307665432194365,0.0
10.403,0.0,-0.09999999999999999,0.0
