accel_time_list,accel_x_list,accel_y_list,accel_z_list
0.0,-4.3,2.2,11.0
0.007991282689912827,-2.0052303860523035,1.0521793275217932,9.502615193026152
0.015982565379825654,-1.9377846234515304,-0.19924100412925214,8.569271809661139
0.02397384806973848,-1.9882558825457166,-0.06465097987808874,8.661802451333815
0.03196513075965131,-2.038727141639903,0.06993904437307463,8.754333093006489
0.03995641344956413,-2.089198400734089,0.20452906862423798,8.846863734679163
0.04794769613947696,-2.1396696598282756,0.3391190928754014,8.939394376351839
0.05593897882938979,-2.1901409189224617,0.4737091171265649,9.031925018024513
0.06393026151930262,-2.240612178016648,0.6082991413777281,9.124455659697189
0.07192154420921544,-2.291083437110834,0.7428891656288914,9.216986301369863
0.07991282689912826,-2.3415546962050207,0.8774791898800549,9.309516943042537
0.0879041095890411,-2.392025955299207,1.0120692141312184,9.402047584715213
0.09589539227895393,-2.442497214393393,1.146659238382382,9.494578226387887
0.10388667496886675,-2.4929684734875797,1.2812492626335452,9.587108868060563
0.11187795765877959,-2.4122042341220413,0.4,9.675591531755916
0.11986924034869241,-2.243694751240226,0.3887389502480453,9.9
0.12786052303860523,-2.178192434109793,0.37563848682195866,9.9
0.13585180572851807,-2.11269011697936,0.36253802339587204,9.9
0.14384308841843088,-2.047187799848927,0.3494375599697854,9.9
0.15183437110834372,-1.981685482718494,0.3363370965436988,9.9
0.15982565379825653,-1.9161831655880612,0.32323663311761225,9.9
0.16781693648816937,-1.8506808484576283,0.3101361696915256,9.9
0.1758082191780822,-2.161643835616443,0.3904109589041107,9.80958904109589
0.183799501867995,-2.097586636320694,0.5,9.6
0.19179078455790785,-2.090697599519045,0.5,9.6
0.1997820672478207,-2.083808562717396,0.5,9.6
0.2077733499377335,-2.076919525915747,0.5,9.6
0.21576463262764634,-2.070030489114098,0.5,9.6
0.22375591531755917,-2.063141452312449,0.5,9.6
0.23174719800747198,-2.0562524155108,0.5,9.6
0.23973848069738482,-2.049363378709151,0.5,9.6
0.24772976338729763,-2.042474341907502,0.5,9.6
0.25572104607721047,-2.0355853051058532,0.5,9.6
0.2637123287671233,-2.0286962683042042,0.5,9.6
0.27170361145703614,-2.0218072315025553,0.5,9.6
0.2796948941469489,-2.0149181947009063,0.5,9.6
0.28768617683686176,-2.0080291578992573,0.5,9.6
0.2956774595267746,-2.0011401210976083,0.5,9.6
0.30366874221668744,-1.941640722291407,0.4583592777085931,9.241640722291407
0.3116600249066003,-2.016500622665007,0.5776670817766713,9.2
0.31965130759651306,-2.2,0.7007942775567232,9.2
0.3276425902864259,-2.2,0.7105397442517388,9.2
0.33563387297633873,-2.2,0.7202852109467545,9.2
0.34362515566625157,-2.2,0.7300306776417702,9.2
0.3516164383561644,-2.2,0.7397761443367858,9.2
0.35960772104607724,-2.2,0.7495216110318015,9.2
0.36759900373599,-2.2,0.7592670777268171,9.2
0.37559028642590286,-2.2,0.7690125444218328,9.2
0.3835815691158157,-2.2,0.7787580111168484,9.2
0.39157285180572854,-2.2,0.788503477811864,9.2
0.3995641344956414,-2.2,0.7982489445068798,9.2
0.40755541718555416,-1.848152760481528,1.5629306766293036,7.996305520963056
0.415546699875467,-1.469188911148411,2.714826195246088,7.370347609507824
0.42353798256537983,-1.590795386864476,2.7408847257566737,7.318230548486653
0.43152926525529267,-1.7124018625805408,2.766943256267259,7.266113487465483
0.4395205479452055,-1.8340083382966057,2.793001786777844,7.213996426444312
0.44751183063511835,-1.9556148140126706,2.8190603172884297,7.161879365423141
0.45550311332503113,-2.0772212897287345,2.845118847799015,7.109762304401971
0.46349439601494397,-2.1988277654447996,2.8711773783096,7.0576452433808
0.4714856787048568,-2.3204342411608643,2.897235908820185,7.00552818235963
0.47947696139476964,-2.442040716876929,2.9232944393307707,6.953411121338458
0.4874682440846825,-2.563647192592994,2.949352969841356,6.901294060317288
0.49545952677459526,-2.685253668309058,2.975411500351941,6.849176999296118
0.5034508094645082,-2.7774595267745923,2.797135740971332,6.5295143212951094
0.5114420921544209,-5.602511887241028,-1.9979904902071777,3.8015071323446166
0.5194333748443337,-5.647916902524623,-1.9616664779803012,3.828750141514774
0.5274246575342466,-5.693321917808219,-1.9253424657534246,3.8559931506849314
0.5354159402241594,-5.738726933091814,-1.8890184535265482,3.8832361598550884
0.5434072229140723,-5.784131948375411,-1.8526944412996715,3.9104791690252463
0.5513985056039851,-5.829536963659006,-1.8163704290727951,3.9377221781954033
0.5593897882938978,-5.874941978942601,-1.780046416845919,3.9649651873655607
0.5673810709838107,-5.920346994226197,-1.743722404619042,3.992208196535718
0.5753723536737235,-5.965752009509792,-1.7073983923921658,4.0194512057058756
0.5833636363636364,-6.0111570247933885,-1.671074380165289,4.046694214876033
0.5913549190535492,-6.056562040076984,-1.6347503679384128,4.07393722404619
0.599346201743462,-6.2731008717310015,-1.8942714819427038,3.8230386052303964
0.6073374844333749,-9.41187214611873,-3.2,2.5
0.6153287671232877,-9.978720423412204,-3.193944582814446,2.463667496886675
0.6233200498132005,-10.096773463149553,-3.1848635797577267,2.4091814785463597
0.6313113325031133,-10.214826502886902,-3.1757825767010077,2.3546954602060453
0.6393026151930261,-10.33287954262425,-3.1667015736442887,2.300209441865731
0.647293897882939,-10.450932582361599,-3.1576205705875693,2.2457234235254155
0.6552851805728518,-10.568985622098946,-3.1485395675308503,2.191237405185101
0.6632764632627647,-10.687038661836297,-3.1394585644741313,2.136751386844786
0.6712677459526775,-10.805091701573645,-3.130377561417412,2.0822653685044714
0.6792590286425904,-10.923144741310994,-3.121296558360693,2.027779350164156
0.6872503113325031,-11.041197781048343,-3.112215555303974,1.9732933318238417
0.6952415940224159,-11.15925082078569,-3.103134552247255,1.9188073134835273
0.7032328767123288,-12.536121124729636,-4.372242249459272,-0.021196827685658504
0.7112241594022416,-12.872596185357542,-5.0451923707150845,-0.5679688012060062
0.7192154420921545,-13.232316313823176,-5.861581569115887,-1.110772104607726
0.7272067247820673,-14.00546327893775,-6.667220326373502,0.2147288576927443
0.73519800747198,-14.01584156814543,-6.604950591127428,0.43267293105400184
0.743189290161893,-14.026219857353107,-6.542680855881354,0.6506170044152623
0.7511805728518057,-14.036598146560786,-6.48041112063528,0.8685610777765198
0.7591718555417186,-14.046976435768466,-6.418141385389205,1.0865051511377803
0.7671631382316314,-14.057354724976145,-6.355871650143132,1.304449224499038
0.7751544209215442,-14.067733014183823,-6.293601914897058,1.5223932978602954
0.7831457036114571,-14.078111303391502,-6.231332179650984,1.740337371221556
0.7911369863013699,-14.088489592599181,-6.1690624444049105,1.9582814445828134
0.7991282689912828,-14.09886788180686,-6.106792709158835,2.176225517944074
0.8071195516811955,-13.75733706932337,-2.8293482772934824,4.497281029472812
0.8151108343711083,-12.089290161892864,-3.5442092154421148,2.4118306351182373
0.8231021170610212,-10.578589062943784,-6.700493762425982,-1.3642328111686448
0.831093399750934,-10.550549474558126,-5.915385287627534,-1.4483515763256214
0.8390846824408469,-10.522509886172466,-5.1302768128290746,-1.532470341482599
0.8470759651307597,-10.494470297786808,-4.345168338030627,-1.6165891066395757
0.8550672478206724,-10.46643070940115,-3.560059863232179,-1.7007078717965523
0.8630585305105853,-10.43839112101549,-2.7749513884337196,-1.78482663695353
0.8710498132004981,-10.410351532629832,-1.9898429136352718,-1.8689454021105065
0.879041095890411,-9.429908675799082,-5.363926940639265,-4.593835616438348
0.8870323785803238,-9.094604304654007,-5.598201434884669,-3.8928057395386766
0.8950236612702367,-9.073388509902026,-5.591129503300675,-3.864518013202702
0.9030149439601495,-9.052172715150045,-5.584057571716682,-3.8362302868667273
0.9110062266500623,-9.030956920398065,-5.576985640132688,-3.807942560530753
0.9189975093399751,-9.009741125646084,-5.569913708548694,-3.779654834194778
0.9269887920298879,-8.988525330894102,-5.562841776964701,-3.751367107858804
0.9349800747198008,-8.967309536142121,-5.555769845380707,-3.7230793815228287
0.9429713574097136,-8.946093741390142,-5.548697913796714,-3.6947916551868545
0.9509626400996264,-8.92487794663816,-5.54162598221272,-3.66650392885088
0.9589539227895393,-8.903662151886179,-5.534554050628726,-3.638216202514905
0.9669452054794521,-8.882446357134198,-5.527482119044732,-3.6099284761789305
0.974936488169365,-8.861230562382218,-5.5204101874607385,-3.581640749842956
0.9829277708592777,-8.840014767630237,-5.513338255876746,-3.5533530235069812
0.9909190535491905,-8.818798972878255,-5.506266324292752,-3.525065297171007
0.9989103362391034,-8.617932752179318,-3.9524283935241953,-2.3165628891655614
1.0069016189290163,-9.179993392126464,-1.67499174015808,1.115004955905152
1.014892901618929,-9.147375911759474,-1.634219889699342,1.1394680661803949
1.0228841843088419,-9.114758431392481,-1.5934480392406027,1.1639311764556384
1.0308754669987548,-9.08214095102549,-1.5526761887818636,1.1883942867308819
1.0388667496886674,-9.0495234706585,-1.5119043383231254,1.2128573970061247
1.0468580323785803,-9.016905990291509,-1.4711324878643863,1.2373205072813682
1.0548493150684932,-8.984288509924518,-1.430360637405647,1.2617836175566117
1.0628405977584061,-8.951671029557527,-1.389588786946908,1.2862467278318552
1.0708318804483188,-8.919053549190537,-1.3488169364881697,1.310709838107098
1.0788231631382317,-8.886436068823546,-1.3080450860294306,1.3351729483823416
1.0868144458281446,-8.853818588456553,-1.2672732355706913,1.359636058657585
1.0948057285180572,-8.821201108089562,-1.2265013851119533,1.384099168932828
1.1027970112079701,-8.566915732669164,-1.2466168534661675,1.4466168534661674
1.110788293897883,-8.339902449149024,-1.6990244914902441,1.5798048982980488
1.1187795765877957,-8.516936488169339,-2.4948941469488983,1.7389788293897797
1.1267708592777086,-8.102393053077984,-3.1095722123119383,0.29042778768806166
1.1347621419676215,-8.113192083740028,-3.152768334960116,0.2472316650398839
1.1427534246575344,-8.123991114402074,-3.195964457608294,0.20403554239170613
1.150744707347447,-8.134790145064118,-3.2391605802564705,0.16083941974352958
1.15873599003736,-8.145589175726162,-3.2823567029046483,0.11764329709535182
1.1667272727272728,-8.156388206388206,-3.325552825552826,0.07444717444717405
1.1747185554171855,-8.16718723705025,-3.3687489482010027,0.03125105179899751
1.1827098381070984,-8.177986267712294,-3.41194507084918,-0.011945070849180284
1.1907011207970113,-8.18878529837434,-3.455141193497358,-0.05514119349735802
1.198692403486924,-8.199584329036384,-3.4983373161455344,-0.09833731614553459
1.2066836861768369,-10.901470292853412,-3.3,1.6992648535732937
1.2146749688667497,-10.918655847025269,-3.3,1.6906720764873657
1.2226662515566626,-10.935841401197123,-3.3,1.682079299401438
1.2306575342465753,-10.95302695536898,-3.3,1.6734865223155104
1.2386488169364882,-10.970212509540834,-3.3,1.6648937452295824
1.246640099626401,-10.987398063712691,-3.3,1.6563009681436547
1.2546313823163138,-11.004583617884546,-3.3,1.6477081910577271
1.2626226650062267,-11.021769172056402,-3.3,1.6391154139717992
1.2706139476961396,-11.038954726228257,-3.3,1.6305226368858714
1.2786052303860522,-11.056140280400113,-3.3,1.6219298597999439
1.2865965130759651,-11.073325834571968,-3.3,1.613337082714016
1.294587795765878,-11.090511388743824,-3.3,1.6047443056280881
1.302579078455791,-11.35367372353673,-2.723163138231635,0.8726027397260081
1.3105703611457036,-10.905234537152346,-3.203489691434897,-0.296510308565103
1.3185616438356165,-10.931872146118723,-3.2212480974124813,-0.2787519025875188
1.3265529265255294,-10.958509755085098,-3.2390065033900655,-0.26099349660993465
1.334544209215442,-10.985147364051473,-3.256764909367649,-0.24323509063235094
1.342535491905355,-11.01178497301785,-3.2745233153452333,-0.22547668465476675
1.3505267745952678,-11.038422581984227,-3.2922817213228175,-0.20771827867718257
1.3585180572851807,-11.065060190950602,-3.3100401273004016,-0.18995987269959838
1.3665093399750934,-11.091697799916977,-3.3277985332779854,-0.1722014667220147
1.3745006226650063,-11.118335408883354,-3.3455569392555695,-0.15444306074443048
1.3824919053549192,-11.14497301784973,-3.3633153452331537,-0.1366846547668463
1.3904831880448318,-11.171610626816106,-3.3810737512107374,-0.11892624878926261
1.3984744707347447,-11.198248235782481,-3.3988321571883215,-0.10116784281167843
1.4064657534246576,-10.093762751384435,-4.190644127076654,-0.40623724861556426
1.4144570361145703,-10.059757293129488,-4.139635939694233,-0.4402427068705118
1.4224483188044832,-10.025751834874539,-4.08862775231181,-0.47424816512546025
1.430439601494396,-9.991746376619592,-4.037619564929387,-0.5082536233804087
1.438430884184309,-9.957740918364642,-3.9866113775469643,-0.5422590816353572
1.4464221668742216,-9.923735460109695,-3.935603190164543,-0.5762645398903047
1.4544134495641345,-9.889730001854746,-3.8845950027821203,-0.6102699981452531
1.4624047322540474,-9.855724543599798,-3.833586815399698,-0.6442754564002016
1.47039601494396,-9.821719085344851,-3.7825786280172764,-0.6782809146551491
1.478387297633873,-9.787713627089902,-3.731570440634854,-0.7122863729100974
1.486378580323786,-9.753708168834953,-3.680562253252431,-0.7462918311650459
1.4943698630136986,-9.719702710580005,-3.62955406587001,-0.7802972894199935
1.5023611457036115,-9.888916562889195,-2.402739726027357,-0.10273972602735681
1.5103524283935243,-10.407658779576588,-1.8761519302615233,0.46980074719800446
1.5183437110834372,-10.41598303237858,-2.0676097447073527,0.32828844956413045
1.52633499377335,-10.424307285180573,-2.259067559153177,0.18677615193026037
1.5343262764632628,-10.432631537982566,-2.4505253735990067,0.04526385429638635
1.5423175591531757,-10.440955790784558,-2.6419831880448363,-0.09624844333748772
1.5503088418430884,-10.449280043586551,-2.8334410024906607,-0.2377607409713578
1.5583001245330013,-10.457604296388544,-3.02489881693649,-0.37927303860523176
1.5662914072229142,-10.465928549190537,-3.2163566313823195,-0.5207853362391058
1.574282689912827,-10.47425280199253,-3.4078144458281487,-0.6622976338729799
1.5822739726027397,-10.48257705479452,-3.599272260273973,-0.80380993150685
1.5902652552926526,-10.490901307596513,-3.7907300747198027,-0.9453222291407241
1.5982565379825655,-10.499225560398505,-3.9821878891656324,-1.0868345267745978
1.6062478206724782,-10.397601735427632,-3.0997335261586256,-1.4994670523172515
1.614239103362391,-10.320266741654281,-3.091140749072698,-1.4822814981453958
1.622230386052304,-10.242931747880931,-3.08254797198677,-1.46509594397354
1.6302216687422166,-10.165596754107582,-3.0739551949008423,-1.447910389801685
1.6382129514321295,-10.088261760334232,-3.0653624178149146,-1.4307248356298292
1.6462042341220424,-10.01092676656088,-3.056769640728987,-1.4135392814579735
1.6541955168119553,-9.93359177278753,-3.048176863643059,-1.3963537272861177
1.662186799501868,-9.856256779014181,-3.0395840865571313,-1.3791681731142627
1.6701780821917809,-9.778921785240831,-3.0309913094712035,-1.361982618942407
1.6781693648816938,-9.70158679146748,-3.022398532385276,-1.3447970647705512
1.6861606475716064,-9.624251797694132,-3.013805755299348,-1.327611510598696
1.6941519302615193,-9.546916803920782,-3.0052129782134203,-1.3104259564268403
1.7021432129514322,-9.028518057285176,-3.7143212951432156,-1.5
1.710134495641345,-8.486662917285985,-3.0088913884760107,-1.2044456942380053
1.7181257783312578,-8.4608845860282,-3.026076942647866,-1.213038471323933
1.7261170610211707,-8.435106254770417,-3.043262496819722,-1.221631248409861
1.7341083437110836,-8.409327923512633,-3.0604480509915777,-1.2302240254957888
1.7420996264009962,-8.38354959225485,-3.0776336051634328,-1.2388168025817163
1.7500909090909091,-8.357771260997067,-3.0948191593352887,-1.2474095796676443
1.758082191780822,-8.331992929739283,-3.1120047135071442,-1.256002356753572
1.7660734744707347,-8.3062145984815,-3.1291902676789998,-1.2645951338394998
1.7740647571606476,-8.280436267223717,-3.1463758218508553,-1.2731879109254276
1.7820560398505605,-8.254657935965934,-3.163561376022711,-1.2817806880113554
1.7900473225404734,-8.22887960470815,-3.180746930194567,-1.2903734650972833
1.798038605230386,-8.203101273450367,-3.197932484366422,-1.2989662421832109
1.806029887920299,-7.478804483188043,-3.039402241594021,-1.1576089663760845
1.8140211706102118,-6.986445492325129,-2.9,-0.795481830775043
1.8220124533001245,-6.959508584381603,-2.9,-0.7865028614605344
1.8300037359900374,-6.9325716764380765,-2.9,-0.7775238921460255
1.8379950186799503,-6.90563476849455,-2.9,-0.7685449228315165
1.845986301369863,-6.878697860551024,-2.9,-0.759565953517008
1.8539775840597759,-6.851760952607497,-2.9,-0.750586984202499
1.8619688667496888,-6.824824044663971,-2.9,-0.7416080148879902
1.8699601494396016,-6.797887136720444,-2.9,-0.7326290455734813
1.8779514321295143,-6.770950228776918,-2.9,-0.7236500762589727
1.8859427148194272,-6.744013320833392,-2.9,-0.7146711069444638
1.89393399750934,-6.717076412889865,-2.9,-0.705692137629955
1.9019252801992528,-6.692528019925286,-2.8,-0.2298879202988578
1.9099165628891657,-7.311202435312024,-2.801018403210184,-0.09898159678981597
1.9179078455790786,-7.408873668188737,-2.8098976061989758,-0.09010239380102386
1.9258991282689912,-7.506544901065448,-2.8187768091877676,-0.08122319081223202
1.9338904109589041,-7.604216133942161,-2.82765601217656,-0.07234398782343993
1.941881693648817,-7.701887366818874,-2.8365352151653522,-0.06346478483464782
1.94987297633873,-7.799558599695587,-2.845414418154144,-0.05458558184585573
1.9578642590286426,-7.897229832572298,-2.854293621142936,-0.04570637885706388
1.9658555417185555,-7.99490106544901,-2.8631728241317282,-0.03682717586827178
1.9738468244084684,-8.092572298325724,-2.87205202712052,-0.027947972879479685
1.981838107098381,-8.190243531202434,-2.880931230109312,-0.01906876989068783
1.989829389788294,-8.287914764079147,-2.8898104330981043,-0.010189566901895736
1.9978206724782068,-8.38558599695586,-2.898689636086896,-0.0013103639131036432
2.0058119551681197,-10.330759651307762,-3.1,0.2594022415940132
2.0138032378580326,-11.592265417727006,-3.122184471276193,0.16302588120634517
2.021794520547945,-11.8181060154854,-3.148243001786777,0.11959499702203844
2.029785803237858,-12.043946613243808,-3.1743015322973624,0.07616411283772927
2.037777085927771,-12.269787211002216,-3.200360062807948,0.0327332286534201
2.0457683686176837,-12.495627808760624,-3.2264185933185336,-0.010697655530889055
2.0537596513075966,-12.721468406519032,-3.252477123829119,-0.05412853971519821
2.0617509339975095,-12.94730900427744,-3.2785356543397044,-0.09755942389950739
2.0697422166874224,-13.173149602035846,-3.30459418485029,-0.14099030808381652
2.077733499377335,-13.398990199794241,-3.330652715360874,-0.18442119226812326
2.0857247820672478,-13.624830797552649,-3.3567112458714594,-0.22785207645243244
2.0937160647571607,-13.850671395311057,-3.382769776382045,-0.2712829606367416
2.1017073474470735,-15.21095890410958,-3.941469489414698,-0.8938978829389764
2.1096986301369864,-9.272160848431284,-4.911931064958021,1.7238621299160424
2.1176899128268993,-9.21201140882979,-4.937709396215805,1.7754187924316094
2.1256811955168122,-9.151861969228294,-4.963487727473589,1.8269754549471764
2.1336724782067247,-9.091712529626802,-4.989266058731371,1.8785321174627407
2.1416637608966376,-9.031563090025308,-5.015044389989154,1.9300887799783077
2.1496550435865505,-8.971413650423813,-5.040822721246938,1.9816454424938748
2.1576463262764634,-8.911264210822317,-5.066601052504721,2.0332021050094418
2.1656376089663762,-8.851114771220823,-5.092379383762505,2.0847587675250088
2.173628891656289,-8.790965331619327,-5.118157715020288,2.136315430040576
2.1816201743462016,-8.730815892017835,-5.14393604627807,2.18787209255614
2.1896114570361145,-8.670666452416341,-5.169714377535854,2.239428755071707
2.1976027397260274,-8.610517012814846,-5.195492708793638,2.290985417587274
2.2055940224159403,-9.018804483188035,-2.9594022415940175,2.838605230386041
2.213585305105853,-9.45703611457036,-3.328891656288916,3.829638854296386
2.221576587795766,-9.401441469489415,-3.5036036737235374,4.3848645703611435
2.229567870485679,-9.421419676214198,-3.553549190535493,4.1750933997509305
2.2375591531755914,-9.441397882938979,-3.6034947073474455,3.9653222291407286
2.2455504358655043,-9.46137608966376,-3.653440224159401,3.755551058530515
2.253541718555417,-9.481354296388544,-3.7033857409713566,3.545779887920302
2.26153300124533,-9.501332503113325,-3.7533312577833122,3.3360087173100887
2.269524283935243,-9.521310709838106,-3.803276774595268,3.1262375466998753
2.277515566625156,-9.54128891656289,-3.8532222914072234,2.9164663760896623
2.2855068493150688,-9.56126712328767,-3.903167808219179,2.706695205479449
2.293498132004981,-9.581245330012452,-3.9531133250311314,2.496924034869247
2.301489414694894,-9.722353673723498,-4.367061021170497,1.9329389788295033
2.309480697384807,-8.686550435865506,-3.6596513075965214,0.44806973848069576
2.31747198007472,-8.532072908411637,-3.366036454205819,0.5
2.3254632627646328,-8.459424883957885,-3.329712441978942,0.5
2.3334545454545457,-8.386776859504131,-3.2933884297520652,0.5
2.3414458281444586,-8.314128835050377,-3.257064417525189,0.5
2.349437110834371,-8.241480810596627,-3.2207404052983137,0.5
2.357428393524284,-8.168832786142874,-3.1844163930714373,0.5
2.365419676214197,-8.09618476168912,-3.1480923808445604,0.5
2.3734109589041097,-8.023536737235368,-3.1117683686176836,0.5
2.3814022415940226,-7.950888712781614,-3.0754443563908067,0.5
2.3893935242839355,-7.87824068832786,-3.0391203441639303,0.5
2.397384806973848,-7.805592663874111,-3.0027963319370556,0.5
2.405376089663761,-7.077988792029915,-2.3,-0.2220112079700851
2.4133673723536737,-7.123592845510654,-2.5294910568883173,-0.5941017886223365
2.4213586550435866,-7.158719362828952,-2.5733992035361903,-0.5853201592927619
2.4293499377334995,-7.193845880147251,-2.6173073501840634,-0.5765385299631873
2.4373412204234124,-7.228972397465549,-2.6612154968319364,-0.5677569006336127
2.4453325031133253,-7.2640989147838475,-2.7051236434798094,-0.5589752713040381
2.4533237858032377,-7.299225432102143,-2.7490317901276797,-0.5501936419744641
2.4613150684931506,-7.334351949420442,-2.7929399367755527,-0.5414120126448895
2.4693063511830635,-7.36947846673874,-2.8368480834234258,-0.5326303833153149
2.4772976338729764,-7.4046049840570385,-2.8807562300712988,-0.5238487539857403
2.4852889165628893,-7.439731501375337,-2.9246643767191713,-0.5150671246561657
2.493280199252802,-7.474858018693635,-2.9685725233670444,-0.5062854953265911
2.501271481942715,-7.51855541718543,-2.5185554171854307,-0.09140722291390743
2.5092627646326275,-8.12105009440405,-2.510525047202025,0.49649165093265835
2.5172540473225404,-8.172606756919617,-2.5363033784598086,0.48789887384673053
2.5252453300124533,-8.224163419435182,-2.562081709717592,0.4793060967608027
2.533236612702366,-8.27572008195075,-2.587860040975375,0.47071331967487495
2.541227895392279,-8.327276744466317,-2.6136383722331584,0.46212054258894714
2.549219178082192,-8.378833406981883,-2.639416703490942,0.4535277655030193
2.5572104607721045,-8.430390069497447,-2.665195034748724,0.444934988417092
2.5652017434620173,-8.481946732013014,-2.6909733660065074,0.4363422113311642
2.5731930261519302,-8.533503394528582,-2.7167516972642907,0.42774943424523637
2.581184308841843,-8.585060057044148,-2.742530028522074,0.4191566571593086
2.589175591531756,-8.636616719559715,-2.7683083597798577,0.4105638800733808
2.597166874221669,-8.68817338207528,-2.794086691037641,0.401971102987453
2.605158156911582,-10.142133665421378,-2.21577418015772,1.8842258198422799
2.6131494396014943,-11.007855956828557,-1.749616023246161,2.350383976753839
2.621140722291407,-11.575225434740206,-4.655742771834534,0.5194826629056725
2.62913200498132,-11.536713229005686,-4.742395234737204,0.39431799426848213
2.637123287671233,-11.498201023271166,-4.829047697639875,0.2691533256312919
2.645114570361146,-11.459688817536646,-4.915700160542545,0.14398865699410163
2.6531058530510587,-11.421176611802126,-5.002352623445215,0.018823988356911348
2.6610971357409716,-11.382664406067606,-5.0890050863478855,-0.10634068028027888
2.669088418430884,-11.344152200333088,-5.175657549250551,-0.23150534891746222
2.677079701120797,-11.305639994598568,-5.262310012153221,-0.35667001755465255
2.68507098381071,-11.267127788864048,-5.348962475055891,-0.4818346861918429
2.6930622665006227,-11.228615583129528,-5.435614937958562,-0.606999354829033
2.7010535491905356,-11.208032378580336,-6.3625155666250945,-1.4785803237857682
2.7090448318804485,-11.529825653798191,-4.138792029887884,-1.0044831880448464
2.7170361145703614,-10.949790812542846,-3.868377013166915,-1.0525655197503723
2.725027397260274,-10.779190395567186,-3.8324611359088814,-0.998691703863322
2.7330186799501868,-10.608589978591517,-3.7965452586508457,-0.9448178879762688
2.7410099626400997,-10.437989561615849,-3.7606293813928104,-0.8909440720892156
2.7490012453300126,-10.26738914464018,-3.7247135041347748,-0.8370702562021624
2.7569925280199254,-10.096788727664512,-3.688797626876739,-0.783196440315109
2.7649838107098383,-9.926188310688843,-3.652881749618704,-0.7293226244280557
2.772975093399751,-9.755587893713184,-3.6169658723606704,-0.6754488085410055
2.7809663760896637,-9.584987476737515,-3.581049995102635,-0.6215749926539523
2.7889576587795766,-9.414387059761847,-3.5451341178445994,-0.5677011767668991
2.7969489414694895,-9.243786642786178,-3.5092182405865637,-0.5138273608798458
2.8049402241594024,-7.368659194686589,-2.8403071814030594,0.29701120797011743
2.8129315068493153,-9.216438356164385,-2.6020547945205483,-0.3061643835616446
2.820922789539228,-9.284449272674282,-2.6105561590842856,-0.331668477252856
2.8289140722291406,-9.352460189184175,-2.619057523648022,-0.35717257094406596
2.8369053549190535,-9.420471105694073,-2.6275588882117593,-0.3826766646352774
2.8448966376089664,-9.48848202220397,-2.636060252775496,-0.40818075832648876
2.8528879202988793,-9.556492938713866,-2.6445616173392335,-0.4336848520177002
2.860879202988792,-9.624503855223765,-2.6530629819029707,-0.45918894570891156
2.868870485678705,-9.692514771733661,-2.6615643464667076,-0.484693039400123
2.876861768368618,-9.760525688243558,-2.670065711030445,-0.5101971330913344
2.8848530510585304,-9.828536604753452,-2.6785670755941817,-0.5357012267825443
2.8928443337484433,-9.896547521263349,-2.6870684401579186,-0.5612053204737557
2.900835616438356,-9.964558437773245,-2.695569804721656,-0.5867094141649671
2.908826899128269,-8.669240348692371,-3.4134495641345364,-0.8826899128269072
2.916818181818182,-7.484115884115884,-3.637662337662344,0.08411588411588337
2.924809464508095,-7.457770996127159,-3.8659847002312833,0.0577709961271596
2.9328007471980078,-7.431426108138436,-4.0943070628002225,0.031426108138435827
2.94079202988792,-7.405081220149714,-4.322629425369149,0.005081220149713517
2.948783312577833,-7.37873633216099,-4.5509517879380885,-0.02126366783901025
2.956774595267746,-7.352391444172266,-4.779274150507028,-0.04760855582773402
2.964765877957659,-7.326046556183543,-5.007596513075967,-0.0739534438164578
2.972757160647572,-7.299701668194818,-5.235918875644907,-0.10029833180518158
2.9807484433374847,-7.273356780206095,-5.464241238213846,-0.12664321979390533
2.988739726027397,-7.2470118922173725,-5.692563600782773,-0.15298810778262764
2.99673100871731,-7.220667004228649,-5.9208859633517115,-0.1793329957713514
3.004722291407223,-6.941656288916552,-7.47783312577839,0.05834371108344816
3.012713574097136,-7.092839352428398,-7.635720215857201,0.6785180572851928
3.0207048567870487,-8.58414279784146,-7.0841427978414595,-0.5070568700707141
3.0286961394769616,-8.721733434684863,-7.473925700700305,-1.5782665653151375
3.0366874221668745,-8.628328831815752,-7.681491484853886,-1.6716711681842487
3.044678704856787,-8.534924228946647,-7.889057269007455,-1.7650757710533547
3.0526699875467,-8.441519626077534,-8.096623053161036,-1.858480373922466
3.0606612702366127,-8.348115023208424,-8.304188837314616,-1.9518849767915771
3.0686525529265256,-8.254710420339311,-8.511754621468198,-2.0452895796606887
3.0766438356164385,-8.1613058174702,-8.719320405621778,-2.1386941825298
3.0846351183063514,-8.06790121460109,-8.926886189775358,-2.232098785398911
3.0926264009962643,-7.974496611731978,-9.13445197392894,-2.325503388268022
3.1006176836861767,-7.447048567870559,-9.397061021170595,-2.0441095890411534
3.1086089663760896,-7.514528850145281,-7.88547114985472,0.5072644250726402
3.1166002490660025,-7.684999433940903,-7.632497452734064,0.6375014151477423
3.1245915317559154,-7.666837427827465,-7.550768425223591,0.6829064304313383
3.1325828144458283,-7.648675421714026,-7.469039397713119,0.7283114457149342
3.140574097135741,-7.630513415600588,-7.387310370202646,0.7737164609985301
3.148565379825654,-7.612351409487149,-7.305581342692173,0.8191214762821261
3.1565566625155665,-7.594189403373712,-7.223852315181705,0.8645264915657196
3.1645479452054794,-7.576027397260274,-7.142123287671232,0.9099315068493155
3.1725392278953923,-7.557865391146835,-7.060394260160759,0.9553365221329114
3.1805305105853052,-7.539703385033397,-6.978665232650287,1.0007415374165074
3.188521793275218,-7.5215413789199586,-6.896936205139814,1.0461465527001033
3.196513075965131,-7.503379372806521,-6.8152071776293415,1.0915515679836993
3.2045043586550435,-6.172166874221832,-4.297384806973999,0.24956413449566645
3.2124956413449564,-5.255876484687797,-3.2952315912103805,0.11396912117194924
3.2204869240348692,-5.32461870137522,-3.166339934921463,0.13115467534380493
3.228478206724782,-5.393360918062642,-3.0374482786325454,0.14834022951566062
3.236469489414695,-5.462103134750065,-2.9085566223436277,0.1655257836875163
3.244460772104608,-5.530845351437488,-2.77966496605471,0.182711337859372
3.252452054794521,-5.599587568124911,-2.6507733097657926,0.19989689203122768
3.2604433374844333,-5.66832978481233,-2.521881653476882,0.21708244620308242
3.268434620174346,-5.737072001499753,-2.3929899971879642,0.23426800037493808
3.276425902864259,-5.805814218187175,-2.2640983408990465,0.25145355454679374
3.284417185554172,-5.874556434874598,-2.1352066846101287,0.2686391087186495
3.292408468244085,-5.943298651562021,-2.006315028321211,0.2858246628905051
3.3003997509339977,-6.699875466998822,-0.9901618929015313,0.3
3.3083910336239106,-7.560273972603657,3.7330012453294077,-1.8150684931509145
3.316382316313823,-11.544610799389918,1.0916408971973144,-2.764540277330795
3.324373599003736,-12.101306896889469,0.705545216673433,-2.8453510011613745
3.332364881693649,-12.658002994389019,0.3194495361495515,-2.9261617249919545
3.3403561643835618,-13.21469909188857,-0.06664614437433003,-3.0069724488225344
3.3483474470734746,-13.77139518938812,-0.4527418248982116,-3.087783172653114
3.3563387297633875,-14.32809128688767,-0.8388375054220929,-3.168593896483694
3.3643300124533004,-14.88478738438722,-1.2249331859459747,-3.249404620314274
3.372321295143213,-15.441483481886738,-1.6110288664698347,-3.3302153441448494
3.3803125778331258,-15.998179579386289,-1.997124546993716,-3.411026067975429
3.3883038605230387,-16.55487567688584,-2.3832202275175973,-3.491836791806009
3.3962951432129516,-17.11157177438539,-2.7693159080414786,-3.5726475156365884
3.4042864259028645,-22.314321295143227,-4.035637193856342,-3.057036114570319
3.4122777085927773,-22.519489414694693,-3.0889165628890423,-1.6917185554169538
3.42026899128269,-21.736214804240195,-1.0043222063602937,-0.5079731494699755
3.4282602739726027,-21.580287337119945,-0.7704310056799171,-0.5274640828600069
3.4362515566625156,-21.424359869999694,-0.5365398049995406,-0.5469550162500383
3.4442428393524285,-21.268432402879444,-0.30264860431916407,-0.5664459496400697
3.4522341220423414,-21.11250493575919,-0.06875740363878746,-0.585936883030101
3.4602254047322543,-20.95657746863894,0.16513379704158915,-0.6054278164201324
3.468216687422167,-20.80065000151869,0.39902499772196554,-0.6249187498101638
3.4762079701120796,-20.644722534398447,0.632916198402329,-0.644409683200194
3.4841992528019925,-20.488795067278197,0.8668073990827057,-0.6639006165902255
3.4921905354919054,-20.332867600157943,1.1006985997630823,-0.6833915499802568
3.5001818181818183,-17.74545454545451,1.036363636363594,-1.7909090909091514
3.508173100871731,-15.093248721549507,-10.92827429055935,-3.7046448159826273
3.516164383561644,-15.076245992422033,-11.251326143981359,-3.968187117458477
3.524155666251557,-15.05924326329456,-11.574377997403369,-4.231729418934327
3.5321469489414694,-15.042240534167085,-11.897429850825361,-4.495271720410162
3.5401382316313823,-15.025237805039612,-12.22048170424737,-4.758814021886012
3.548129514321295,-15.008235075912138,-12.54353355766938,-5.022356323361862
3.556120797011208,-14.991232346784663,-12.866585411091389,-5.285898624837712
3.564112079701121,-14.97422961765719,-13.189637264513397,-5.549440926313562
3.572103362391034,-14.957226888529716,-13.512689117935407,-5.812983227789411
3.5800946450809468,-14.940224159402241,-13.835740971357417,-6.076525529265261
3.588085927770859,-14.923221430274769,-14.158792824779407,-6.340067830741097
3.596077210460772,-14.906218701147294,-14.481844678201417,-6.6036101322169465
3.604068493150685,-7.85525114155249,-6.151826484018238,-1.6897260273972414
3.612059775840598,-4.3354047322540445,-3.593200498132005,-0.2898007471980069
3.620051058530511,-4.166699875466994,-3.5754420921544203,-0.26316313823163057
3.6280423412204237,-3.997995018679944,-3.557683686176836,-0.23652552926525422
3.636033623910336,-3.829290161892903,-3.539925280199253,-0.20988792029887937
3.644024906600249,-3.660585305105853,-3.5221668742216687,-0.18325031133250302
3.652016189290162,-3.491880448318802,-3.5044084682440846,-0.15661270236612668
3.660007471980075,-3.323175591531752,-3.4866500622665004,-0.1299750933997503
3.6679987546699877,-3.154470734744702,-3.468891656288916,-0.10333748443337396
3.6759900373599006,-2.9857658779576512,-3.4511332503113317,-0.07669987546699761
3.6839813200498135,-2.817061021170601,-3.4333748443337475,-0.05006226650062126
3.691972602739726,-2.6483561643835603,-3.4156164383561642,-0.023424657534246385
3.699963885429639,-1.6325031133252002,-4.171108343710934,0.7711083437109335
3.7079551681195517,-0.243458354699289,-6.721729177349645,-0.4086916709398578
3.7159464508094646,-0.3609772177862432,-6.780488608893122,-0.43219544355724865
3.7239377334993775,-0.4784960808731974,-6.8392480404365985,-0.4556992161746395
3.7319290161892904,-0.5960149439601516,-6.898007471980076,-0.4792029887920303
3.7399202988792033,-0.7135338070471058,-6.956766903523553,-0.5027067614094212
3.7479115815691157,-0.8310526701340535,-7.015526335067027,-0.5262105340268107
3.7559028642590286,-0.9485715332210076,-7.074285766610504,-0.5497143066442015
3.7638941469489415,-1.066090396307962,-7.133045198153981,-0.5732180792615924
3.7718854296388544,-1.1836092593949161,-7.191804629697458,-0.5967218518789832
3.7798767123287673,-2.861872146118735,-7.830365296803659,-0.4853881278538803
3.78786799501868,-12.48572021585801,-8.428933167289342,-1.325861353258941
3.7958592777085927,-23.2904963529621,-9.171357409713572,-6.988973492261163
3.8038505603985056,-22.856683864081116,-8.90498132004981,-6.96614125600427
3.8118418430884184,-22.42287137520013,-8.638605230386046,-6.9433090197473755
3.8198331257783313,-21.989058886319146,-8.372229140722283,-6.920476783490481
3.8278244084682442,-21.55524639743816,-8.105853051058519,-6.897644547233587
3.835815691158157,-21.121433908557176,-7.839476961394756,-6.874812310976694
3.84380697384807,-20.68762141967619,-7.573100871730993,-6.851980074719799
3.8517982565379825,-20.253808930795227,-7.306724782067245,-6.829147838462907
3.8597895392278954,-19.819996441914242,-7.040348692403482,-6.806315602206013
3.8677808219178083,-19.386183953033257,-6.773972602739718,-6.7834833659491185
3.875772104607721,-18.95237146415227,-6.5075965130759545,-6.760651129692225
3.883763387297634,-18.518558975271283,-6.241220423412192,-6.737818893435331
3.891754669987547,-18.0847464863903,-5.974844333748429,-6.714986657178437
3.89974595267746,-20.390286425903728,-0.39215442092113006,-2.7175591531751415
3.9077372353673723,-22.618039494751827,1.353165425572472,-0.15901974737591323
3.915728518057285,-22.503878313467357,1.2879304648384893,-0.10193915673367822
3.923719800747198,-22.389717132182884,1.2226955041045064,-0.0448585660914432
3.931711083437111,-22.275555950898415,1.1574605433705236,0.012222024550791827
3.939702366127024,-22.161394769613945,1.0922255826365406,0.06930261519302683
3.9476936488169367,-22.047233588329476,1.0269906219025577,0.12638320583526186
3.9556849315068496,-21.933072407045007,0.9617556611685749,0.1834637964774969
3.963676214196762,-21.818911225760544,0.8965207004345956,0.24054438711972875
3.971667496886675,-21.70475004447607,0.8312857397006127,0.2976249777619638
3.979658779576588,-21.590588863191602,0.7660507789666298,0.3547055684041988
3.9876500622665008,-21.476427681907133,0.7008158182326469,0.41178615904643384
3.9956413449564137,-21.362266500622663,0.635580857498664,0.46886674968866887
4.0036326276463265,-18.246948941469288,-5.359153175592141,-3.8489414694901765
4.011623910336239,-16.6380875089202,-4.5587250059468,-5.382310716834343
4.019615193026152,-16.449529153315513,-4.433019435543676,-5.32843690094729
4.027606475716065,-16.260970797710826,-4.307313865140551,-5.274563085060237
4.035597758405978,-16.07241244210614,-4.181608294737426,-5.2206892691731825
4.04358904109589,-15.883854086501472,-4.055902724334315,-5.1668154532861355
4.051580323785803,-15.695295730896785,-3.93019715393119,-5.112941637399081
4.059571606475716,-15.506737375292097,-3.8044915835280655,-5.059067821512028
4.067562889165629,-15.31817901968741,-3.678786013124941,-5.005194005624975
4.075554171855542,-15.129620664082722,-3.553080442721816,-4.951320189737921
4.083545454545455,-14.941062308478037,-3.427374872318691,-4.897446373850867
4.0915367372353675,-14.752503952873349,-3.3016693019155663,-4.843572557963814
4.09952801992528,-13.377584059775456,-2.359589041095627,-3.8831880448315927
4.107519302615193,-11.66911581569101,0.11158156911587175,-2.1922789539227523
4.115510585305106,-9.109803125918248,1.0073152643877596,-1.5487931492856821
4.123501867995019,-8.876349923741019,1.0162942337022685,-1.4859403640841202
4.131493150684932,-8.642896721563789,1.0252732030167775,-1.4230875788825585
4.139484433374845,-8.40944351938656,1.0342521723312863,-1.3602347936809966
4.147475716064757,-8.175990317209356,1.043231141645794,-1.2973820084794419
4.15546699875467,-7.942537115032126,1.0522101109603028,-1.2345292232778802
4.163458281444583,-7.709083912854897,1.0611890802748118,-1.1716764380763183
4.1714495641344955,-7.475630710677667,1.0701680495893207,-1.1088236528747566
4.179440846824408,-7.242177508500438,1.0791470189038295,-1.0459708676731947
4.187432129514321,-7.008724306323208,1.0881259882183383,-0.9831180824716329
4.195423412204234,-6.775271104145979,1.097104957532847,-0.9202652972700711
4.203414694894147,-4.783412204234128,-0.4663511830634903,0.4751183063511911
4.21140597758406,-4.57350906323509,-1.2037844195378442,0.1962155804621558
4.219397260273973,-4.511354642313545,-1.2126636225266363,0.18733637747336365
4.227388542963886,-4.449200221392,-1.2215428255154284,0.17845717448457155
4.235379825653799,-4.387045800470456,-1.2304220285042207,0.1695779714957794
4.243371108343712,-4.324891379548911,-1.2393012314930127,0.1606987685069873
4.2513623910336245,-4.262736958627366,-1.2481804344818048,0.1518195655181952
4.2593536737235365,-4.200582537705828,-1.257059637470596,0.14294036252940406
4.267344956413449,-4.138428116784283,-1.265938840459388,0.13406115954061193
4.275336239103362,-4.076273695862739,-1.2748180434481802,0.12518195655181982
4.283327521793275,-4.014119274941193,-1.2836972464369723,0.1163027535630277
4.291318804483188,-3.951964854019649,-1.2925764494257646,0.10742355057423558
4.299310087173101,-3.7689912826898975,-1.4965130759651541,0.296513075965154
4.307301369863014,-7.607305936073069,-4.313242009132419,0.13013698630137188
4.315292652552927,-8.329296038731162,-4.207070396126884,0.3989855457763732
4.32328393524284,-8.239506345586074,-4.216049365441393,0.524691116179498
4.3312752179327525,-8.149716652440985,-4.225028334755902,0.6503966865826227
4.339266500622665,-8.059926959295895,-4.234007304070411,0.7761022569857476
4.347257783312578,-7.970137266150806,-4.242986273384919,0.9018078273888726
4.355249066002491,-7.880347573005716,-4.251965242699429,1.0275133977919972
4.363240348692403,-7.790557879860637,-4.2609442120139365,1.1532189681951082
4.371231631382316,-7.700768186715548,-4.269923181328445,1.2789245385982329
4.379222914072229,-7.610978493570459,-4.278902150642954,1.4046301090013578
4.387214196762142,-7.52118880042537,-4.287881119957463,1.5303356794044827
4.395205479452055,-7.4313991072802805,-4.296860089271972,1.6560412498076074
4.403196762141968,-6.098381070984,-3.4114570361144003,2.8606475716064
4.4111880448318805,-7.1974907925068194,-2.6658302641689398,2.513166052833788
4.419179327521793,-7.452531729418935,-2.7508439098063113,2.530168781961262
4.427170610211706,-7.70757266633105,-2.8358575554436833,2.5471715110887367
4.435161892901619,-7.962613603243165,-2.920871201081055,2.564174240216211
4.443153175591532,-8.21765454015528,-3.0058848467184265,2.5811769693436855
4.451144458281445,-8.472695477067395,-3.0908984923557985,2.5981796984711596
4.459135740971358,-8.72773641397951,-3.17591213799317,2.615182427598634
4.467127023661271,-8.982777350891626,-3.260925783630542,2.6321851567261083
4.475118306351183,-9.237818287803712,-3.3459394292679043,2.649187885853581
4.483109589041096,-9.492859224715827,-3.430953074905276,2.6661906149810553
4.491100871731009,-9.747900161627943,-3.5159667205426475,2.68319334410853
4.4990921544209215,-10.04871019391581,-3.6197473759118144,2.70921544209218
4.507083437110834,-14.350062266500556,-4.612453300124583,3.508343711083426
4.515074719800747,-13.246264009962632,-3.636247998576767,2.2112880270414257
4.52306600249066,-12.846699875466994,-3.6933285892190013,1.1267568048389798
4.531057285180573,-12.762361145703611,-3.671770859277708,0.9341320049813185
4.539048567870486,-12.719740971357409,-3.6398057285180565,0.8595466998754651
4.547039850560399,-12.677120797011208,-3.607840597758405,0.7849613947696116
4.555031133250312,-12.634500622665005,-3.5758754669987534,0.7103760896637581
4.563022415940225,-12.591880448318804,-3.543910336239102,0.6357907845579046
4.5710136986301375,-12.549260273972601,-3.5119452054794507,0.5612054794520511
4.5790049813200495,-12.506640099626404,-3.4799800747198026,0.48662017434620597
4.586996264009962,-12.464019925280201,-3.448014943960151,0.4120348692403525
4.594987546699875,-12.421399750934,-3.4160498132004995,0.337449564134499
4.602978829389788,-12.161270236612715,-3.240846824408477,0.7774595267745699
4.610970112079701,-14.002213609078316,5.443996529866938,3.0782515006926294
4.618961394769614,-14.011192578392825,3.5943288510781195,2.5844081883946437
4.626952677459527,-14.020171547707333,1.7446611722893008,2.090564876096658
4.63494396014944,-14.029150517021842,-0.10500650649951737,1.5967215637986727
4.642935242839353,-14.03812948633635,-1.9546741852883356,1.1028782515006874
4.6509265255292656,-14.047108455650859,-3.804341864077154,0.6090349392027017
4.6589178082191784,-14.05608742496537,-5.654009542865973,0.1151916269047164
4.666909090909091,-14.065066394279878,-7.503677221654792,-0.3786516853932693
4.674900373599004,-14.074045363594387,-9.35334490044361,-0.8724949976912546
4.682891656288917,-14.083024332908895,-11.20301257923243,-1.3663383099892403
4.690882938978829,-14.092003302223402,-13.052680258021043,-1.860181622287171
4.698874221668742,-12.832378580324502,-17.672353673721855,-3.174221668741722
4.706865504358655,-8.367556445936438,-8.020918836970065,-3.357417835291574
4.714856787048568,-8.228577616546648,-7.682157940332453,-3.1750081217174744
4.722848069738481,-8.089598787156858,-7.343397043694839,-2.992598408143375
4.730839352428394,-7.950619957767068,-7.0046361470572265,-2.810188694569276
4.7388306351183065,-7.8116411283772775,-6.665875250419614,-2.627778980995177
4.746821917808219,-7.672662298987488,-6.327114353782,-2.445369267421077
4.754813200498132,-7.5336834695976975,-5.988353457144387,-2.262959553846978
4.762804483188045,-7.394704640207907,-5.649592560506774,-2.0805498402728784
4.770795765877958,-7.2557258108181175,-5.310831663869161,-1.8981401266987794
4.778787048567871,-7.116746981428327,-4.972070767231548,-1.71573041312468
4.786778331257784,-6.9777681520385375,-4.633309870593935,-1.5333206995505808
4.794769613947696,-6.838789322648763,-4.29454897395636,-1.3509109859765016
4.802760896637609,-6.207133405977586,-2.1142668119551713,-0.29445179535076665
4.810752179327522,-6.282051681195519,-2.264103362391038,-0.23618202573681854
4.8187434620174345,-6.356969956413453,-2.413939912826905,-0.17791225612287043
4.826734744707347,-6.431888231631386,-2.563776463262771,-0.11964248650892229
4.83472602739726,-6.506806506849319,-2.713613013698638,-0.06137271689497417
4.842717310087173,-6.581724782067252,-2.8634495641345046,-0.0031029472810260583
4.850708592777086,-6.656643057285185,-3.013286114570371,0.05516682233292208
4.858699875466999,-6.7315613325031185,-3.1631226650062376,0.11343659194687022
4.866691158156912,-6.806479607721052,-3.3129592154421044,0.1717063615608183
4.874682440846825,-6.881397882938986,-3.4627957658779707,0.2299761311747665
4.882673723536738,-6.956316158156919,-3.612632316313838,0.28824590078871454
4.890665006226651,-7.031234433374852,-3.762468866749704,0.3465156704026627
4.8986562889165635,-7.559402241594488,-4.129701120797244,0.30155666251546676
4.9066475716064755,-11.012232972506943,-4.624465945013887,0.7
4.914638854296388,-11.258118593735018,-5.116237187470036,0.7
4.922630136986301,-11.308085532910123,-5.191914467089877,0.7
4.930621419676214,-11.317830999605139,-5.182169000394861,0.7
4.938612702366127,-11.327576466300155,-5.172423533699845,0.7
4.94660398505604,-11.33732193299517,-5.16267806700483,0.7
4.954595267745953,-11.347067399690186,-5.152932600309814,0.7
4.962586550435866,-11.356812866385201,-5.1431871336147985,0.7
4.970577833125779,-11.366558333080217,-5.133441666919782,0.7
4.9785691158156915,-11.376303799775235,-5.123696200224766,0.7
4.986560398505604,-11.38604926647025,-5.113950733529751,0.7
4.994551681195517,-11.395794733165266,-5.104205266834735,0.7
5.00254296388543,-13.262889165629026,-5.523827314238347,0.7152345371523304
5.010534246575342,-11.549510763209392,-5.096116212554568,0.6844648502182746
5.018525529265255,-11.435349581924923,-5.087334583224994,0.6493383328999763
5.026516811955168,-11.321188400640454,-5.078552953895419,0.6142118155816779
5.034508094645081,-11.207027219355984,-5.069771324565845,0.5790852982633796
5.042499377334994,-11.092866038071515,-5.0609896952362705,0.5439587809450812
5.050490660024907,-10.978704856787045,-5.0522080659066955,0.5088322636267829
5.0584819427148195,-10.864543675502574,-5.043426436577121,0.4737057463084845
5.066473225404732,-10.750382494218105,-5.034644807247546,0.43857922899018614
5.074464508094645,-10.636221312933635,-5.025863177917972,0.4034527116718878
5.082455790784558,-10.522060131649166,-5.017081548588397,0.36832619435358943
5.090447073474471,-10.407898950364697,-5.008299919258823,0.3331996770352911
5.098438356164384,-10.124657534246323,-5.131506849315258,0.1684931506847417
5.106429638854297,-9.900124533001318,-7.128268991282512,-2.657160647571617
5.114420921544209,-10.2,-6.150272153581388,-2.602545230665908
5.122412204234122,-10.2,-5.782134411686526,-2.4588817216337664
5.130403486924035,-10.2,-5.413996669791664,-2.315218212601625
5.138394769613948,-10.2,-5.045858927896802,-2.171554703569484
5.1463860523038605,-10.2,-4.677721186001941,-2.0278911945373426
5.154377334993773,-10.2,-4.309583444107078,-1.8842276855052016
5.162368617683686,-10.2,-3.9414457022122167,-1.7405641764730602
5.170359900373599,-10.2,-3.5733079603173548,-1.596900667440919
5.178351183063512,-10.2,-3.205170218422493,-1.4532371584087778
5.186342465753425,-10.2,-2.837032476527631,-1.3095736493766366
5.194333748443338,-10.2,-2.468894734632769,-1.1659101403444954
5.202325031133251,-10.01464152286069,-4.277157089485959,-1.4089307952321812
5.210316313823164,-10.6,-6.10467281784219,-0.9003594475263224
5.2183075965130765,-10.6,-6.222725857579539,-0.9094404505830416
5.2262988792029885,-10.6,-6.340778897316876,-0.9185214536397597
5.234290161892901,-10.6,-6.458831937054225,-0.9276024566964789
5.242281444582814,-10.6,-6.576884976791575,-0.9366834597531981
5.250272727272727,-10.6,-6.6949380165289245,-0.9457644628099173
5.25826400996264,-10.6,-6.812991056266274,-0.9548454658666364
5.266255292652553,-10.6,-6.931044096003624,-0.9639264689233557
5.274246575342466,-10.6,-7.049097135740973,-0.9730074719800749
5.282237858032379,-10.6,-7.167150175478323,-0.982088475036794
5.290229140722292,-10.6,-7.285203215215672,-0.9911694780935132
5.298220423412205,-10.596326276463257,-7.370610211706066,-0.9632627646325818
5.3062117061021175,-9.994707347447065,-6.408821087588226,0.7
5.31420298879203,-9.794925280199235,-6.741791199667942,0.7
5.322194271481943,-9.180307820033844,-6.069055145767471,1.330944854232529
5.330185554171855,-9.108591180508993,-5.956357569371275,1.443642430628725
5.338176836861768,-9.036874540984133,-5.843659992975066,1.5563400070249331
5.346168119551681,-8.965157901459273,-5.730962416578858,1.6690375834211415
5.354159402241594,-8.893441261934413,-5.61826484018265,1.7817351598173499
5.362150684931507,-8.821724622409553,-5.505567263786442,1.8944327362135582
5.37014196762142,-8.750007982884695,-5.392869687390234,2.0071303126097666
5.378133250311333,-8.678291343359835,-5.280172110994025,2.119827889005975
5.3861245330012455,-8.606574703834974,-5.167474534597817,2.2325254654021833
5.394115815691158,-8.534858064310114,-5.054776958201608,2.3452230417983913
5.402107098381071,-8.007148194271398,-3.850012453299929,3.0571357409714692
5.410098381070984,-5.990673861906739,0.2906738619067386,5.797668465476685
5.418089663760897,-5.95515704995157,0.2551570499515701,5.788789262487892
5.42608094645081,-5.9196402379964015,0.21964023799640164,5.7799100594991
5.434072229140723,-5.884123426041233,0.18412342604123316,5.771030856510309
5.442063511830635,-5.848606614086068,0.14860661408606865,5.762151653521517
5.450054794520548,-5.8130898021309,0.11308980213090017,5.753272450532725
5.458046077210461,-5.777572990175732,0.07757299017573169,5.7443932475439325
5.4660373599003735,-5.7420561782205635,0.042056178220563234,5.735514044555141
5.474028642590286,-5.706539366265394,0.006539366265394753,5.726634841566349
5.482019925280199,-5.671022554310226,-0.02897744568977373,5.7177556385775565
5.490011207970112,-5.635505742355058,-0.06449425764494221,5.708876435588764
5.498002490660025,-5.598879202988799,-0.1001245330012445,5.700124533001245
5.505993773349938,-4.197971891122576,0.9695783668386293,7.297971891122575
5.513985056039851,-4.181663150939079,0.7249472640861934,7.281663150939079
5.521976338729764,-4.165354410755584,0.48031616133375754,7.265354410755584
5.529967621419677,-4.149045670572089,0.23568505858132172,7.249045670572088
5.53795890410959,-4.132736930388592,-0.008946044171113998,7.232736930388592
5.545950186799502,-4.116428190205099,-0.25357714692352284,7.216428190205098
5.5539414694894145,-4.1001194500216025,-0.49820824967595856,7.200119450021602
5.561932752179327,-4.083810709838107,-0.7428393524283945,7.183810709838107
5.56992403486924,-4.067501969654612,-0.9874704551808302,7.167501969654611
5.577915317559153,-4.0511932294711155,-1.232101557933266,7.151193229471115
5.585906600249066,-4.03488448928762,-1.4767326606857019,7.13488448928762
5.593897882938979,-4.018575749104124,-1.7213637634381378,7.1185757491041235
5.601889165628892,-4.0022670089206285,-1.9659948661905737,7.102267008920628
5.609880448318805,-1.9029678033218136,0.38318244784305566,8.29604292890425
5.617871731008718,-1.92990471126534,0.2305399694964056,8.260127051646213
5.6258630136986305,-1.9568416192088667,0.07789749114975553,8.224211174388179
5.633854296388543,-1.9837785271523931,-0.07474498719689454,8.188295297130143
5.641845579078456,-2.0107154350959195,-0.2273874655435446,8.152379419872108
5.649836861768369,-2.037652343039446,-0.38002994389019473,8.116463542614072
5.657828144458281,-2.0645892509829697,-0.5326724222368278,8.080547665356042
5.665819427148194,-2.091526158926496,-0.6853149005834779,8.044631788098005
5.673810709838107,-2.1184630668700226,-0.8379573789301279,8.008715910839971
5.68180199252802,-2.1453999748135493,-0.9905998572767779,7.972800033581935
5.689793275217933,-2.172336882757076,-1.143242335623428,7.9368841563239
5.697784557907846,-2.199273790700602,-1.295884813970078,7.900968279065864
5.7057758405977586,-4.068810143778996,0.915594928110502,9.230799275444356
5.7137671232876714,-3.560273972602727,1.1698630136986368,9.267123287671234
5.721758405977584,-2.303673723536446,1.1724782067246988,9.375840597758435
5.729749688667497,-3.4914420024009054,1.487163003601358,9.678605006002263
5.73774097135741,-3.4770432948515126,1.4655649422772692,9.642608237128782
5.745732254047323,-3.4626445873021203,1.4439668809531805,9.6066114682553
5.753723536737236,-3.4482458797527276,1.4223688196290916,9.570614699381819
5.761714819427148,-3.4338471722033366,1.4007707583050053,9.534617930508341
5.769706102117061,-3.4194484646539443,1.3791726969809164,9.49862116163486
5.777697384806974,-3.405049757104552,1.3575746356568277,9.462624392761379
5.785688667496887,-3.390651049555159,1.335976574332739,9.426627623887898
5.7936799501867995,-3.376252342005767,1.31437851300865,9.390630855014416
5.801671232876712,-3.361853634456374,1.2927804516845613,9.354634086140935
5.809662515566625,-3.3474549269069818,1.2711823903604726,9.318637317267454
5.817653798256538,-3.333056219357589,1.249584329036384,9.282640548393973
5.825645080946451,-3.3186575118081967,1.227986267712295,9.246643779520491
5.833636363636364,-3.304258804258804,1.2063882063882063,9.21064701064701
5.841627646326277,-2.6489414694891993,1.2627646326277002,9.5627646326277
5.84961892901619,-2.5668327106683337,1.3,9.640099626401
5.857610211706103,-2.6369316816324817,1.3,9.68215900897949
5.8656014943960155,-2.7070306525966292,1.3,9.724218391557978
5.8735927770859275,-2.777129623560769,1.3,9.766277774136462
5.88158405977584,-2.8472285945249167,1.3,9.80833715671495
5.889575342465753,-2.9173275654890647,1.3,9.850396539293438
5.897566625155666,-2.987426536453212,1.3,9.892455921871928
5.905557907845579,-4.029307177293074,0.9892026188920254,10.093830067938299
5.913549190535492,-4.179638237796386,0.9338174913381737,10.062181423621814
5.921540473225405,-4.329969298299698,0.878432363784322,10.030532779305327
5.929531755915318,-4.480300358803009,0.8230472362304702,9.99888413498884
5.937523038605231,-4.630631419306321,0.7676621086766184,9.967235490672353
5.945514321295144,-4.7809624798096335,0.7122769811227667,9.935586846355866
5.9535056039850565,-4.931293540312945,0.656891853568915,9.90393820203938
5.961496886674969,-5.081624600816257,0.6015067260150633,9.872289557722892
5.969488169364882,-5.231955661319569,0.5461215984612116,9.840640913406405
5.977479452054794,-5.382286721822864,0.49073647090736594,9.808992269089924
5.985470734744707,-5.532617782326176,0.4353513433535142,9.777343624773437
5.99346201743462,-5.682948842829488,0.3799662157996625,9.74569498045695
6.001453300124533,-5.8332799033328,0.32458108824581067,9.714046336140463
6.009444582814446,0.07247820672505423,0.13848069738437285,8.605479452054714
6.017435865504359,-3.4783714297191946,1.5713815128751045,9.271381512875106
6.025427148194272,-3.2592556140280355,1.5198248503595377,9.219824850359538
6.0334184308841845,-3.0401397983368765,1.468268187843971,9.168268187843971
6.041409713574097,-2.821023982645717,1.4167115253284042,9.116711525328405
6.04940099626401,-2.6019081669545585,1.3651548628128374,9.065154862812838
6.057392278953923,-2.382792351263399,1.3135982002972704,9.01359820029727
6.065383561643836,-2.1636765355722405,1.2620415377817036,8.962041537781705
6.073374844333749,-1.9445607198810813,1.2104848752661368,8.910484875266137
6.081366127023662,-1.9530510585305159,1.146948941469484,8.740846824408452
6.089357409713574,-1.8463885429639761,1.1106475716066269,9.153611457036023
6.097348692403487,-2.8785249757852505,0.8107375121073748,9.294631243946313
6.1053399750934,-2.839061851390619,0.8304690743046904,9.284765462847655
6.1133312577833125,-2.799598726995988,0.8502006365020062,9.274899681748998
6.121322540473225,-2.7601356026013564,0.8699321986993218,9.265033900650339
6.129313823163138,-2.720672478206725,0.8896637608966375,9.255168119551682
6.137305105853051,-2.681209353812094,0.9093953230939532,9.245302338453023
6.145296388542964,-2.6417462294174623,0.9291268852912689,9.235436557354365
6.153287671232877,-2.602283105022831,0.9488584474885845,9.225570776255708
6.16127895392279,-2.5628199806281997,0.9685900096859003,9.215704995157049
6.169270236612703,-2.523356856233568,0.9883215718832159,9.205839214058392
6.177261519302616,-2.5130759651308,1.2,9.0738480697384
6.185252801992529,-2.5843679950186793,1.194789331672893,8.905210668327108
6.193244084682441,-2.5643897882938993,1.1881299294312997,8.9118700705687
6.2012353673723535,-2.544411581569117,1.1814705271897057,8.918529472810295
6.209226650062266,-2.524433374844335,1.1748111249481117,8.925188875051889
6.217217932752179,-2.5044551681195526,1.1681517227065175,8.931848277293483
6.225209215442092,-2.4844769613947704,1.1614923204649235,8.938507679535077
6.233200498132005,-2.464498754669988,1.1548329182233295,8.94516708177667
6.241191780821918,-2.444520547945206,1.1481735159817354,8.951826484018264
6.249183063511831,-2.4245423412204237,1.1415141137401412,8.95848588625986
6.257174346201744,-2.4045641344956414,1.1348547114985472,8.965145288501454
6.265165628891657,-2.384585927770859,1.1281953092569532,8.971804690743047
6.2731569115815695,-2.364607721046077,1.121535907015359,8.978464092984641
6.281148194271482,-2.3446295143212947,1.114876504773765,8.985123495226235
6.289139476961395,-2.3246513075965125,1.108217102532171,8.991782897467829
6.297130759651308,-2.3046731008717303,1.101557700290577,8.998442299709422
6.30512204234122,-2.7,1.547322540473208,9.017559153175597
6.313113325031133,-2.9898478531593473,1.4966159510531158,8.706768097893768
6.321104607721046,-2.963789322648762,1.487929774216254,8.724140451567491
6.329095890410959,-2.9377307921381766,1.4792435973793923,8.741512805241214
6.337087173100872,-2.9116722616275914,1.4705574205425305,8.75888515891494
6.345078455790785,-2.885613731117006,1.4618712437056687,8.776257512588662
6.353069738480698,-2.8595552006064207,1.4531850668688069,8.793629866262386
6.3610610211706105,-2.833496670095835,1.444498890031945,8.81100221993611
6.369052303860523,-2.80743813958525,1.4358127131950833,8.828374573609834
6.377043586550436,-2.7813796090746647,1.4271265363582213,8.845746927283557
6.385034869240349,-2.755321078564079,1.4184403595213597,8.863119280957282
6.393026151930262,-2.729262548053494,1.4097541826844977,8.880491634631005
6.401017434620175,-2.7032040175429084,1.401068005847636,8.897863988304728
6.409008717310087,-3.2986924034869327,1.7986924034869327,9.500871731008711
6.417,-2.8,1.3,9.5
