accel_time_list,vertical_Accel_x,vertical_Accel_y,vertical_Accel_z
0.0,1.206,-6.643,-6.222
0.00799766081871345,1.7948914230019493,-7.213305263157895,-6.499373684210527
0.0159953216374269,1.2965477788037345,-5.8478466810300604,-7.251438186108547
0.02399298245614035,1.319839212065251,-5.870015635580178,-7.252139735303171
0.0319906432748538,1.3431306453267673,-5.892184590130296,-7.252841284497794
0.039988304093567247,1.3664220785882837,-5.914353544680414,-7.253542833692419
0.0479859649122807,1.3897135118498,-5.9365224992305325,-7.254244382887043
0.05598362573099415,1.4130049451113162,-5.95869145378065,-7.254945932081666
0.0639812865497076,1.4362963783728326,-5.980860408330768,-7.2556474812762906
0.07197894736842105,1.459587811634349,-6.003029362880887,-7.256349030470914
0.07997660818713449,1.4828792448958654,-6.025198317431005,-7.257050579665538
0.08797426900584794,1.5061706781573818,-6.0473672719811224,-7.2577521288601625
0.0959719298245614,1.5294621114188982,-6.06953622653124,-7.258453678054786
0.10396959064327485,1.5527535446804146,-6.091705181081359,-7.25915522724941
0.1119672514619883,1.576044977941931,-6.113874135631477,-7.2598567764440345
0.11996491228070175,1.5993364112034474,-6.1360430901815946,-7.260558325638658
0.1279625730994152,1.6359040935672509,-6.300683625730996,-7.3639947368421055
0.13596023391812864,1.6967698890082348,-6.15146022198353,-7.388653419262442
0.1439578947368421,1.6999526315789473,-6.145094736842105,-7.400894736842106
0.15195555555555554,1.7031353741496598,-6.13872925170068,-7.413136054421769
0.15995321637426899,1.7063181167203723,-6.132363766559255,-7.425377372001432
0.16795087719298243,1.7095008592910848,-6.12599828141783,-7.437618689581096
0.17594853801169588,1.7126836018617975,-6.119632796276405,-7.449860007160759
0.18394619883040933,1.71586634443251,-6.1132673111349805,-7.462101324740423
0.1919438596491228,1.7190490870032225,-6.106901825993555,-7.474342642320086
0.19994152046783625,1.722231829573935,-6.1005363408521305,-7.4865839598997495
0.2079391812865497,1.7254145721446474,-6.094170855710705,-7.498825277479413
0.21593684210526315,1.72859731471536,-6.0878053705692805,-7.511066595059076
0.2239345029239766,1.7317800572860724,-6.081439885427855,-7.52330791263874
0.23193216374269005,1.6159122807017525,-6.343043274853796,-7.502390643274855
0.2399298245614035,1.7256052631578944,-6.427149122807018,-7.510820175438597
0.24792748538011694,1.74635477582846,-6.40750604288499,-7.485743859649123
0.2559251461988304,1.7387379560011138,-6.406839571150098,-7.4746042606516285
0.26392280701754384,1.7311211361737677,-6.406173099415205,-7.463464661654135
0.2719204678362573,1.7235043163464216,-6.405506627680312,-7.452325062656642
0.27991812865497073,1.7158874965190756,-6.404840155945419,-7.4411854636591475
0.2879157894736842,1.7082706766917293,-6.404173684210527,-7.430045864661654
0.29591345029239763,1.7006538568643832,-6.403507212475634,-7.418906265664161
0.3039111111111111,1.6930370370370371,-6.402840740740741,-7.407766666666666
0.3119087719298245,1.6854202172096908,-6.402174269005848,-7.396627067669173
0.31990643274853797,1.6778033973823447,-6.401507797270955,-7.385487468671679
0.3279040935672514,1.6472456140350844,-6.435588304093565,-7.2985198830409335
0.33590175438596487,1.745411695906433,-6.501729824561403,-7.12087134502924
0.3438994152046783,1.6847627680311892,-6.523723391812865,-7.10420955165692
0.35189707602339176,1.6663534474045196,-6.530434654537578,-7.098930272182514
0.3598947368421052,1.6484821312540612,-6.53695126705653,-7.093795971410007
0.36789239766081866,1.6306108151036027,-6.5434678795754815,-7.088661670637499
0.3758900584795321,1.6127394989531443,-6.549984492094434,-7.083527369864991
0.3838877192982456,1.5948681828026856,-6.556501104613385,-7.078393069092484
0.39188538011695906,1.5769968666522272,-6.563017717132337,-7.073258768319977
0.3998830409356725,1.5591255505017687,-6.5695343296512885,-7.068124467547469
0.40788070175438595,1.5412542343513103,-6.57605094217024,-7.062990166774962
0.4158783625730994,1.5233829182008518,-6.582567554689192,-7.057855866002455
0.42387602339181285,1.5055116020503934,-6.589084167208144,-7.052721565229947
0.4318736842105263,1.4677723684210526,-6.5169671052631575,-7.080353947368421
0.43987134502923975,1.1695495104803206,-6.468127735068007,-6.9447735068007095
0.4478690058479532,1.1933627702214338,-6.440630159668835,-6.930215966883501
0.45586666666666664,1.2171760299625467,-6.413132584269663,-6.915658426966292
0.4638643274853801,1.2409892897036598,-6.385635008870491,-6.9011008870490835
0.47186198830409354,1.2648025494447728,-6.3581374334713185,-6.886543347131875
0.479859649122807,1.288615809185886,-6.330639858072146,-6.871985807214666
0.48785730994152043,1.312429068926999,-6.303142282672974,-6.857428267297458
0.4958549707602339,1.336242328668112,-6.275644707273802,-6.842870727380249
0.5038526315789473,1.3600555884092251,-6.248147131874631,-6.82831318746304
0.5118502923976608,1.383868848150338,-6.2206495564754585,-6.813755647545832
0.5198479532163742,1.4076821078914512,-6.193151981076286,-6.799198107628622
0.5278456140350877,1.362326315789476,-6.1286280701754405,-6.596978947368429
0.5358432748538011,1.5672015594541922,-5.425959454191033,-7.814339181286549
0.5438409356725146,1.4323592781236256,-5.446684575237377,-7.823368798339936
0.551838596491228,1.297516996793059,-5.46740969628372,-7.832398415393322
0.5598362573099415,1.1626747154624926,-5.488134817330064,-7.841428032446708
0.5678339181286549,1.027832434131926,-5.508859938376407,-7.850457649500094
0.5758315789473684,0.8929901528013595,-5.52958505942275,-7.85948726655348
0.5838292397660818,0.758147871470793,-5.5503101804690935,-7.868516883606866
0.5918269005847953,0.6233055901402265,-5.571035301515438,-7.8775465006602525
0.5998245614035087,0.48846330880965994,-5.591760422561781,-7.886576117713639
0.6078222222222222,0.3536210274790934,-5.612485543608124,-7.895605734767025
0.6158198830409356,0.21877874614852688,-5.6332106646544675,-7.904635351820411
0.623817543859649,0.08393646481796035,-5.653935785700811,-7.913664968873797
0.6318152046783625,-0.2306140350877187,-6.896023391812876,-6.902163742690063
0.6398128654970759,-0.22897566496887384,-6.833607746965981,-6.890739860403698
0.6478105263157894,-0.22587979626485574,-6.794307413695529,-6.889449915110357
0.6558081871345028,-0.22278392756083762,-6.755007080425077,-6.888159969817016
0.6638058479532163,-0.21968805885681952,-6.715706747154625,-6.886870024523675
0.6718035087719297,-0.2165921901528014,-6.676406413884173,-6.885580079230334
0.6798011695906432,-0.21349632144878328,-6.637106080613721,-6.884290133936993
0.6877988304093566,-0.21040045274476518,-6.597805747343269,-6.883000188643652
0.6957964912280701,-0.20730458404074706,-6.558505414072817,-6.8817102433503115
0.7037941520467835,-0.20420871533672896,-6.519205080802365,-6.88042029805697
0.711791812865497,-0.20111284663271084,-6.479904747531912,-6.879130352763629
0.7197894736842104,-0.19801697792869274,-6.44060441426146,-6.877840407470289
0.7277871345029239,-0.13178245614034678,-5.180664327485439,-7.010045614035072
0.7357847953216373,-0.17768123338649647,-4.537108346624137,-7.3130760233918135
0.7437824561403508,-0.1289238038277531,-4.4681070972886765,-7.283268979266348
0.7517801169590642,0.020759688995213438,-4.4482947102605,-7.272544843168528
0.7597777777777777,0.17044318181817997,-4.428482323232323,-7.261820707070707
0.7677754385964912,0.3201266746411486,-4.408669936204146,-7.251096570972886
0.7757730994152047,0.469810167464115,-4.38885754917597,-7.240372434875066
0.7837707602339181,0.6194936602870815,-4.369045162147794,-7.229648298777246
0.7917684210526316,0.769177153110048,-4.349232775119617,-7.218924162679426
0.799766081871345,0.9188606459330144,-4.329420388091441,-7.208200026581605
0.8077637426900585,1.068544138755981,-4.309608001063264,-7.197475890483785
0.8157614035087719,1.2182276315789475,-4.2897956140350875,-7.1867517543859645
0.8237590643274854,1.367911124401914,-4.269983227006911,-7.176027618288145
0.8317567251461988,1.0281766081871284,-3.612843274853799,-7.26504093567252
0.8397543859649123,0.568446783625731,-4.301550487329434,-8.953488304093566
0.8477520467836257,0.5321907212475634,-4.312569486679662,-9.008138986354775
0.8557497076023391,0.49593465886939575,-4.323588486029889,-9.062789668615984
0.8637473684210526,0.45967859649122816,-4.334607485380117,-9.117440350877192
0.871745029239766,0.4234225341130606,-4.345626484730344,-9.1720910331384
0.8797426900584795,0.38716647173489294,-4.3566454840805715,-9.226741715399609
0.8877403508771929,0.35091040935672535,-4.367664483430799,-9.281392397660818
0.8957380116959064,0.31465434697855776,-4.378683482781026,-9.336043079922026
0.9037356725146198,0.2783982846003902,-4.389702482131254,-9.390693762183234
0.9117333333333333,0.2421422222222226,-4.400721481481481,-9.445344444444444
0.9197309941520467,0.205886159844055,-4.411740480831709,-9.499995126705652
0.9277286549707602,-0.08397329434698489,-5.00320526315788,-9.453956335282653
0.9357263157894736,1.4023999999999677,-5.844600000000006,-9.330852631578946
0.9437239766081871,1.6072340658664188,-5.991935253924282,-9.169357340720223
0.9517216374269005,1.7358701261926734,-6.160643804247458,-8.998880886426594
0.959719298245614,1.8645061865189276,-6.329352354570635,-8.828404432132965
0.9677169590643274,1.9931422468451823,-6.498060904893812,-8.657927977839336
0.9757146198830409,2.1217783071714367,-6.666769455216988,-8.487451523545708
0.9837122807017543,2.250414367497691,-6.835478005540165,-8.316975069252079
0.9917099415204678,2.3790504278239455,-7.004186555863342,-8.14649861495845
0.9997076023391812,2.5076864881502,-7.172895106186518,-7.9760221606648205
1.0077052631578947,2.6363225484764543,-7.341603656509695,-7.805545706371191
1.015702923976608,2.764958608802707,-7.510312206832869,-7.635069252077566
1.0237005847953216,2.893594669128963,-7.679020757156048,-7.464592797783934
1.0316982456140351,2.7659157894736732,-7.8658175438596505,-6.744119298245588
1.0396959064327485,1.4079808206958073,-7.938650460898008,-4.16150971354941
1.047693567251462,1.3841911685994643,-7.90794757656854,-4.15412204381009
1.0556912280701753,1.3604015165031222,-7.877244692239072,-4.14673437407077
1.063688888888889,1.3366118644067795,-7.846541807909604,-4.13934670433145
1.0716865497076022,1.3128222123104372,-7.815838923580137,-4.13195903459213
1.0796842105263158,1.2890325602140944,-7.785136039250669,-4.12457136485281
1.0876818713450291,1.265242908117752,-7.754433154921202,-4.11718369511349
1.0956795321637427,1.2414532560214093,-7.723730270591734,-4.10979602537417
1.103677192982456,1.2176636039250672,-7.6930273862622665,-4.10240835563485
1.1116748538011696,1.1938739518287242,-7.662324501932798,-4.09502068589553
1.119672514619883,1.1700842997323821,-7.631621617603331,-4.087633016156209
1.1276701754385965,1.1462946476360392,-7.600918733273863,-4.0802453464168895
1.1356678362573098,1.122504995539697,-7.570215848944396,-4.072857676677569
1.1436654970760234,1.098715343443354,-7.539512964614928,-4.0654700069382494
1.1516631578947367,1.074925691347012,-7.5088100802854605,-4.058082337198929
1.1596608187134503,-0.026468899521528984,-6.121839978734716,-3.717207868155237
1.1676584795321636,-0.5041473684210481,-5.926260818713452,-3.598697076023393
1.1756561403508772,-1.4618400616926932,-5.594435010603432,-3.088284711779448
1.1836538011695905,-1.4553364693785746,-5.550579705674443,-3.16140618212197
1.191651461988304,-1.448832877064456,-5.506724400745454,-3.234527652464494
1.1996491228070174,-1.4423292847503375,-5.462869095816465,-3.307649122807016
1.207646783625731,-1.4358256924362187,-5.419013790887475,-3.38077059314954
1.2156444444444443,-1.4293221001221001,-5.375158485958487,-3.453892063492062
1.2236421052631579,-1.4228185078079814,-5.331303181029497,-3.527013533834586
1.2316397660818712,-1.416314915493863,-5.287447876100509,-3.600135004177108
1.2396374269005848,-1.4098113231797442,-5.2435925711715194,-3.673256474519632
1.247635087719298,-1.4033077308656257,-5.199737266242531,-3.7463779448621537
1.2556327485380117,-1.3968041385515069,-5.155881961313541,-3.8194994152046777
1.263630409356725,-1.3903005462373883,-5.112026656384552,-3.8926208855472
1.2716280701754386,-6.362750877192951,-2.487658479532188,-3.7079017543859667
1.2796257309941519,-9.629692241715398,-1.4743896296296413,-4.580460194931759
1.2876233918128654,-9.67245306822612,-0.9597668148148192,-5.2025715711500915
1.2956210526315788,-9.715213894736841,-0.4451440000000113,-5.824682947368407
1.3036187134502923,-9.757974721247564,0.06947881481481089,-6.446794323586739
1.3116163742690057,-9.800735547758284,0.5841016296296184,-7.068905699805055
1.3196140350877192,-9.843496374269005,1.0987244444444408,-7.691017076023387
1.3276116959064326,-9.886257200779726,1.6133472592592486,-8.313128452241703
1.3356093567251461,-9.929018027290448,2.127970074074071,-8.935239828460034
1.3436070175438595,-9.971778853801169,2.6425928888888786,-9.557351204678351
1.351604678362573,-10.014539680311891,3.1572157037037005,-10.179462580896683
1.3596023391812864,-12.003116514915993,8.953051225109178,-15.02480005921978
1.3676,-11.55322278481013,9.405172151898732,-14.955756962025317
1.3755976608187133,-11.10332905470428,9.857293078688272,-14.886713864830854
1.3835953216374268,-10.65343532459842,10.309414005477826,-14.817670767636391
1.3915929824561402,-10.20354159449257,10.761534932267368,-14.748627670441929
1.3995906432748537,-9.753647864386709,11.213655859056923,-14.679584573247466
1.407588304093567,-9.303754134280858,11.665776785846464,-14.610541476053003
1.4155859649122806,-8.853860404174997,12.117897712636019,-14.54149837885854
1.423583625730994,-8.403966674069148,12.570018639425559,-14.472455281664077
1.4315812865497075,-7.954072943963286,13.022139566215113,-14.403412184469614
1.4395789473684208,-7.037210526315843,11.4057894736844,-13.459052631579032
1.4475766081871344,-4.376168421052876,8.516428070175461,-10.933826315789672
1.4555742690058477,-0.926081715399612,6.498560904483431,-8.149892974658872
1.4635719298245613,-0.8343752046783631,6.485018198830409,-7.993352093567252
1.4715695906432746,-0.7426686939571168,6.471475493177389,-7.836811212475637
1.4795672514619882,-0.6509621832358679,6.457932787524367,-7.680270331384017
1.4875649122807015,-0.5592556725146216,6.4443900818713455,-7.523729450292401
1.495562573099415,-0.4675491617933728,6.430847376218324,-7.367188569200781
1.5035602339181284,-0.37584265107212644,6.4173046705653025,-7.210647688109165
1.511557894736842,-0.28413614035087753,6.403761964912281,-7.054106807017545
1.5195555555555553,-0.19242962962963128,6.3902192592592595,-6.897565925925929
1.5275532163742689,-0.9452093567251424,6.5105345029239725,-6.391204678362573
1.5355508771929824,-1.7144389154704924,7.342291228070174,-6.278510366826157
1.5435485380116958,-3.866835715304522,9.643295278847525,-5.310720581942664
1.5515461988304093,-3.791540664669804,9.822559920125519,-4.971307659392381
1.5595438596491227,-3.7162456140350884,10.001824561403508,-4.631894736842108
1.5675415204678362,-3.6409505634003705,10.181089202681502,-4.2924818142918255
1.5755391812865496,-3.565655512765655,10.36035384395949,-3.9530688917415526
1.5835368421052631,-3.490360462130937,10.539618485237485,-3.61365596919127
1.5915345029239765,-3.4150654114962213,10.718883126515474,-3.2742430466409975
1.59953216374269,-3.3397703608615035,10.898147767793468,-2.934830124090715
1.6075298245614034,-3.264475310226788,11.077412409071457,-2.595417201540442
1.615527485380117,-3.18918025959207,11.256677050349449,-2.2560042789901598
1.6235251461988303,-3.1138852089573543,11.43594169162744,-1.9165913564398864
1.6315228070175438,-1.1933258678611427,9.528333631952222,-0.4851522209779789
1.6395204678362572,-1.0912280701754407,9.380461988304097,-0.13563742690059205
1.6475181286549707,-0.9891302724897357,9.232590344655968,0.2138773671768045
1.655515789473684,-0.8870324748040337,9.084718701007843,0.5633921612541914
1.6635134502923976,-0.7849346771183288,8.936847057359714,0.912906955331588
1.671511111111111,-0.6828368794326267,8.788975413711588,1.262421749408975
1.6795087719298245,-0.5807390817469218,8.641103770063458,1.6119365434863715
1.6875064327485378,-0.47864128406121975,8.493232126415332,1.9614513375637581
1.6955040935672514,-0.3765434863755148,8.345360482767203,2.310966131641155
1.7035017543859647,-0.2744456886898128,8.197488839119078,2.6604809257185416
1.7114994152046783,-0.17234789100410786,8.04961719547095,3.0099957197959384
1.7194970760233916,-0.07025009331840582,7.901745551822824,3.359510513873325
1.7274947368421052,1.2690526315789326,7.3,3.9
1.7354923976608185,1.8925587095078562,8.296431500098564,3.9124537880281154
1.743490058479532,1.7716951836520165,8.238470924502268,4.114731703791309
1.7514877192982454,1.65083165779618,8.180510348905976,4.317009619554497
1.759485380116959,1.5299681319403402,8.12254977330968,4.519287535317691
1.7674830409356723,1.4091046060845038,8.064589197713387,4.721565451080878
1.7754807017543859,1.2882410802286641,8.006628622117093,4.923843366844072
1.7834783625730992,1.1673775543728278,7.948668046520799,5.12612128260726
1.7914760233918128,1.046514028516988,7.890707470924504,5.3283991983704535
1.7994736842105261,0.9256505026611516,7.832746895328211,5.530677114133642
1.8074713450292397,0.8047869768053117,7.774786319731915,5.732955029896836
1.815469005847953,0.6839234509494754,7.7168257441356225,5.935232945660023
1.8234666666666666,0.5630599250936357,7.658865168539327,6.137510861423216
1.83146432748538,0.0009286549707596672,9.506308771929668,6.96568421052652
1.8394619883040935,0.25626925737281686,9.966564924856941,6.288501037540094
1.8474596491228068,0.5287916996792961,10.142943444633081,5.976076287492937
1.8554573099415204,0.801314141985783,10.319321964409227,5.663651537445772
1.8634549707602337,1.0738365842922621,10.495700484185367,5.351226787398615
1.8714526315789473,1.346359026598749,10.672079003961512,5.03880203735145
1.8794502923976606,1.6188814689052282,10.848457523737654,4.7263772873042935
1.8874479532163742,1.8914039112117151,11.024836043513798,4.413952537257128
1.8954456140350875,2.1639263535181943,11.20121456328994,4.101527787209971
1.903443274853801,2.436448795824681,11.377593083066085,3.789103037162806
1.9114409356725144,2.70897123813116,11.553971602842225,3.4766782871156496
1.919438596491228,2.981493680437647,11.73035012261837,3.1642535370684843
1.9274362573099413,3.433229877724586,12.145793833067486,2.6320583732057754
1.9354339181286548,4.294069005847945,13.10696725146198,1.5981789473684311
1.9434315789473682,4.430473684210528,13.972252631578945,1.937221052631576
1.9514292397660817,4.383658108686351,14.069590015689629,2.015442076736555
1.959426900584795,4.336842533162176,14.166927399800311,2.093663100841532
1.9674245614035086,4.290026957637998,14.264264783910996,2.1718841249465113
1.975422222222222,4.243211382113823,14.361602168021678,2.250105149051488
1.9834198830409355,4.196395806589646,14.458939552132362,2.328326173156467
1.9914175438596489,4.14958023106547,14.556276936243044,2.406547197261444
1.9994152046783624,4.102764655541293,14.653614320353729,2.484768221366423
2.0074128654970758,4.055949080017117,14.750951704464411,2.5629892454714
2.0154105263157893,4.00913350449294,14.848289088575095,2.641210269576379
2.023408187134503,3.962317928968763,14.94562647268578,2.719431293681358
2.031405847953216,-0.1290418179952716,11.489344187955272,2.886721463014288
2.0394035087719296,-0.26780824869189823,11.437008618036323,2.467405509387525
2.047401169590643,-0.4065746793885249,11.384673048117373,2.048089555760762
2.0553988304093567,-0.5453411100851515,11.332337478198422,1.6287736021339987
2.0633964912280702,-0.6841075407817782,11.280001908279472,1.2094576485072357
2.0713941520467833,-0.8228739714783971,11.227666338360525,0.790141694880496
2.079391812865497,-0.9616404021750238,11.175330768441574,0.3708257412537326
2.0873894736842105,-1.1004068328716503,11.122995198522624,-0.04849021237303042
2.095387134502924,-1.239173263568277,11.070659628603673,-0.4678061659997934
2.103384795321637,-1.3779396942648963,11.018324058684726,-0.8871221196265333
2.1113824561403507,-1.5167061249615226,10.965988488765776,-1.3064380732532963
2.1193801169590643,-1.6554725556581493,10.913652918846825,-1.7257540268800597
2.127377777777778,-1.794238986354776,10.861317348927876,-2.1450699805068223
2.135375438596491,-1.9330054170513948,10.808981779008928,-2.5643859341335626
2.1433730994152045,-2.0717718477480216,10.756646209089979,-2.983701887760325
2.151370760233918,-1.9539736842105264,9.192291228070173,-6.930326900584797
2.1593684210526316,-2.190347996857814,6.588225451688924,-8.789245090337785
2.1673660818713447,-2.0462707340490573,6.595387536004189,-8.790677507200838
2.1753637426900583,-1.9021934712402926,6.602549620319455,-8.79210992406389
2.183361403508772,-1.7581162084315278,6.609711704634721,-8.793542340926944
2.1913590643274854,-1.614038945622763,6.616873788949987,-8.794974757789998
2.1993567251461985,-1.4699616828140063,6.624035873265252,-8.79640717465305
2.207354385964912,-1.3258844200052415,6.631197957580518,-8.797839591516103
2.2153520467836256,-1.1818071571964768,6.638360041895784,-8.799272008379157
2.223349707602339,-1.037729894387712,6.64552212621105,-8.80070442524221
2.2313473684210523,-1.3534315789472333,7.929042105263134,-5.599210526316025
2.239345029239766,-1.7276257309941414,7.912717223165443,-5.157271709740307
2.2473426900584794,-1.9275672514619806,7.859055498962462,-5.036704822989377
2.255340350877193,-2.1275087719298194,7.80539377475948,-4.9161379362384485
2.263338011695906,-2.3274502923976477,7.751732050556503,-4.795571049487526
2.2713356725146197,-2.5273918128654866,7.698070326353521,-4.675004162736597
2.279333333333333,-2.7273333333333256,7.6444086021505395,-4.554437275985668
2.2873309941520468,-2.9272748538011646,7.590746877947558,-4.433870389234738
2.29532865497076,-3.1272163742689925,7.53708515374458,-4.313303502483816
2.3033263157894734,-3.327157894736832,7.483423429541599,-4.192736615732887
2.311323976608187,-3.527099415204671,7.429761705338618,-4.072169728981958
2.3193216374269006,-3.72704093567251,7.376099981135637,-3.9516028422310288
2.3273192982456137,-3.8850242424242394,7.264625837320589,-3.7664810207336723
2.3353169590643272,-3.940280808080807,7.011608931419461,-3.423308665603408
2.343314619883041,-3.9618236257309936,6.95050105263158,-3.053870175438604
2.3513122807017544,-3.5802366050260783,7.354818539592224,-2.2997126126126126
2.3593099415204675,-3.6375171487276727,7.350171250197566,-2.2155210210210243
2.367307602339181,-3.69479769242927,7.345523960802908,-2.1313294294294316
2.3753052631578946,-3.752078236130867,7.3408766714082505,-2.0471378378378384
2.383302923976608,-3.809358779832464,7.336229382013593,-1.9629462462462457
2.3913005847953213,-3.8666393235340584,7.331582092618935,-1.8787546546546574
2.399298245614035,-3.9239198672356554,7.326934803224277,-1.7945630630630647
2.4072959064327484,-3.9812004109372525,7.322287513829619,-1.7103714714714717
2.415293567251462,-4.03848095463885,7.317640224434961,-1.6261798798798788
2.423291228070175,-4.095761498340444,7.312992935040304,-1.5419882882882905
2.4312888888888886,-3.5404444444443897,6.772222222222215,-3.327266666666615
2.439286549707602,-4.148150487329433,6.961143664717349,-4.337147173489278
2.4472842105263157,-4.221195789473684,6.968874736842105,-4.378468421052632
2.455281871345029,-4.29424109161793,6.976605808966861,-4.419789668615983
2.4632795321637424,-4.36728639376218,6.984336881091617,-4.461110916179336
2.471277192982456,-4.440331695906432,6.992067953216374,-4.502432163742689
2.4792748538011695,-4.513376998050682,6.99979902534113,-4.543753411306043
2.4872725146198826,-4.586422300194928,7.007530097465886,-4.585074658869394
2.495270175438596,-4.659467602339179,7.015261169590643,-4.626395906432747
2.5032678362573098,-4.732512904483429,7.022992241715399,-4.667717153996101
2.5112654970760233,-4.80555820662768,7.030723313840156,-4.709038401559455
2.5192631578947364,-4.878603508771927,7.038454385964911,-4.750359649122806
2.52726081871345,-5.249707602339278,7.16045146198844,-5.531596491227972
2.5352584795321635,-6.012742831437568,8.089882783882784,-6.893088246256667
2.543256140350877,-5.941203315982262,8.139978021978022,-6.906359090032774
2.55125380116959,-5.869663800526961,8.190073260073259,-6.9196299338088805
2.5592514619883038,-5.798124285071655,8.240168498168497,-6.932900777584988
2.5672491228070173,-5.726584769616349,8.290263736263736,-6.946171621361095
2.575246783625731,-5.655045254161044,8.340358974358974,-6.959442465137202
2.5832444444444445,-5.583505738705738,8.390454212454213,-6.972713308913309
2.5912421052631576,-5.511966223250436,8.44054945054945,-6.985984152689415
2.599239766081871,-5.4404267077951305,8.490644688644688,-6.999254996465522
2.6072374269005847,-5.368887192339825,8.540739926739926,-7.012525840241629
2.6152350877192982,-5.2973476768845185,8.590835164835164,-7.025796684017736
2.6232327485380114,-5.225808161429217,8.640930402930401,-7.039067527793843
2.631230409356725,-2.765386299081056,7.411290225563931,-6.704930994152051
2.6392280701754385,-3.9527547802089535,6.1375002956830205,-6.416326236940667
2.647225730994152,-3.803495065378805,6.391448492016554,-6.399791747158158
2.655223391812865,-3.6542353505486647,6.645396688350075,-6.38325725737565
2.6632210526315787,-3.504975635718516,6.899344884683608,-6.366722767593141
2.6712187134502923,-3.3557159208883673,7.153293081017143,-6.3501882778106316
2.679216374269006,-3.2064562060582187,7.407241277350677,-6.333653788028123
2.687214035087719,-3.0571964912280785,7.661189473684196,-6.317119298245615
2.6952116959064325,-2.90793677639793,7.915137670017731,-6.300584808463106
2.703209356725146,-2.7586770615677816,8.169085866351264,-6.284050318680597
2.7112070175438596,-2.609417346737633,8.423034062684799,-6.267515828898088
2.7192046783625727,-2.4601576319074923,8.676982259018319,-6.25098133911558
2.7272023391812863,-2.8623559454191083,10.04910721247562,-6.497784015594544
2.7352,-2.25190888888889,10.5223,-6.174477777777778
2.7431976608187134,-1.888370773229367,10.454319883040935,-6.113606692657569
2.7511953216374265,-1.5248326575698643,10.386339766081873,-6.052735607537365
2.75919298245614,-1.1612945419103415,10.318359649122808,-5.991864522417155
2.7671906432748536,-0.7977564262508186,10.250379532163743,-5.930993437296947
2.775188304093567,-0.43421831059129556,10.182399415204678,-5.870122352176739
2.7831859649122803,-0.07068019493179278,10.114419298245618,-5.809251267056533
2.791183625730994,0.2928579207277302,10.046439181286553,-5.748380181936325
2.7991812865497074,0.6563960363872527,9.978459064327488,-5.687509096816116
2.807178947368421,1.0199341520467757,9.910478947368423,-5.626638011695907
2.815176608187134,1.3834722677062787,9.842498830409362,-5.565766926575702
2.8231742690058477,1.7470103833658017,9.774518713450297,-5.504895841455494
2.8311719298245612,0.7374830409357623,9.853118128655007,-2.6780959064329024
2.839169590643275,0.18191363826232299,8.898397034252298,-0.5460244360902237
2.847167251461988,0.23468391812865322,8.869119883040936,-0.3442263157894804
2.8551649122807015,0.2874541979949864,8.839842731829574,-0.14242819548872593
2.863162573099415,0.34022447786131954,8.810565580618212,0.05936992481202852
2.8711602339181286,0.3929947577276527,8.78128842940685,0.261168045112783
2.8791578947368417,0.4457650375939829,8.75201127819549,0.4629661654135263
2.8871555555555553,0.4985353174603161,8.722734126984127,0.6647642857142807
2.895153216374269,0.5513055973266493,8.693456975772765,0.8665624060150351
2.9031508771929824,0.6040758771929824,8.664179824561403,1.0683605263157898
2.9111485380116955,0.6568461570593127,8.634902673350043,1.2701586466165327
2.919146198830409,0.7096164369256459,8.60562552213868,1.4719567669172875
2.9271438596491226,0.762386716791979,8.576348370927318,1.6737548872180419
2.935141520467836,0.8151569966583122,8.547071219715956,1.8755530075187963
2.9431391812865493,0.8679272765246424,8.517794068504596,2.0773511278195396
2.951136842105263,0.7,9.811578947368252,2.8273684210525567
2.9591345029239764,1.7028928166186548,11.100815047569169,3.8029992144540388
2.96713216374269,1.8749022082569575,11.149278484769136,3.98133511390416
2.975129824561403,2.046911599895251,11.197741921969099,4.159671013354271
2.9831274853801166,2.2189209915335537,11.246205359169064,4.338006912804392
2.99112514619883,2.3909303831718565,11.29466879636903,4.516342812254512
2.9991228070175437,2.562939774810159,11.343132233568998,4.694678711704634
3.007120467836257,2.7349491664484527,11.391595670768961,4.873014611154745
3.0151181286549704,2.906958558086755,11.440059107968926,5.051350510604866
3.023115789473684,3.078967949725058,11.488522545168893,5.2296864100549865
3.0311134502923975,3.2901423001949284,12.59005146198828,6.08488031189082
3.0391111111111107,3.4656666666666402,12.373037037037042,4.589925925925975
3.047108771929824,3.891542105263137,12.30372397660819,3.792825730994191
3.0551064327485378,4.705187905369484,12.783643141945774,2.574613689526849
3.0631040935672513,4.750901807549177,12.629597288676235,2.350043009037745
3.071101754385965,4.796615709728869,12.475551435406695,2.1254723285486405
3.079099415204678,4.842329611908558,12.321505582137165,1.9009016480595484
3.0870970760233916,4.888043514088251,12.167459728867625,1.676330967570444
3.095094736842105,4.933757416267943,12.013413875598086,1.4517602870813398
3.1030923976608187,4.979471318447635,11.859368022328546,1.2271896065922352
3.111090058479532,5.025185220627325,11.705322169059016,1.0026189261031433
3.1190877192982454,5.070899122807017,11.551276315789476,0.778048245614039
3.127085380116959,5.116613024986709,11.397230462519936,0.5534775651249344
3.1350830409356725,5.162326927166402,11.243184609250397,0.3289068846358303
3.1430807017543856,5.239968421052626,9.794040935672644,0.43244561403507054
3.151078362573099,3.7960794421952326,9.548267986204827,1.2267445793972103
3.1590760233918127,3.67857534862798,9.546832508621982,1.287034637876743
3.1670736842105263,3.5610712550607273,9.545397031039135,1.347324696356276
3.1750713450292394,3.4435671614934815,9.54396155345629,1.4076147548358053
3.183069005847953,3.3260630679262286,9.542526075873445,1.467904813315338
3.1910666666666665,3.208558974358976,9.541090598290598,1.5281948717948708
3.19906432748538,3.0910548807917237,9.539655120707753,1.5884849302744035
3.207061988304093,2.9735507872244775,9.538219643124906,1.648774988753933
3.2150596491228067,2.856046693657225,9.53678416554206,1.7090650472334659
3.2230573099415203,2.738542600089972,9.535348687959214,1.7693551057129984
3.231054970760234,0.5477447173489425,11.594580896686143,2.068511345029264
3.239052631578947,-0.013157894736815945,12.261052631578917,1.153578947368464
3.2470502923976605,-0.6483755126212153,13.252372285143236,-0.21210172477605907
3.255047953216374,-0.653741031904656,13.273328181212523,-0.536260078466197
3.2630456140350876,-0.6591065511880967,13.294284077281812,-0.8604184321563351
3.2710432748538008,-0.6644720704715372,13.315239973351098,-1.184576785846455
3.2790409356725143,-0.669837589754978,13.336195869420386,-1.508735139536593
3.287038596491228,-0.6752031090384187,13.357151765489673,-1.832893493226731
3.2950362573099414,-0.6805686283218595,13.37810766155896,-2.157051846916869
3.3030339181286545,-0.6859341476052999,13.399063557628248,-2.481210200606989
3.311031578947368,-0.6912996668887407,13.420019453697535,-2.805368554297127
3.3190292397660817,-0.6966651861721814,13.440975349766823,-3.1295269079872647
3.327026900584795,-1.0068058479532012,14.57678479532169,-5.026322222222163
3.3350245614035083,-1.3361988304093553,11.8680105263158,-6.585356725146195
3.343022222222222,-1.3624277180406204,11.661361290322589,-6.673502986857823
3.3510198830409355,-1.3886566056718852,11.454712054329375,-6.761649248569451
3.359017543859649,-1.41488549330315,11.248062818336164,-6.849795510281078
3.367015204678362,-1.4411143809344136,11.041413582342965,-6.937941771992701
3.3750128654970757,-1.4673432685656784,10.834764346349752,-7.02608803370433
3.3830105263157892,-1.4935721561969433,10.628115110356541,-7.114234295415957
3.391008187134503,-1.5198010438282081,10.42146587436333,-7.202380557127586
3.399005847953216,-1.5460299314594717,10.214816638370129,-7.290526818839209
3.4070035087719295,-1.5722588190907365,10.008167402376918,-7.378673080550836
3.415001169590643,-1.5984877067220014,9.801518166383707,-7.466819342262465
3.4229988304093566,-1.6247165943532664,9.594868930390495,-7.554965603974092
3.4309964912280697,-0.890340935672525,8.092135672514635,-6.023686549707624
3.4389941520467833,-0.6830682261208656,7.782892787524378,-5.598477582846019
3.446991812865497,-0.8455769219797413,7.641731093995154,-4.961363058051633
3.4549894736842104,-0.9729543003851063,7.547027086007704,-4.964093966623877
3.4629871345029235,-1.1003316787904642,7.452323078020259,-4.96682487519612
3.470984795321637,-1.2277090571958291,7.35761907003281,-4.969555783768364
3.4789824561403506,-1.3550864356011942,7.26291506204536,-4.9722866923406075
3.486980116959064,-1.4824638140065591,7.1682110540579105,-4.975017600912851
3.4949777777777773,-1.609841192411917,7.073507046070466,-4.977748509485095
3.502975438596491,-1.7372185708172818,6.978803038083016,-4.980479418057339
3.5109730994152044,-1.864595949222647,6.884099030095566,-4.983210326629583
3.518970760233918,-1.9919733276280118,6.789395022108117,-4.985941235201826
3.526968421052631,-1.4831649122807158,6.221259649122822,-4.515445614035091
3.5349660818713446,-1.4574888888888196,1.73723567251547,-5.252652046783389
3.542963742690058,-1.4948392535646213,1.56576514882713,-5.189794257178531
3.5509614035087718,-1.5278183717721256,1.4490352454169175,-5.111255430711613
3.558959064327485,-1.560797489979628,1.3323053420067112,-5.0327166042447
3.5669567251461984,-1.5937766081871323,1.2155754385964987,-4.954177777777783
3.574954385964912,-1.6267557263946366,1.0988455351862862,-4.875638951310865
3.5829520467836256,-1.6597348446021407,0.9821156317760737,-4.797100124843948
3.590949707602339,-1.692713962809645,0.8653857283658611,-4.718561298377031
3.5989473684210522,-1.7256930810171474,0.7486558249556551,-4.640022471910117
3.606945029239766,-1.7586721992246517,0.6319259215454425,-4.5614836454432
3.6149426900584793,-1.791651317432156,0.51519601813523,-4.482944818976283
3.622940350877193,-1.82463043563966,0.3984661147250175,-4.404405992509365
3.630938011695906,-6.692516023391645,-5.6117267836254365,-8.844633684210446
3.6389356725146196,-8.15443586744639,-7.981559974009098,-9.463027810266407
3.646933333333333,-8.307457777777776,-7.925754074074075,-9.411220740740742
3.6549309941520467,-8.460479688109162,-7.869948174139052,-9.359413671215075
3.66292865497076,-8.613501598440537,-7.814142274204031,-9.307606601689411
3.6709263157894734,-8.766523508771924,-7.758336374269009,-9.255799532163744
3.678923976608187,-8.91954541910331,-7.702530474333985,-9.203992462638078
3.6869216374269005,-9.072567329434694,-7.646724574398961,-9.152185393112411
3.6949192982456136,-9.225589239766071,-7.590918674463941,-9.100378323586748
3.702916959064327,-9.378611150097457,-7.535112774528918,-9.048571254061082
3.7109146198830407,-9.531633060428844,-7.479306874593894,-8.996764184535415
3.7189122807017543,-9.684654970760228,-7.423500974658872,-8.94495711500975
3.7269099415204674,-15.44274385964816,-0.3984187134508863,-13.889552046782871
3.734907602339181,-13.046778675645358,3.6408036387264393,-11.011409085002082
3.7429052631578945,-12.745937373737384,3.773209356725142,-10.742558426368962
3.750902923976608,-12.445096071829411,3.9056150747238445,-10.473707767735844
3.758900584795321,-12.144254769921455,4.0380207927225396,-10.20485710910274
3.7668982456140347,-11.84341346801348,4.170426510721242,-9.93600645046962
3.7748959064327483,-11.542572166105508,4.302832228719945,-9.667155791836501
3.782893567251462,-11.241730864197534,4.435237946718647,-9.398305133203381
3.790891228070175,-10.940889562289577,4.567643664717343,-9.129454474570277
3.7988888888888885,-10.640048260381604,4.700049382716045,-8.860603815937159
3.806886549707602,-10.33920695847363,4.832455100714748,-8.591753157304039
3.8148842105263157,-10.038365656565658,4.964860818713451,-8.32290249867092
3.8228818713450288,-9.737524354657701,5.097266536712146,-8.054051840037815
3.8308795321637423,-12.467585964911812,4.019460818713379,-11.359250292396865
3.838877192982456,-13.636403508771902,4.593121345029225,-12.337536549707583
3.8468748538011694,-12.988710121457496,6.966103943619725,-10.302396641175598
3.8548725146198826,-12.803225910931188,7.241305503073905,-9.995204438446565
3.862870175438596,-12.617741700404869,7.516507062528101,-9.688012235717515
3.8708678362573097,-12.43225748987855,7.791708621982296,-9.380820032988465
3.8788654970760232,-12.246773279352231,8.06691018143649,-9.073627830259415
3.8868631578947364,-12.061289068825921,8.34211174089067,-8.766435627530383
3.89486081871345,-11.875804858299603,8.617313300344867,-8.459243424801333
3.9028584795321635,-11.690320647773284,8.89251485979906,-8.152051222072284
3.910856140350877,-11.504836437246965,9.167716419253257,-7.844859019343234
3.91885380116959,-11.319352226720657,9.442917978707436,-7.537666816614202
3.9268514619883037,-8.89824561403563,11.168584795321456,-5.899976608187451
3.9348491228070173,-7.509198058977249,11.622942067935783,-5.232012541993284
3.942846783625731,-7.16317160632078,11.850449993778764,-5.171009107876076
3.950844444444444,-6.81714515366433,12.077957919621731,-5.11000567375887
3.9588421052631575,-6.471118701007861,12.305465845464711,-5.049002239641661
3.966839766081871,-6.125092248351392,12.53297377130769,-4.987998805524453
3.9748374269005846,-5.779065795694923,12.76048169715067,-4.926995371407243
3.9828350877192977,-5.433039343038473,12.987989622993638,-4.865991937290038
3.9908327485380113,-5.087012890382004,13.215497548836616,-4.804988503172829
3.998830409356725,-4.740986437725535,13.443005474679596,-4.74398506905562
4.006828070175438,-4.394959985069066,13.670513400522577,-4.682981634938411
4.0148257309941515,-4.048933532412616,13.898021326365544,-4.621978200821206
4.0228233918128655,-3.7029070797561277,14.125529252208537,-4.5609747667039935
4.030821052631579,-3.526594736842106,15.233142105263159,-3.218773684210527
4.038818713450292,-1.8317239766081974,12.781145029239767,-3.6091851851851953
4.046816374269006,-1.6453784795321609,12.774746900584795,-3.4319037037037012
4.054814035087719,-1.459032982456145,12.768348771929825,-3.2546222222222267
4.062811695906432,-1.2726874853801293,12.761950643274854,-3.0773407407407527
4.070809356725146,-1.0863419883040926,12.755552514619882,-2.9000592592592582
4.078807017543859,-0.8999964912280767,12.749154385964912,-2.722777777777784
4.086804678362573,-0.7136509941520401,12.74275625730994,-2.54549629629629
4.094802339181286,-0.5273054970760243,12.73635812865497,-2.3682148148148157
4.102799999999999,-0.34096000000000837,12.72996,-2.1909333333333416
4.110797660818713,-0.15461450292397183,12.723561871345028,-2.013651851851847
4.1187953216374265,0.031730994152044056,12.717163742690058,-1.836370370370373
4.1267929824561405,-0.09287894736846528,11.44813508771922,0.25586666666682845
4.134790643274854,-1.3678677118327742,11.025322060470328,1.7730019161378547
4.142788304093567,-1.3209027248973526,10.815511086226216,2.2187438845340024
4.150785964912281,-1.2739377379619259,10.605700111982083,2.6644858529301993
4.158783625730994,-1.2269727510265043,10.39588913773797,3.110227821326347
4.166781286549707,-1.1800077640910827,10.186078163493859,3.5559697897224947
4.174778947368421,-1.133042777155656,9.976267189249725,4.001711758118692
4.182776608187134,-1.0860777902202345,9.766456215005613,4.447453726514839
4.190774269005848,-1.0391128032848078,9.556645240761478,4.893195694911037
4.198771929824561,-0.9921478163493862,9.346834266517368,5.338937663307184
4.206769590643274,-0.9451828294139646,9.137023292273255,5.784679631703332
4.214767251461988,-0.8982178424785379,8.92721231802912,6.230421600099529
4.222764912280701,-0.8512528555431164,8.71740134378501,6.676163568495676
4.2307625730994145,0.0486501077253888,7.27372920898741,7.760224746075661
4.2387602339181285,0.7802256078793279,6.942457679285943,8.380253924284379
4.246757894736842,1.964505263157756,6.184757894736955,9.806231578947155
4.254755555555556,1.5586135501354854,8.029462330623325,12.332538482384837
4.262753216374269,1.195402710027103,8.431686150335185,12.655663485950646
4.270750877192982,0.8321918699187203,8.833909970047046,12.978788489516456
4.278748538011696,0.46898102981029743,9.236133789758952,13.3019134930823
4.286746198830409,0.10577018970191476,9.638357609470813,13.62503849664811
4.294743859649122,-0.2574406504064679,10.040581429182673,13.948163500213917
4.302741520467836,-0.6206514905148908,10.44280524889458,14.271288503779761
4.310739181286549,-0.9838623306232732,10.84502906860644,14.594413507345571
4.318736842105263,-1.3470731707316965,11.247252888318346,14.917538510911415
4.326734502923976,-1.710284010840079,11.649476708030207,15.240663514477223
4.334732163742689,1.4095637426887064,10.328909941522069,12.863280116958967
4.342729824561403,0.18076854636590947,13.656167167919795,10.270525814536342
4.3507274853801166,0.4627574979114279,13.793412740183784,10.168270008354225
4.35872514619883,0.7447464494569463,13.930658312447772,10.066014202172108
4.366722807017544,1.026735401002496,14.067903884711773,9.963758395989979
4.374720467836257,1.3087243525480146,14.20514945697576,9.861502589807861
4.382718128654971,1.5907133040935642,14.342395029239764,9.75924678362573
4.390715789473684,1.8727022556390827,14.479640601503752,9.656990977443614
4.398713450292397,2.1546912071846007,14.616886173767739,9.554735171261497
4.406711111111111,2.4366801587301508,14.754131746031742,9.452479365079368
4.414708771929824,2.718669110275669,14.89137731829573,9.35022355889725
4.422706432748537,3.0006580618211873,15.028622890559717,9.247967752715132
4.430704093567251,3.2826470133667374,15.165868462823719,9.145711946533003
4.438701754385964,3.5646359649122554,15.303114035087706,9.043456140350886
4.446699415204678,3.8466249164578055,15.44035960735171,8.941200334168757
4.4546970760233915,3.4302173767753037,17.759648621553747,6.2250217209692496
4.462694736842105,0.6668371710526508,18.27990690789475,0.2505542763158182
4.470692397660819,0.28507383040935,18.048599561403506,-0.3186542397660919
4.478690058479532,-0.09668951023390848,17.81729221491229,-0.8878627558479386
4.486687719298245,-0.4784528508771668,17.58598486842107,-1.4570712719297856
4.494685380116959,-0.8602161915204678,17.354677521929826,-2.026279788011696
4.502683040935672,-1.2419795321637261,17.12337017543861,-2.595488304093543
4.510680701754386,-1.623742872807027,16.892062828947363,-3.164696820175453
4.518678362573099,-2.0055062134502855,16.660755482456146,-3.7339053362573003
4.526676023391812,-2.0680280701756106,15.674953216374734,-4.542647953216202
4.534673684210526,-3.600076995860441,9.824836546422233,-3.2661581312832646
4.542671345029239,-4.016494526578603,9.561722491622325,-3.27990691898285
4.550669005847952,-4.432912057296765,9.298608436822414,-3.2936557066824355
4.558666666666666,-4.849329588014973,9.035494382022478,-3.3074044943820224
4.5666643274853795,-5.265747118733135,8.772380327222567,-3.3211532820816076
4.5746619883040935,-5.682164649451343,8.50926627242263,-3.3349020697811946
4.582659649122807,-6.098582180169505,8.24615221762272,-3.34865085748078
4.59065730994152,-6.5149997108876665,7.983038162822812,-3.3623996451803655
4.598654970760234,-6.931417241605875,7.719924108022874,-3.3761484328799525
4.606652631578947,-7.3478347723240365,7.456810053222965,-3.3898972205795377
4.614650292397661,-7.764252303042245,7.193695998423027,-3.4036460082791247
4.622647953216374,-8.180669833760406,6.9305819436231175,-3.4173947959787103
4.630645614035087,-9.281362907268091,6.357999498746992,-1.824228571428851
4.638643274853801,-9.46041891467019,5.949092246745898,-0.8888299063069862
4.646640935672514,-9.34905363767843,5.950640181097906,-0.8673308180846392
4.654638596491227,-9.237688360686672,5.952188115449915,-0.845831729862292
4.662636257309941,-9.126323083694903,5.9537360498019245,-0.8243326416399426
4.6706339181286545,-9.014957806703144,5.955283984153933,-0.8028335534175955
4.6786315789473685,-8.903592529711375,5.956831918505943,-0.7813344651952461
4.686629239766082,-8.792227252719616,5.958379852857951,-0.7598353769728989
4.694626900584795,-8.680861975727858,5.959927787209961,-0.7383362887505519
4.702624561403509,-8.569496698736089,5.961475721561969,-0.7168372005282024
4.710622222222222,-8.45813142174433,5.963023655913979,-0.6953381123058553
4.718619883040935,-8.346766144752571,5.9645715902659875,-0.6738390240835082
4.726617543859649,-8.485768421052594,5.82921403508774,-0.6506035087719304
4.734615204678362,-9.443920467837557,6.396215204678884,2.463111111111194
4.742612865497076,-4.267291053303759,4.402644686428714,1.8431615379444783
4.750610526315789,-4.112393829401096,4.503304900181483,1.7906711433756828
4.758608187134502,-3.9574966054984335,4.603965113934252,1.7381807488068874
4.766605847953216,-3.802599381595754,4.704625327687032,1.685690354238086
4.774603508771929,-3.6477021576930913,4.805285541439801,1.6331999596692908
4.7826011695906425,-3.4928049337904286,4.90594575519257,1.5807095651004954
4.7905988304093565,-3.337907709887749,5.006605968945349,1.528219170531694
4.79859649122807,-3.1830104859850863,5.107266182698119,1.4757287759628988
4.806594152046784,-3.0281132620824067,5.207926396450898,1.4232383813940974
4.814591812865497,-2.873216038179744,5.308586610203667,1.370747986825302
4.82258947368421,-2.7183188142770813,5.409246823956436,1.3182575922565065
4.830587134502924,0.6939093691676074,12.190132412591764,-1.2304472066691567
4.838584795321637,0.35213699141472987,12.164693044668411,-1.1548097548836682
4.84658245614035,0.010364613661852484,12.139253676745057,-1.0791723030981795
4.854580116959064,-0.331407764091063,12.1138143088217,-1.0035348513126823
4.862577777777777,-0.6731801418439404,12.088374940898348,-0.9278973995271937
4.870575438596491,-1.0149525195968558,12.062935572974991,-0.8522599477416966
4.878573099415204,-1.3567248973497334,12.037496205051639,-0.776622495956208
4.8865707602339175,-1.6984972751026106,12.012056837128284,-0.7009850441707193
4.8945684210526315,-2.040269652855526,11.98661746920493,-0.6253475923852222
4.902566081871345,-2.3820420306084036,11.961178101281575,-0.5497101405997336
4.910563742690058,-2.7238144083612807,11.935738733358223,-0.4740726888142448
4.918561403508772,-3.065586786114196,11.910299365434867,-0.3984352370287477
4.926559064327485,-4.335109941520475,14.797905263157901,-1.8024426900582435
4.934556725146199,-2.79579094189373,10.137502600472803,-6.899238447181789
4.942554385964912,-2.4250908547965713,9.79964397163121,-7.050598432250838
4.950552046783625,-2.054390767699412,9.461785342789618,-7.2019584173198865
4.958549707602339,-1.6836906806022125,9.123926713947988,-7.353318402388952
4.966547368421052,-1.3129905935050536,8.786068085106397,-7.504678387458001
4.974545029239765,-0.9422905064078946,8.448209456264804,-7.65603837252705
4.982542690058479,-0.5715904193106947,8.110350827423174,-7.8073983575961154
4.990540350877192,-0.20089033221353603,7.772492198581582,-7.958758342665164
4.998538011695906,0.1698097548836639,7.434633569739952,-8.11011832773423
5.0065356725146195,0.540509841980823,7.09677494089836,-8.261478312803279
5.014533333333333,0.9112099290779816,6.758916312056767,-8.412838297872328
5.022530994152047,1.2819100161751815,6.421057683215137,-8.564198282941394
5.03052865497076,5.774874132138861,4.456578200821203,-4.17717862386462
5.038526315789473,5.742713325867865,4.450197088465846,-4.240394176931683
5.046523976608187,5.710552519596867,4.443815976110489,-4.303609729998753
5.0545216374269,5.678391713325871,4.437434863755133,-4.366825283065815
5.062519298245614,5.646230907054871,4.431053751399776,-4.430040836132885
5.070516959064327,5.614070100783876,4.424672639044419,-4.4932563891999475
5.07851461988304,5.58190929451288,4.418291526689063,-4.5564719422670095
5.086512280701754,5.549748488241882,4.411910414333707,-4.619687495334079
5.094509941520467,5.517587681970886,4.40552930197835,-4.682903048401142
5.10250760233918,5.485426875699891,4.399148189622994,-4.746118601468205
5.110505263157894,5.453266069428891,4.392767077267637,-4.809334154535274
5.1185029239766076,5.421105263157896,4.3863859649122805,-4.872549707602337
5.126500584795322,7.296657894736901,4.3716380116958895,-5.099057894736814
5.134498245614035,7.356672590077348,5.14071956234672,-5.838562874929256
5.142495906432748,7.231633892976178,5.316238118593962,-5.91957143935106
5.150493567251462,7.106595195874993,5.4917566748412225,-6.000580003772872
5.158491228070175,6.981556498773823,5.667275231088465,-6.081588568194676
5.166488888888889,6.856517801672638,5.842793787335726,-6.162597132616489
5.174486549707602,6.731479104571467,6.018312343582967,-6.2436056970382925
5.182484210526315,6.606440407470297,6.193830899830209,-6.324614261460097
5.190481871345029,6.481401710369112,6.369349456077471,-6.40562282588191
5.198479532163742,6.356363013267941,6.544868012324712,-6.486631390303714
5.206477192982455,6.231324316166771,6.7203865685719535,-6.567639954725517
5.214474853801169,6.106285619065586,6.8959051248192145,-6.64864851914733
5.2224725146198825,5.9812469219644155,7.071423681066456,-6.729657083569134
5.2304701754385965,3.668534035087749,12.503405614035064,-7.844494736842085
5.23846783625731,5.598450292397482,10.88804678362588,-9.63199999999986
5.246465497076023,6.01507899668852,10.53077276122031,-10.01915768336504
5.254463157894737,5.908796829422959,10.60718414711477,-10.011930881420419
5.26246081871345,5.802514662157411,10.683595533009223,-10.004704079475799
5.270458479532163,5.696232494891863,10.760006918903674,-9.997477277531178
5.278456140350877,5.589950327626302,10.836418304798135,-9.990250475586556
5.28645380116959,5.483668160360753,10.912829690692586,-9.983023673641936
5.294451461988304,5.377385993095192,10.989241076587046,-9.975796871697316
5.302449122807017,5.271103825829644,11.065652462481498,-9.968570069752696
5.31044678362573,5.164821658564096,11.14206384837595,-9.961343267808076
5.318444444444444,5.058539491298535,11.21847523427041,-9.954116465863454
5.326442105263157,1.835989473684198,7.6871263157896825,-8.16480000000005
5.3344397660818705,1.8185821607891945,6.245866631224542,-7.937131525784144
5.3424374269005845,1.6963552838324838,6.122751125287974,-8.040374056352999
5.350435087719298,1.5741284068757864,5.9996356193514195,-8.14361658692184
5.358432748538012,1.4519015299190756,5.876520113414852,-8.246859117490695
5.366430409356725,1.3296746529623784,5.753404607478298,-8.350101648059537
5.374428070175438,1.2074477760056812,5.630289101541743,-8.453344178628381
5.382425730994152,1.0852208990489705,5.507173595605176,-8.556586709197234
5.390423391812865,0.9629940220922731,5.384058089668621,-8.659829239766077
5.398421052631578,0.8407671451355758,5.260942583732067,-8.76307177033492
5.406418713450292,0.7185402681788651,5.137827077795499,-8.866314300903774
5.414416374269005,0.5963133912221679,5.014711571858944,-8.969556831472616
5.422414035087719,0.4740865142654569,4.891596065922377,-9.07279936204147
5.430411695906432,1.3034081871344767,6.140255555555272,-8.93383274853808
5.4384093567251455,1.2000526315789586,6.2446324143692635,-8.00099665831245
5.4464070175438595,1.100389473684215,6.1859243107769455,-7.9755974937343375
5.454404678362573,1.0007263157894826,6.127216207184634,-7.950198329156227
5.462402339181286,0.9010631578947501,6.068508103592322,-7.924799164578116
5.4704,0.8014000000000066,6.009800000000004,-7.899400000000002
5.478397660818713,0.7017368421052742,5.951091896407693,-7.874000835421891
5.486395321637427,0.6020736842105306,5.892383792815375,-7.848601670843777
5.49439298245614,0.5024105263157982,5.833675689223063,-7.823202506265667
5.502390643274853,0.40274736842106584,5.774967585630751,-7.797803341687556
5.510388304093567,0.3030842105263223,5.716259482038433,-7.772404177109442
5.51838596491228,0.20342105263158983,5.657551378446121,-7.747005012531331
5.526383625730993,0.09286627680314061,5.466025341130715,-7.620152631579029
5.534381286549707,0.22336257309944169,3.835769590643273,-7.846056140350864
5.54237894736842,-0.44856244019138297,3.7904361244019174,-8.16482727272727
5.550376608187134,-0.6009724082934668,3.686920946305153,-8.223537373737376
5.5583742690058475,-0.7533823763955336,3.5834057682084004,-8.282247474747475
5.566371929824561,-0.9057923444976004,3.4798905901116477,-8.340957575757573
5.574369590643275,-1.0582023125996842,3.376375412014884,-8.399667676767677
5.582367251461988,-1.210612280701751,3.272860233918131,-8.458377777777777
5.590364912280701,-1.363022248803818,3.1693450558213785,-8.517087878787875
5.598362573099415,-1.5154322169059016,3.0658298777246142,-8.57579797979798
5.606360233918128,-1.6678421850079685,2.9623146996278615,-8.634508080808079
5.614357894736842,-1.8202521531100522,2.8587995215310977,-8.693218181818184
5.622355555555555,-1.9726621212121191,2.7552843434343446,-8.751928282828281
5.630353216374268,-2.2193438596491437,-1.5166128654967457,-9.860523976608336
5.638350877192982,-2.2191205186880247,-2.59152326468345,-9.367482837528604
5.646348538011695,-2.2872744978387973,-2.8730061530638076,-9.230827154843636
5.654346198830409,-2.355428476989577,-3.1544890414441964,-9.094171472158655
5.6623438596491225,-2.423582456140349,-3.4359719298245546,-8.957515789473689
5.670341520467836,-2.4917364352911213,-3.717454818204912,-8.820860106788722
5.67833918128655,-2.559890414441901,-3.998937706585301,-8.68420442410374
5.686336842105263,-2.628044393592673,-4.280420594965658,-8.547548741418773
5.694334502923976,-2.6961983727434458,-4.561903483346017,-8.410893058733805
5.70233216374269,-2.7643523518942255,-4.843386371726406,-8.274237376048823
5.710329824561403,-2.8325063310449976,-5.124869260106763,-8.137581693363856
5.718327485380117,-2.9006603101957773,-5.406352148487153,-8.000926010678874
5.72632514619883,-2.224872514619969,-5.295572514620008,-8.141067836257333
5.734322807017543,-1.2197032163743047,-5.03218011695905,-7.870007602339178
5.742320467836257,-0.5165755360623919,-5.317430019493172,-7.948651267056529
5.75031812865497,-0.22095226885780503,-5.443629728329259,-7.999907691168848
5.758315789473683,-0.1306495669553731,-5.489692205196531,-8.037365089940035
5.766313450292397,-0.04034686505293117,-5.535754682063808,-8.074822488711227
5.7743111111111105,0.04995583684950078,-5.58181715893108,-8.112279887482416
5.7823087719298245,0.14025853875194272,-5.627879635798357,-8.14973728625361
5.790306432748538,0.23056124065437467,-5.673942112665628,-8.187194685024798
5.798304093567251,0.3208639425568065,-5.7200045895329,-8.224652083795986
5.806301754385965,0.41116664445924855,-5.766067066400177,-8.262109482567178
5.814299415204678,0.5014693463616804,-5.812129543267449,-8.299566881338366
5.822297076023391,0.5917720482641123,-5.858192020134721,-8.337024280109555
5.830294736842105,-0.485538345864599,-6.143369924812027,-8.663078195488724
5.838292397660818,-0.8287296497949891,-6.397962358002283,-8.964664045170402
5.846290058479532,-0.7527978355851302,-6.447235302816429,-8.857385077636618
5.854287719298245,-0.6768660213752798,-6.496508247630569,-8.750106110102847
5.862285380116958,-0.6009342071654296,-6.545781192444709,-8.642827142569075
5.870283040935672,-0.5250023929555707,-6.595054137258855,-8.535548175035292
5.878280701754385,-0.44907057874572026,-6.644327082072995,-8.42826920750152
5.8862783625730986,-0.37313876453586986,-6.693600026887135,-8.320990239967749
5.894276023391813,-0.2972069503260111,-6.742872971701281,-8.213711272433965
5.902273684210526,-0.22127513611616068,-6.792145916515421,-8.106432304900194
5.91027134502924,-0.14534332190630184,-6.841418861329567,-7.99915333736641
5.918269005847953,-0.06941150769645144,-6.890691806143707,-7.891874369832638
5.926266666666666,-0.4684666666666585,-7.243322222222221,-6.684022222222256
5.93426432748538,0.2246786838892022,-6.893958550221707,-6.079071280766021
5.942261988304093,0.39649656191759897,-6.922961056487369,-6.020714722704202
5.950259649122806,0.5683144399459957,-6.951963562753033,-5.962358164642383
5.95825730994152,0.7401323179744115,-6.980966069018699,-5.904001606580558
5.966254970760233,0.9119501960028082,-7.009968575284361,-5.8456450485187395
5.974252631578947,1.083768074031224,-7.038971081550027,-5.787288490456914
5.98225029239766,1.2555859520596209,-7.067973587815691,-5.728931932395096
5.9902479532163735,1.4274038300880176,-7.096976094081353,-5.670575374333277
5.9982456140350875,1.5992217081164335,-7.125978600347019,-5.612218816271452
6.006243274853801,1.7710395861448303,-7.1549811066126825,-5.553862258209633
6.014240935672514,1.942857464173227,-7.183983612878345,-5.495505700147814
6.022238596491228,2.1146753422016427,-7.212986119144011,-5.437149142085989
6.030236257309941,2.9980467836267652,-7.494335672514683,-4.323536842105062
6.038233918128655,2.017236639453419,-7.412298245614035,-4.52731642637948
6.046231578947368,2.0263428869202706,-7.388305263157895,-4.539827618551328
6.054229239766081,2.035449134387122,-7.364312280701756,-4.552338810723177
6.062226900584795,2.044555381853975,-7.340319298245614,-4.564850002895026
6.070224561403508,2.0536616293208265,-7.316326315789475,-4.5773611950668744
6.078222222222221,2.062767876787678,-7.292333333333335,-4.5898723872387235
6.086219883040935,2.071874124254531,-7.268340350877193,-4.6023835794105725
6.094217543859648,2.0809803717213824,-7.244347368421054,-4.614894771582421
6.102215204678362,2.090086619188235,-7.220354385964912,-4.627405963754271
6.1102128654970755,2.0991928666550863,-7.196361403508773,-4.639917155926119
6.118210526315789,2.108299114121938,-7.172368421052633,-4.652428348097967
6.126208187134503,2.1174053615887907,-7.148375438596491,-4.664939540269817
6.134205847953216,2.515616374268972,-7.439353216374276,-4.525385964912377
6.14220350877193,2.582,-7.341168800379329,-4.303467520151731
6.150201169590643,2.582,-7.233092302829151,-4.260236921131661
6.158198830409356,2.582,-7.125015805278974,-4.217006322111589
6.16619649122807,2.582,-7.0169393077287845,-4.173775723091514
6.174194152046783,2.6223358024691157,-6.907883820662776,-4.133550227420404
6.182191812865496,2.8887748927875068,-6.7946423911631015,-4.111277063027938
6.19018947368421,3.004474385964903,-6.738036725146204,-4.122829239766081
6.198187134502923,3.120173879142286,-6.681431059129312,-4.134381416504222
6.206184795321637,3.235873372319682,-6.624825393112413,-4.145933593242364
6.2141824561403505,3.351572865497065,-6.568219727095522,-4.1574857699805055
6.222180116959064,3.4672723586744487,-6.51161406107863,-4.169037946718647
6.230177777777778,3.5829718518518447,-6.455008395061732,-4.180590123456789
6.238175438596491,3.698671345029228,-6.39840272904484,-4.192142300194931
6.246173099415204,3.814370838206611,-6.341797063027948,-4.203694476933071
6.254170760233918,3.930070331384007,-6.28519139701105,-4.215246653671214
6.262168421052631,4.04576982456139,-6.228585730994158,-4.226798830409355
6.270166081871345,4.161469317738787,-6.1719800649772605,-4.2383510071474975
6.278163742690058,4.897795321637299,-6.361371345029136,-3.8269883040936143
6.286161403508771,5.1483640768588135,-6.603762517404619,-3.7417067112225
6.294159064327485,5.149887440824283,-6.647051443423373,-3.7491965840527244
6.302156725146198,5.151410804789752,-6.690340369442122,-3.7566864568829477
6.310154385964911,5.1529341687552215,-6.7336292954608705,-3.764176329713171
6.318152046783625,5.1544575327206905,-6.776918221479624,-3.7716662025433956
6.3261497076023385,5.1559808966861596,-6.820207147498373,-3.779156075373619
6.3341473684210525,5.157504260651629,-6.863496073517127,-3.786645948203843
6.342145029239766,5.128108771929852,-6.910423391812861,-3.7992935672514574
6.350142690058479,5.187704909202821,-7.16112028316405,-3.674879424438287
6.358140350877193,5.276626269621418,-7.1619621421975985,-3.688033471837488
6.366138011695906,5.3655476300400045,-7.162804001231147,-3.701187519236687
6.374135672514619,5.454468990458592,-7.163645860264697,-3.7143415666358863
6.382133333333333,5.543390350877188,-7.164487719298245,-3.727495614035087
6.390130994152046,5.632311711295776,-7.165329578331794,-3.7406496614342863
6.39812865497076,5.721233071714373,-7.1661714373653425,-3.753803708833487
6.406126315789473,5.8101544321329595,-7.167013296398892,-3.7669577562326864
6.414123976608186,5.899075792551546,-7.167855155432441,-3.7801118036318857
6.4221216374269,5.987997152970143,-7.168697014465989,-3.7932658510310864
6.4301192982456135,5.389428070175281,-6.560108771930123,-4.426677192982568
6.438116959064327,6.657287248919399,-5.228729913551995,-3.741940948385457
6.446114619883041,6.670239982201881,-5.239248576150521,-3.7371597381134
6.454112280701754,6.6831927154843624,-5.249767238749046,-3.732378527841343
6.462109941520468,6.696145448766845,-5.260285901347572,-3.727597317569286
6.470107602339181,6.709098182049326,-5.270804563946097,-3.722816107297229
6.478105263157894,6.722050915331806,-5.281323226544622,-3.718034897025172
6.486102923976608,6.735003648614288,-5.291841889143147,-3.7132536867531147
6.494100584795321,6.74795638189677,-5.302360551741672,-3.708472476481058
6.502098245614034,6.760909115179251,-5.312879214340197,-3.7036912662090016
6.510095906432748,6.773861848461733,-5.3233978769387225,-3.698910055936944
6.518093567251461,6.786814581744214,-5.333916539537247,-3.6941288456648875
6.526091228070175,5.743830622009569,-5.710537799043063,-3.8274465709728878
6.534088888888888,5.6413151515151565,-5.933018181818171,-4.041929292929282
6.5420865497076015,5.3106327062636565,-6.159136743465084,-4.377358542943705
6.5500842105263155,5.271126188966394,-6.1895856689917546,-4.372637032339886
6.558081871345029,5.2316196716691366,-6.220034594518421,-4.367915521736068
6.566079532163742,5.192113154371879,-6.250483520045089,-4.363194011132249
6.574077192982456,5.152606637074617,-6.280932445571759,-4.35847250052843
6.582074853801169,5.113100119777359,-6.311381371098426,-4.353750989924611
6.590072514619883,5.073593602480096,-6.341830296625097,-4.349029479320792
6.598070175438596,5.034087085182838,-6.3722792221517635,-4.344307968716973
6.606067836257309,4.99458056788558,-6.402728147678431,-4.339586458113154
6.614065497076023,4.955074050588318,-6.433177073205101,-4.3348649475093355
6.622063157894736,4.91556753329106,-6.463625998731768,-4.330143436905517
6.630060818713449,5.716325146198739,-6.8322801169590965,-4.950216374268988
6.638058479532163,5.743111614160856,-6.733866503175507,-5.084592089542843
6.646056140350876,5.662791020562168,-6.661199584983974,-5.215564534993382
6.65405380116959,5.582470426963471,-6.588532666792433,-5.346536980443934
6.662051461988304,5.502149833364782,-6.5158657486009,-5.477509425894473
6.670049122807017,5.421829239766093,-6.443198830409367,-5.6084818713450115
6.678046783625731,5.341508646167395,-6.370531912217825,-5.739454316795564
6.686044444444444,5.2611880525687065,-6.297864994026292,-5.870426762246103
6.694042105263158,5.180867458970009,-6.225198075834751,-6.001399207696656
6.702039766081871,5.10054686537132,-6.152531157643218,-6.132371653147194
6.710037426900584,5.020226271772631,-6.079864239451685,-6.263344098597733
6.718035087719298,4.9399056781739334,-6.0071973212601435,-6.394316544048285
6.726032748538011,4.951776023391775,-6.034070760233876,-6.5312444444444235
6.734030409356724,5.085165667641341,-5.94561715399609,-6.091706798245621
6.742028070175438,4.986277923976616,-6.020261988304088,-6.047469736842109
6.750025730994151,4.887390180311902,-6.094906822612077,-6.003232675438602
6.758023391812865,4.788502436647177,-6.169551656920075,-5.958995614035089
6.7660210526315785,4.689614692982463,-6.244196491228065,-5.914758552631582
6.774018713450292,4.590726949317749,-6.318841325536055,-5.870521491228075
6.782016374269006,4.491839205653024,-6.393486159844053,-5.826284429824563
6.790014035087719,4.39295146198831,-6.468130994152043,-5.782047368421056
6.798011695906432,4.294063718323596,-6.542775828460032,-5.737810307017548
6.806009356725146,4.195175974658871,-6.61742066276803,-5.693573245614036
6.814007017543859,4.096288230994157,-6.69206549707602,-5.6493361842105285
6.822004678362573,3.997400487329432,-6.766710331384018,-5.605099122807016
6.830002339181286,4.305339181286508,-6.422658479532206,-5.6586506265664065
6.838,4.988,-5.452,-6.015
