gyro_time_list,gyro_x_list,gyro_y_list,gyro_z_list
0.0,-0.2,0.1,0.2
0.007999007936507938,-0.3499503968253969,0.1499503968253969,0.10019841269841237
0.015998015873015876,-0.28214994331065757,0.0910749716553288,0.0955374858276644
0.023997023809523815,-0.2535820578231292,0.07679102891156461,0.08839551445578231
0.03199603174603175,-0.22501417233560086,0.06250708616780044,0.08125354308390023
0.03999503968253969,-0.19644628684807253,0.048223143424036274,0.07411157171201814
0.04799404761904763,-0.16787840136054413,0.03393920068027208,0.06696960034013605
0.05599305555555557,-0.13931051587301582,0.019655257936507922,0.059827628968253964
0.0639920634920635,-0.11074263038548746,0.005371315192743739,0.05268565759637187
0.07199107142857145,-0.08217474489795909,-0.008912627551020444,0.04554368622448978
0.07999007936507938,-0.05360685941043075,-0.023196570294784613,0.038401714852607696
0.08798908730158732,-0.025038973922902386,-0.037480513038548796,0.031259743480725605
0.09598809523809526,0.0035289115646259805,-0.05176445578231298,0.024117772108843513
0.10398710317460319,0.03209679705215429,-0.06604839852607713,0.016975800736961436
0.11198611111111113,0.06066468253968266,-0.08033234126984132,0.009833829365079344
0.11998511904761906,0.08923256802721097,-0.09461628401360547,0.0026918579931972664
0.127984126984127,-0.09920634920635016,0.0,-0.1
0.13598313492063493,-0.10790409398082668,0.0,-0.1
0.1439821428571429,-0.11582390381895336,0.0,-0.1
0.15198115079365082,-0.12374371365708002,0.0,-0.1
0.15998015873015875,-0.13166352349520669,0.0,-0.1
0.1679791666666667,-0.1395833333333334,0.0,-0.1
0.17597817460317464,-0.14750314317146004,0.0,-0.1
0.18397718253968257,-0.1554229530095867,0.0,-0.1
0.19197619047619052,-0.16334276284771337,0.0,-0.1
0.19997519841269845,-0.17126257268584005,0.0,-0.1
0.20797420634920638,-0.17918238252396673,0.0,-0.1
0.2159732142857143,-0.18710219236209338,0.0,-0.1
0.22397222222222227,-0.19502200220022006,0.0,-0.1
0.2319712301587302,-0.0014384920634907816,-0.1,-0.0014384920634907816
0.23997023809523813,-0.04851190476190671,-0.05148809523809329,0.0
0.24796924603174608,-0.10725963128306884,0.0,0.0
0.255968253968254,-0.11559193121693127,0.0,0.0
0.26396726190476194,-0.12392423115079369,0.0,0.0
0.27196626984126987,-0.13225653108465613,0.0,0.0
0.2799652777777778,-0.14058883101851855,0.0,0.0
0.2879642857142858,-0.14892113095238102,0.0,0.0
0.2959632936507937,-0.15725343088624344,0.0,0.0
0.30396230158730164,-0.16558573082010586,0.0,0.0
0.31196130952380957,-0.17391803075396828,0.0,0.0
0.3199603174603175,-0.1822503306878307,0.0,0.0
0.32795932539682543,-0.19058263062169314,0.0,0.0
0.3359583333333334,-0.19891493055555562,0.0,0.0
0.34395734126984134,-0.2,0.0,0.0
0.3519563492063493,-0.6724537037037088,0.12463624338624411,0.1
0.3599553571428572,-1.139062500000004,0.19129464285714348,0.1
0.36795436507936513,-1.3209454796411328,0.23023636991028323,0.07984242005981118
0.37595337301587306,-1.4600586611456186,0.26501466528640466,0.05665688980906356
0.38395238095238104,-1.5991718426501054,0.29979296066252636,0.033471359558315775
0.391951388888889,-1.738285024154591,0.3345712560386478,0.010285829307568162
0.3999503968253969,-1.8773982056590768,0.3693495514147692,-0.012899700943179465
0.40794940476190483,-2.0165113871635625,0.40412784679089064,-0.03608523119392709
0.41594841269841276,-2.155624568668048,0.43890614216701207,-0.05927076144467469
0.4239474206349207,-2.294737750172534,0.4736844375431335,-0.08245629169542232
0.4319464285714286,-3.567857142857175,0.889285714285725,0.5812500000000187
0.4399454365079366,-3.802114604899931,0.6063438146997933,1.3084584195997244
0.44794444444444453,-3.8108091787439613,0.6324275362318843,1.3432367149758457
0.45594345238095246,-3.8195037525879916,0.6585112577639753,1.3780150103519673
0.4639424603174604,-3.828198326432022,0.6845949792960665,1.4127933057280886
0.4719414682539683,-3.8368929002760526,0.7106787008281575,1.4475716011042101
0.47994047619047625,-3.845587474120083,0.7367624223602486,1.4823498964803314
0.48793948412698424,-3.854282047964113,0.7628461438923398,1.5171281918564532
0.49593849206349216,-3.8629766218081434,0.7889298654244309,1.5519064872325745
0.5039375,-3.8716711956521737,0.8150135869565218,1.5866847826086956
0.511936507936508,-3.8803657694962044,0.8410973084886131,1.6214630779848174
0.519935515873016,-3.8890603433402346,0.8671810300207043,1.6562413733609391
0.5279345238095239,-3.897754917184265,0.8932647515527952,1.6910196687370602
0.5359335317460319,-4.80803571428573,0.6213293650793633,2.23601190476191
0.5439325396825397,-6.41268561187916,0.5957714627069466,2.908457074586107
0.5519315476190477,-6.438488863287251,0.5871703789042497,2.9256592421915
0.5599305555555556,-6.464292114695341,0.5785692951015531,2.9428614097968935
0.5679295634920636,-6.490095366103431,0.5699682112988563,2.960063577402287
0.5759285714285716,-6.515898617511521,0.5613671274961596,2.977265745007681
0.5839275793650794,-6.541701868919612,0.5527660436934629,2.994467912613074
0.5919265873015874,-6.567505120327701,0.5441649598907662,3.0116700802184675
0.5999255952380953,-6.593308371735792,0.5355638760880695,3.0288722478238608
0.6079246031746033,-6.619111623143882,0.5269627922853728,3.0460744154292545
0.6159236111111113,-6.644914874551972,0.518361708482676,3.063276583034648
0.6239226190476191,-6.670718125960062,0.5097606246799794,3.080478750640041
0.6319216269841271,-6.6965213773681525,0.5011595408772826,3.097680918245435
0.639920634920635,-6.131746031746005,0.3079365079365013,3.538095238095248
0.647919642857143,-4.6,0.09414978678038363,4.111700426439232
0.6559186507936509,-4.6,0.08221096896470023,4.135578062070599
0.6639176587301588,-4.6,0.07027215114901667,4.159455697701967
0.6719166666666668,-4.6,0.05833333333333309,4.183333333333334
0.6799156746031747,-4.6,0.046394515517649684,4.2072109689647
0.6879146825396827,-4.6,0.03445569770196612,4.231088604596067
0.6959136904761906,-4.6,0.022516879886282717,4.254966240227434
0.7039126984126985,-4.6,0.01057806207059915,4.278843875858802
0.7119117063492064,-4.619536564625852,-0.006512188208617521,4.306512188208617
0.7199107142857144,-4.790943877551023,-0.06364795918367451,4.363647959183675
0.7279097222222224,-5.624810606060611,-0.3041351010101018,4.495864898989898
0.7359087301587303,-5.842965367965371,-0.3404942279942285,4.459505772005771
0.7439077380952382,-6.061120129870134,-0.3768533549783557,4.423146645021645
0.7519067460317461,-6.186758708112874,-0.6079447751322755,4.297351741622575
0.7599057539682541,-6.131210041887124,-0.6412739748677254,4.286242008377425
0.7679047619047621,-6.075661375661374,-0.6746031746031754,4.2751322751322745
0.77590376984127,-6.020112709435625,-0.7079323743386249,4.264022541887125
0.783902777777778,-5.964564043209875,-0.7412615740740749,4.252912808641975
0.7919017857142858,-5.909015376984126,-0.7745907738095243,4.241803075396826
0.7999007936507938,-5.853466710758377,-0.8079199735449744,4.2306933421516755
0.8078998015873017,-5.7979180445326275,-0.8412491732804238,4.219583608906525
0.8158988095238097,-5.742369378306877,-0.8745783730158738,4.208473875661376
0.8238978174603176,-4.751091269841153,-0.8051091269841153,3.9153273809523457
0.8318968253968255,-3.2114169215086625,-0.6810179117518562,3.574690549002475
0.8398958333333335,-3.1086773700305783,-0.659002293577981,3.545336391437308
0.8478948412698414,-3.0059378185524954,-0.6369866754041063,3.515982233872142
0.8558938492063494,-2.9031982670744116,-0.614971057230231,3.486628076306975
0.8638928571428572,-2.8004587155963288,-0.5929554390563562,3.4572739187418082
0.8718918650793652,-2.6977191641182445,-0.570939820882481,3.4279197611766414
0.8798908730158732,-2.5949796126401603,-0.5489242027086059,3.3985656036114746
0.8878898809523811,-2.492240061162078,-0.526908584534731,3.3692114460463083
0.8958888888888891,-2.3895005096839936,-0.5048929663608559,3.3398572884811415
0.9038878968253969,-2.286760958205911,-0.48287734818698097,3.3105031309159747
0.9118869047619049,-2.184021406727827,-0.4608617300131058,3.281148973350808
0.9198859126984128,-2.0812818552497445,-0.43884611183923095,3.2517948157856416
0.9278849206349208,-1.9785423037716603,-0.4168304936653558,3.2224406582204743
0.9358839285714288,-0.2906249999999497,0.032589285714307276,2.434821428571386
0.9438829365079366,0.2,0.2978843410023183,0.9978843410023184
0.9518819444444446,0.2,0.2888966916354554,0.9888966916354555
0.9598809523809525,0.2,0.27990904226859264,0.9799090422685927
0.9678799603174605,0.2,0.27092139290172973,0.9709213929017297
0.9758789682539685,0.2,0.2619337435348668,0.9619337435348668
0.9838779761904763,0.2,0.25294609416800407,0.952946094168004
0.9918769841269843,0.2,0.24395844480114112,0.9439584448011411
0.9998759920634922,0.2,0.23497079543427835,0.9349707954342783
1.007875,0.2,0.22598314606741557,0.9259831460674156
1.015874007936508,0.2,0.21699549670055268,0.9169954967005527
1.023873015873016,0.2,0.20800784733368977,0.9080078473336898
1.031872023809524,0.2,0.11279761904758868,0.8563988095237943
1.039871031746032,0.09914604730781168,-0.19914604730781169,0.4991460473078117
1.0478700396825398,0.09130388266417663,-0.19130388266417664,0.4913038826641766
1.0558690476190478,0.08346171802054135,-0.18346171802054137,0.48346171802054133
1.0638680555555557,0.07561955337690608,-0.1756195533769061,0.4756195533769061
1.0718670634920637,0.0677773887332708,-0.1677773887332708,0.4677773887332708
1.0798660714285717,0.05993522408963554,-0.15993522408963554,0.45993522408963555
1.0878650793650795,0.052093059446000484,-0.1520930594460005,0.4520930594460005
1.0958640873015875,0.04425089480236521,-0.14425089480236522,0.44425089480236524
1.1038630952380954,0.03640873015872993,-0.13640873015872995,0.43640873015872994
1.1118621031746034,0.028566565515094663,-0.12856656551509466,0.42856656551509464
1.1198611111111112,0.020724400871459603,-0.12072440087145961,0.4207244008714596
1.1278601190476192,0.012882236227824334,-0.11288223622782434,0.4128822362278244
1.1358591269841272,0.005040071584189065,-0.10504007158418907,0.4050400715841891
1.1438581349206352,-0.14290674603175668,-0.1,0.25709325396824334
1.1518571428571431,-0.2571428571428592,-0.04285714285714074,0.2
1.159856150793651,-0.3,0.0,0.1809589947089941
1.1678551587301589,-0.3,0.0,0.12763227513227385
1.1758541666666669,-0.30664511494252916,0.0,0.1
1.1838531746031749,-0.32043650793650846,0.0,0.1
1.1918521825396828,-0.3342279009304877,0.0,0.1
1.1998511904761906,-0.3480192939244666,0.0,0.1
1.2078501984126986,-0.3618106869184459,0.0,0.1
1.2158492063492066,-0.37560207991242517,0.0,0.1
1.2238482142857146,-0.38939347290640447,0.0,0.1
1.2318472222222225,-0.35763888888887785,0.04236111111112214,0.1
1.2398462301587303,-0.09902732165663196,0.1,0.10097267834336805
1.2478452380952383,-0.08983305966064577,0.1,0.11016694033935424
1.2558442460317463,-0.08063879766465958,0.1,0.11936120233534044
1.2638432539682543,-0.07144453566867337,0.1,0.12855546433132664
1.271842261904762,-0.06225027367268744,0.1,0.13774972632731258
1.27984126984127,-0.053056011676701244,0.1,0.14694398832329877
1.287840277777778,-0.04386174968071505,0.1,0.15613825031928497
1.295839285714286,-0.034667487684728854,0.1,0.16533251231527116
1.303838293650794,-0.025473225688742662,0.1,0.17452677431125735
1.3118373015873017,-0.01627896369275672,0.1,0.1837210363072433
1.3198363095238097,-0.007084701696770529,0.1,0.19291529830322948
1.3278353174603177,0.0,0.1,0.2
1.3358343253968257,-0.19612694404361053,0.1,0.19612694404361053
1.3438333333333337,-0.1880471380471378,0.1,0.1880471380471378
1.3518323412698414,-0.1799673320506653,0.1,0.1799673320506653
1.3598313492063494,-0.1718875260541926,0.1,0.1718875260541926
1.3678303571428574,-0.16380772005771987,0.1,0.16380772005771987
1.3758293650793654,-0.15572791406124717,0.1,0.15572791406124717
1.3838283730158734,-0.14764810806477446,0.1,0.14764810806477446
1.3918273809523811,-0.13956830206830195,0.1,0.13956830206830195
1.399826388888889,-0.13148849607182925,0.1,0.13148849607182925
1.407825396825397,-0.12340869007535654,0.1,0.12340869007535654
1.415824404761905,-0.11532888407888382,0.1,0.11532888407888382
1.4238234126984128,-0.10724907808241134,0.1,0.10724907808241134
1.4318224206349208,-0.1,0.1,0.1
1.4398214285714288,0.10266172506738562,0.1,0.0
1.4478204365079368,0.11020795896975166,0.1,0.0
1.4558194444444448,0.11775419287211769,0.1,0.0
1.4638184523809525,0.12530042677448353,0.1,0.0
1.4718174603174605,0.13284666067684955,0.1,0.0
1.4798164682539685,0.14039289457921558,0.1,0.0
1.4878154761904765,0.1479391284815816,0.1,0.0
1.4958144841269845,0.15548536238394764,0.1,0.0
1.5038134920634922,0.16303159628631347,0.1,0.0
1.5118125000000002,0.1705778301886795,0.1,0.0
1.5198115079365082,0.17812406409104553,0.1,0.0
1.5278105158730162,0.18567029799341156,0.1,0.0
1.5358095238095242,0.1932165318957776,0.1,0.0
1.543808531746032,0.2404265873016007,0.14042658730160074,-0.040426587301600724
1.55180753968254,0.3,0.2,-0.1
1.559806547619048,0.5024440836940848,0.2,-0.2012220418470424
1.567805555555556,0.5266835016835029,0.2,-0.21334175084175144
1.5758045634920637,0.5509229196729203,0.2,-0.22546145983646015
1.5838035714285716,0.5751623376623384,0.2,-0.2375811688311692
1.5918025793650796,0.5994017556517565,0.2,-0.24970087782587827
1.5998015873015876,0.6236411736411747,0.2,-0.26182058682058734
1.6078005952380956,0.6478805916305928,0.2,-0.2739402958152964
1.6157996031746034,0.6721200096200102,0.2,-0.2860600048100051
1.6237986111111113,0.6963594276094283,0.2,-0.29817971380471414
1.6317976190476193,0.9474702380952429,0.2,-0.4
1.6397966269841273,0.9,0.19814780723285835,-0.39814780723285836
1.6477956349206353,0.9,0.18990140729831406,-0.3899014072983141
1.655794642857143,0.9,0.18165500736377,-0.38165500736377
1.663793650793651,0.9,0.1734086074292257,-0.37340860742922566
1.671792658730159,0.9,0.16516220749468138,-0.36516220749468137
1.679791666666667,0.9,0.1569158075601371,-0.3569158075601371
1.6877906746031748,0.9,0.14866940762559303,-0.348669407625593
1.6957896825396828,0.9,0.14042300769104873,-0.3404230076910487
1.7037886904761907,0.9,0.13217660775650442,-0.3321766077565044
1.7117876984126987,0.9,0.12393020782196014,-0.32393020782196014
1.7197867063492067,0.9,0.11568380788741583,-0.3156838078874158
1.7277857142857145,0.9,0.10743740795287177,-0.3074374079528717
1.7357847222222225,0.8607638888888817,0.060763888888881686,-0.3
1.7437837301587304,0.4,0.0,-0.5
1.7517827380952384,0.4,0.0,-0.5
1.7597817460317464,0.4,0.0,-0.5
1.7677807539682542,0.4,0.0,-0.5
1.7757797619047622,0.4,0.0,-0.5
1.7837787698412702,0.4,0.0,-0.5
1.7917777777777781,0.4,0.0,-0.5
1.7997767857142861,0.4,0.0,-0.5
1.8077757936507939,0.4,0.0,-0.5
1.8157748015873019,0.4,0.0,-0.5
1.8237738095238099,0.4,0.0,-0.5
1.8317728174603178,0.4154563492063572,0.0,-0.5154563492063572
1.8397718253968256,0.5,0.0,-0.6
1.8477708333333336,0.49309098639455756,0.0,-0.6
1.8557698412698416,0.4849287333981208,0.0,-0.6
1.8637688492063496,0.4767664804016841,0.0,-0.6
1.8717678571428575,0.46860422740524743,0.0,-0.6
1.8797668650793653,0.4604419744088109,0.0,-0.6
1.8877658730158733,0.4522797214123742,0.0,-0.6
1.8957648809523813,0.4441174684159375,0.0,-0.6
1.9037638888888893,0.4359552154195008,0.0,-0.6
1.9117628968253972,0.4277929624230641,0.0,-0.6
1.919761904761905,0.4196307094266276,0.0,-0.6
1.927760912698413,0.4114684564301909,0.0,-0.6
1.935759920634921,0.4033062034337542,0.0,-0.6
1.943758928571429,0.3749530075187952,-0.02504699248120486,-0.6
1.951757936507937,0.3328529657477003,-0.06714703425229973,-0.6
1.9597569444444447,0.21215277777776304,-0.1,-0.6
1.9677559523809527,0.0,-0.2,-0.5
1.9757549603174607,0.0,-0.2,-0.5
1.9837539682539687,0.0,-0.2,-0.5
1.9917529761904764,0.0,-0.2,-0.5
1.9997519841269844,0.0,-0.2,-0.5
2.0077509920634924,0.0,-0.2,-0.5
2.01575,0.0,-0.2,-0.5
2.0237490079365084,0.0,-0.2,-0.5
2.031748015873016,0.0,-0.2,-0.5
2.0397470238095243,-0.3,-0.2,-0.11264880952378392
2.047746031746032,-0.29139329805996433,-0.2,-0.08278659611992874
2.05574503968254,-0.2825055114638446,-0.2,-0.06501102292768923
2.063744047619048,-0.27361772486772434,-0.2,-0.04723544973544875
2.071743055555556,-0.2647299382716046,-0.2,-0.02945987654320925
2.079742063492064,-0.25584215167548435,-0.2,-0.011684303350968761
2.087741071428572,-0.24695436507936463,-0.2,0.006091269841270744
2.0957400793650796,-0.23806657848324486,-0.2,0.02386684303351025
2.1037390873015878,-0.22917879188712464,-0.2,0.04164241622575074
2.1117380952380955,-0.22029100529100487,-0.2,0.05941798941799023
2.1197371031746037,-0.21140321869488465,-0.2,0.07719356261023072
2.1277361111111115,-0.20251543209876488,-0.2,0.09496913580247021
2.1357351190476193,-0.2,-0.2,0.8735119047619389
2.1437341269841275,-0.1934620126367695,-0.2,1.013075974726461
2.1517331349206352,-0.18569598551394642,-0.2,1.0286080289721071
2.1597321428571434,-0.17792995839112294,-0.2,1.044140083217754
2.167731150793651,-0.1701639312682999,-0.2,1.0596721374634002
2.175730158730159,-0.16239790414547683,-0.2,1.0752041917090462
2.183729166666667,-0.15463187702265335,-0.2,1.0907362459546932
2.191728174603175,-0.1468658498998303,-0.2,1.1062683002003395
2.1997271825396827,-0.13909982277700722,-0.2,1.1218003544459856
2.207726190476191,-0.13133379565418374,-0.2,1.1373324086916325
2.2157251984126987,-0.1235677685313607,-0.2,1.1528644629372786
2.223724206349207,-0.1158017414085372,-0.2,1.1683965171829256
2.2317232142857146,-0.10803571428571415,-0.2,1.1839285714285717
2.2397222222222224,-0.1002696871628911,-0.2,1.1994606256742177
2.2477212301587306,0.03023589065256137,-0.06976410934743864,1.3
2.2557202380952384,0.2,0.1,1.2
2.2637192460317466,0.2,0.1,1.2
2.2717182539682543,0.2,0.1,1.2
2.279717261904762,0.2,0.1,1.2
2.2877162698412703,0.2,0.1,1.2
2.295715277777778,0.2,0.1,1.2
2.3037142857142863,0.2,0.1,1.2
2.311713293650794,0.2,0.1,1.2
2.319712301587302,0.2,0.1,1.2
2.32771130952381,0.2,0.1,1.2
2.3357103174603178,0.11448412698410611,0.014484126984106102,1.1144841269841061
2.343709325396826,-0.6086263381321537,-0.2,0.7956868309339232
2.3517083333333337,-0.6272286821705438,-0.2,0.7863856589147281
2.3597073412698415,-0.6458310262089338,-0.2,0.7770844868955331
2.3677063492063497,-0.664433370247325,-0.2,0.7677833148763376
2.3757053571428575,-0.6830357142857151,-0.2,0.7584821428571424
2.3837043650793657,-0.7016380583241062,-0.2,0.7491809708379469
2.3917033730158734,-0.7202404023624963,-0.2,0.7398797988187519
2.399702380952381,-0.7388427464008864,-0.2,0.7305786267995568
2.4077013888888894,-0.7574450904392775,-0.2,0.7212774547803612
2.415700396825397,-0.7760474344776676,-0.2,0.7119762827611662
2.4236994047619054,-0.7946497785160587,-0.2,0.7026751107419706
2.431698412698413,-0.9,-0.3,0.5767195767195646
2.439697420634921,-0.8959504994526545,-0.29595049945265445,0.3959504994526545
2.447696428571429,-0.8890548029556646,-0.2890548029556646,0.38905480295566464
2.455695436507937,-0.8821591064586752,-0.28215910645867515,0.3821591064586752
2.463694444444445,-0.8752634099616854,-0.27526340996168536,0.3752634099616854
2.471693452380953,-0.8683677134646959,-0.2683677134646959,0.36836771346469593
2.4796924603174606,-0.8614720169677065,-0.26147201696770644,0.3614720169677065
2.487691468253969,-0.8545763204707166,-0.25457632047071665,0.35457632047071663
2.4956904761904766,-0.8476806239737272,-0.2476806239737272,0.3476806239737272
2.5036894841269843,-0.8407849274767378,-0.24078492747673774,0.3407849274767377
2.5116884920634925,-0.833889230979748,-0.2338892309797479,0.33388923097974793
2.5196875000000003,-0.8269935344827585,-0.22699353448275847,0.3269935344827585
2.5276865079365085,-0.8200978379857686,-0.22009783798576865,0.32009783798576863
2.5356855158730163,-0.8132021414887792,-0.2132021414887792,0.31320214148877923
2.543684523809524,-0.8063064449917898,-0.20630644499178977,0.3063064449917897
2.5516835317460322,-0.731646825396784,-0.13164682539678405,0.3
2.55968253968254,-0.6978190734288292,0.0,0.4
2.567681547619048,-0.6913158149438632,0.0,0.4
2.575680555555556,-0.6848125564588975,0.0,0.4
2.5836795634920637,-0.6783092979739319,0.0,0.4
2.591678571428572,-0.6718060394889659,0.0,0.4
2.5996775793650797,-0.6653027810040002,0.0,0.4
2.607676587301588,-0.6587995225190342,0.0,0.4
2.6156755952380957,-0.6522962640340686,0.0,0.4
2.6236746031746034,-0.6457930055491029,0.0,0.4
2.6316736111111116,-0.6392897470641369,0.0,0.4
2.6396726190476194,-0.6327864885791713,0.0,0.4
2.6476716269841276,-0.6262832300942053,0.0,0.4
2.6556706349206354,-0.6197799716092396,0.0,0.4
2.663669642857143,-0.613276713124274,0.0,0.4
2.6716686507936513,-0.606773454639308,0.0,0.4
2.679667658730159,-0.6002701961543423,0.0,0.4
2.6876666666666673,-0.2,0.2,0.2848484848484786
2.695665674603175,-0.2,0.2,0.21213023088022703
2.703664682539683,-0.2,0.2,0.2
2.711663690476191,-0.1888959750566877,0.21110402494331232,0.1888959750566877
2.719662698412699,-0.16985071806500268,0.23014928193499734,0.16985071806500268
2.727661706349207,-0.1508054610733166,0.24919453892668342,0.1508054610733166
2.735660714285715,-0.13176020408163155,0.26823979591836844,0.13176020408163155
2.7436597222222225,-0.11271494708994652,0.28728505291005346,0.11271494708994652
2.7516587301587307,-0.1,0.3,0.1
2.7596577380952385,0.004812813283208848,0.3,0.09518718671679116
2.7676567460317467,0.015337823725982797,0.3,0.0846621762740172
2.7756557539682545,0.02586283416875616,0.3,0.07413716583124384
2.7836547619047622,0.036387844611529524,0.3,0.06361215538847048
2.7916537698412704,0.046912855054303475,0.3,0.05308714494569653
2.799652777777778,0.057437865497076836,0.3,0.04256213450292317
2.807651785714286,0.0679628759398502,0.3,0.0320371240601498
2.815650793650794,0.07848788638262415,0.3,0.021512113617375858
2.823649801587302,0.08901289682539751,0.3,0.010987103174602497
2.83164880952381,0.09953790726817147,0.3,0.0004620927318285395
2.839647817460318,0.5018107884179317,0.19637842316413662,-0.2018107884179317
2.8476468253968257,0.5106009070294787,0.1787981859410426,-0.21060090702947873
2.855645833333334,0.5193910256410262,0.1612179487179476,-0.21939102564102622
2.8636448412698416,0.5281811442525732,0.14363771149485355,-0.22818114425257324
2.87164384920635,0.5369712628641208,0.12605747427175854,-0.23697126286412074
2.8796428571428576,0.5457613814756678,0.1084772370486645,-0.24576138147566776
2.8876418650793654,0.5545515000872148,0.09089699982557047,-0.2545515000872148
2.8956408730158736,0.5633416186987623,0.07331676260247547,-0.26334161869876227
2.9036398809523813,0.5721317373103093,0.055736525379381424,-0.27213173731030926
2.9116388888888896,0.5809218559218567,0.03815628815628641,-0.2809218559218568
2.9196378968253973,0.5897119745334037,0.02057605093319237,-0.2897119745334038
2.927636904761905,0.5985020931449508,0.0029958137100983273,-0.2985020931449508
2.9356359126984133,0.5817956349206651,-0.18179563492066514,-1.181795634920665
2.943634920634921,0.6,-0.2073412698412703,-1.2073412698412702
2.9516339285714293,0.6,-0.21503262362637432,-1.2150326236263742
2.959632936507937,0.6,-0.22272397741147795,-1.222723977411478
2.967631944444445,0.6,-0.23041533119658156,-1.2304153311965815
2.975630952380953,0.6,-0.23810668498168558,-1.2381066849816855
2.9836299603174607,0.6,-0.24579803876678918,-1.2457980387667893
2.991628968253969,0.6,-0.25348939255189323,-1.2534893925518933
2.9996279761904767,0.6,-0.26118074633699684,-1.2611807463369968
3.0076269841269845,0.6,-0.26887210012210044,-1.2688721001221004
3.0156259920634927,0.6,-0.2765634539072045,-1.2765634539072046
3.0236250000000005,0.6,-0.2842548076923081,-1.2842548076923082
3.0316240079365087,0.6,-0.29194616147741215,-1.2919461614774121
3.0396230158730164,0.6,-0.29963751526251575,-1.299637515262516
3.047622023809524,0.37050865800864824,-0.2852543290043241,-1.629491341991352
3.0556210317460324,0.225072150072137,-0.21253607503606853,-1.7749278499278631
3.06362003968254,0.2,-0.2,-1.8095942604094786
3.0716190476190484,0.2,-0.2,-1.8211870255348528
3.079618055555556,0.2,-0.2,-1.8327797906602263
3.087617063492064,0.2,-0.2,-1.8443725557855999
3.095616071428572,0.2,-0.2,-1.855965320910974
3.10361507936508,0.2,-0.2,-1.8675580860363477
3.1116140873015876,0.2,-0.2,-1.8791508511617212
3.119613095238096,0.2,-0.2,-1.8907436162870954
3.1276121031746036,0.2322420634920746,-0.1677579365079254,-1.9322420634920745
3.135611111111112,0.6611111111111801,-0.1,-1.9388888888888198
3.1436101190476196,0.7081829237071177,-0.10818292370711768,-1.8836341525857645
3.1516091269841273,0.7167840075098142,-0.1167840075098142,-1.8664319849803714
3.1596081349206355,0.7253850913125112,-0.1253850913125112,-1.8492298173749775
3.1676071428571433,0.7339861751152077,-0.13398617511520772,-1.8320276497695844
3.1756061507936515,0.7425872589179047,-0.14258725891790472,-1.8148254821641905
3.1836051587301593,0.7511883427206012,-0.15118834272060125,-1.7976233145587974
3.191604166666667,0.7597894265232977,-0.15978942652329775,-1.7804211469534044
3.1996031746031752,0.7683905103259948,-0.16839051032599478,-1.7632189793480104
3.207602182539683,0.7769915941286913,-0.17699159412869128,-1.7460168117426174
3.215601190476191,0.7855926779313883,-0.18559267793138828,-1.7288146441372234
3.223600198412699,0.7941937617340848,-0.1941937617340848,-1.7116124765318304
3.2315992063492067,0.640079365079335,-0.2,-1.3801587301586702
3.239598214285715,0.09031954887217886,-0.29515977443608943,-0.8854793233082683
3.2475972222222227,0.0734795321637415,-0.28673976608187074,-0.8602192982456123
3.255596230158731,0.056639515455303206,-0.2783197577276516,-0.8349592731829548
3.2635952380952387,0.03979949874686584,-0.2698997493734329,-0.8096992481202988
3.2715942460317464,0.022959482038428472,-0.26147974101921423,-0.7844392230576427
3.2795932539682546,0.0061194653299901786,-0.2530597326649951,-0.7591791979949853
3.2875922619047624,-0.010720551378447185,-0.2446397243107764,-0.7339191729323292
3.2955912698412706,-0.02756056808688548,-0.23621971595655727,-0.7086591478696718
3.3035902777777784,-0.04440058479532283,-0.22779970760233859,-0.6833991228070158
3.311589285714286,-0.061240601503760206,-0.21937969924811992,-0.6581390977443597
3.3195882936507943,-0.0780806182121985,-0.21095969089390076,-0.6328790726817023
3.327587301587302,-0.09492063492063585,-0.2025396825396821,-0.6076190476190462
3.3355863095238103,-0.14136904761896,-0.04136904761895999,0.37589285714312004
3.343585317460318,-0.1,0.0,0.5140468841857745
3.351584325396826,-0.1,0.0,0.528859861845974
3.359583333333334,-0.1,0.0,0.5436728395061744
3.367582341269842,-0.1,0.0,0.5584858171663739
3.3755813492063496,-0.1,0.0,0.5732987948265734
3.3835803571428578,-0.1,0.0,0.5881117724867738
3.3915793650793655,-0.1,0.0,0.6029247501469733
3.3995783730158737,-0.1,0.0,0.6177377278071737
3.4075773809523815,-0.1,0.0,0.6325507054673732
3.4155763888888893,-0.1,0.0,0.6473636831275729
3.4235753968253975,-0.1,0.0,0.6621766607877732
3.4315744047619052,-0.1,0.0,0.6769896384479728
3.4395734126984134,-0.1,0.0,0.6918026161081731
3.447572420634921,-0.1,0.07862103174605983,1.2358630952381795
3.455571428571429,-0.15824175824176204,0.04175824175823797,1.5329670329670482
3.463570436507937,-0.22856040564374686,0.0,1.7856812169312404
3.471569444444445,-0.3024911816578488,-0.0024911816578487953,2.002491181657849
3.479568452380953,-0.3151880196523063,-0.015188019652306322,2.015188019652306
3.487567460317461,-0.3278848576467631,-0.027884857646763146,2.027884857646763
3.4955664682539687,-0.34058169564122,-0.04058169564121997,2.04058169564122
3.503565476190477,-0.3532785336356775,-0.05327853363567749,2.0532785336356776
3.5115644841269846,-0.3659753716301343,-0.06597537163013431,2.0659753716301346
3.519563492063493,-0.37867220962459186,-0.07867220962459184,2.078672209624592
3.5275625000000006,-0.39136904761904867,-0.09136904761904867,2.0913690476190485
3.5355615079365084,-0.3775396825396707,-0.06630952380950603,1.9775396825396707
3.5435605158730166,0.20065176264304235,0.39869647471391534,1.1986964747139153
3.5515595238095243,0.20995293466223744,0.38009413067552517,1.180094130675525
3.5595585317460325,0.21925410668143305,0.36149178663713394,1.161491786637134
3.5675575396825403,0.22855527870062814,0.34288944259874377,1.1428894425987437
3.575556547619048,0.23785645071982323,0.3242870985603536,1.1242870985603535
3.5835555555555563,0.2471576227390188,0.30568475452196237,1.1056847545219624
3.591554563492064,0.2564587947582139,0.2870824104835722,1.0870824104835721
3.5995535714285722,0.26575996677740954,0.26848006644518096,1.068480066445181
3.60755257936508,0.2750611387966046,0.2498777224067908,1.0498777224067908
3.6155515873015878,0.28436231081579966,0.23127537836840062,1.0312753783684006
3.623550595238096,0.29366348283499527,0.2126730343300094,1.0126730343300094
3.6315496031746037,-0.032440476190550294,-0.15496031746036687,0.8225198412698166
3.639548611111112,-0.9137836700336732,-0.4,0.5954054433221089
3.6475476190476197,-0.9380230880230906,-0.4,0.5873256373256365
3.6555466269841275,-0.962262506012508,-0.4,0.579245831329164
3.6635456349206357,-0.9865019240019268,-0.4,0.5711660253326911
3.6715446428571434,-1.0107413419913442,-0.4,0.5630862193362186
3.679543650793651,-1.0349807599807617,-0.4,0.5550064133397461
3.6875426587301594,-1.0592201779701804,-0.4,0.5469266073432733
3.695541666666667,-1.0834595959595976,-0.4,0.5388468013468007
3.7035406746031754,-1.1076990139490164,-0.4,0.5307669953503278
3.711539682539683,-1.1319384319384338,-0.4,0.5226871893538554
3.719538690476191,-1.1561778499278512,-0.4,0.5146073833573829
3.727537698412699,-1.18041726791727,-0.4,0.5065275773609099
3.735536706349207,-1.2,-0.32316468253966435,0.5
3.743535714285715,-0.6898008241758224,-0.09660027472527416,0.6
3.751534722222223,-0.6667267628205115,-0.08890892094017051,0.6
3.7595337301587306,-0.6436527014652006,-0.08121756715506687,0.6
3.767532738095239,-0.6205786401098884,-0.0735262133699628,0.6
3.7755317460317466,-0.5975045787545774,-0.06583485958485916,0.6
3.783530753968255,-0.5744305173992652,-0.05814350579975509,0.6
3.7915297619047625,-0.5513564560439543,-0.05045215201465144,0.6
3.7995287698412703,-0.5282823946886434,-0.04276079822954779,0.6
3.8075277777777785,-0.5052083333333311,-0.03506944444444372,0.6
3.8155267857142863,-0.4821342719780202,-0.027378090659340076,0.6
3.8235257936507945,-0.459060210622708,-0.019686736874236013,0.6
3.8315248015873022,-0.4359861492673971,-0.011995383089132367,0.6
3.83952380952381,-0.41291208791208617,-0.00430402930402872,0.6
3.847522817460318,-0.28730985449734897,0.1,0.6
3.855521825396826,-0.220651455026451,0.1,0.6
3.863520833333334,-0.1,0.2,0.39606119791666566
3.871519841269842,-0.1,0.2,0.3835627480158722
3.8795188492063497,-0.1,0.2,0.37106429811507874
3.887517857142858,-0.1,0.2,0.3585658482142846
3.8955168650793657,-0.1,0.2,0.34606739831349115
3.903515873015874,-0.1,0.2,0.33356894841269696
3.9115148809523816,-0.1,0.2,0.3210704985119035
3.9195138888888894,-0.1,0.2,0.3085720486111101
3.9275128968253976,-0.1,0.2,0.3
3.9355119047619054,-0.1,0.2,0.3
3.9435109126984136,-0.007570828719085771,0.2,0.3
3.9515099206349213,-0.016872000738280858,0.2,0.3
3.959508928571429,-0.026173172757475948,0.2,0.3
3.9675079365079373,-0.03547434477667156,0.2,0.3
3.975506944444445,-0.044775516795866645,0.2,0.3
3.983505952380953,-0.05407668881506173,0.2,0.3
3.991504960317461,-0.06337786083425734,0.2,0.3
3.999503968253969,-0.07267903285345242,0.2,0.3
4.007502976190477,-0.08198020487264752,0.2,0.3
4.015501984126985,-0.09128137689184312,0.2,0.3
4.023500992063493,-0.12504960317465663,0.2,0.3
4.0315,-0.1927835051546377,0.18917525773195656,0.29639175257731887
4.0394990079365085,-0.17629070528554872,0.16443605792832305,0.28814535264277436
4.047498015873017,-0.1597979054164597,0.13969685812468952,0.27989895270822984
4.055497023809525,-0.14330510554737066,0.11495765832105599,0.27165255277368533
4.063496031746032,-0.1268123056782835,0.09021845851742522,0.26340615283914176
4.0714950396825405,-0.11031950580919447,0.06547925871379168,0.25515975290459725
4.079494047619049,-0.09382670594010545,0.04074005891015817,0.24691335297005274
4.087493055555556,-0.07733390607101827,0.016000859106527376,0.23866695303550914
4.095492063492064,-0.06084110620192926,-0.008738340697106134,0.23042055310096465
4.103491071428572,-0.04434830633284023,-0.03347754050073967,0.22217415316642014
4.11149007936508,-0.027855506463753038,-0.05821674030437046,0.21392775323187654
4.119489087301588,-0.01136270659466404,-0.082955940108004,0.20568135329733206
4.127488095238096,0.08293650793653426,-0.1,0.03412698412693149
4.135487103174603,0.5026555413832198,-0.10132777069160992,-0.7013277706916099
4.143486111111112,0.5169394841269844,-0.10846974206349223,-0.7084697420634922
4.15148511904762,0.5312234268707491,-0.11561171343537456,-0.7156117134353746
4.159484126984128,0.5455073696145137,-0.12275368480725687,-0.7227536848072569
4.167483134920635,0.5597913123582768,-0.1298956561791384,-0.7298956561791384
4.175482142857144,0.5740752551020414,-0.13703762755102072,-0.7370376275510208
4.183481150793652,0.588359197845806,-0.14417959892290305,-0.7441795989229031
4.191480158730159,0.6026431405895691,-0.15132157029478457,-0.7513215702947845
4.199479166666667,0.6169270833333338,-0.1584635416666669,-0.7584635416666669
4.2074781746031755,0.6312110260770984,-0.16560551303854923,-0.7656055130385493
4.215477182539683,0.6454949688208614,-0.17274748441043075,-0.7727474844104307
4.223476190476191,0.6597789115646261,-0.17988945578231308,-0.7798894557823131
4.231475198412699,0.6740628543083907,-0.1870314271541954,-0.7870314271541954
4.2394742063492075,0.6883467970521554,-0.19417339852607773,-0.7941733985260777
4.247473214285715,0.8,-0.3039434523809573,-0.8039434523809573
4.255472222222223,0.8,-0.3706018518518565,-0.8706018518518566
4.263471230158731,0.09857202982202638,-0.39928601491101323,-1.1014279701779737
4.2714702380952385,0.0743326118326102,-0.38716630591630513,-1.12566738816739
4.279469246031747,0.05009319384319134,-0.3750465969215957,-1.1499068061568087
4.287468253968255,0.025853775853772465,-0.36292688792688627,-1.1741462241462277
4.295467261904762,0.0016143578643562917,-0.35080717893217817,-1.1983856421356438
4.3034662698412705,-0.022625060125062574,-0.33868746993746873,-1.2226250601250626
4.311465277777779,-0.04686447811448144,-0.3265677609427593,-1.2468644781144815
4.319464285714287,-0.0711038961039003,-0.3144480519480498,-1.2711038961039003
4.327463293650794,-0.0953433140933165,-0.30232834295334177,-1.2953433140933166
4.335462301587302,0.01155753968256067,-0.2,-1.3942212301587196
4.343461309523811,0.20050693354264906,-0.2,-1.299493066457351
4.351460317460318,0.20929705215419553,-0.2,-1.2907029478458045
4.359459325396826,0.218087170765743,-0.2,-1.281912829234257
4.367458333333334,0.22687728937729046,-0.2,-1.2731227106227097
4.375457341269842,0.23566740798883695,-0.2,-1.264332592011163
4.38345634920635,0.2444575266003844,-0.2,-1.2555424733996157
4.391455357142858,0.2532476452119319,-0.2,-1.2467523547880681
4.399454365079365,0.2620377638234783,-0.2,-1.2379622361765217
4.407453373015874,0.2708278824350258,-0.2,-1.2291721175649741
4.415452380952382,0.27961800104657325,-0.2,-1.2203819989534268
4.42345138888889,0.28840811965812074,-0.2,-1.2115918803418793
4.431450396825397,0.2971982382696672,-0.2,-1.2028017617303328
4.4394494047619055,0.15505952380946805,-0.12752976190473403,-0.555059523809468
4.447448412698414,0.1,-0.09123716153127842,-0.4737114845938353
4.455447420634921,0.1,-0.08182656395891687,-0.44547969187675057
4.463446428571429,0.1,-0.07241596638655426,-0.41724789915966276
4.4714454365079375,0.1,-0.06300536881419166,-0.389016106442575
4.479444444444445,0.1,-0.05359477124183011,-0.36078431372549036
4.487443452380953,0.1,-0.04418417366946751,-0.3325525210084025
4.495442460317461,0.1,-0.03477357609710491,-0.30432072829131473
4.503441468253969,0.1,-0.025362978524742313,-0.2760889355742269
4.511440476190477,0.1,-0.01595238095238076,-0.24785714285714228
4.519439484126985,0.1,-0.006541783380018151,-0.21962535014005446
4.527438492063493,0.007308201058216409,0.10730820105821641,0.014616402116432819
4.5354375000000005,0.2718750000000402,0.2718750000000402,0.6437500000000804
4.543436507936509,0.3,0.3,0.7145813881108021
4.551435515873017,0.3,0.3,0.730265717398073
4.559434523809524,0.3,0.3,0.7459500466853421
4.567433531746032,0.3,0.3,0.7616343759726132
4.575432539682541,0.3,0.3,0.7773187052598841
4.583431547619049,0.3,0.3,0.793003034547155
4.591430555555556,0.3,0.3,0.8086873638344243
4.599429563492064,0.3,0.3,0.8243716931216952
4.6074285714285725,0.3,0.3,0.8400560224089662
4.61542757936508,0.3,0.3,0.8557403516962354
4.623426587301588,0.3,0.3,0.8714246809835063
4.631425595238096,0.3,0.3,0.8871090102707773
4.639424603174604,0.3,0.28982426303854525,0.9101757369614548
4.647423611111112,0.3,0.23268849206348757,0.9673115079365124
4.65542261904762,0.3,0.16888528138527428,1.0311147186147258
4.663421626984128,0.27891865079359995,0.12108134920640003,1.1210813492064
4.6714206349206355,-0.026391850272451955,0.18680407486377404,1.306597962568113
4.679419642857144,-0.0741471215351874,0.1629264392324063,1.3185367803837968
4.687418650793652,-0.12190239279792284,0.1390488036010386,1.3304755981994807
4.695417658730159,-0.169657664060653,0.11517116796967351,1.3424144160151632
4.7034166666666675,-0.21741293532338843,0.0912935323383058,1.354353233830847
4.711415674603176,-0.2651682065861239,0.06741589670693807,1.366292051646531
4.719414682539683,-0.312923477848854,0.043538261075573015,1.3782308694622134
4.727413690476191,-0.3606787491115895,0.01966062544420527,1.3901696872778972
4.735412698412699,-0.6825396825399153,-0.1412698412699576,1.4
4.743411706349207,-0.8176587301586226,0.01175595238103308,0.7588293650793112
4.751410714285715,-0.6268077601410852,0.1182980599647287,0.6817019400352713
4.759409722222223,-0.5478052126200169,0.13804869684499577,0.6619513031550042
4.767408730158731,-0.4688026650989486,0.15779933372526284,0.6422006662747372
4.775407738095239,-0.389800117577889,0.17754997060552774,0.6224500293944722
4.783406746031747,-0.31079757005682074,0.1973006074857948,0.6026993925142051
4.791405753968255,-0.2317950225357524,0.21705124436606188,0.5829487556339381
4.799404761904762,-0.15279247501469284,0.23680188124632678,0.5631981187536732
4.807403769841271,-0.07378992749362456,0.25655251812659385,0.5434474818734061
4.815402777777779,0.005212620027443715,0.2763031550068609,0.5236968449931391
4.823401785714286,0.08421516754850322,0.2960537918871258,0.5039462081128742
4.831400793650794,0.459920634920579,-0.12334656084657017,0.3
4.8393998015873025,-0.013876741172662233,-0.20693837058633113,0.3
4.847398809523811,-0.04652575315841006,-0.22326287657920504,0.3
4.855397817460318,-0.07917476514415427,-0.23958738257207715,0.3
4.863396825396826,-0.11182377712990209,-0.25591188856495106,0.3
4.8713958333333345,-0.14447278911564992,-0.272236394557825,0.3
4.879394841269842,-0.1771218011013941,-0.28856090055069705,0.3
4.88739384920635,-0.20977081308714193,-0.304885406543571,0.3
4.895392857142858,-0.24241982507288976,-0.3212099125364449,0.3
4.9033918650793655,-0.27506883705863394,-0.337534418529317,0.3
4.911390873015874,-0.30771784904438176,-0.3538589245221909,0.3
4.919389880952382,-0.34036686103012964,-0.37018343051506486,0.3
4.92738888888889,-0.37301587301587746,-0.38650793650793874,0.3
4.9353878968253975,-0.5387896825397458,-0.4,0.3
4.943386904761906,-0.19728760822510702,-0.19728760822510702,0.4
4.951385912698414,-0.18819782647907496,-0.18819782647907496,0.4
4.959384920634921,-0.17910804473304393,-0.17910804473304393,0.4
4.967383928571429,-0.1700182629870119,-0.1700182629870119,0.4
4.975382936507938,-0.16092848124097986,-0.16092848124097986,0.4
4.983381944444445,-0.1518386994949488,-0.1518386994949488,0.4
4.991380952380953,-0.14274891774891676,-0.14274891774891676,0.4
4.999379960317461,-0.1336591360028847,-0.1336591360028847,0.4
5.007378968253969,-0.12456935425685368,-0.12456935425685368,0.4
5.015377976190477,-0.11547957251082164,-0.11547957251082164,0.4
5.023376984126985,-0.10638979076478959,-0.10638979076478959,0.4
5.031375992063493,0.36879960317465943,-0.30639880952397824,0.4
5.039375000000001,0.11367187500000143,-0.49544270833333287,0.7091145833333342
5.047374007936509,0.13866877480158957,-0.4871104083994702,0.7257791832010597
5.055373015873017,0.1636656746031777,-0.4787781084656074,0.7424437830687851
5.063372023809524,0.18866257440476303,-0.47044580853174567,0.7591083829365086
5.0713710317460325,0.21365947420635117,-0.46211350859788297,0.7757729828042341
5.079370039682541,0.2386563740079393,-0.4537812086640203,0.7924375826719595
5.087369047619048,0.26365327380952464,-0.44544890873015847,0.8091021825396831
5.095368055555556,0.2886501736111128,-0.43711660879629577,0.8257667824074085
5.1033670634920645,0.3136470734127009,-0.4287843088624331,0.8424313822751339
5.111366071428573,0.3386439732142891,-0.4204520089285704,0.8590959821428593
5.11936507936508,0.36364087301587444,-0.41211970899470857,0.8757605820105829
5.127364087301588,0.3886377728174625,-0.40378740906084587,0.8924251818783083
5.135363095238096,2.118154761904834,-0.3726190476193347,1.5181547619048337
5.143362103174604,0.9300595238095155,-1.0233134920634948,1.4941716269841263
5.151361111111112,0.8257246376811482,-1.0580917874396172,1.4854770531400956
5.15936011904762,0.721389751552781,-1.0928700828157396,1.476782479296065
5.1673591269841275,0.6170548654244252,-1.1276483781918583,1.4680879054520355
5.175358134920636,0.512719979296058,-1.1624266735679807,1.4593933316080048
5.183357142857144,0.40838509316769056,-1.197204968944103,1.4506987577639743
5.191356150793652,0.3040502070393233,-1.2319832643202255,1.4420041839199436
5.199355158730159,0.19971532091096755,-1.2667615596963442,1.433309610075914
5.207354166666668,0.09538043478260028,-1.3015398550724666,1.4246150362318832
5.215353174603176,-0.008954451345767112,-1.336318150448589,1.4159204623878527
5.223352182539683,-0.11328933747412284,-1.3710964458247075,1.407225888543823
5.231351190476191,-1.3229166666670302,-1.7351190476191514,1.1648809523808485
5.2393501984126996,-2.3974464699073983,-1.9989056299603136,0.7007295800264576
5.247349206349207,-2.339120370370366,-1.9739087301587281,0.7173941798941812
5.255348214285715,-2.2807942708333266,-1.94891183035714,0.7340587797619066
5.263347222222223,-2.222468171296288,-1.9239149305555518,0.750723379629632
5.271346230158731,-2.1641420717592554,-1.8989180307539666,0.7673879794973556
5.279345238095239,-2.1058159722222163,-1.8739211309523784,0.784052579365081
5.287344246031747,-2.047489872685177,-1.8489242311507903,0.8007171792328065
5.295343253968255,-1.9891637731481384,-1.8239273313492022,0.8173817791005319
5.3033422619047625,-1.930837673611106,-1.798930431547617,0.8340463789682554
5.311341269841271,-1.872511574074067,-1.7739335317460287,0.8507109788359808
5.319340277777779,-1.814185474537028,-1.7489366319444406,0.8673755787037063
5.327339285714286,-1.7558593749999956,-1.7239397321428553,0.8840401785714298
5.3353382936507945,-1.672321428571358,-1.6876984126983812,0.9092261904762141
5.343337301587303,-1.017857142857057,-1.3968253968253588,1.1273809523809808
5.35133630952381,0.5274350649350792,-0.5938041125541007,2.0637175324675394
5.359335317460318,0.9637445887446129,-0.2302128427128226,2.2818722943723064
5.367334325396826,1.0852828534514678,-0.11471714654853224,2.334113141380587
5.375333333333335,1.1782945736434254,-0.021705426356574742,2.37131782945737
5.383332341269842,1.2713062938353725,0.0713062938353724,2.408522517534149
5.39133134920635,1.3643180140273299,0.16431801402732993,2.445727205610932
5.399330357142858,1.4573297342192875,0.2573297342192874,2.4829318936877147
5.407329365079366,3.132341269841385,0.933531746031723,1.9676587301586146
5.415328373015874,3.50463336783989,0.7953666321601098,0.9675664251207686
5.423327380952382,3.511589026915115,0.7884109730848853,0.918876811594197
5.431326388888889,3.5185446859903386,0.7814553140096616,0.8701871980676308
5.439325396825398,3.525500345065563,0.7744996549344371,0.8214975845410593
5.447324404761906,3.5324560041407875,0.7675439958592125,0.7728079710144876
5.455323412698414,3.539411663216012,0.760588336783988,0.724118357487916
5.463322420634921,3.546367322291236,0.7536326777087643,0.6754287439613498
5.47132142857143,3.55332298136646,0.7466770186335397,0.6267391304347782
5.479320436507938,3.560278640441685,0.7397213595583152,0.5780495169082066
5.487319444444445,3.5672342995169086,0.7327657004830914,0.5293599033816404
5.495318452380953,3.5741899585921333,0.725810041407867,0.4806702898550689
5.5033174603174615,3.5811456176673575,0.7188543823326424,0.43198067632849724
5.511316468253969,3.5881012767425813,0.7118987232574187,0.38329106280193104
5.519315476190477,3.595056935817806,0.7049430641821941,0.3346014492753594
5.527314484126985,3.1371031746028857,0.6342757936507214,-1.6229662698420644
5.535313492063493,2.9005933117583367,0.5857990445369052,-2.071004777315474
5.543312500000001,2.7918689320388204,0.57026699029126,-2.1486650485437
5.551311507936509,2.683144552319292,0.5547349360456131,-2.2263253197719344
5.559310515873017,2.5744201725997637,0.5392028817999662,-2.3039855910001688
5.5673095238095245,2.4656957928802474,0.523670827554321,-2.3816458622283947
5.575308531746033,2.356971413160719,0.5081387733086742,-2.459306133456629
5.583307539682541,2.248247033441191,0.4926067190630272,-2.536966404684864
5.591306547619048,2.1395226537216745,0.47707466481738203,-2.61462667591309
5.599305555555556,2.030798274002146,0.4615426105717352,-2.692286947141324
5.607304563492065,1.9220738942826179,0.44601055632608827,-2.7699472183695586
5.615303571428572,1.8133495145631016,0.4304785020804431,-2.8476074895977845
5.62330257936508,1.7046251348435733,0.4149464478347962,-2.925267760826019
5.631301587301588,1.3587301587294651,0.36984126984118315,-3.1206349206352675
5.639300595238097,-1.3985119047618992,0.6008928571428603,-4.99970238095238
5.647299603174604,-1.358912855571269,0.6246522866572386,-4.991782571114254
5.655298611111112,-1.3193138063806342,0.6484117161716194,-4.983862761276127
5.66329761904762,-1.2797147571899996,0.6721711456860002,-4.975942951438
5.671296626984128,-1.2401157079993692,0.6959305752003784,-4.968023141599874
5.679295634920636,-1.2005166588087346,0.7196900047147592,-4.960103331761747
5.687294642857144,-1.1609176096181,0.74344943422914,-4.9521835219236205
5.695293650793651,-1.1213185604274696,0.7672088637435182,-4.944263712085494
5.70329265873016,-1.081719511236835,0.790968293257899,-4.936343902247367
5.711291666666668,-1.0421204620462001,0.8147277227722798,-4.92842409240924
5.719290674603176,-1.0025214128555655,0.8384871522866606,-4.920504282571113
5.727289682539683,-0.9629223636649353,0.8622465818010389,-4.912584472732988
5.7352886904761915,-0.9233233144743006,0.8860060113154197,-4.90466466289486
5.7432876984127,-0.8342460317460088,0.9,-4.801369047619013
5.751286706349207,-0.3783234126982088,1.0930059523810747,-4.342658730158567
5.759285714285715,0.7402597402598006,1.4,-3.7558441558441196
5.767284722222223,1.401355820105824,1.2990961199294506,-3.1981922398589013
5.775283730158731,1.4394463340891925,1.2737024439405382,-3.1474048878810765
5.783282738095239,1.477536848072565,1.2483087679516234,-3.0966175359032464
5.791281746031747,1.5156273620559377,1.2229150919627083,-3.0458301839254163
5.799280753968255,1.5537178760393102,1.1975214159737932,-2.995042831947586
5.807279761904763,1.5918083900226785,1.172127739984881,-2.944255479969762
5.815278769841271,1.6298989040060512,1.146734063995966,-2.8934681279919316
5.823277777777779,1.667989417989424,1.121340388007051,-2.8426807760141015
5.831276785714286,1.7833928571428384,0.888928571428559,-2.4889285714285587
5.839275793650795,1.198582451499117,0.5985824514991172,-1.8943298059964686
5.847274801587303,1.189694664902997,0.5896946649029969,-1.8587786596119875
5.85527380952381,1.1808068783068777,0.5808068783068776,-1.8232275132275106
5.863272817460318,1.1719190917107574,0.5719190917107574,-1.7876763668430296
5.871271825396827,1.1630313051146373,0.5630313051146372,-1.7521252204585487
5.879270833333334,1.1541435185185178,0.554143518518518,-1.7165740740740716
5.887269841269842,1.1452557319223977,0.5452557319223976,-1.6810229276895907
5.89526884920635,1.1363679453262774,0.5363679453262774,-1.6454717813051096
5.9032678571428585,1.1274801587301573,0.5274801587301572,-1.6099206349206288
5.911266865079366,1.118592372134038,0.518592372134038,-1.5743694885361517
5.919265873015874,1.1097045855379177,0.5097045855379176,-1.5388183421516706
5.927264880952382,1.1008167989417976,0.5008167989417974,-1.5032671957671897
5.93526388888889,0.4,0.1,0.20056146572104247
5.943262896825398,0.4,0.1,0.2175806315434003
5.951261904761906,0.4,0.1,0.23459979736575812
5.959260912698413,0.4,0.1,0.25161896318811405
5.9672599206349215,0.4,0.1,0.2686381290104719
5.97525892857143,0.4,0.1,0.28565729483282976
5.983257936507938,0.4,0.1,0.30267646065518755
5.991256944444445,0.4,0.1,0.3196956264775435
5.999255952380953,0.4,0.1,0.3367147922999013
6.007254960317462,0.4,0.1,0.35373395812225916
6.015253968253969,0.4,0.1,0.3707531239446151
6.023252976190477,0.4,0.1,0.387772289766973
6.031251984126985,0.6503968253971197,-0.02519841269855985,0.4
6.039250992063493,1.4,-0.20309618291761247,0.2969038170823875
6.047250000000001,1.4,-0.21071428571428694,0.2892857142857131
6.055249007936509,1.4,-0.21833238851096137,0.2816676114890386
6.063248015873017,1.4,-0.22595049130763584,0.27404950869236416
6.071247023809525,1.4,-0.23356859410430944,0.2664314058956906
6.079246031746033,1.4,-0.24118669690098388,0.2588133030990161
6.087245039682541,1.4,-0.24880479969765834,0.25119520030234166
6.095244047619048,1.4,-0.256422902494332,0.24357709750566806
6.103243055555557,1.4,-0.2640410052910064,0.23595899470899362
6.111242063492065,1.4,-0.27165910808768085,0.22834089191231915
6.119241071428572,1.4,-0.2792772108843544,0.22072278911564555
6.12724007936508,1.4,-0.2868953136810289,0.21310468631897111
6.1352390873015885,1.4,-0.29451341647770335,0.20548658352229665
6.143238095238097,1.2642857142854573,-0.5238095238096951,-0.011904761904847551
6.151237103174604,0.9251547619047475,-0.7,-0.149896825396835
6.159236111111112,0.8291666666666504,-0.7,-0.21388888888889973
6.1672351190476205,0.7331785714285532,-0.7,-0.27788095238096444
6.175234126984128,0.4,-0.6,-0.4151218820861697
6.183233134920636,0.4,-0.6,-0.44368976757369893
6.191232142857144,0.4,-0.6,-0.47225765306122824
6.1992311507936515,0.4,-0.6,-0.5008255385487543
6.20723015873016,0.4,-0.6,-0.5293934240362836
6.215229166666668,0.4,-0.6,-0.557961309523813
6.223228174603175,0.4,-0.6,-0.586529195011339
6.231227182539683,0.4,-0.6,-0.7207766439909522
6.239226190476192,-0.100789036544855,-0.8,-1.3005260243632366
6.2472251984127,-0.12869255260244167,-0.8,-1.3191283684016277
6.255224206349207,-0.15659606866002526,-0.8,-1.3377307124400168
6.263223214285715,-0.18449958471761194,-0.8,-1.356333056478408
6.271222222222224,-0.2124031007751986,-0.8,-1.374935400516799
6.279221230158731,-0.24030661683278218,-0.8,-1.3935377445551882
6.287220238095239,-0.2682101328903689,-0.8,-1.4121400885935793
6.295219246031747,-0.29611364894795555,-0.8,-1.4307424326319704
6.303218253968255,-0.3240171650055391,-0.8,-1.4493447766703593
6.311217261904763,-0.3519206810631258,-0.8,-1.4679471207087504
6.319216269841271,-0.37982419712071247,-0.8,-1.4865494647471416
6.327215277777779,-0.7202546296296598,-0.8,-1.6202546296296598
6.335214285714287,-0.9607142857143269,-0.6,-1.960714285714327
6.343213293650795,-1.0163938492063511,-0.5918030753968244,-2.0081969246031757
6.351212301587303,-1.0345734126984152,-0.5827132936507924,-2.0172867063492075
6.35921130952381,-1.0527529761904773,-0.5736235119047614,-2.026376488095239
6.3672103174603185,-1.0709325396825413,-0.5645337301587293,-2.0354662698412707
6.375209325396827,-1.0891121031746054,-0.5554439484126973,-2.044556051587303
6.383208333333334,-1.1072916666666675,-0.5463541666666663,-2.053645833333334
6.391207341269842,-1.1254712301587315,-0.5372643849206342,-2.0627356150793656
6.3992063492063505,-1.1436507936507956,-0.5281746031746022,-2.071825396825398
6.407205357142859,-1.1618303571428596,-0.5190848214285702,-2.08091517857143
6.415204365079366,-1.1800099206349217,-0.5099950396825391,-2.090004960317461
6.423203373015874,-1.1981894841269858,-0.500905257936507,-2.099094742063493
6.431202380952382,-1.4803571428573412,-0.2398809523808863,-2.2601190476191135
6.43920138888889,-1.7722549790356317,0.1039635744234812,-2.2960364255765184
6.447200396825398,-1.7194313417190683,0.11150980832584738,-2.2884901916741525
6.455199404761906,-1.6666077044025052,0.11905604222821356,-2.2809439577717865
6.463198412698413,-1.6137840670859478,0.1266022761305789,-2.273397723869421
6.471197420634922,-1.5609604297693846,0.1341485100329451,-2.265851489967055
6.47919642857143,-1.5081367924528213,0.14169474393531126,-2.2583052560646886
6.487195436507937,-1.455313155136264,0.1492409778376766,-2.2507590221623235
6.495194444444445,-1.4024895178197005,0.1567872117400428,-2.243212788259957
6.503193452380954,-1.3496658805031374,0.16433344564240895,-2.235666554357591
6.511192460317462,-1.2968422431865743,0.17187967954477512,-2.228120320455225
6.519191468253969,-1.244018605870017,0.17942591344714048,-2.2205740865528596
6.527190476190477,-1.1911949685534535,0.18697214734950665,-2.2130278526504936
6.5351894841269855,-1.1383713312368902,0.19451838125187282,-2.205481618748127
6.543188492063493,-0.28985042735039324,0.2,-2.1
6.551187500000001,0.14086538461543652,0.2,-2.1
6.559186507936509,0.8678004535148192,0.3,-1.983049886621295
6.567185515873017,1.2111127925746588,0.3,-1.896295735808447
6.575184523809525,1.2517857142857178,0.3,-1.8827380952380939
6.583183531746033,1.2924586359967771,0.3,-1.8691804546677409
6.591182539682541,1.3331315577078362,0.3,-1.8556228140973878
6.5991815476190485,1.3738044794188908,0.3,-1.8420651735270364
6.607180555555557,1.4144774011299501,0.3,-1.8285075329566833
6.615179563492065,1.4551503228410092,0.3,-1.8149498923863303
6.623178571428572,1.4958232445520638,0.3,-1.8013922518159786
6.6311775793650805,1.3911210317459877,0.19112103174598769,-1.2822420634919753
6.639176587301589,0.7636818495514011,0.09394697492523352,-0.887893949850467
6.647175595238096,0.6941252587991635,0.08235420979986058,-0.8647084195997212
6.655174603174604,0.6245686680469181,0.07076144467448636,-0.8415228893489727
6.663173611111112,0.5550120772946728,0.05916867954911214,-0.8183373590982242
6.671172619047621,0.48545548654242743,0.04757591442373792,-0.7951518288474758
6.679171626984128,0.41589889579018985,0.03598314929836498,-0.7719662985967299
6.687170634920636,0.3463423050379445,0.02439038417299076,-0.7487807683459815
6.695169642857144,0.2767857142856991,0.012797619047616546,-0.7255952380952331
6.703168650793652,0.20722912353346157,0.0012048539222436067,-0.7024097078444872
6.71116765873016,-0.10201320470717223,0.10100660235358612,-0.09798679529282778
6.719166666666668,-0.11580459770115195,0.10790229885057598,-0.08419540229884806
6.727165674603175,-0.12959599069513011,0.11479799534756506,-0.07040400930486988
6.735164682539684,-0.14338738368910983,0.12169369184455492,-0.05661261631089018
6.743163690476192,-0.15717877668308955,0.12858938834154476,-0.04282122331691047
6.751162698412699,-0.1709701696770677,0.13548508483853386,-0.029029830322932285
6.759161706349207,-0.18476156267104743,0.14238078133552373,-0.015238437328952581
6.7671607142857155,-0.19855295566502712,0.14927647783251358,-0.0014470443349728773
6.775159722222224,-0.21234434865900684,0.15617217432950342,0.01234434865900684
6.783158730158731,-0.226135741652985,0.16306787082649252,0.026135741652985017
6.791157738095239,-0.23992713464696472,0.1699635673234824,0.039927134646964735
6.7991567460317475,-0.2537185276409444,0.17685926382047223,0.053718527640944425
6.807155753968255,-0.2675099206349226,0.1837549603174613,0.06750992063492262
6.815154761904763,-0.2813013136289023,0.19065065681445115,0.0813013136289023
6.823153769841271,-0.295092706622882,0.19754635331144102,0.09509270662288202
6.8311527777777785,-0.5576388888889287,0.2,0.2
6.839151785714287,-0.3892073934837078,0.1946036967418539,0.3
6.847150793650795,-0.3751740462266759,0.18758702311333794,0.3
6.855149801587303,-0.3611406989696439,0.18057034948482195,0.3
6.8631488095238105,-0.34710735171261353,0.17355367585630677,0.3
6.871147817460319,-0.33307400445558155,0.16653700222779078,0.3
6.879146825396827,-0.3190406571985496,0.1595203285992748,0.3
6.887145833333334,-0.3050073099415192,0.1525036549707596,0.3
6.895144841269842,-0.2909739626844873,0.14548698134224364,0.3
6.903143849206351,-0.2769406154274553,0.13847030771372765,0.3
6.911142857142858,-0.26290726817042487,0.13145363408521243,0.3
6.919141865079366,-0.24887392091339294,0.12443696045669647,0.3
6.927140873015874,-0.234840573656361,0.1174202868281805,0.3
6.9351398809523825,-0.22080722639932904,0.11040361319966452,0.3
6.94313888888889,-0.20677387914229864,0.10338693957114932,0.3
6.951137896825398,-0.11257586367881282,0.1,0.3874241363211872
6.959136904761906,-0.15962885154062484,0.1,0.34037114845937516
6.967135912698414,-0.3067956349206954,0.1,0.3
6.975134920634922,-0.6088533114395208,0.1,0.2
6.98313392857143,-0.6226447044335005,0.1,0.2
6.991132936507937,-0.6364360974274786,0.1,0.2
6.9991319444444455,-0.6502274904214583,0.1,0.2
7.007130952380954,-0.664018883415438,0.1,0.2
7.015129960317462,-0.6778102764094178,0.1,0.2
7.023128968253969,-0.691601669403396,0.1,0.2
7.0311279761904775,1.9322420634936952,0.3085317460318513,0.004265873015925649
7.039126984126986,7.014880952381668,0.4359126984126767,0.1
7.047125992063493,8.331275406504092,0.4,0.09374879016647172
7.055125000000001,8.536128048780524,0.4,0.08399390243902267
7.063124007936509,8.740980691056954,0.4,0.07423901471157363
7.071123015873017,8.945833333333361,0.4,0.06448412698412566
7.079122023809525,9.150685975609791,0.4,0.05472923925667661
7.087121031746033,9.355538617886221,0.4,0.04497435152922756
7.0951200396825405,9.560391260162628,0.4,0.035219463801779594
7.103119047619049,9.765243902439058,0.4,0.025464576074330544
7.111118055555557,9.970096544715489,0.4,0.015709688346881495
7.119117063492065,10.17494918699192,0.4,0.005954800619432446
7.127116071428572,10.196130952380914,0.4,-0.1038690476190871
7.135115079365081,3.1991863075196307,0.09988375821709009,-0.8004649671316397
7.143114087301589,3.14262766554432,0.09180395222061717,-0.8327841911175313
7.151113095238096,3.0860690235690162,0.08372414622414515,-0.8651034151034195
7.159112103174604,3.0295103815937057,0.07564434022767222,-0.8974226390893112
7.1671111111111125,2.972951739618395,0.0675645342311993,-0.9297418630752028
7.17511011904762,2.916393097643091,0.05948472823472728,-0.962061087061091
7.183109126984128,2.8598344556677806,0.05140492223825436,-0.9943803110469825
7.191108134920636,2.80327581369247,0.04332511624178144,-1.0266995350328743
7.1991071428571445,2.74671717171716,0.035245310245308525,-1.0590187590187659
7.207106150793652,2.6901585297418555,0.0271655042488365,-1.091337983004654
7.21510515873016,2.633599887766545,0.019085698252363573,-1.1236572069905457
7.223104166666668,2.577041245791235,0.011005892255890659,-1.1559764309764373
7.2311031746031755,2.5204826038159305,0.0029260862594186338,-1.1882956549623254
7.239102182539684,2.3542233560090287,0.0,-1.4186649659864567
7.247101190476192,1.8973465289730325,-0.1,-1.5
7.255100198412699,1.8780718110537375,-0.1,-1.5
7.2630992063492075,1.8587970931344404,-0.1,-1.5
7.271098214285716,1.8395223752151435,-0.1,-1.5
7.279097222222224,1.8202476572958464,-0.1,-1.5
7.287096230158731,1.8009729393765515,-0.1,-1.5
7.295095238095239,1.7816982214572545,-0.1,-1.5
7.303094246031748,1.7624235035379574,-0.1,-1.5
7.311093253968255,1.7431487856186625,-0.1,-1.5
7.319092261904763,1.7238740676993656,-0.1,-1.5
7.327091269841271,1.7045993497800684,-0.1,-1.5
7.335090277777779,1.2909722222221327,-0.2,-1.1454861111110664
7.343089285714287,1.2,-0.2071608946608956,-1.0928391053391044
7.351088293650795,1.2,-0.21524070065736858,-1.0847592993426316
7.359087301587302,1.2,-0.22332050665384068,-1.0766794933461594
7.367086309523811,1.2,-0.23140031265031366,-1.0685996873496864
7.375085317460319,1.2,-0.23948011864678664,-1.0605198813532135
7.383084325396827,1.2,-0.24755992464325965,-1.0524400753567404
7.391083333333334,1.2,-0.2556397306397317,-1.0443602693602683
7.3990823412698425,1.2,-0.26371953663620473,-1.0362804633637954
7.407081349206351,1.2,-0.2717993426326777,-1.0282006573673224
7.415080357142858,1.2,-0.2798791486291498,-1.0201208513708502
7.423079365079366,1.2,-0.2879589546256228,-1.0120410453743771
7.4310783730158745,1.2,-0.2960387606220958,-1.0039612393779043
7.439077380952382,0.8982804232804058,-0.40085978835979713,-0.7982804232804058
7.44707638888889,0.7205246913580079,-0.4897376543209961,-0.6205246913580078
7.455075396825398,0.7,-0.5,-0.5909289784289771
7.463074404761906,0.7,-0.5,-0.5806738400488383
7.471073412698414,0.7,-0.5,-0.5704187016687006
7.479072420634922,0.7,-0.5,-0.5601635632885618
7.48707142857143,0.7,-0.5,-0.549908424908423
7.4950704365079375,0.7,-0.5,-0.5396532865282854
7.503069444444446,0.7,-0.5,-0.5293981481481466
7.511068452380954,0.7,-0.5,-0.5191430097680078
7.519067460317461,0.7,-0.5,-0.5088878713878701
7.527066468253969,0.6466765873015136,-0.5533234126984864,-0.4466765873015136
7.535065476190478,0.5,-0.7029039115646271,-0.3029039115646271
7.543064484126986,0.5,-0.7086174886621329,-0.3086174886621329
7.551063492063493,0.5,-0.7143310657596381,-0.3143310657596381
7.559062500000001,0.5,-0.720044642857144,-0.32004464285714396
7.56706150793651,0.5,-0.7257582199546497,-0.3257582199546498
7.575060515873017,0.5,-0.7314717970521549,-0.331471797052155
7.583059523809525,0.5,-0.7371853741496608,-0.3371853741496608
7.591058531746033,0.5,-0.7428989512471667,-0.3428989512471667
7.599057539682541,0.5,-0.7486125283446718,-0.3486125283446719
7.607056547619049,0.5,-0.7543261054421777,-0.35432610544217774
7.615055555555557,0.5,-0.7600396825396836,-0.36003968253968355
7.623054563492064,0.5,-0.7657532596371888,-0.36575325963718874
7.6310535714285725,0.5,-0.7714668367346946,-0.3714668367346946
7.639052579365081,0.5,-0.7771804138322005,-0.37718041383220047
7.647051587301589,0.5,-0.7828939909297064,-0.38289399092970633
7.655050595238096,0.5,-0.7886075680272115,-0.3886075680272115
7.6630496031746045,0.5,-0.7943211451247174,-0.39432114512471733
7.671048611111113,0.5048611111112434,-0.7951388888887566,-0.3975694444443783
7.67904761904762,0.5488095238094899,-0.4,-0.12559523809525508
7.687046626984128,0.5012921320791707,-0.4,-0.2
7.695045634920636,0.5111674505193042,-0.4,-0.2
7.703044642857144,0.5210427689594367,-0.4,-0.2
7.711043650793652,0.5309180873995702,-0.4,-0.2
7.71904265873016,0.5407934058397037,-0.4,-0.2
7.727041666666668,0.5506687242798373,-0.4,-0.2
7.735040674603176,0.5605440427199697,-0.4,-0.2
7.743039682539684,0.5704193611601033,-0.4,-0.2
7.751038690476192,0.5802946796002368,-0.4,-0.2
7.759037698412699,0.5901699980403692,-0.4,-0.2
7.767036706349208,0.6,-0.4,-0.2
7.775035714285716,0.6,-0.29818295739348105,-0.1
7.783034722222223,0.6,-0.28414961013645074,-0.1
7.791033730158731,0.6,-0.2701162628794189,-0.1
7.79903273809524,0.6,-0.25608291562238705,-0.1
7.807031746031748,0.6,-0.24204956836535524,-0.1
7.815030753968255,0.6,-0.22801622110832495,-0.1
7.823029761904763,0.6,-0.2139828738512931,-0.1
7.8310287698412715,0.5980820105819267,-0.19904100529096336,-0.09904100529096334
7.839027777777779,0.3205555555555752,-0.0794444444444248,0.020555555555575193
7.847026785714287,0.39531769102989883,0.0046823089701012064,0.10468230897010121
7.855025793650795,0.3860165190107033,0.013983480989296764,0.11398348098929677
7.8630248015873025,0.3767153469915087,0.02328465300849129,0.1232846530084913
7.871023809523811,0.36741417497231316,0.032585825027686845,0.13258582502768684
7.879022817460319,0.3581130029531176,0.0418869970468824,0.1418869970468824
7.887021825396827,0.34881183093392204,0.05118816906607796,0.15118816906607796
7.8950208333333345,0.33951065891472754,0.060489341085272486,0.1604893410852725
7.903019841269843,0.330209486895532,0.06979051310446804,0.16979051310446805
7.911018849206351,0.3209083148763364,0.0790916851236636,0.1790916851236636
7.919017857142858,0.31160714285714186,0.08839285714285813,0.18839285714285814
7.927016865079366,0.3023059708379463,0.09769402916205369,0.1976940291620537
7.935015873015875,0.2,0.04920634920627097,0.04920634920627097
7.943014880952382,0.19305457331447334,0.006945426685526681,0.0
7.95101388888889,0.18513476347634647,0.014865236523653551,0.0
7.959012896825398,0.1772149536382196,0.02278504636178042,0.0
7.967011904761906,0.1692951438000936,0.03070485619990641,0.0
7.975010912698414,0.16137533396196674,0.03862466603803328,0.0
7.983009920634922,0.15345552412383986,0.04654447587616015,0.0
7.99100892857143,0.145535714285713,0.05446428571428702,0.0
7.999007936507938,0.137615904447587,0.06238409555241301,0.0
8.007006944444445,0.12969609460946102,0.070303905390539,0.0
8.015005952380953,0.12177628477133413,0.07822371522866588,0.0
8.023004960317461,0.11385647493320727,0.08614352506679274,0.0
8.03100396825397,0.1059366650950804,0.09406333490491961,0.0
8.039002976190478,0.09996693121691039,0.1,-0.1
8.047001984126986,0.011089065255711447,0.1,-0.1
8.055000992063494,-0.04286422902495865,0.1,-0.15713577097504136
8.063,-0.1,0.1,-0.1
