accel_time_list,vertical_Accel_x,vertical_Accel_y,vertical_Accel_z
0.0,-0.811,10.335,3.013
0.007999029126213593,0.6981391585760516,8.238170873786407,5.08441504854369
0.015998058252427186,-1.1652521603794561,8.679673401022754,3.1217288371748313
0.02399708737864078,-1.0698744237752909,8.64144903283184,3.2010474542355296
0.03199611650485437,-0.9744966871711258,8.603224664640926,3.280366071296228
0.039995145631067965,-0.8791189505669605,8.565000296450012,3.359684688356926
0.04799417475728156,-0.7837412139627955,8.526775928259097,3.439003305417624
0.05599320388349515,-0.6883634773586303,8.488551560068183,3.5183219224783224
0.06399223300970874,-0.5929857407544652,8.45032719187727,3.5976405395390203
0.07199126213592233,-0.49760800415030004,8.412102823686356,3.6769591565997186
0.07999029126213593,-0.4022302675461349,8.373878455495442,3.7562777736604165
0.08798932038834953,-0.3068525309419696,8.335654087304528,3.835596390721115
0.09598834951456311,-0.21147479433780458,8.297429719113614,3.914915007781813
0.1039873786407767,-0.11609705773363954,8.2592053509227,3.994233624842511
0.1119864077669903,-0.020719321129474277,8.220980982731787,4.07355224190321
0.1199854368932039,0.07465841547469099,8.182756614540873,4.152870858963908
0.1279844660194175,0.17003615207885603,8.144532246349959,4.2321894760246055
0.13598349514563107,0.26541388868302107,8.106307878159045,4.311508093085304
0.14398252427184466,0.3607916252871859,8.068083509968131,4.390826710146001
0.15198155339805827,-0.2968329708737868,9.278274200647248,3.3629232362459547
0.15998058252427186,-0.4212978640776702,9.182499158576052,3.3383928802589
0.16797961165048544,-0.5457627572815535,9.086724116504854,3.313862524271845
0.17597864077669906,-0.6702276504854374,8.990949074433656,3.2893321682847896
0.18397766990291264,-0.7946925436893207,8.895174032362458,3.2648018122977347
0.19197669902912623,-0.9191574368932042,8.799398990291262,3.2402714563106794
0.19997572815533982,-1.0436223300970875,8.703623948220065,3.2157411003236245
0.2079747572815534,-1.168087223300971,8.607848906148867,3.1912107443365696
0.21597378640776702,-1.2925521165048548,8.512073864077669,3.1666803883495143
0.2239728155339806,-1.4170170097087382,8.416298822006473,3.1421500323624594
0.2319718446601942,-1.6562339805825248,7.956562135922329,4.5074922330097085
0.2399708737864078,-0.6388969621046027,8.438135295959912,4.433120889445663
0.2479699029126214,-0.45014567804572403,8.414267225180081,4.444216316943313
0.255968932038835,-0.2613943939868454,8.39039915440025,4.455311744440965
0.26396796116504856,-0.07264310992796674,8.36653108362042,4.466407171938616
0.27196699029126215,0.1161081741309119,8.342663012840589,4.477502599436267
0.27996601941747573,0.30485945818979066,8.318794942060759,4.488598026933918
0.2879650485436893,0.4936107422486692,8.294926871280927,4.4996934544315685
0.29596407766990296,0.6823620263075493,8.271058800501097,4.51078888192922
0.30396310679611654,0.8738440129449833,8.052715857605179,4.757823948220066
0.31196213592233013,0.7811885922330093,8.042050485436894,4.922470631067962
0.3199611650485437,0.8795533980582524,7.958880721220527,5.141006241331484
0.3279601941747573,0.8685547330097088,7.968736667822468,5.147076933079057
0.3359592233009709,0.857556067961165,7.978592614424411,5.153147624826629
0.3439582524271845,0.8465574029126214,7.9884485610263525,5.1592183165742025
0.3519572815533981,0.8355587378640776,7.998304507628294,5.165289008321775
0.3599563106796117,0.8245600728155339,8.008160454230236,5.171359700069348
0.3679553398058253,0.8135614077669903,8.018016400832177,5.17743039181692
0.3759543689320389,0.8025627427184465,8.02787234743412,5.183501083564494
0.38395339805825246,0.7915640776699029,8.03772829403606,5.189571775312066
0.39195242718446605,0.7805654126213591,8.047584240638002,5.195642467059639
0.39995145631067963,0.7695667475728155,8.057440187239944,5.2017131588072125
0.4079504854368932,0.7585680825242718,8.067296133841886,5.207783850554785
0.4159495145631068,0.7475694174757281,8.07715208044383,5.213854542302358
0.42394854368932045,0.7365707524271844,8.087008027045771,5.2199252340499305
0.43194757281553403,0.41447572815534034,8.049634951456307,4.963328155339804
0.4399466019417476,0.8030059746079165,7.795948469006722,5.01208924570575
0.4479456310679612,0.8070494398805079,7.7904985810306195,5.028351008215086
0.4559446601941748,0.8110929051530994,7.785048693054518,5.044612770724421
0.4639436893203884,0.8151363704256909,7.779598805078416,5.060874533233757
0.47194271844660196,0.8191798356982823,7.774148917102315,5.077136295743092
0.4799417475728156,0.8232233009708738,7.768699029126214,5.093398058252427
0.4879407766990292,0.8272667662434653,7.763249141150112,5.109659820761762
0.4959398058252428,0.8313102315160568,7.757799253174011,5.125921583271098
0.5039388349514563,0.8353536967886482,7.752349365197909,5.142183345780433
0.51193786407767,0.8393971620612397,7.746899477221808,5.158445108289768
0.5199368932038836,0.8434406273338312,7.741449589245706,5.1747068707991035
0.5279359223300971,0.9572038834951454,7.829734627831715,5.973122977346279
0.5359349514563108,2.2071665048543703,7.468052912621359,5.7591893203883355
0.5439339805825243,2.2399653646421314,7.403931293745766,5.509179634228945
0.5519330097087379,2.252614992097539,7.3404041205689765,5.583217159629714
0.5599320388349515,2.2652646195529464,7.2768769473921875,5.657254685030481
0.5679310679611651,2.277914247008354,7.213349774215398,5.731292210431249
0.5759300970873786,2.2905638744637615,7.1498226010386094,5.805329735832016
0.5839291262135923,2.3032135019191693,7.0862954278618195,5.879367261232784
0.5919281553398059,2.315863129374577,7.02276825468503,5.953404786633552
0.5999271844660194,2.3285127568299844,6.959241081508241,6.027442312034319
0.6079262135922331,2.341162384285392,6.895713908331451,6.101479837435088
0.6159252427184466,2.3538120117407995,6.832186735154663,6.175517362835855
0.6239242718446603,2.230056310679602,6.751044660194173,6.220203883495143
0.6319233009708738,1.8714504751084486,5.028795166287957,8.081851518281347
0.6399223300970874,1.973140260276803,4.96139909109688,8.03964387523239
0.6479213592233011,2.0748300454451574,4.8940030159058034,7.997436232183433
0.6559203883495146,2.1765198306135103,4.826606940714728,7.955228589134476
0.6639194174757282,2.2782096157818645,4.759210865523651,7.91302094608552
0.6719184466019418,2.379899400950217,4.691814790332575,7.870813303036563
0.6799174757281554,2.4815891861185717,4.624418715141499,7.8286056599876055
0.687916504854369,2.5832789712869246,4.557022639950423,7.786398016938649
0.6959155339805826,2.684968756455279,4.489626564759346,7.744190373889692
0.7039145631067962,2.786658541623633,4.42223048956827,7.701982730840735
0.7119135922330098,2.888348326791986,4.354834414377194,7.659775087791778
0.7199126213592234,2.9900381119603403,4.287438339186117,7.617567444742821
0.7279116504854369,2.788133915857606,4.356764401294499,6.460657152103558
0.7359106796116506,2.8846555339805837,4.378095145631068,6.165759611650481
0.7439097087378641,2.717388025889964,4.306121682847893,7.406824919093866
0.7519087378640777,2.532329798356982,4.160584764749813,7.923029126213593
0.7599077669902913,2.453980333582275,4.11494927806821,7.949692556634305
0.7679067961165049,2.375630868807567,4.069313791386606,7.976355987055017
0.7759058252427186,2.297281404032859,4.023678304705003,8.003019417475729
0.7839048543689321,2.218931939258152,3.9780428180234,8.02968284789644
0.7919038834951457,2.1405824744834443,3.9324073313417967,8.056346278317152
0.7999029126213593,2.062233009708737,3.8867718446601938,8.083009708737865
0.8079019417475729,1.983883544934029,3.8411363579785904,8.109673139158577
0.8159009708737864,1.9055340801593221,3.795500871296987,8.136336569579289
0.8239000000000001,1.7315999999999858,3.6546499999999864,7.768949999999947
0.8318990291262136,2.993291990291273,2.071130582524261,6.84342548543689
0.8398980582524272,2.0636310115150143,0.9585468503048069,7.888103578685935
0.8478970873786409,2.046051749830661,0.7751272522013966,7.973953623842855
0.8558961165048544,2.028472488146308,0.5917076540979889,8.059803668999775
0.8638951456310681,2.010893226461955,0.4082880559945785,8.145653714156696
0.8718941747572816,1.993313964777602,0.22486845789117071,8.231503759313615
0.8798932038834952,1.9757347030932488,0.04144885978776047,8.317353804470535
0.8878922330097088,1.9581554414088957,-0.14197073831564744,8.403203849627456
0.8958912621359224,1.9405761797245427,-0.32539033641905757,8.489053894784377
0.903890291262136,1.9229969180401894,-0.5088099345224679,8.574903939941297
0.9118893203883496,1.9054176563558365,-0.6922295326258758,8.660753985098216
0.9198883495145632,1.8878383946714832,-0.8756491307292862,8.746604030255137
0.9278873786407767,-0.27390679611650615,-0.9478310679611641,10.448200000000002
0.9358864077669904,-0.9415272688898251,-0.8120617138032931,10.603871957225271
0.9438854368932039,-0.6900795272266779,-0.8934431405656396,10.67922513015337
0.9518844660194176,-0.4386317855635272,-0.9748245673279871,10.75457830308147
0.9598834951456312,-0.18718404390037646,-1.0562059940903346,10.82993147600957
0.9678825242718447,0.06426369776277063,-1.137587420852681,10.905284648937668
0.9758815533980584,0.3157114394259215,-1.2189688476150284,10.980637821865766
0.9838805825242719,0.5671591810890686,-1.300350274377375,11.055990994793866
0.9918796116504855,0.8186069227522192,-1.3817317011397225,11.131344167721965
0.9998786407766991,0.13649271844657862,-1.4966019417475742,12.476808252427219
1.0078776699029126,1.9435194097087378,-2.888500132038837,14.33769682330097
1.0158766990291264,1.9477428970873787,-3.056671720388355,14.217327433009705
1.02387572815534,1.9519663844660196,-3.224843308737868,14.096958042718445
1.0318747572815534,1.9561898718446602,-3.3930148970873812,13.976588652427182
1.0398737864077672,1.960413359223301,-3.5611864854368993,13.856219262135918
1.0478728155339807,1.964636846601942,-3.7293580737864125,13.735849871844657
1.0558718446601942,1.9688603339805826,-3.897529662135926,13.615480481553396
1.0638708737864078,1.9730838213592232,-4.065701250485439,13.495111091262135
1.0718699029126215,1.9773073087378643,-4.233872838834957,13.37474170097087
1.079868932038835,1.981530796116505,-4.402044427184471,13.254372310679608
1.0878679611650486,1.9857542834951456,-4.570216015533983,13.134002920388347
1.0958669902912623,1.9899777708737865,-4.738387603883502,13.013633530097083
1.1038660194174759,1.9942012582524273,-4.906559192233015,12.893264139805822
1.1118650485436894,1.998424745631068,-5.074730780582529,12.77289474951456
1.119864077669903,2.0026482330097086,-5.242902368932041,12.652525359223299
1.1278631067961167,2.0068717203883497,-5.41107395728156,12.532155968932035
1.1358621359223302,2.0512896191187466,-5.4433738610903655,12.049066467513057
1.1438611650485437,2.0557747572815517,-5.262656310679605,11.198592233009698
1.1518601941747573,1.6078002521750097,-4.692397957382423,10.122173773799016
1.159859223300971,1.521888601689571,-4.811552326314464,9.994085424284451
1.1678582524271846,1.4359769512041347,-4.930706695246503,9.865997074769888
1.175857281553398,1.3500653007186985,-5.049861064178541,9.737908725255327
1.1838563106796118,1.26415365023326,-5.169015433110582,9.60982037574076
1.1918553398058254,1.1782419997478235,-5.28816980204262,9.481732026226199
1.199854368932039,1.0923303492623875,-5.407324170974658,9.353643676711638
1.2078533980582524,1.006418698776951,-5.526478539906695,9.225555327197075
1.2158524271844662,0.9205070482915124,-5.645632908838737,9.09746697768251
1.2238514563106797,0.8345953978060762,-5.764787277770775,8.969378628167947
1.2318504854368932,0.052869625520109764,-4.415887378640778,9.522830790568658
1.239849514563107,0.23193215305539924,-4.278890462592807,9.172419645916618
1.2478485436893205,0.3224623415191336,-4.377890211307826,9.100710702455737
1.255847572815534,0.41299252998286795,-4.476889960022845,9.029001758994859
1.2638466019417476,0.5035227184466023,-4.575889708737865,8.95729281553398
1.2718456310679613,0.5940529069103392,-4.6748894574528865,8.885583872073099
1.2798446601941749,0.6845830953740736,-4.7738892061679055,8.81387492861222
1.2878436893203884,0.7751132838378079,-4.872888954882925,8.742165985151342
1.2958427184466021,0.8656434723015447,-4.971888703597947,8.67045704169046
1.3038417475728157,0.9561736607652791,-5.070888452312966,8.598748098229581
1.3118407766990292,1.0467038492290135,-5.169888201027986,8.527039154768701
1.3198398058252427,1.137234037692748,-5.268887949743005,8.455330211307823
1.3278388349514565,1.5041514563106997,-5.632113592233011,7.052256310679551
1.33583786407767,1.9461430935569284,-6.611266041482789,5.515828894527802
1.3438368932038836,1.93796226831421,-6.632899779346867,5.504648433362754
1.3518359223300973,1.9297814430714915,-6.654533517210945,5.493467972197705
1.3598349514563108,1.921600617828773,-6.676167255075023,5.4822875110326565
1.3678339805825244,1.9134197925860545,-6.6978009929391,5.471107049867609
1.375833009708738,1.9052389673433363,-6.719434730803178,5.45992658870256
1.3838320388349516,1.8970581421006176,-6.7410684686672555,5.448746127537511
1.3918310679611652,1.8888773168578992,-6.762702206531333,5.437565666372462
1.3998300970873787,1.880696491615181,-6.784335944395411,5.426385205207414
1.4078291262135925,1.8725156663724623,-6.805969682259489,5.415204744042366
1.415828155339806,1.864334841129744,-6.827603420123567,5.404024282877317
1.4238271844660195,1.7833805825242661,-6.878433009708741,5.374561165048543
1.431826213592233,2.3249366739743187,-6.155679924835578,6.331999498903853
1.4398252427184468,2.311518947698089,-6.136757490343459,6.388938824511955
1.4478242718446603,2.29810122142186,-6.117835055851341,6.4458781501200555
1.4558233009708739,2.284683495145631,-6.098912621359223,6.502817475728157
1.4638223300970874,2.2712657688694016,-6.079990186867105,6.559756801336257
1.4718213592233012,2.257848042593172,-6.061067752374987,6.616696126944359
1.4798203883495147,2.244430316316943,-6.042145317882869,6.6736354525524595
1.4878194174757282,2.231012590040714,-6.02322288339075,6.730574778160561
1.495818446601942,2.2175948637644844,-6.004300448898632,6.787514103768663
1.5038174757281555,2.204177137488255,-5.985378014406514,6.844453429376763
1.511816504854369,2.190759411212026,-5.966455579914396,6.9013927549848635
1.5198155339805826,2.177341684935797,-5.947533145422278,6.958332080592965
1.5278145631067963,2.605370388349527,-5.957437378640769,7.024239320388326
1.5358135922330098,2.378702726709357,-5.630645032018178,6.905708593265854
1.5438126213592234,2.349004203676926,-5.602052757694691,6.899496581284858
1.5518116504854371,2.3193056806444936,-5.573460483371203,6.893284569303862
1.5598106796116507,2.2896071576120627,-5.544868209047717,6.887072557322867
1.5678097087378642,2.2599086345796318,-5.51627593472423,6.880860545341871
1.5758087378640777,2.230210111547201,-5.4876836604007435,6.874648533360876
1.5838077669902915,2.200511588514769,-5.459091386077256,6.86843652137988
1.591806796116505,2.1708130654823377,-5.430499111753769,6.862224509398884
1.5998058252427185,2.1411145424499067,-5.401906837430283,6.856012497417889
1.6078048543689323,2.111416019417475,-5.373314563106796,6.849800485436893
1.6158038834951458,2.081717496385044,-5.344722288783308,6.843588473455897
1.6238029126213593,2.022482038834947,-5.218234466019402,6.797051456310673
1.6318019417475729,1.9650772477838752,-5.532330772477839,7.9764133389615886
1.6398009708737866,1.9698592760658507,-5.542677342760659,8.049274060785145
1.6478000000000002,1.9746413043478261,-5.553023913043479,8.122134782608699
1.6557990291262137,1.9794233326298016,-5.563370483326298,8.194995504432251
1.6637980582524272,1.9842053609117771,-5.573717053609118,8.267856226255805
1.671797087378641,1.9889873891937528,-5.584063623891938,8.340716948079361
1.6797961165048545,1.9937694174757283,-5.594410194174758,8.413577669902914
1.687795145631068,1.9985514457577038,-5.604756764457577,8.486438391726468
1.6957941747572818,2.0033334740396795,-5.615103334740398,8.559299113550024
1.7037932038834953,2.008115502321655,-5.625449905023217,8.632159835373578
1.7117922330097088,2.0128975306036305,-5.635796475306036,8.70502055719713
1.7197912621359224,2.017679558885606,-5.646143045588857,8.777881279020685
1.7277902912621361,2.7283961165048476,-7.674780582524283,7.739992233009707
1.7357893203883497,2.56273140936733,-8.009224037127925,7.6282943988050755
1.7437883495145632,2.4840596393897356,-8.239789459084609,7.476928155339804
1.751787378640777,2.405387869412139,-8.470354881041297,7.325561911874528
1.7597864077669905,2.326716099434544,-8.700920302997979,7.174195668409257
1.767785436893204,2.2480443294569494,-8.931485724954662,7.0228294249439855
1.7757844660194175,2.169372559479355,-9.162051146911343,6.871463181478714
1.7837834951456313,2.090700789501758,-9.392616568868032,6.720096938013438
1.7917825242718448,2.0120290195241632,-9.623181990824715,6.568730694548167
1.7997815533980583,1.9333572495465687,-9.853747412781397,6.417364451082895
1.807780582524272,1.854685479568972,-10.084312834738085,6.26599820761762
1.8157796116504856,1.7760137095913773,-10.314878256694769,6.114631964152348
1.8237786407766992,1.5453786407766636,-10.528450485436894,5.963984466019414
1.8317776699029127,1.4113311505887212,-9.740218611857053,7.310448905184878
1.8397766990291264,1.3978859739723193,-9.657335054740754,7.242627349721129
1.84777572815534,1.3844407973559179,-9.574451497624455,7.174805794257383
1.8557747572815535,1.3709956207395164,-9.491567940508158,7.106984238793636
1.8637737864077673,1.3575504441231145,-9.408684383391858,7.039162683329888
1.8717728155339808,1.344105267506713,-9.325800826275561,6.9713411278661415
1.8797718446601943,1.3306600908903117,-9.242917269159264,6.903519572402395
1.8877708737864078,1.3172149142739102,-9.160033712042965,6.8356980169386485
1.8957699029126216,1.3037697376575084,-9.077150154926667,6.7678764614749
1.9037689320388351,1.290324561041107,-8.994266597810368,6.700054906011153
1.9117679611650487,1.2768793844247055,-8.911383040694071,6.6322333505474065
1.9197669902912624,1.2634342078083036,-8.82849948357777,6.564411795083658
1.927766019417476,0.9627671289875099,-7.372165880721215,4.274642995839107
1.9357650485436895,0.16892976982655245,-6.986180124359113,5.309289538562238
1.943764077669903,0.19580291262135965,-6.932613592233009,5.464686407766993
1.9517631067961168,0.2226760554161676,-6.879047060106903,5.6200832769717515
1.9597621359223303,0.24954919821097482,-6.825480527980799,5.775480146176506
1.9677611650485438,0.276422341005782,-6.771913995854695,5.930877015381261
1.9757601941747573,0.30329548380058924,-6.718347463728592,6.086273884586015
1.983759223300971,0.33016862659539714,-6.664780931602486,6.241670753790775
1.9917582524271846,0.3570417693902044,-6.611214399476382,6.397067622995529
1.9997572815533982,0.38391491218501156,-6.557647867350278,6.552464492200284
2.007756310679612,0.4107880549798195,-6.504081335224173,6.707861361405042
2.015755339805825,0.437661197774626,-6.45051480309807,6.863258230609793
2.023754368932039,0.7924135922330484,-6.928549514563168,6.925545631067952
2.0317533980582527,0.6455029126213327,-7.44154174757281,7.682083495145619
2.039752427184466,0.5108756742179072,-7.390892772384034,7.580785544768069
2.04775145631068,0.5130976267529667,-7.3670734412081975,7.533146882416396
2.0557504854368935,0.515319579288026,-7.343254110032361,7.485508220064723
2.063749514563107,0.5175415318230853,-7.319434778856526,7.437869557713053
2.0717485436893206,0.5197634843581446,-7.29561544768069,7.3902308953613804
2.0797475728155344,0.521985436893204,-7.271796116504853,7.342592233009707
2.0877466019417477,0.5242073894282633,-7.247976785329018,7.294953570658037
2.0957456310679614,0.5264293419633226,-7.224157454153182,7.247314908306364
2.1037446601941747,0.5286512944983819,-7.200338122977347,7.199676245954694
2.1117436893203885,0.5308732470334412,-7.17651879180151,7.152037583603021
2.1197427184466022,0.5330951995685006,-7.152699460625674,7.104398921251348
2.1277417475728155,0.44161553398058373,-6.7314436893203995,6.337191262135936
2.1357407766990293,0.6973210773567186,-6.473753053554651,5.846506107109302
2.143739805825243,0.7172756446393163,-6.466442112955423,5.831884225910846
2.1517388349514563,0.737230211921913,-6.459131172356196,5.8172623447123915
2.15973786407767,0.7571847792045107,-6.451820231756968,5.802640463513937
2.167736893203884,0.7771393464871085,-6.444509291157741,5.788018582315481
2.175735922330097,0.7970939137697051,-6.437198350558513,5.773396701117027
2.183734951456311,0.8170484810523029,-6.429887409959286,5.758774819918571
2.1917339805825247,0.8370030483349006,-6.422576469360058,5.7441529387201165
2.199733009708738,0.8569576156174972,-6.4152655287608304,5.729531057521662
2.2077320388349517,0.876912182900095,-6.407954588161603,5.714909176323206
2.215731067961165,0.8968667501826917,-6.400643647562376,5.7002872951247525
2.223730097087379,0.8956524271844607,-6.396920388349516,5.7662155339806045
2.2317291262135925,0.8655757281553416,-6.118733495145629,5.832997572815531
2.239728155339806,0.87,-6.113,5.826
2.2477271844660196,0.9033266504854389,-6.038842293689316,5.877289951456314
2.2557262135922334,0.9597198058252459,-5.913357524271838,5.964079417475733
2.2637252427184467,1.0161129611650497,-5.787872754854367,6.050868883495147
2.2717242718446604,1.0725061165048566,-5.662387985436888,6.137658349514567
2.279723300970874,1.1288992718446633,-5.53690321601941,6.224447815533986
2.2877223300970875,1.1852924271844671,-5.411418446601939,6.3112372815533995
2.2957213592233012,1.241685582524274,-5.2859336771844605,6.398026747572819
2.3037203883495145,1.298078737864078,-5.160448907766989,6.484816213592233
2.3117194174757283,1.3544718932038848,-5.034964138349512,6.571605679611652
2.319718446601942,1.4108650485436915,-4.909479368932033,6.658395145631071
2.3277174757281553,1.6488291262135912,-4.624946116504854,6.859052427184463
2.335716504854369,1.738888986324251,-4.883309969725442,7.213034011901033
2.343715533980583,1.7429315064202946,-4.992888067647983,7.15291227685562
2.351714563106796,1.7469740265163378,-5.102466165570518,7.09279054181021
2.35971359223301,1.7510165466123813,-5.212044263493059,7.032668806764797
2.3677126213592237,1.7550590667084247,-5.3216223614156,6.972547071719384
2.375711650485437,1.7591015868044682,-5.431200459338136,6.912425336673975
2.3837106796116507,1.7631441069005116,-5.540778557260676,6.852303601628561
2.3917097087378645,1.767186626996555,-5.650356655183218,6.792181866583149
2.399708737864078,1.7712291470925983,-5.759934753105753,6.732060131537739
2.4077077669902915,1.775271667188642,-5.8695128510282935,6.671938396492326
2.415706796116505,1.7793141872846852,-5.979090948950829,6.611816661446916
2.4237058252427186,1.7392388349514445,-6.289335922330154,6.765924271844717
2.4317048543689324,1.4576436893204092,-7.1560271844660495,7.576164077669946
2.4397038834951457,1.5799895276535412,-7.184657303370783,7.825869968364789
2.4477029126213594,1.6324775389985844,-7.08282696629213,7.92832944256573
2.455701941747573,1.6849655503436274,-6.980996629213476,8.03078891676667
2.4637009708737865,1.7374535616886675,-6.879166292134828,8.133248390967605
2.4717000000000002,1.7899415730337107,-6.7773359550561745,8.235707865168544
2.479699029126214,1.8424295843787537,-6.67550561797752,8.338167339369486
2.4876980582524273,1.8949175957237938,-6.573675280898872,8.44062681357042
2.495697087378641,1.947405607068837,-6.471844943820218,8.54308628777136
2.503696116504855,1.99989361841388,-6.370014606741565,8.6455457619723
2.511695145631068,2.05238162975892,-6.268184269662917,8.748005236173235
2.519694174757282,2.1048696411039636,-6.166353932584263,8.850464710374176
2.527693203883495,2.14814142394822,-6.2633019417475735,9.331405501618123
2.535692233009709,1.995255987055017,-7.202160032362474,10.584226213592242
2.5436912621359227,2.0282413314840504,-7.5006912621359225,10.755004160887655
2.551690291262136,2.0525240984743407,-7.508690291262136,10.702153432732317
2.5596893203883497,2.0768068654646323,-7.51668932038835,10.649302704576975
2.5676883495145635,2.1010896324549244,-7.524688349514563,10.596451976421635
2.575687378640777,2.1253723994452147,-7.532687378640777,10.543601248266297
2.5836864077669905,2.1496551664355064,-7.540686407766991,10.490750520110955
2.5916854368932043,2.173937933425798,-7.548685436893204,10.437899791955616
2.5996844660194176,2.1982207004160887,-7.5566844660194175,10.385049063800277
2.6076834951456314,2.2225034674063804,-7.564683495145632,10.332198335644938
2.6156825242718447,2.2467862343966707,-7.572682524271845,10.2793476074896
2.6236815533980584,2.4959572815534052,-7.262396116504844,9.390644660194148
2.631680582524272,2.8277659223301046,-6.133157766990269,7.488204951456288
2.6396796116504855,2.6851533077444114,-5.161629261684354,7.4758053736735155
2.6476786407766992,2.593071460826369,-5.315750090313845,7.451343226461955
2.655677669902913,2.500989613908327,-5.469870918943336,7.426881079250394
2.6636766990291263,2.40890776699029,-5.623991747572818,7.4024189320388345
2.67167572815534,2.316825920072248,-5.778112576202309,7.377956784827274
2.679674757281554,2.2247440731542056,-5.932233404831799,7.3534946376157135
2.687673786407767,2.1326622262361683,-6.086354233461282,7.3290324904041535
2.695672815533981,2.0405803793181265,-6.2404750620907725,7.3045703431925935
2.7036718446601946,1.948498532400084,-6.394595890720264,7.2801081959810325
2.711670873786408,1.856416685482047,-6.548716719349746,7.255646048769473
2.7196699029126217,1.7643348385640047,-6.702837547979237,7.2311839015579125
2.727668932038835,0.538519417475737,-7.4792655339805965,6.849986407766991
2.7356679611650487,0.572826574202498,-7.348962662968101,7.171700249653258
2.7436669902912625,0.6781852149791994,-7.412497808599171,7.084967919556169
2.751666019417476,0.7835438557558949,-7.476032954230236,6.998235589459084
2.7596650485436895,0.8889024965325963,-7.539568099861306,6.911503259361995
2.7676640776699033,0.9942611373092978,-7.603103245492375,6.824770929264906
2.7756631067961166,1.0996197780859933,-7.666638391123441,6.7380385991678216
2.7836621359223304,1.2049784188626946,-7.73017353675451,6.651306269070732
2.791661165048544,1.3103370596393962,-7.79370868238558,6.564573938973643
2.7996601941747574,1.4400097087378707,-7.719961165048517,6.485
2.807659223300971,1.493896943858167,-6.995613879273955,5.0142981764457595
2.815658252427185,1.4644744280287025,-6.974468619670746,5.083228940481219
2.8236572815533982,1.4350519121992396,-6.953323360067539,5.152159704516675
2.831656310679612,1.405629396369775,-6.93217810046433,5.221090468552134
2.8396553398058253,1.376206880540312,-6.911032840861123,5.29002123258759
2.847654368932039,1.3467843647108475,-6.889887581257914,5.35895199662305
2.855653398058253,1.317361848881383,-6.868742321654706,5.427882760658509
2.863652427184466,1.28793933305192,-6.847597062051498,5.496813524693965
2.87165145631068,1.2585168172224555,-6.82645180244829,5.565744288729425
2.8796504854368936,1.229094301392991,-6.805306542845081,5.634675052764884
2.887649514563107,1.199671785563528,-6.784161283241874,5.70360581680034
2.8956485436893207,1.1702492697340634,-6.763016023638665,5.772536580835799
2.9036475728155344,1.1408267539045989,-6.741870764035456,5.841467344871258
2.9116466019417477,1.1114042380751359,-6.720725504432249,5.910398108906715
2.9196456310679615,1.0819817222456714,-6.69958024482904,5.979328872942173
2.927644660194175,1.0695247572815532,-6.936038349514571,6.056616019417478
2.9356436893203885,1.209376181933305,-6.533049335162516,6.074980128746306
2.9436427184466023,1.2058113972140143,-6.522181089067117,6.070545884339383
2.9516417475728156,1.2022466124947235,-6.511312842971718,6.066111639932461
2.9596407766990294,1.1986818277754325,-6.500444596876319,6.061677395525538
2.967639805825243,1.1951170430561417,-6.48957635078092,6.057243151118615
2.9756388349514564,1.191552258336851,-6.478708104685522,6.052808906711692
2.98363786407767,1.18798747361756,-6.467839858590122,6.04837466230477
2.991636893203884,1.1844226888982692,-6.456971612494723,6.043940417897847
2.9996359223300972,1.1808579041789784,-6.446103366399325,6.039506173490924
3.007634951456311,1.1772931194596874,-6.4352351203039255,6.035071929084001
3.0156339805825247,1.1737283347403966,-6.424366874208526,6.030637684677078
3.023633009708738,1.1701635500211058,-6.413498628113128,6.026203440270156
3.031632038834952,2.000827087378659,-5.4640127184465825,5.876437281553402
3.039631067961165,2.155398058252427,-4.8400679611650395,6.796669902912638
3.047630097087379,2.1717153324784766,-4.774804039201319,6.908121734749955
3.0556291262135926,2.191335592599378,-4.757824967942846,6.9344581608353195
3.063628155339806,2.2109558527202786,-4.740845896684374,6.960794586920682
3.0716271844660197,2.2305761128411805,-4.723866825425902,6.987131013006046
3.0796262135922334,2.250196372962082,-4.706887754167429,7.01346743909141
3.0876252427184467,2.2698166330829825,-4.689908682908958,7.039803865176773
3.0956242718446605,2.2894368932038844,-4.672929611650485,7.066140291262137
3.1036233009708742,2.309057153324786,-4.655950540392012,7.092476717347501
3.1116223300970876,2.3286774134456865,-4.638971469133541,7.118813143432864
3.1196213592233013,2.348297673566588,-4.621992397875068,7.145149569518228
3.1276203883495146,2.3679179336874885,-4.6050133266165965,7.171485995603591
3.1356194174757284,2.3875381938083904,-4.5880342553581235,7.197822421688955
3.143618446601942,2.407158453929292,-4.5710551840996505,7.224158847774319
3.1516174757281554,1.7179650485436777,-5.146365048543656,6.993081553398011
3.159616504854369,1.760261442441058,-4.7265897364771075,6.739962135922331
3.167615533980583,1.9008158113731002,-4.4806767267683645,6.799154951456313
3.1756145631067962,2.0413701803051345,-4.234763717059635,6.858347766990292
3.18361359223301,2.181924549237176,-3.9888507073508914,6.917540582524274
3.1916126213592237,2.3224789181692183,-3.742937697642148,6.976733398058256
3.199611650485437,2.4630332871012524,-3.4970246879334184,7.0359262135922345
3.207610679611651,2.6035876560332945,-3.251111678224675,7.0951190291262165
3.2156097087378646,2.7441420249653365,-3.0051986685159315,7.1543118446601985
3.223608737864078,3.002443689320444,-2.616988834951387,7.196520873786402
3.2316077669902916,3.390787597870344,-2.727854494206081,7.491250798621982
3.239606796116505,3.444458502975259,-2.841561123290533,7.41289471761144
3.2476058252427187,3.498129408080177,-2.955267752374991,7.334538636600895
3.2556048543689324,3.551800313185095,-3.068974381459449,7.25618255559035
3.2636038834951457,3.60547121829001,-3.1826810105439,7.177826474579809
3.2716029126213595,3.659142123394928,-3.296387639628358,7.099470393569263
3.2796019417475732,3.712813028499846,-3.410094268712816,7.021114312558717
3.2876009708737866,3.7664839336047615,-3.5238008977972677,6.942758231548177
3.2956000000000003,3.8201548387096795,-3.637507526881725,6.8644021505376305
3.303599029126214,3.8738257438145975,-3.751214155966183,6.786046069527085
3.3115980582524274,3.9274966489195124,-3.864920785050635,6.707689988516544
3.319597087378641,3.9811675540244305,-3.978627414135093,6.629333907505999
3.3275961165048544,5.045020388349499,-3.959590291262137,6.014591262135931
3.335595145631068,3.6322506619594006,-5.5852506619594005,3.740559355692848
3.343594174757282,3.668609885260372,-5.621609885260372,3.5678530450132326
3.3515932038834952,3.704969108561342,-5.657969108561342,3.3951467343336272
3.359592233009709,3.7413283318623134,-5.694328331862313,3.222440423654012
3.3675912621359227,3.777687555163285,-5.730687555163285,3.0497341129743973
3.375590291262136,3.8140467784642547,-5.7670467784642545,2.877027802294792
3.38358932038835,3.850406001765226,-5.803406001765226,2.704321491615177
3.3915883495145636,3.8867652250661977,-5.8397652250661976,2.531615180935562
3.399587378640777,3.9231244483671674,-5.876124448367166,2.3589088702559566
3.4075864077669906,3.959483671668139,-5.912483671668138,2.1862025595763415
3.4155854368932044,3.9958428949691105,-5.9488428949691095,2.0134962488967267
3.4235844660194177,4.000953398058252,-5.865130097087374,1.6753572815533901
3.4315834951456314,3.8795563677898306,-5.295316904625909,0.6674796116504516
3.4395825242718447,3.325446601941679,-4.327194174757214,-0.6992330097088051
3.4475815533980585,0.7245414157551856,-2.582793658596543,0.24143411576750184
3.4555805825242722,0.5336785055917312,-2.836940027037005,0.8029862111343545
3.4635796116504856,0.3428155954282876,-3.0910863954774523,1.364538306501176
3.4715786407766993,0.1519526852648333,-3.3452327639179145,1.9260904018680287
3.479577669902913,-0.03891022489862095,-3.5993791323583757,2.487642497234882
3.4875766990291264,-0.22977313506206465,-3.8535255007988236,3.0491945926017032
3.49557572815534,-0.4206360452255189,-4.107671869239285,3.610746687968556
3.503574757281554,-0.6114989553889731,-4.361818237679747,4.172298783335409
3.511573786407767,-0.802361865552417,-4.615964606120195,4.73385087870223
3.519572815533981,-0.9932247757158712,-4.870110974560657,5.295402974069083
3.5275718446601947,-0.9694757281552162,-4.392812621358613,8.782970873785263
3.535570873786408,-1.1375436893203965,-5.474607766990298,9.889551456310691
3.5435699029126217,-1.3621972732906544,-5.651862848585012,10.177516504854385
3.551568932038835,-1.5868508572608997,-5.829117930179717,10.465481553398064
3.559567961165049,-1.8115044412311576,-6.006373011774432,10.753446601941757
3.5675669902912626,-2.0361580252014155,-6.183628093369147,11.04141165048545
3.575566019417476,-2.260811609171661,-6.360883174963852,11.32937669902913
3.5835650485436896,-2.485465193141919,-6.538138256558566,11.617341747572823
3.5915640776699034,-2.710118777112177,-6.715393338153282,11.905306796116518
3.5995631067961167,-2.934772361082422,-6.892648419747987,12.193271844660195
3.6075621359223304,-3.15942594505268,-7.069903501342702,12.48123689320389
3.615561165048544,-3.3840795290229377,-7.247158582937416,12.769201941747585
3.6235601941747575,-4.580062135922433,-6.742007766990222,13.154640776699042
3.6315592233009713,-2.1216947572813787,-4.281115339806128,10.857177087378558
3.6395582524271846,-1.3764733827860802,-5.60446525580888,10.52582251554489
3.6475572815533983,-1.3697326279044395,-5.6513809097851,10.558537645903787
3.655556310679612,-1.3629918730227988,-5.69829656376132,10.591252776262683
3.6635553398058254,-1.3562511181411583,-5.745212217737538,10.623967906621578
3.671554368932039,-1.3495103632595176,-5.792127871713758,10.656683036980475
3.679553398058253,-1.3427696083778766,-5.839043525689978,10.689398167339371
3.687552427184466,-1.3360288534962363,-5.885959179666195,10.722113297698266
3.69555145631068,-1.3292880986145954,-5.932874833642415,10.754828428057163
3.7035504854368937,-1.3225473437329547,-5.979790487618635,10.78754355841606
3.711549514563107,-1.3158065888513142,-6.026706141594852,10.820258688774954
3.7195485436893208,-1.3090658339696735,-6.073621795571072,10.852973819133851
3.7275475728155345,0.4991262135924469,-4.915780582524491,10.37466019417484
3.735546601941748,1.0513541183839656,-5.473807516442218,10.555685238542644
3.7435456310679616,1.0872207328531176,-5.501675101785156,10.528419730660818
3.751544660194175,1.1230873473222676,-5.529542687128092,10.501154222778995
3.7595436893203886,1.1589539617914197,-5.557410272471031,10.47388871489717
3.7675427184466024,1.1948205762605717,-5.585277857813969,10.446623207015344
3.7755417475728157,1.2306871907297217,-5.613145443156906,10.41935769913352
3.7835407766990294,1.2665538051988736,-5.641013028499844,10.392092191251695
3.791539805825243,1.3024204196680256,-5.6688806138427825,10.36482668336987
3.7995388349514565,1.3382870341371755,-5.696748199185719,10.337561175488046
3.8075378640776703,1.3741536486063275,-5.724615784528658,10.310295667606221
3.815536893203884,1.4100202630754797,-5.752483369871596,10.283030159724396
3.8235359223300973,1.4217976699029105,-5.777611067961166,10.308920776699035
3.831534951456311,1.3322085436893145,-5.791209417475729,10.55849048543691
3.839533980582525,-0.02316662903590365,-5.4461227139309125,12.443792052382035
3.847533009708738,-0.10892366222623717,-5.506487480243847,12.594657462181083
3.855532038834952,-0.19468069541657546,-5.5668522465567865,12.745522871980137
3.863531067961165,-0.28043772860690896,-5.627217012869722,12.896388281779183
3.871530097087379,-0.3661947617972473,-5.68758177918266,13.047253691578238
3.8795291262135927,-0.4519517949875856,-5.7479465454956,13.198119101377294
3.887528155339806,-0.5377088281779191,-5.808311311808535,13.34898451117634
3.8955271844660198,-0.6234658613682574,-5.8686760781214735,13.499849920975395
3.9035262135922335,-0.7092228945585957,-5.929040844434413,13.65071533077445
3.911525242718447,-0.7949799277489292,-5.9894056107473475,13.801580740573497
3.9195242718446606,-0.8807369609392675,-6.049770377060287,13.952446150372552
3.9275233009708743,-0.8093796116504358,-8.200380582524375,14.144865048543886
3.9355223300970876,-1.1845570388349842,-8.088290776699004,14.04314927184462
3.9435213592233014,-1.3562371330668237,-7.951435054254707,13.764432450028544
3.9515203883495147,-1.4252169960022862,-7.891865813820672,13.598146750428322
3.9595194174757284,-1.4941968589377528,-7.832296573386634,13.431861050828092
3.967518446601942,-1.5631767218732193,-7.772727332952595,13.26557535122786
3.9755174757281555,-1.632156584808682,-7.71315809251856,13.099289651627638
3.9835165048543693,-1.7011364477441484,-7.653588852084521,12.933003952027407
3.991515533980583,-1.770116310679615,-7.594019611650483,12.766718252427175
3.9995145631067963,-1.8390961736150775,-7.5344503712164475,12.600432552826954
4.00751359223301,-1.9080760365505403,-7.474881130782412,12.434146853226732
4.015512621359224,-1.9770558994860106,-7.41531189034837,12.267861153626491
4.023511650485437,-1.9589291262135844,-6.978505825242677,11.454268932038762
4.03151067961165,-1.404429126213597,-8.86710485436891,9.109087378640798
4.039509708737865,-1.532399476382675,-8.154518762954073,8.214386331406132
4.047508737864078,-1.5097505399803632,-8.14220565070361,8.241079720737428
4.055507766990291,-1.4871016035780515,-8.129892538453147,8.267773110068726
4.0635067961165054,-1.4644526671757372,-8.117579426202683,8.294466499400023
4.071505825242719,-1.4418037307734255,-8.10526631395222,8.32115988873132
4.079504854368932,-1.4191547943711138,-8.092953201701757,8.347853278062615
4.087503883495146,-1.3965058579687994,-8.080640089451292,8.374546667393915
4.09550291262136,-1.3738569215664878,-8.06832697720083,8.40124005672521
4.103501941747573,-1.351207985164176,-8.056013864950366,8.427933446056507
4.111500970873787,-1.328559048761862,-8.0437007526999,8.454626835387806
4.1195,-1.30591011235955,-8.031387640449438,8.481320224719102
4.127499029126214,-0.3997933980582573,-7.912624466019419,8.58927922330097
4.135498058252428,0.48538666957566207,-7.427541060325077,6.699396836478672
4.143497087378641,0.6051024762735955,-7.397252601723572,6.684657052470818
4.1514961165048545,0.7248182829715291,-7.366964143122068,6.669917268462965
4.159495145631069,0.8445340896694757,-7.336675684520561,6.655177484455109
4.167494174757282,0.9642498963674091,-7.306387225919057,6.640437700447256
4.175493203883495,1.0839657030653427,-7.276098767317552,6.625697916439402
4.1834922330097095,1.2036815097632894,-7.245810308716044,6.610958132431547
4.191491262135923,1.323397316461223,-7.21552185011454,6.596218348423693
4.199490291262136,1.4431131231591563,-7.185233391513036,6.58147856441584
4.207489320388349,1.5628289298570897,-7.1549449329115316,6.566738780407986
4.215488349514564,1.6825447365550366,-7.124656474310024,6.551998996400131
4.223487378640777,1.6952864077669718,-6.465357281553282,6.456296116504801
4.23148640776699,1.8503466019417518,-6.111445631067974,6.137375728155343
4.2394854368932045,1.9935120081757782,-6.559640265712827,6.248156872764438
4.247484466019418,1.9811345631067954,-6.569323300970874,6.286299611650487
4.255483495145631,1.9687571180378127,-6.579006336228922,6.324442350536536
4.263482524271845,1.9563796729688285,-6.5886893714869705,6.3625850894225895
4.271481553398059,1.944002227899846,-6.5983724067450185,6.4007278283086375
4.279480582524272,1.9316247828308633,-6.608055442003066,6.438870567194686
4.287479611650486,1.919247337761879,-6.617738477261115,6.47701330608074
4.295478640776699,1.9068698926928964,-6.627421512519163,6.515156044966789
4.303477669902913,1.8944924476239136,-6.63710454777721,6.553298783852838
4.311476699029127,1.8821150025549296,-6.646787583035259,6.59144152273889
4.31947572815534,1.869737557485947,-6.656470618293307,6.629584261624939
4.3274747572815535,1.857360112416964,-6.666153653551355,6.667727000510988
4.335473786407768,1.8310339805824165,-6.471176699029235,6.82687864077691
4.343472815533981,1.7981186293546558,-7.047462672758425,6.934336105082808
4.351471844660194,1.8289854711593376,-7.086140331239292,6.901210713877783
4.3594708737864085,1.8598523129640232,-7.124817989720163,6.868085322672756
4.367469902912622,1.890719154768705,-7.16349564820103,6.834959931467731
4.375468932038835,1.921585996573387,-7.202173306681897,6.801834540262707
4.383467961165049,1.9524528383780724,-7.2408509651627675,6.7687091490576785
4.391466990291263,1.9833196801827544,-7.2795286236436345,6.735583757852654
4.399466019417476,2.0141865219874364,-7.3182062821245015,6.70245836664763
4.407465048543689,2.0450533637921184,-7.356883940605368,6.669332975442605
4.4154640776699035,2.0759202055968036,-7.395561599086239,6.636207584237577
4.423463106796117,2.104305339805825,-7.506328640776742,6.585781067961155
4.43146213592233,1.8953166103841281,-7.493744470240608,6.251184487125369
4.439461165048544,1.8915779337273106,-7.486875738708315,6.22483985859012
4.447460194174758,1.8878392570704936,-7.480007007176023,6.198495230054874
4.455459223300971,1.8841005804136766,-7.4731382756437315,6.172150601519628
4.463458252427185,1.880361903756859,-7.466269544111439,6.1458059729843795
4.471457281553398,1.876623227100042,-7.4594008125791476,6.1194613444491335
4.479456310679612,1.872884550443225,-7.452532081046855,6.0931167159138875
4.487455339805826,1.8691458737864075,-7.445663349514563,6.066772087378639
4.495454368932039,1.8654071971295905,-7.438794617982271,6.040427458843393
4.5034533980582525,1.8616685204727732,-7.431925886449979,6.014082830308148
4.511452427184467,1.857929843815956,-7.4250571549176865,5.987738201772898
4.51945145631068,1.8541911671591387,-7.418188423385395,5.961393573237653
4.527450485436893,1.9511087378640801,-6.9939766990291155,5.817516504854366
4.5354495145631075,1.8129891046386106,-6.633951132686082,6.853477777777786
4.543448543689321,1.7178895361380733,-6.615286731391584,6.945022222222228
4.551447572815534,1.6400603155339806,-6.601588309061489,7.011616140776697
4.559446601941748,1.6403936084142394,-6.610365021574974,6.965288430420706
4.567445631067962,1.6407269012944983,-6.6191417340884575,6.918960720064721
4.575444660194175,1.6410601941747573,-6.627918446601942,6.872633009708736
4.583443689320389,1.6413934870550162,-6.636695159115427,6.826305299352745
4.5914427184466025,1.641726779935275,-6.645471871628911,6.7799775889967595
4.599441747572816,1.642060072815534,-6.654248584142396,6.733649878640774
4.607440776699029,1.642393365695793,-6.66302529665588,6.687322168284789
4.615439805825243,1.6427266585760518,-6.671802009169364,6.640994457928798
4.623438834951457,1.4394847896439669,-6.681238187702266,6.579978640776694
4.63143786407767,0.38707669902911856,-6.680739805825247,6.490745145631053
4.639436893203884,-0.05576292616843488,-6.679844660194174,6.612485888462405
4.647435922330097,-0.04822895687514098,-6.667846116504854,6.597324937909234
4.655434951456311,-0.04069498758184707,-6.655847572815534,6.582163987356062
4.663433980582525,-0.033161018288552335,-6.643849029126213,6.567003036802889
4.671433009708738,-0.025627048995258438,-6.6318504854368925,6.551842086249717
4.6794320388349515,-0.018093079701964533,-6.619851941747573,6.536681135696546
4.687431067961166,-0.010559110408669796,-6.607853398058252,6.521520185143372
4.695430097087379,-0.0030251411153758914,-6.595854854368932,6.506359234590201
4.703429126213592,0.004508828177918006,-6.583856310679612,6.491198284037029
4.7114281553398065,0.012042797471212757,-6.5718577669902905,6.476037333483856
4.71942718446602,0.019576766764506648,-6.559859223300971,6.460876382930684
4.727426213592233,-0.2598043689320481,-6.775816019417444,6.84091941747574
4.735425242718447,-0.20077657375509414,-7.198350704666463,6.669386595678042
4.743424271844661,-0.2615003862616167,-7.274728531161919,6.626295051675538
4.751423300970874,-0.32222419876813924,-7.351106357657376,6.583203507673034
4.759422330097088,-0.38294801127466854,-7.42748418415284,6.540111963670525
4.7674213592233015,-0.4436718237811911,-7.503862010648297,6.497020419668021
4.775420388349515,-0.5043956362877137,-7.580239837143753,6.453928875665517
4.783419417475729,-0.5651194487942429,-7.656617663639218,6.410837331663009
4.791418446601942,-0.6258432613007655,-7.732995490134674,6.367745787660505
4.799417475728156,-0.6865670738072881,-7.80937331663013,6.324654243658001
4.80741650485437,-0.7472908863138173,-7.885751143125595,6.281562699655493
4.815415533980583,-0.8080146988203399,-7.962128969621051,6.238471155652989
4.823414563106796,-0.5453815533979768,-7.958515533980566,5.752461650485319
4.83141359223301,0.3939658001879121,-7.176207015346068,5.874762522183943
4.839412621359224,0.42699404948324815,-7.127180707798304,5.837519730660817
4.847411650485437,0.4600222987785806,-7.078154400250544,5.800276939137694
4.8554106796116505,0.4930505480739129,-7.029128092702786,5.763034147614572
4.863409708737865,0.526078797369249,-6.980101785155021,5.725791356091446
4.871408737864078,0.5591070466645813,-6.931075477607262,5.688548564568324
4.879407766990291,0.5921352959599138,-6.882049170059503,5.651305773045202
4.8874067961165055,0.6251635452552498,-6.833022862511739,5.614062981522076
4.895405825242719,0.6581917945505822,-6.78399655496398,5.576820189998953
4.903404854368932,0.6912200438459146,-6.7349702474162205,5.539577398475831
4.911403883495146,0.7242482931412506,-6.685943939868457,5.502334606952704
4.91940291262136,0.757276542436583,-6.6369176323206975,5.465091815429583
4.927401941747573,0.8679359223301013,-6.21225307443364,5.412485436893203
4.935400970873787,0.6761669020300121,-6.273461253309821,5.262335834068816
4.9434000000000005,0.801954430379751,-6.540800000000002,4.774896202531635
4.951399029126214,0.8410382942116283,-6.556798058252428,4.672832641022484
4.959398058252428,0.88012215804351,-6.572796116504857,4.570769079513321
4.967397087378641,0.9192060218753875,-6.588794174757283,4.46870551800417
4.975396116504855,0.9582898857072648,-6.60479223300971,4.366641956495019
4.983395145631069,0.9973737495391465,-6.6207902912621375,4.264578394985856
4.991394174757282,1.036457613371024,-6.636788349514564,4.162514833476704
4.999393203883495,1.0755414772029013,-6.652786407766991,4.060451271967553
5.00739223300971,1.1146253410347828,-6.668784466019419,3.9583877104583904
5.015391262135923,1.1537092048666602,-6.684782524271846,3.856324148949239
5.023390291262136,1.077975728155341,-6.597294174757296,3.628026213592251
5.0313893203883495,1.0171410295307435,-7.421837065129452,4.448759931229776
5.039388349514564,0.9817286610032326,-7.501744033171529,4.525583940129458
5.047387378640777,0.9463162924757259,-7.581651001213597,4.602407949029131
5.05538640776699,0.9109039239482191,-7.661557969255666,4.679231957928804
5.0633854368932045,0.8754915554207083,-7.741464937297743,4.7560559668284865
5.071384466019418,0.8400791868932016,-7.821371905339811,4.832879975728161
5.079383495145631,0.8046668183656948,-7.901278873381879,4.909703984627834
5.087382524271845,0.769254449838184,-7.981185841423956,4.986527993527516
5.095381553398059,0.7338420813106772,-8.061092809466025,5.063352002427189
5.103380582524272,0.6984297127831705,-8.140999777508092,5.140176011326863
5.111379611650486,0.6630173442556597,-8.22090674555017,5.217000020226545
5.1193786407766995,0.6276049757281529,-8.30081371359224,5.293824029126219
5.127377669902913,0.29577475728190417,-11.108318446601913,7.157083009708549
5.135376699029127,1.663532435536066,-10.984835202004382,6.434615429585556
5.14337572815534,1.645384100636808,-10.968321077356716,6.465493402234057
5.151374757281554,1.62723576573755,-10.951806952709049,6.496371374882558
5.159373786407768,1.6090874308382899,-10.935292828061382,6.527249347531061
5.167372815533981,1.590939095939032,-10.918778703413716,6.558127320179562
5.175371844660194,1.572790761039774,-10.902264578766049,6.5890052928280625
5.183370873786409,1.554642426140514,-10.885750454118382,6.619883265476567
5.191369902912622,1.5364940912412561,-10.869236329470716,6.650761238125067
5.199368932038835,1.518345756341998,-10.85272220482305,6.681639210773567
5.207367961165049,1.500197421442738,-10.836208080175382,6.712517183422071
5.215366990291263,1.48204908654348,-10.819693955527715,6.743395156070572
5.223366019417476,1.1616946601941684,-10.790973786407767,7.324286893203895
5.231365048543689,1.1637346278317187,-9.871302912621353,6.882459223300959
5.2393640776699035,1.1875089574664786,-9.379999364308828,5.644783691631993
5.247363106796117,1.0556202034211752,-9.309626953305594,5.666971474803513
5.25536213592233,0.9237314493758719,-9.23925454230236,5.689159257975033
5.263361165048544,0.7918426953305538,-9.168882131299119,5.711347041146556
5.271360194174758,0.6599539412852505,-9.098509720295885,5.733534824318077
5.279359223300971,0.5280651872399471,-9.028137309292651,5.755722607489597
5.287358252427185,0.39617643319462914,-8.957764898289408,5.77791039066112
5.2953572815533985,0.2642876791493258,-8.887392487286174,5.80009817383264
5.303356310679612,0.1323989251040225,-8.81702007628294,5.82228595700416
5.311355339805826,0.0005101710587045449,-8.7466476652797,5.844473740175683
5.319354368932039,-0.131378582986599,-8.676275254276465,5.8666615233472035
5.327353398058253,-0.3433258899676385,-7.950122006472482,5.392951779935267
5.335352427184467,-0.4265815533980678,-7.858112546676631,5.138661015683326
5.34335145631068,-0.523539805825239,-8.057361165048736,4.830483495145475
5.351350485436893,-0.4031345353675374,-8.712783142100623,4.287990026478371
5.359349514563108,-0.26600832177529393,-8.809498676081212,4.198546337157976
5.367348543689321,-0.12888210818306572,-8.906214210061792,4.109102647837591
5.375347572815534,0.008244105409162539,-9.00292974404237,4.019658958517206
5.383346601941748,0.14537031900140596,-9.099645278022962,3.93021526919681
5.391345631067962,0.28249653259363416,-9.19636081200354,3.8407715798764253
5.399344660194175,0.41962274618586237,-9.293076345984119,3.75132789055604
5.407343689320389,0.5567489597781059,-9.38979187996471,3.6618842012356447
5.4153427184466025,0.6938751733703341,-9.486507413945288,3.57244051191526
5.423341747572816,0.7523174757281491,-9.164475728155296,3.6798067961165253
5.431340776699029,1.137044660194174,-8.967038834951449,4.1176635922329785
5.439339805825243,1.2549363704256955,-8.870932337565343,4.391583420463037
5.447338834951457,1.3791059148618383,-8.730272486930543,4.529535907393578
5.45533786407767,1.5032754592979813,-8.589612636295746,4.66748839432412
5.463336893203884,1.627445003734138,-8.448952785660932,4.805440881254676
5.4713359223300975,1.751614548170281,-8.308292935026135,4.943393368185218
5.479334951456311,1.8757840926064238,-8.167633084391335,5.081345855115759
5.487333980582525,1.9999536370425806,-8.026973233756522,5.219298342046316
5.495333009708738,2.1241231814787236,-7.886313383121724,5.3572508289768574
5.503332038834952,3.6270957430918593,-8.764130097087378,4.010396713965646
5.511331067961166,3.5812209692141694,-8.646811003236238,4.164497668243311
5.519330097087379,3.535346195336485,-8.529491909385108,4.318598622520959
5.527329126213592,3.4894714214588,-8.41217281553398,4.472699576798607
5.535328155339807,3.44359664758111,-8.294853721682838,4.626800531076272
5.54332718446602,3.397721873703425,-8.17753462783171,4.78090148535392
5.551326213592233,3.35184709982574,-8.060215533980582,4.9350024396315675
5.559325242718447,3.30597232594805,-7.94289644012944,5.089103393909232
5.567324271844661,3.2600975520703654,-7.825577346278311,5.243204348186881
5.575323300970874,3.2142227781926804,-7.708258252427182,5.397305302464528
5.583322330097088,3.1683480043149905,-7.590939158576041,5.551406256742194
5.5913213592233015,3.1224732304373055,-7.473620064724912,5.7055072110198415
5.599320388349515,3.076598456559621,-7.356300970873784,5.859608165297489
5.607319417475729,3.0307236826819306,-7.238981877022642,6.013709119575154
5.615318446601942,2.984848908804246,-7.121662783171514,6.167810073852802
5.623317475728156,3.4987475728155473,-6.968378640776679,6.071126213592226
5.63131650485437,3.6961977214186685,-6.605654527442029,6.036500772736287
5.639315533980583,3.733172825440859,-6.465916385971853,6.099187041807019
5.6473145631067965,3.770147929463049,-6.326178244501677,6.161873310877752
5.65531359223301,3.8071230334852393,-6.186440103031502,6.224559579948485
5.663312621359224,3.8440981375074337,-6.046701961561311,6.287245849019225
5.671311650485437,3.8810732415296236,-5.906963820091136,6.349932118089958
5.679310679611651,3.9180483455518136,-5.767225678620959,6.412618387160691
5.687309708737865,3.955023449574008,-5.627487537150769,6.4753046562314305
5.695308737864078,3.9919985535961984,-5.487749395680593,6.5379909253021635
5.703307766990291,4.028973657618389,-5.348011254210418,6.600677194372897
5.711306796116506,4.065948761640582,-5.208273112740226,6.663363463443637
5.719305825242719,4.102923865662773,-5.068534971270051,6.72604973251437
5.727304854368932,4.490875728155356,-5.528660582524293,6.342213980582511
5.735303883495146,4.890072233009721,-5.856657475728156,6.004634951456299
5.74330291262136,5.093780841423957,-5.865189773462784,5.801992880258891
5.751301941747573,4.444561883229144,-3.410642638648752,6.80656512834154
5.759300970873787,4.140817927915917,-3.2364172097353205,7.012786673759828
5.7673000000000005,3.837073972602723,-3.0621917808219083,7.219008219178093
5.775299029126214,3.533330017289529,-2.887966351908496,7.4252297645963585
5.783298058252428,3.229586061976301,-2.7137409229950644,7.631451310014646
5.791297087378641,2.925842106663107,-2.5395154940816522,7.837672855432912
5.799296116504855,2.622098151349913,-2.36529006516824,8.043894400851176
5.807295145631069,2.318354196036685,-2.1910646362548087,8.250115946269466
5.815294174757282,2.0146102407234907,-2.0168392073413965,8.45633749168773
5.8232932038834955,1.769440388349504,-1.8508178640776696,8.651657475728156
5.83129223300971,3.6133097087380435,-1.1623228155337775,8.762441504854431
5.839291262135923,4.553336721873216,0.0058824671616286225,8.715535351227869
5.847290291262136,4.563876619074815,0.15871097658481,8.714406076527698
5.85528932038835,4.574416516276413,0.31153948600799136,8.713276801827528
5.863288349514564,4.584956413478014,0.46436799543118973,8.712147527127355
5.871287378640777,4.595496310679612,0.617196504854371,8.711018252427184
5.87928640776699,4.6060362078812105,0.7700250142775524,8.709888977727013
5.887285436893205,4.61657610508281,0.9228535237007508,8.708759703026843
5.895284466019418,4.627116002284409,1.0756820331239323,8.70763042832667
5.903283495145631,4.637655899486008,1.2285105425471137,8.7065011536265
5.911282524271845,4.648195796687608,1.381339051970312,8.705371878926329
5.919281553398059,4.658735693889206,1.5341675613934933,8.704242604226158
5.927280582524272,5.357992427184448,1.9827638834951482,8.852997475728149
5.935279611650486,3.4743018457270893,3.0194173263629653,9.336203883495138
5.9432786407766995,3.486080635868986,3.1061760268857403,9.256213592233005
5.951277669902913,3.4978594260108826,3.192934727408515,9.176223300970872
5.959276699029127,3.5096382161527804,3.2796934279312997,9.09623300970873
5.96727572815534,3.521417006294677,3.3664521284540747,9.016242718446597
5.975274757281554,3.533195796436573,3.4532108289768497,8.936252427184463
5.983273786407768,3.544974586578471,3.539969529499634,8.856262135922323
5.991272815533981,3.5567533767203674,3.626728230022409,8.77627184466019
5.9992718446601945,3.568532166862264,3.713486930545184,8.696281553398057
6.007270873786409,3.5803109570041616,3.8002456310679684,8.616291262135915
6.015269902912622,3.5920897471460584,3.8870043315907434,8.536300970873782
6.023268932038835,3.603903398058253,3.826127669902888,8.757047572815587
6.0312679611650495,1.791660841423691,3.393812297734645,8.95933462783176
6.039266990291263,1.1312645358350624,3.5116831024326425,9.018315915784877
6.047266019417476,1.1711698047343737,3.6031776153594426,8.939583898767317
6.055265048543689,1.2110750736336853,3.6946721282862423,8.860851881749756
6.063264077669904,1.2509803425330013,3.7861666412130526,8.782119864732188
6.071263106796117,1.2908856114323128,3.8776611541398522,8.703387847714627
6.07926213592233,1.3307908803316244,3.9691556670666523,8.624655830697066
6.087261165048544,1.3706961492309404,4.060650179993463,8.545923813679497
6.095260194174758,1.410601418130252,4.152144692920262,8.467191796661936
6.103259223300971,1.4505066870295635,4.243639205847062,8.388459779644375
6.111258252427185,1.4904119559288795,4.335133718773872,8.309727762626807
6.1192572815533985,1.530317224828191,4.426628231700672,8.230995745609246
6.127256310679612,1.0332618122977237,4.384849676375403,8.350300647249195
6.135255339805826,0.7056436893205453,4.146008252427115,8.463934951456276
6.143254368932039,1.0356697087378939,4.3332108737864,8.25663669902911
6.151253398058253,1.3756687737441846,4.248796739130438,7.9984433199662295
6.159252427184467,0.9733697762768669,4.365217391304361,7.960969607429291
6.16725145631068,0.5710707788095939,4.48163804347827,7.9234958948923575
6.1752504854368935,0.16877178134232085,4.598058695652179,7.886022182355423
6.183249514563108,-0.23352721612499683,4.714479347826101,7.848548469818485
6.191248543689321,-0.6358262135922701,4.83090000000001,7.81107475728155
6.199247572815534,-1.038125211059543,4.94732065217392,7.773601044744616
6.2072466019417485,-1.440424208526861,5.063741304347842,7.736127332207678
6.215245631067962,-1.8427232059941339,5.180161956521752,7.698653619670743
6.223244660194175,-2.2450222034614074,5.296582608695661,7.661179907133809
6.231243689320389,-2.647321200928725,5.4130032608695835,7.6237061945968705
6.239242718446603,-3.0496201983959983,5.529423913043493,7.586232482059937
6.247241747572816,-1.1257582524271843,6.405090291262118,6.273447572815556
6.255240776699029,-1.0209872212017859,6.276019968512201,6.488620388349515
6.263239805825243,-0.9060822487536005,6.320230818682763,6.492619902912622
6.271238834951457,-0.7911772763054281,6.3644416688533205,6.496619417475729
6.27923786407767,-0.6762723038572556,6.408652519023878,6.500618932038835
6.287236893203884,-0.5613673314090704,6.45286336919444,6.504618446601942
6.2952359223300975,-0.4464623589608978,6.497074219364998,6.508617961165049
6.303234951456311,-0.33155738651272537,6.541285069535555,6.512617475728156
6.311233980582525,-0.21665241406454006,6.585495919706117,6.516616990291263
6.319233009708738,-0.1017474416163675,6.629706769876675,6.520616504854369
6.327232038834952,-0.5129961165048008,7.0362388349514156,6.271559223300931
6.335231067961166,-0.38723528196654444,6.797613013840111,6.114846849824418
6.343230097087379,-0.5080716794050866,6.73413135715761,6.133482885767404
6.3512291262135925,-0.6289080768436288,6.670649700475108,6.15211892171039
6.359228155339807,-0.7497444742821845,6.6071680437925995,6.170754957653379
6.36722718446602,-0.8705808717207267,6.543686387110097,6.189390993596366
6.375226213592233,-0.9914172691592689,6.480204730427595,6.208027029539352
6.3832252427184475,-1.1122536665978244,6.416723073745087,6.226663065482341
6.391224271844661,-1.2330900640363667,6.353241417062585,6.245299101425327
6.399223300970874,-1.353926461474909,6.289759760380083,6.263935137368313
6.407222330097088,-1.4747628589134645,6.226278103697574,6.282571173311302
6.415221359223302,-1.5955992563520067,6.162796447015072,6.301207209254288
6.423220388349515,-0.7968271844661128,7.125472330097247,5.3950402912620055
6.431219417475729,-1.207440453074467,7.514712621359156,5.492016828479163
6.439218446601942,-1.2430958328788024,7.400676611759571,5.751505945238351
6.447217475728156,-1.2252103632595166,7.382251881749753,5.705848565506706
6.455216504854369,-1.2073248936402308,7.363827151739937,5.660191185775061
6.463215533980583,-1.189439424020943,7.3454024217301175,5.614533806043412
6.4712145631067965,-1.171553954401657,7.3269776917203,5.568876426311768
6.47921359223301,-1.1536684847823713,7.308552961710483,5.523219046580124
6.487212621359224,-1.1357830151630834,7.290128231700664,5.477561666848474
6.495211650485437,-1.1178975455437976,7.271703501690847,5.43190428711683
6.503210679611651,-1.1000120759245118,7.25327877168103,5.3862469073851855
6.511209708737865,-1.082126606305224,7.234854041671211,5.3405895276535365
6.519208737864078,-1.0642411366859381,7.216429311661393,5.294932147921892
6.5272077669902915,-0.4061774757281401,7.588010485436884,5.287843883495144
6.535206796116506,-0.6957361439425918,8.413147192908399,4.938821369776278
6.543205825242719,-0.6947797382861967,8.391932376530182,4.956297509497679
6.551204854368932,-0.6938233326298016,8.370717560151963,4.97377364921908
6.5592038834951465,-0.6928669269734065,8.349502743773742,4.9912497889404825
6.56720291262136,-0.6919105213170114,8.328287927395525,5.0087259286618835
6.575201941747573,-0.6909541156606163,8.307073111017306,5.026202068383284
6.583200970873787,-0.6899977100042212,8.285858294639088,5.043678208104687
6.591200000000001,-0.6890413043478261,8.264643478260869,5.061154347826088
6.599199029126214,-0.688084898691431,8.243428661882652,5.078630487547489
6.607198058252428,-0.6871284930350358,8.222213845504431,5.096106627268892
6.615197087378641,-0.6861720873786408,8.200999029126212,5.113582766990293
6.623196116504855,-0.6852156817222457,8.179784212747995,5.131058906711694
6.631195145631069,-0.243402997045168,8.390805424229635,5.22012962220346
6.639194174757282,-0.25279316167159227,8.396196074292952,5.214304242296327
6.6471932038834955,-0.2621833262980165,8.40158672435627,5.208478862389193
6.655192233009709,-0.2715734909244408,8.406977374419586,5.20265348248206
6.663191262135923,-0.2809636555508661,8.412368024482905,5.1968281025749254
6.671190291262136,-0.29035382017729033,8.417758674546223,5.191002722667792
6.67918932038835,-0.2997439848037146,8.42314932460954,5.1851773427606584
6.687188349514564,-0.30913414943013995,8.428539974672859,5.1793519628535245
6.695187378640777,-0.3185243140565642,8.433930624736176,5.173526582946391
6.7031864077669905,-0.32791447868298845,8.439321274799493,5.1677012030392575
6.711185436893205,-0.3373046433094138,8.444711924862812,5.161875823132123
6.719184466019418,-0.346694807935838,8.45010257492613,5.15605044322499
6.727183495145631,-0.6497788025890188,8.419171197411,5.474512783171545
6.7351825242718455,-0.11326860841425779,8.244460194174764,5.416763754045303
6.743181553398059,-0.2311478806535647,8.30057614255269,5.378980961401846
6.751180582524272,-0.25163319914752563,8.344765901018233,5.351277006867155
6.759179611650486,-0.27211851764148887,8.388955659483782,5.3235730523324625
6.7671786407767,-0.2926038361354498,8.433145417949328,5.295869097797772
6.775177669902913,-0.3130891546294108,8.477335176414872,5.268165143263082
6.783176699029127,-0.33357447312337396,8.521524934880421,5.240461188728389
6.79117572815534,-0.3540597916173349,8.565714693345965,5.212757234193699
6.799174757281554,-0.3745451101112959,8.60990445181151,5.185053279659009
6.807173786407768,-0.3950304286052591,8.654094210277059,5.157349325124316
6.815172815533981,-0.41551574709922,8.698283968742604,5.129645370589626
6.8231718446601946,-0.6884621359224264,8.68795436893202,5.38255533980593
6.831170873786409,-0.008246601941758878,7.79477087378647,5.779786407767066
6.839169902912622,-0.05458622021182733,8.108376103265682,6.4645423102382935
6.847168932038835,-0.05704046778464278,8.223453045013251,6.377189276257714
6.85516796116505,-0.0594947153574585,8.338529986760832,6.289836242277125
6.863166990291263,-0.06194896293027394,8.453606928508401,6.202483208296546
6.871166019417476,-0.06440321050308939,8.56868387025597,6.115130174315967
6.8791650485436895,-0.06685745807590483,8.683760812003538,6.027777140335387
6.887164077669904,-0.06931170564872055,8.798837753751119,5.940424106354798
6.895163106796117,-0.07176595322153599,8.913914695498688,5.8530710723742185
6.90316213592233,-0.07422020079435143,9.028991637246257,5.765718038393639
6.9111611650485445,-0.07667444836716716,9.144068578993839,5.67836500441305
6.919160194174758,-0.0791286959399826,9.259145520741408,5.59101197043247
6.927159223300971,-0.8894784466019388,8.131610097087385,5.568282330097092
6.935158252427185,-0.16436824479109635,7.962183756954296,5.356978258972405
6.943157281553399,-0.14720178902585215,7.985102323551873,5.3865477037198675
6.951156310679612,-0.13003533326060795,8.008020890149451,5.41611714846733
6.959155339805826,-0.11286887749536181,8.03093945674703,5.445686593214796
6.967154368932039,-0.09570242173011761,8.053858023344608,5.475256037962258
6.975153398058253,-0.0785359659648734,8.076776589942185,5.5048254827097205
6.983152427184467,-0.06136951019962729,8.099695156539765,5.534394927457186
6.99115145631068,-0.04420305443438308,8.122613723137341,5.563964372204649
6.9991504854368936,-0.027036598669138878,8.14553228973492,5.593533816952112
7.007149514563108,-0.009870142903892737,8.1684508563325,5.623103261699577
7.015148543689321,0.007296312861351462,8.191369422930077,5.65267270644704
7.023147572815534,-0.09270485436893074,8.119939805825185,5.663034951456354
7.031146601941749,-0.021060090890325296,7.910927205122894,5.812173621152673
7.039145631067962,-0.0974763478620224,7.82685230324312,5.916841768229719
7.047144660194175,-0.1738926048337195,7.742777401363346,6.021509915306765
7.055143689320389,-0.2503088618054251,7.658702499483564,6.126178062383823
7.063142718446603,-0.3267251187771222,7.57462759760379,6.230846209460869
7.071141747572816,-0.4031413757488193,7.490552695724016,6.3355143565379155
7.079140776699029,-0.4795576327205164,7.4064777938442425,6.440182503614961
7.0871398058252435,-0.555973889692222,7.32240289196446,6.544850650692019
7.095138834951457,-0.6323901466639191,7.238327990084686,6.6495187977690655
7.10313786407767,-0.7088064036356162,7.1542530882049125,6.754186944846111
7.111136893203884,-0.7852226606073218,7.07017818632513,6.85885509192317
7.119135922330098,-0.8616389175790189,6.986103284445356,6.9635232390002155
7.127134951456311,-1.3399398058250693,6.928667961165067,6.519732038835197
7.135133980582525,-0.9768302829993792,6.962647304275976,7.033406362321836
7.143133009708738,-0.9654274116917986,6.960009326585416,7.050680861392275
7.151132038834952,-0.954024540384218,6.957371348894856,7.067955360462714
7.159131067961166,-0.942621669076636,6.954733371204297,7.085229859533156
7.167130097087379,-0.9312187977690555,6.952095393513737,7.102504358603595
7.175129126213593,-0.9198159264614748,6.949457415823177,7.119778857674034
7.183128155339807,-0.9084130551538929,6.946819438132617,7.137053356744476
7.19112718446602,-0.8970101838463123,6.944181460442057,7.154327855814915
7.199126213592233,-0.8856073125387316,6.941543482751498,7.171602354885354
7.207125242718448,-0.8742044412311497,6.938905505060938,7.1888768539557955
7.215124271844661,-0.862801569923569,6.936267527370378,7.206151353026235
7.223123300970874,-0.8118203883494518,6.978247572815575,6.768315533980601
7.231122330097088,-0.999116504854371,6.97861941747573,6.3439281553397935
7.239121359223302,-1.0248313106796125,6.9952026699029135,6.207226941747573
7.247120388349515,-1.0521613268608414,7.01091504854369,6.2088457928802585
7.255119417475729,-1.0794913430420734,7.026627427184468,6.210464644012945
7.2631184466019425,-1.1068213592233025,7.042339805825244,6.212083495145631
7.271117475728156,-1.1341513754045314,7.05805218446602,6.213702346278317
7.279116504854369,-1.1614813915857602,7.0737645631067965,6.215321197411003
7.287115533980583,-1.1888114077669922,7.0894769417475745,6.216940048543689
7.295114563106797,-1.2161414239482211,7.105189320388351,6.218558899676376
7.30311359223301,-1.2434714401294502,7.120901699029127,6.220177750809062
7.311112621359224,-1.2708014563106822,7.136614077669905,6.221796601941747
7.319111650485437,-1.298131472491911,7.152326456310681,6.223415453074434
7.327110679611651,-0.05442427184464582,7.138432038834953,7.207861165048565
7.335109708737865,-0.46057900698347576,7.6758036450349225,6.654187812979039
7.343108737864078,-0.4324420711974096,7.73951521035599,6.533570873786402
7.351107766990292,-0.40430513541134344,7.803226775677057,6.412953934593764
7.359106796116506,-0.3761681996252742,7.866938340998132,6.292336995401113
7.367105825242719,-0.348031263839208,7.9306499063192,6.171720056208475
7.375104854368932,-0.3198943280531419,7.994361471640267,6.051103117015837
7.383103883495147,-0.29175739226707265,8.058073036961341,5.9304861778231865
7.39110291262136,-0.2636204564810065,8.121784602282409,5.809869238630549
7.399101941747573,-0.23548352069494036,8.185496167603477,5.689252299437911
7.407100970873787,-0.2073465849088711,8.249207732924551,5.56863536024526
7.415100000000001,-0.17920964912280496,8.31291929824562,5.448018421052622
7.423099029126214,-0.15107271333673877,8.376630863566687,5.327401481859985
7.431098058252428,-0.12293577755066953,8.44034242888776,5.206784542667334
7.4390970873786415,-0.0947988417646034,8.504053994208828,5.086167603474696
7.447096116504855,-0.04691165048536427,8.600064077670023,5.0026592233011
7.455095145631069,2.979386407767437,3.896174757280712,10.370392233010598
7.463094174757282,-4.234605598016878,16.28230637265017,-2.2817360049575433
7.471093203883496,-3.7565359636438327,15.421900165255035,-1.4171600908902355
7.479092233009709,-3.278466329270788,14.561493957859902,-0.5525841768229276
7.487091262135923,-2.8003966948976897,13.701087750464673,0.3119917372444765
7.495090291262136,-2.322327060524645,12.840681543069541,1.1765676513117844
7.50308932038835,-1.8442574261516,11.980275335674408,2.0411435653790924
7.511088349514564,-1.366187791778502,11.11986912827918,2.905719479446496
7.519087378640777,-0.8881181574054571,10.259462920884047,3.770295393513804
7.527086407766991,-0.4100485230324118,9.399056713488914,4.634871307581111
7.535085436893205,0.06802111134068589,8.538650506093685,5.499447221648516
7.543084466019418,0.5460907457137312,7.678244298698553,6.364023135715824
7.551083495145631,1.0241603800867756,6.81783809130342,7.228599049783131
7.559082524271846,0.6076868932038256,7.375529126213643,6.035118932038919
7.567081553398059,-0.01910816676188637,8.044019074814381,6.523114334665903
7.575080582524272,-0.370124386065122,7.936267447173039,6.493941404911478
7.583079611650486,-0.7211406053683965,7.8285158195316855,6.46476847515705
7.5910786407767,-1.0721568246716322,7.720764191890344,6.4355955454026255
7.599077669902913,-1.2855397645114652,7.643298698615989,6.420807684362734
7.607076699029127,-1.106667857880589,7.652148688287545,6.447017269159266
7.6150757281553405,-0.927795951249733,7.6609986779591,6.473226853955795
7.623074757281554,-0.7489240446188768,7.669848667630655,6.4994364387523245
7.631073786407768,-0.5700521379880008,7.678698657302211,6.525646023548856
7.639072815533981,-0.39118023135714464,7.687548646973766,6.5518556083453845
7.647071844660195,-1.3714571932920983,8.485693380405959,5.842252250662025
7.655070873786409,-0.6733601059134123,7.834136098852518,6.821769726390244
7.663069902912622,-0.5597505242718516,7.657940504854366,6.965373281553386
7.671068932038835,-0.6319017669902959,7.632823553398056,6.8433080970873705
7.67906796116505,-0.7040530097087482,7.607706601941744,6.721242912621341
7.687066990291263,-0.7762042524271925,7.582589650485434,6.599177728155326
7.695066019417476,-0.8483554951456368,7.557472699029124,6.47711254368931
7.70306504854369,-0.920506737864081,7.532355747572814,6.3550473592232954
7.711064077669904,-0.49857281553388805,7.43370873786419,6.000502912621243
7.719063106796117,0.13646837725381541,7.751462274618587,5.978065048543693
7.72706213592233,0.15117135460009315,7.7641845399907545,6.0116609708737885
7.735061165048545,0.16587433194637252,7.776906805362923,6.045256893203888
7.743060194174758,0.18057730929265026,7.789629070735091,6.078852815533984
7.751059223300971,0.195280286638928,7.802351336107259,6.112448737864079
7.759058252427185,0.20998326398520736,7.815073601479428,6.146044660194178
7.767057281553399,0.2246862413314851,7.827795866851596,6.179640582524274
7.775056310679612,0.23938921867776283,7.840518132223764,6.21323650485437
7.783055339805826,0.2540921960240422,7.853240397595933,6.2468324271844695
7.7910543689320395,0.26879517337031994,7.8659626629681005,6.280428349514565
7.799053398058253,0.2834981507165977,7.8786849283402685,6.314024271844661
7.807052427184467,0.298201128062877,7.891407193712437,6.347620194174761
7.81505145631068,0.3129041054091548,7.904129459084605,6.381216116504857
7.823050485436894,0.13292524271844885,7.745706796116505,5.961012621359224
7.831049514563108,0.7506975306036264,7.857046823554243,5.963127015618406
7.839048543689321,0.7018338961587145,7.86461112283664,5.983646264246518
7.8470475728155344,0.6529702617138026,7.872175422119038,6.004165512874631
7.855046601941749,0.6041066272688852,7.879739721401436,6.024684761502746
7.863045631067962,0.5552429928239733,7.887304020683834,6.045204010130858
7.871044660194175,0.5063793583790613,7.894868319966231,6.065723258758971
7.8790436893203895,0.45751572393414397,7.902432619248629,6.086242507387086
7.887042718446603,0.40865208948923204,7.909996918531027,6.106761756015198
7.895041747572816,0.3597884550443201,7.917561217813423,6.127281004643311
7.903040776699029,0.3109248205994082,7.925125517095821,6.147800253271423
7.911039805825244,0.2620611861544908,7.932689816378219,6.168319501899537
7.919038834951457,0.21319755170957888,7.940254115660617,6.18883875052765
7.92703786407767,0.30836796116510334,7.942723300970813,5.95169029126212
7.935036893203884,0.8271218804292293,7.824691343893717,5.804348349514561
7.943035922330098,0.8352893101686261,7.8399315993868175,5.793149708737863
7.951034951456311,0.8434567399080228,7.855171854879919,5.781951067961164
7.959033980582525,0.8516241696474205,7.870412110373022,5.770752427184465
7.9670330097087385,0.8597915993868173,7.8856523658661235,5.759553786407766
7.975032038834952,0.867959029126214,7.900892621359224,5.748355145631067
7.983031067961166,0.8761264588656117,7.916132876852327,5.737156504854367
7.991030097087379,0.8842938886050085,7.931373132345429,5.725957864077668
7.999029126213593,0.8924613183444052,7.946613387838529,5.71475922330097
8.007028155339807,0.9006287480838029,7.961853643331632,5.70356058252427
8.01502718446602,0.9087961778231988,7.977093898824732,5.692361941747572
8.023026213592233,0.9169636075625965,7.992334154317835,5.681163300970873
8.031025242718448,-0.08973495145685728,6.796198058252527,4.476155825243054
8.03902427184466,-2.7194935275079226,7.286836569579335,6.104676375404529
8.047023300970874,1.0086429424943988,8.39530224047797,5.566496191187453
8.055022330097088,0.9256786532237918,8.38022714712472,5.578392183221311
8.0630213592233,0.8427143639532034,8.365152053771471,5.590288175255165
8.071020388349515,0.7597500746825965,8.350076960418221,5.602184167289022
8.07901941747573,0.6767857854119896,8.335001867064971,5.614080159322879
8.087018446601942,0.5938214961414012,8.319926773711725,5.625976151356734
8.095017475728156,0.5108572068707944,8.304851680358475,5.637872143390591
8.10301650485437,0.42789291760018755,8.289776587005225,5.649768135424448
8.111015533980583,0.34492862832959903,8.274701493651978,5.661664127458303
8.119014563106797,0.2619643390589922,8.259626400298728,5.673560119492159
8.127013592233011,1.0079524271844642,8.0410689320388,5.576217475728163
8.135012621359223,0.6327023721349223,8.033391792613353,5.712371704534079
8.143011650485438,0.653153498148336,8.053018276448807,5.673531057952152
8.151010679611652,0.6736046241617498,8.072644760284259,5.634690411370226
8.159009708737864,0.694055750175159,8.092271244119708,5.595849764788308
8.167008737864078,0.7145068761885727,8.111897727955162,5.5570091182063805
8.175007766990293,0.7349580022019864,8.131524211790616,5.5181684716244535
8.183006796116505,0.7554091282153955,8.151150695626065,5.479327825042535
8.19100582524272,0.7758602542288092,8.170777179461519,5.440487178460608
8.199004854368933,0.796311380242223,8.190403663296971,5.401646531878682
8.207003883495146,0.8167625062556322,8.210030147132422,5.362805885296764
8.21500291262136,0.8372136322690459,8.229656630967874,5.323965238714837
8.223001941747574,0.8576647582824596,8.249283114803328,5.2851245921329095
8.231000970873787,1.2749650485436788,8.174020000000006,5.273016504854374
8.239,0.72,8.398,5.477
