accel_time_list,accel_x_list,accel_y_list,accel_z_list
0.0,0.5,1.1,9.5
0.008,0.6983193277310924,1.5957983193277312,10.801680672268908
0.016,0.6848739495798319,1.5621848739495798,10.815126050420169
0.024,0.6714285714285714,1.5285714285714287,10.82857142857143
0.032,0.6579831932773109,1.4949579831932773,10.84201680672269
0.04,0.6445378151260504,1.4613445378151262,10.85546218487395
0.048,0.6310924369747899,1.4277310924369748,10.86890756302521
0.056,0.6176470588235293,1.3941176470588237,10.882352941176471
0.064,0.6042016806722689,1.3605042016806723,10.895798319327731
0.07200000000000001,0.5907563025210084,1.3268907563025212,10.909243697478992
0.08,0.5773109243697478,1.2932773109243698,10.922689075630252
0.088,0.5638655462184874,1.2596638655462187,10.936134453781513
0.096,0.5504201680672269,1.2260504201680673,10.949579831932773
0.10400000000000001,0.5369747899159664,1.192436974789916,10.963025210084034
0.112,0.5235294117647058,1.1588235294117648,10.976470588235294
0.12,0.5100840336134453,1.1252100840336134,10.989915966386555
0.128,1.1,0.55,9.600000000000001
0.136,1.2,1.0,9.5
0.14400000000000002,1.1736263736263735,0.9736263736263736,9.526373626373626
0.152,1.1472527472527472,0.9472527472527473,9.552747252747253
0.16,1.120879120879121,0.9208791208791209,9.579120879120879
0.168,1.0945054945054944,0.8945054945054944,9.605494505494505
0.176,1.0681318681318681,0.8681318681318682,9.631868131868131
0.184,1.0417582417582418,0.8417582417582418,9.658241758241758
0.192,1.0153846153846153,0.8153846153846154,9.684615384615386
0.2,0.989010989010989,0.789010989010989,9.710989010989012
0.20800000000000002,0.9626373626373625,0.7626373626373626,9.737362637362638
0.216,0.9362637362637363,0.7362637362637363,9.763736263736265
0.224,0.90989010989011,0.7098901098901098,9.79010989010989
0.232,0.5666666666666667,1.1166666666666667,9.883333333333333
0.24,0.6,1.2,9.3
0.248,0.5905882352941176,1.1811764705882353,9.318823529411766
0.256,0.5811764705882353,1.1623529411764706,9.33764705882353
0.264,0.571764705882353,1.143529411764706,9.356470588235295
0.272,0.5623529411764705,1.124705882352941,9.375294117647059
0.28,0.5529411764705882,1.1058823529411763,9.394117647058824
0.28800000000000003,0.5435294117647058,1.0870588235294116,9.41294117647059
0.296,0.5341176470588236,1.0682352941176472,9.431764705882353
0.304,0.5247058823529411,1.0494117647058823,9.450588235294118
0.312,0.5152941176470588,1.0305882352941176,9.469411764705882
0.32,0.5058823529411764,1.011764705882353,9.488235294117647
0.328,0.35,1.05,9.5
0.336,0.5800000000000001,1.1,9.360000000000001
0.34400000000000003,1.5291666666666666,1.0041666666666667,8.979166666666666
0.352,1.3402777777777788,1.0152777777777777,8.92361111111111
0.36,1.1513888888888895,1.0263888888888888,8.868055555555555
0.368,0.9625000000000004,1.0375,8.8125
0.376,0.7736111111111111,1.0486111111111112,8.756944444444445
0.384,0.5847222222222219,1.0597222222222222,8.70138888888889
0.392,0.3958333333333328,1.0708333333333335,8.645833333333334
0.4,0.2069444444444435,1.0819444444444446,8.590277777777777
0.40800000000000003,0.01805555555555438,1.0930555555555557,8.534722222222221
0.41600000000000004,1.1000000000000445,1.675000000000054,8.350000000000014
0.424,2.584761904761905,2.2076190476190476,6.413333333333334
0.432,2.5238095238095237,2.238095238095238,6.466666666666667
0.44,2.4628571428571426,2.2685714285714287,6.5200000000000005
0.448,2.401904761904762,2.2990476190476192,6.573333333333333
0.456,2.340952380952381,2.3295238095238098,6.626666666666667
0.464,2.28,2.3600000000000003,6.680000000000001
0.47200000000000003,2.219047619047619,2.390476190476191,6.733333333333333
0.48,2.1580952380952385,2.420952380952381,6.786666666666666
0.488,2.0971428571428574,2.4514285714285715,6.84
0.496,2.0361904761904763,2.481904761904762,6.893333333333333
0.504,1.9752380952380952,2.5123809523809526,6.946666666666666
0.512,1.9142857142857144,2.5428571428571427,7.0
0.52,1.8533333333333335,2.5733333333333333,7.053333333333333
0.528,0.85,1.45,6.25
0.536,2.7042553191489365,-0.029787234042553224,4.495744680851064
0.544,2.7127659574468086,-0.08936170212765968,4.487234042553191
0.552,2.721276595744681,-0.14893617021276612,4.4787234042553195
0.56,2.7297872340425533,-0.20851063829787256,4.470212765957447
0.5680000000000001,2.7382978723404254,-0.268085106382979,4.461702127659574
0.5760000000000001,2.746808510638298,-0.32765957446808547,4.453191489361703
0.584,2.75531914893617,-0.3872340425531911,4.44468085106383
0.592,2.7638297872340423,-0.4468085106382975,4.4361702127659575
0.6,2.772340425531915,-0.506382978723404,4.427659574468086
0.608,2.780851063829787,-0.5659574468085105,4.419148936170213
0.616,2.7893617021276595,-0.6255319148936169,4.410638297872341
0.624,2.7978723404255317,-0.6851063829787233,4.402127659574468
0.632,4.233333333333333,-2.066666666666667,5.433333333333334
0.64,6.005714285714285,-3.103809523809524,6.001904761904762
0.648,6.051428571428572,-3.1342857142857143,6.017142857142857
0.656,6.097142857142857,-3.164761904761905,6.032380952380953
0.664,6.142857142857143,-3.1952380952380954,6.0476190476190474
0.672,6.188571428571429,-3.225714285714286,6.062857142857143
0.68,6.234285714285714,-3.2561904761904765,6.078095238095238
0.6880000000000001,6.28,-3.286666666666667,6.093333333333334
0.6960000000000001,6.325714285714286,-3.3171428571428576,6.1085714285714285
0.704,6.371428571428571,-3.3476190476190473,6.123809523809524
0.712,6.417142857142856,-3.378095238095238,6.139047619047619
0.72,6.462857142857143,-3.4085714285714284,6.154285714285715
0.728,6.508571428571428,-3.439047619047619,6.16952380952381
0.736,6.554285714285714,-3.4695238095238095,6.184761904761905
0.744,6.6,-3.5,6.2
0.752,8.145454545454545,-4.5636363636363635,6.8
0.76,10.5,-6.7,7.0
0.768,10.547058823529412,-6.864705882352942,6.988235294117647
0.776,10.594117647058823,-7.029411764705883,6.976470588235294
0.784,10.641176470588235,-7.194117647058825,6.964705882352941
0.792,10.688235294117648,-7.358823529411766,6.952941176470588
0.8,10.73529411764706,-7.523529411764708,6.9411764705882355
0.808,10.782352941176471,-7.688235294117648,6.929411764705883
0.8160000000000001,10.829411764705883,-7.85294117647059,6.91764705882353
0.8240000000000001,10.876470588235295,-8.017647058823531,6.905882352941177
0.8320000000000001,11.060000000000004,-8.580000000000013,6.499999999999989
0.84,11.077049180327869,-4.940983606557377,6.00655737704918
0.848,10.985245901639344,-4.704918032786885,6.032786885245901
0.856,10.89344262295082,-4.468852459016394,6.059016393442623
0.864,10.801639344262295,-4.232786885245901,6.085245901639344
0.872,10.709836065573771,-3.99672131147541,6.111475409836066
0.88,10.618032786885246,-3.7606557377049183,6.137704918032787
0.888,10.526229508196721,-3.5245901639344264,6.163934426229508
0.896,10.434426229508198,-3.2885245901639344,6.19016393442623
0.904,10.604918032786886,-1.3008196721311476,5.69672131147541
0.912,10.644262295081967,-1.3073770491803278,5.670491803278688
0.92,10.683606557377049,-1.3139344262295083,5.644262295081967
0.928,10.72295081967213,-1.3204918032786885,5.618032786885246
0.936,10.762295081967213,-1.327049180327869,5.591803278688524
0.9440000000000001,10.801639344262295,-1.3336065573770493,5.565573770491803
0.9520000000000001,10.840983606557376,-1.3401639344262295,5.5393442622950815
0.96,10.880327868852458,-1.3467213114754097,5.5131147540983605
0.968,10.919672131147541,-1.3532786885245902,5.4868852459016395
0.976,10.959016393442623,-1.3598360655737705,5.460655737704918
0.984,10.998360655737704,-1.3663934426229507,5.434426229508197
0.992,11.037704918032787,-1.3729508196721312,5.408196721311475
1.0,11.077049180327869,-1.3795081967213114,5.381967213114754
1.008,11.11639344262295,-1.3860655737704919,5.355737704918033
1.016,11.155737704918032,-1.3926229508196721,5.329508196721311
1.024,11.195081967213115,-1.3991803278688524,5.30327868852459
1.032,11.7,-3.3,2.6
1.04,11.734285714285713,-3.3228571428571425,2.5771428571428574
1.048,11.768571428571429,-3.3457142857142856,2.5542857142857143
1.056,11.802857142857142,-3.3685714285714283,2.5314285714285716
1.064,11.837142857142856,-3.3914285714285715,2.5085714285714285
1.072,11.871428571428572,-3.414285714285714,2.4857142857142858
1.08,11.905714285714286,-3.4371428571428573,2.4628571428571426
1.088,11.94,-3.46,2.44
1.096,11.974285714285713,-3.4828571428571427,2.4171428571428573
1.104,11.4,-4.0,2.3
1.112,10.485714285714286,-4.671428571428572,2.1857142857142855
1.12,10.2,-4.9,2.3
1.1280000000000001,7.2716216216216205,-3.363513513513512,2.879729729729729
1.1360000000000001,7.195945945945945,-3.2662162162162147,2.825675675675675
1.1440000000000001,7.120270270270269,-3.1689189189189175,2.771621621621621
1.1520000000000001,7.044594594594593,-3.0716216216216203,2.7175675675675666
1.16,6.96891891891892,-2.974324324324326,2.6635135135135144
1.168,6.893243243243244,-2.877027027027028,2.60945945945946
1.176,6.817567567567568,-2.779729729729731,2.555405405405406
1.184,6.741891891891893,-2.682432432432434,2.501351351351352
1.192,6.666216216216217,-2.5851351351351366,2.4472972972972977
1.2,6.8,-1.6,2.0
1.208,9.109374999999998,-0.7083333333333324,2.306249999999999
1.216,9.184375,-0.7749999999999992,2.3562499999999993
1.224,9.259374999999999,-0.841666666666666,2.4062499999999996
1.232,9.334375,-0.9083333333333329,2.4562499999999994
1.24,9.409374999999999,-0.9749999999999996,2.5062499999999996
1.248,9.484375,-1.0416666666666665,2.55625
1.256,9.559375,-1.1083333333333334,2.6062499999999997
1.264,9.634375,-1.1750000000000003,2.65625
1.272,9.709375,-1.2416666666666671,2.7062500000000003
1.28,9.784375,-1.308333333333334,2.75625
1.288,9.859375,-1.3750000000000007,2.8062500000000004
1.296,9.934375000000001,-1.4416666666666675,2.8562500000000006
1.304,10.250000000000028,-1.7500000000000278,3.200000000000033
1.312,7.302150537634408,-0.9978494623655911,3.001075268817204
1.32,7.319354838709677,-0.9806451612903223,3.009677419354839
1.328,7.336559139784947,-0.9634408602150535,3.0182795698924734
1.336,7.353763440860215,-0.9462365591397847,3.0268817204301075
1.344,7.370967741935484,-0.9290322580645158,3.035483870967742
1.352,7.388172043010753,-0.911827956989247,3.0440860215053767
1.36,7.405376344086021,-0.8946236559139782,3.052688172043011
1.368,7.422580645161291,-0.8774193548387093,3.0612903225806454
1.3760000000000001,7.43978494623656,-0.8602150537634405,3.06989247311828
1.3840000000000001,7.456989247311828,-0.8430107526881716,3.078494623655914
1.3920000000000001,7.474193548387097,-0.8258064516129028,3.0870967741935487
1.4000000000000001,7.491397849462366,-0.808602150537634,3.0956989247311832
1.408,8.1,-0.1,3.0
1.416,8.6,-1.4056179775280897,3.1168539325842692
1.424,8.6,-1.4146067415730335,3.143820224719101
1.432,8.6,-1.4235955056179774,3.170786516853932
1.44,8.6,-1.4325842696629212,3.197752808988764
1.448,8.6,-1.441573033707865,3.224719101123595
1.456,8.6,-1.450561797752809,3.251685393258427
1.464,8.6,-1.4595505617977527,3.278651685393258
1.472,8.6,-1.4685393258426966,3.30561797752809
1.48,8.6,-1.4775280898876404,3.332584269662921
1.488,8.6,-1.4865168539325841,3.359550561797753
1.496,8.6,-1.4955056179775281,3.386516853932584
1.504,8.632558139534883,-1.2046511627906977,3.7
1.512,8.762790697674419,-1.2232558139534884,3.7
1.52,8.893023255813954,-1.2418604651162792,3.7
1.528,9.02325581395349,-1.2604651162790699,3.7
1.536,9.153488372093026,-1.2790697674418607,3.7
1.544,9.28372093023256,-1.2976744186046514,3.7
1.552,10.008426966292134,-0.7983146067415731,3.8
1.56,10.030898876404494,-0.7938202247191011,3.8
1.568,10.053370786516854,-0.7893258426966292,3.8
1.576,10.075842696629215,-0.7848314606741573,3.8
1.584,10.098314606741573,-0.7803370786516853,3.8
1.592,10.120786516853933,-0.7758426966292135,3.8
1.6,10.143258426966293,-0.7713483146067416,3.8
1.608,10.165730337078651,-0.7668539325842696,3.8
1.616,10.188202247191011,-0.7623595505617977,3.8
1.624,10.210674157303371,-0.7578651685393258,3.8
1.6320000000000001,10.233146067415731,-0.7533707865168539,3.8
1.6400000000000001,10.25561797752809,-0.748876404494382,3.8
1.6480000000000001,10.27808988764045,-0.74438202247191,3.8
1.6560000000000001,10.30056179775281,-0.7398876404494381,3.8
1.6640000000000001,10.323033707865168,-0.7353932584269662,3.8
1.672,10.345505617977528,-0.7308988764044945,3.8
1.68,10.367977528089888,-0.7264044943820225,3.8
1.688,10.390449438202246,-0.7219101123595506,3.8
1.696,10.412921348314606,-0.7174157303370787,3.8
1.704,10.435393258426966,-0.7129213483146067,3.8
1.712,10.457865168539325,-0.7084269662921349,3.8
1.72,10.480337078651685,-0.7039325842696629,3.8
1.728,10.9,-0.7,3.8
1.736,10.316304347826087,-1.513043478260869,3.4934782608695656
1.744,10.359782608695653,-1.5478260869565215,3.476086956521739
1.752,10.403260869565218,-1.5826086956521737,3.458695652173913
1.76,10.446739130434784,-1.6173913043478259,3.441304347826087
1.768,10.490217391304348,-1.652173913043478,3.4239130434782608
1.776,10.533695652173913,-1.6869565217391305,3.4065217391304348
1.784,10.57717391304348,-1.7217391304347827,3.389130434782609
1.792,10.620652173913044,-1.7565217391304349,3.3717391304347823
1.8,10.66413043478261,-1.791304347826087,3.3543478260869564
1.808,10.707608695652175,-1.8260869565217395,3.33695652173913
1.816,10.75108695652174,-1.8608695652173917,3.319565217391304
1.824,10.794565217391305,-1.8956521739130439,3.302173913043478
1.832,9.6,-1.7571428571428531,2.985714285714275
1.84,9.6,-1.4928571428571429,2.257142857142857
1.848,9.6,-1.4642857142857142,2.0857142857142854
1.856,9.6,-1.4357142857142857,1.9142857142857141
1.864,9.6,-1.407142857142857,1.7428571428571429
1.872,10.142857142857142,-1.0571428571428563,1.5428571428571438
1.8800000000000001,9.07894736842105,-0.9,1.7026315789473687
1.8880000000000001,8.99473684210526,-0.9,1.7131578947368424
1.8960000000000001,8.910526315789472,-0.9,1.7236842105263162
1.9040000000000001,8.826315789473682,-0.9,1.7342105263157896
1.9120000000000001,8.742105263157892,-0.9,1.7447368421052634
1.92,8.657894736842106,-0.9,1.7552631578947369
1.928,8.573684210526316,-0.9,1.7657894736842106
1.936,8.489473684210527,-0.9,1.7763157894736843
1.944,8.405263157894737,-0.9,1.786842105263158
1.952,8.321052631578947,-0.9,1.7973684210526317
1.96,7.999999999999989,-1.7499999999999833,0.8999999999999778
1.968,8.061643835616438,-1.9,1.1479452054794517
1.976,8.017808219178082,-1.9,1.202739726027397
1.984,7.9739726027397255,-1.9,1.2575342465753425
1.992,7.9301369863013695,-1.9,1.312328767123288
2.0,7.8863013698630136,-1.9,1.3671232876712334
2.008,7.842465753424657,-1.9,1.4219178082191788
2.016,7.798630136986301,-1.9,1.4767123287671244
2.024,7.754794520547945,-1.9,1.5315068493150699
2.032,7.710958904109588,-1.9,1.5863013698630153
2.04,6.498360655737705,-3.5262295081967183,1.9081967213114743
2.048,6.4852459016393444,-3.7360655737704893,1.973770491803278
2.056,6.472131147540984,-3.9459016393442603,2.039344262295081
2.064,6.4590163934426235,-4.155737704918031,2.104918032786885
2.072,6.445901639344263,-4.365573770491801,2.170491803278688
2.08,6.432786885245902,-4.575409836065573,2.2360655737704915
2.088,6.419672131147541,-4.785245901639343,2.301639344262295
2.096,6.406557377049181,-4.995081967213114,2.3672131147540982
2.104,6.8,-4.7,2.7
2.112,8.624999999999986,-3.9750000000000028,3.3749999999999916
2.12,9.029411764705882,-3.8764705882352946,3.617647058823529
2.128,9.076470588235294,-3.838823529411765,3.645882352941176
2.136,9.123529411764705,-3.801176470588236,3.6741176470588233
2.144,9.170588235294117,-3.763529411764706,3.7023529411764704
2.152,9.217647058823529,-3.7258823529411766,3.7305882352941175
2.16,9.26470588235294,-3.6882352941176473,3.7588235294117647
2.168,9.311764705882352,-3.650588235294118,3.787058823529412
2.176,9.358823529411765,-3.6129411764705885,3.8152941176470585
2.184,9.405882352941177,-3.5752941176470587,3.8435294117647056
2.192,9.452941176470588,-3.5376470588235294,3.8717647058823528
2.2,9.5,-3.5,3.9
2.208,11.430000000000003,-4.1033333333333335,3.2050000000000005
2.216,11.550000000000004,-4.116666666666667,3.2250000000000005
2.224,11.670000000000003,-4.13,3.2450000000000006
2.232,11.790000000000003,-4.1433333333333335,3.2650000000000006
2.24,11.910000000000004,-4.156666666666666,3.2850000000000006
2.248,12.030000000000003,-4.17,3.3050000000000006
2.2560000000000002,12.150000000000004,-4.183333333333334,3.3250000000000006
2.2640000000000002,12.270000000000003,-4.196666666666667,3.3450000000000006
2.2720000000000002,12.390000000000002,-4.21,3.3650000000000007
2.2800000000000002,12.510000000000003,-4.223333333333334,3.3850000000000007
2.2880000000000003,12.630000000000003,-4.236666666666666,3.4050000000000007
2.2960000000000003,12.750000000000004,-4.25,3.4250000000000007
2.3040000000000003,12.870000000000003,-4.263333333333334,3.4450000000000007
2.312,12.989999999999997,-4.276666666666666,3.4649999999999994
2.32,13.109999999999996,-4.289999999999999,3.4849999999999994
2.328,13.5,-3.9,3.5
2.336,10.598529411764716,-3.8823529411764723,3.3
2.344,10.327941176470597,-3.8352941176470603,3.3
2.352,10.057352941176477,-3.7882352941176483,3.3
2.36,9.786764705882359,-3.741176470588236,3.3
2.368,9.516176470588238,-3.694117647058824,3.3
2.376,9.24558823529412,-3.647058823529412,3.3
2.384,8.975,-3.6,3.3
2.392,8.704411764705881,-3.552941176470588,3.3
2.4,8.433823529411761,-3.505882352941176,3.3
2.408,6.4,-2.1,3.1
2.416,8.70238095238095,-1.576190476190479,3.285714285714287
2.424,8.71190476190476,-1.4809523809523837,3.22857142857143
2.432,8.721428571428572,-1.3857142857142883,3.171428571428573
2.44,8.730952380952381,-1.2904761904761932,3.1142857142857157
2.448,8.74047619047619,-1.195238095238098,3.0571428571428587
2.456,8.75,-1.1000000000000028,3.0000000000000018
2.464,8.75952380952381,-1.0047619047619074,2.9428571428571444
2.472,8.769047619047619,-0.9095238095238123,2.8857142857142875
2.48,8.778571428571428,-0.814285714285717,2.82857142857143
2.488,8.788095238095238,-0.7190476190476217,2.771428571428573
2.496,8.797619047619047,-0.6238095238095265,2.714285714285716
2.504,8.08181818181818,-1.2939393939393937,2.518181818181819
2.512,8.033333333333333,-1.2777777777777777,2.5666666666666673
2.52,7.984848484848484,-1.2616161616161614,2.6151515151515157
2.528,7.936363636363636,-1.2454545454545454,2.663636363636364
2.536,7.887878787878787,-1.229292929292929,2.7121212121212124
2.544,7.839393939393939,-1.213131313131313,2.760606060606061
2.552,7.79090909090909,-1.196969696969697,2.8090909090909095
2.56,7.742424242424242,-1.1808080808080808,2.857575757575758
2.568,7.693939393939393,-1.1646464646464647,2.9060606060606062
2.576,7.6454545454545455,-1.1484848484848484,2.9545454545454546
2.584,7.596969696969697,-1.1323232323232324,3.003030303030303
2.592,7.548484848484849,-1.1161616161616161,3.0515151515151517
2.6,7.5,-1.1,3.1
2.608,7.2,-1.4000000000000001,2.75
2.616,7.448245614035087,-1.2,2.5824561403508777
2.624,7.525438596491227,-1.2,2.554385964912281
2.632,7.602631578947368,-1.2,2.5263157894736845
2.64,7.6798245614035086,-1.2,2.498245614035088
2.648,7.757017543859649,-1.2,2.4701754385964914
2.656,7.83421052631579,-1.2,2.442105263157895
2.664,7.91140350877193,-1.2,2.414035087719298
2.672,7.988596491228071,-1.2,2.385964912280702
2.68,8.06578947368421,-1.2,2.3578947368421055
2.688,8.142982456140352,-1.2,2.329824561403509
2.696,8.220175438596492,-1.2,2.3017543859649123
2.704,8.297368421052632,-1.2,2.2736842105263158
2.712,8.374561403508773,-1.2,2.245614035087719
2.72,8.451754385964913,-1.2,2.2175438596491226
2.728,9.8,-1.2,2.9
2.736,8.98461538461538,-2.305494505494507,2.2945054945054926
2.744,8.861538461538457,-2.349450549450551,2.2505494505494488
2.7520000000000002,8.738461538461534,-2.393406593406595,2.206593406593405
2.7600000000000002,8.615384615384611,-2.437362637362639,2.1626373626373607
2.7680000000000002,8.492307692307687,-2.4813186813186827,2.118681318681317
2.7760000000000002,8.369230769230764,-2.5252747252747265,2.074725274725273
2.7840000000000003,8.246153846153842,-2.5692307692307708,2.0307692307692293
2.7920000000000003,8.123076923076919,-2.6131868131868146,1.9868131868131853
2.8000000000000003,7.999999999999996,-2.6571428571428584,1.9428571428571415
2.8080000000000003,7.876923076923073,-2.701098901098902,1.8989010989010975
2.816,7.7538461538461565,-2.7450549450549437,1.8549450549450561
2.824,7.630769230769234,-2.7890109890109875,1.8109890109890123
2.832,7.042857142857119,-2.214285714285725,0.4428571428571565
2.84,6.972093023255817,-4.504651162790697,1.3953488372093028
2.848,6.748837209302328,-4.541860465116279,1.3581395348837213
2.856,6.525581395348839,-4.57906976744186,1.3209302325581398
2.864,6.30232558139535,-4.616279069767442,1.2837209302325583
2.872,6.079069767441861,-4.653488372093023,1.2465116279069768
2.88,5.855813953488372,-4.690697674418605,1.2093023255813953
2.888,5.632558139534883,-4.727906976744186,1.1720930232558138
2.896,5.409302325581394,-4.765116279069768,1.1348837209302323
2.904,5.1860465116279055,-4.802325581395349,1.097674418604651
2.912,4.962790697674416,-4.839534883720931,1.0604651162790695
2.92,4.739534883720927,-4.876744186046512,1.023255813953488
2.928,3.357142857142831,-5.328571428571438,1.171428571428575
2.936,6.2,-9.2,3.7
2.944,8.280000000000005,-9.760000000000002,3.5933333333333333
2.952,10.36000000000001,-10.320000000000002,3.4866666666666664
2.96,12.440000000000015,-10.880000000000003,3.3799999999999994
2.968,14.520000000000021,-11.440000000000005,3.2733333333333325
2.976,16.600000000000026,-12.000000000000007,3.166666666666665
2.984,18.68000000000003,-12.560000000000008,3.0599999999999987
2.992,20.760000000000037,-13.120000000000008,2.9533333333333314
3.0,22.840000000000042,-13.68000000000001,2.8466666666666645
3.008,24.920000000000048,-14.240000000000013,2.7399999999999975
3.016,27.000000000000053,-14.800000000000013,2.6333333333333306
3.024,29.08000000000006,-15.360000000000014,2.5266666666666637
3.032,17.07272727272724,1.66363636363636,-3.63636363636358
3.04,15.763636363636344,1.518181818181816,-1.3818181818181476
3.048,18.36049382716049,1.4814814814814818,1.4111111111111088
3.056,18.61728395061728,1.4518518518518522,1.5888888888888868
3.064,18.87407407407407,1.4222222222222225,1.7666666666666648
3.072,19.13086419753086,1.3925925925925928,1.9444444444444429
3.08,19.387654320987654,1.3629629629629632,2.122222222222221
3.088,19.644444444444442,1.3333333333333335,2.299999999999999
3.096,19.901234567901234,1.3037037037037038,2.477777777777777
3.104,20.158024691358023,1.2740740740740741,2.655555555555555
3.112,20.414814814814815,1.2444444444444445,2.833333333333333
3.12,20.671604938271606,1.2148148148148148,3.011111111111111
3.128,13.3,1.1,0.8999999999999999
3.136,9.914285714285713,-3.614285714285662,-4.171428571428588
3.144,9.82061855670103,-2.6298969072164855,-4.1123711340206155
3.152,9.729896907216494,-1.9783505154639072,-3.8979381443298933
3.16,9.639175257731958,-1.326804123711329,-3.6835051546391715
3.168,9.54845360824742,-0.6752577319587512,-3.4690721649484497
3.176,9.457731958762885,-0.02371134020617305,-3.2546391752577275
3.184,9.36701030927835,0.6278350515464051,-3.0402061855670057
3.192,9.276288659793813,1.2793814432989832,-2.825773195876284
3.2,9.185567010309278,1.9309278350515608,-2.611340206185562
3.208,9.09484536082474,2.5824742268041394,-2.3969072164948404
3.216,9.004123711340204,3.234020618556717,-2.182474226804118
3.224,8.913402061855669,3.8855670103092956,-1.9680412371133964
3.232,8.822680412371133,4.537113402061873,-1.7536082474226746
3.24,2.0499999999999834,2.5000000000000666,1.1499999999999833
3.248,1.9123456790123465,3.075308641975307,1.0123456790123466
3.2560000000000002,1.9320987654320996,3.0358024691358008,1.0320987654320997
3.2640000000000002,1.9518518518518526,2.9962962962962947,1.0518518518518527
3.2720000000000002,1.9716049382716059,2.9567901234567886,1.0716049382716057
3.2800000000000002,1.991358024691359,2.917283950617282,1.091358024691359
3.2880000000000003,2.011111111111112,2.877777777777776,1.111111111111112
3.2960000000000003,2.0308641975308652,2.83827160493827,1.130864197530865
3.3040000000000003,2.0506172839506185,2.7987654320987634,1.1506172839506184
3.3120000000000003,2.0703703703703713,2.7592592592592573,1.1703703703703714
3.3200000000000003,2.0901234567901246,2.719753086419751,1.1901234567901244
3.3280000000000003,3.400000000000533,3.899999999999911,0.40000000000017766
3.336,6.063829787234042,1.857446808510639,1.3159574468085105
3.344,6.16595744680851,1.7893617021276602,1.3414893617021275
3.352,6.268085106382978,1.7212765957446814,1.3670212765957446
3.36,6.370212765957446,1.6531914893617023,1.3925531914893616
3.368,6.472340425531915,1.5851063829787235,1.4180851063829787
3.376,6.574468085106383,1.5170212765957447,1.4436170212765957
3.384,6.676595744680851,1.4489361702127659,1.4691489361702128
3.392,6.77872340425532,1.380851063829787,1.4946808510638299
3.4,6.880851063829788,1.3127659574468082,1.5202127659574471
3.408,6.982978723404257,1.2446808510638294,1.5457446808510642
3.416,7.085106382978725,1.1765957446808504,1.5712765957446813
3.424,7.187234042553193,1.1085106382978716,1.5968085106382983
3.432,14.923076923076952,1.7461538461538448,-1.7384615384615447
3.44,21.569230769230856,1.4384615384615345,-3.215384615384634
3.448,25.3,-1.1999999999999997,-1.4
3.456,16.15466666666666,-6.5,1.8266666666666713
3.464,15.759999999999996,-6.5,2.200000000000004
3.472,15.36533333333333,-6.5,2.573333333333337
3.48,14.970666666666663,-6.5,2.94666666666667
3.488,14.575999999999997,-6.5,3.3200000000000025
3.496,14.181333333333331,-6.5,3.693333333333335
3.504,13.786666666666665,-6.5,4.066666666666668
3.512,13.392,-6.5,4.440000000000001
3.52,12.997333333333334,-6.5,4.813333333333334
3.528,12.2,-1.9,3.3
3.536,11.340425531914896,-1.806382978723402,0.9372340425531908
3.544,11.085106382978726,-1.9765957446808493,0.9968085106382973
3.552,10.829787234042556,-2.1468085106382966,1.0563829787234038
3.56,10.574468085106384,-2.3170212765957436,1.1159574468085103
3.568,10.319148936170214,-2.487234042553191,1.1755319148936167
3.576,10.063829787234043,-2.657446808510638,1.2351063829787234
3.584,9.808510638297872,-2.8276595744680852,1.29468085106383
3.592,9.553191489361701,-2.9978723404255323,1.3542553191489364
3.6,9.297872340425531,-3.16808510638298,1.413829787234043
3.608,9.04255319148936,-3.3382978723404273,1.4734042553191495
3.616,8.78723404255319,-3.5085106382978744,1.532978723404256
3.624,8.531914893617017,-3.6787234042553214,1.5925531914893627
3.632,4.349999999999981,-0.5999999999999703,4.100000000000015
3.64,4.417647058823531,-1.5494117647058843,3.871764705882352
3.648,4.464705882352942,-1.6811764705882373,3.7964705882352927
3.656,4.511764705882354,-1.8129411764705905,3.721176470588234
3.664,4.558823529411766,-1.9447058823529435,3.6458823529411752
3.672,4.605882352941178,-2.0764705882352965,3.570588235294116
3.68,4.6529411764705895,-2.2082352941176495,3.4952941176470573
3.688,4.700000000000001,-2.340000000000003,3.419999999999998
3.696,4.7470588235294136,-2.471764705882356,3.3447058823529394
3.704,4.794117647058825,-2.603529411764709,3.2694117647058807
3.712,4.841176470588237,-2.7352941176470624,3.1941176470588215
3.72,4.888235294117648,-2.8670588235294154,3.1188235294117628
3.728,6.325000000000075,-3.05000000000005,2.3000000000000336
3.736,7.052238805970153,-3.5074626865671648,2.6298507462686587
3.744,7.135820895522391,-3.5194029850746276,2.6776119402985095
3.7520000000000002,7.21940298507463,-3.53134328358209,2.7253731343283603
3.7600000000000002,7.302985074626869,-3.5432835820895527,2.7731343283582106
3.7680000000000002,7.386567164179107,-3.5552238805970156,2.8208955223880614
3.7760000000000002,7.470149253731346,-3.567164179104478,2.868656716417912
3.7840000000000003,7.553731343283585,-3.5791044776119407,2.9164179104477626
3.7920000000000003,7.637313432835823,-3.5910447761194035,2.9641791044776133
3.8000000000000003,7.883333333333354,-3.566666666666663,3.033333333333337
3.8080000000000003,8.616666666666688,-3.4333333333333296,3.1666666666666705
3.8160000000000003,10.912727272727274,-2.49090909090909,2.901818181818182
3.8240000000000003,10.963636363636365,-2.4545454545454533,2.909090909090909
3.8320000000000003,11.014545454545457,-2.418181818181817,2.9163636363636365
3.84,11.065454545454545,-2.3818181818181827,2.9236363636363634
3.848,11.116363636363635,-2.345454545454546,2.9309090909090907
3.856,11.167272727272726,-2.3090909090909095,2.938181818181818
3.864,11.218181818181817,-2.2727272727272734,2.9454545454545453
3.872,11.269090909090908,-2.2363636363636368,2.9527272727272726
3.88,11.319999999999999,-2.2,2.96
3.888,11.370909090909091,-2.163636363636364,2.9672727272727273
3.896,11.421818181818182,-2.1272727272727274,2.9745454545454546
3.904,11.472727272727273,-2.0909090909090913,2.981818181818182
3.912,11.523636363636363,-2.0545454545454547,2.9890909090909092
3.92,11.574545454545454,-2.018181818181818,2.9963636363636366
3.928,11.8,-1.6,3.3
3.936,11.758762886597939,-2.2278350515463927,3.2092783505154645
3.944,11.915463917525773,-2.302061855670104,3.2340206185567015
3.952,12.072164948453608,-2.376288659793815,3.2587628865979386
3.96,12.228865979381442,-2.450515463917526,3.2835051546391756
3.968,12.385567010309277,-2.524742268041237,3.3082474226804126
3.976,12.542268041237111,-2.598969072164948,3.3329896907216496
3.984,12.698969072164946,-2.673195876288659,3.3577319587628867
3.992,12.85567010309278,-2.7474226804123703,3.3824742268041237
4.0,13.012371134020615,-2.8216494845360813,3.4072164948453607
4.008,13.16907216494845,-2.8958762886597924,3.4319587628865977
4.016,13.325773195876284,-2.9701030927835035,3.4567010309278343
4.024,13.48247422680412,-3.0443298969072146,3.4814432989690713
4.032,15.850000000000001,-3.8,4.449999999999999
4.04,9.479999999999922,-2.2800000000000105,1.2599999999999858
4.048,10.824691358024692,-2.0629629629629638,1.5123456790123455
4.056,10.864197530864198,-2.003703703703704,1.5320987654320988
4.064,10.903703703703703,-1.9444444444444442,1.5518518518518518
4.072,10.94320987654321,-1.8851851851851846,1.571604938271605
4.08,10.982716049382717,-1.8259259259259248,1.5913580246913583
4.088,11.022222222222224,-1.7666666666666653,1.6111111111111116
4.096,11.06172839506173,-1.7074074074074055,1.6308641975308649
4.104,11.101234567901235,-1.648148148148146,1.650617283950618
4.112,11.140740740740743,-1.5888888888888864,1.6703703703703712
4.12,11.180246913580248,-1.5296296296296266,1.6901234567901244
4.128,10.0,-2.1,1.4
4.136,8.294623655913979,-2.2892473118279573,1.2892473118279573
4.144,8.286021505376345,-2.272043010752688,1.2720430107526883
4.152,8.27741935483871,-2.2548387096774194,1.2548387096774196
4.16,8.268817204301076,-2.2376344086021507,1.2376344086021507
4.168,8.26021505376344,-2.220430107526882,1.220430107526882
4.176,8.251612903225807,-2.203225806451613,1.203225806451613
4.184,8.243010752688171,-2.186021505376344,1.1860215053763443
4.192,8.234408602150538,-2.1688172043010754,1.1688172043010754
4.2,8.225806451612902,-2.1516129032258067,1.1516129032258067
4.208,8.217204301075268,-2.134408602150538,1.1344086021505377
4.216,8.208602150537633,-2.117204301075269,1.1172043010752688
4.224,8.2,-2.1,1.1
4.232,8.500000000000044,-1.8500000000000223,0.8499999999999779
4.24,9.290909090909091,-1.795454545454545,0.8181818181818202
4.248,9.272727272727272,-1.786363636363636,0.8545454545454566
4.256,9.254545454545454,-1.777272727272727,0.890909090909093
4.264,9.236363636363636,-1.7681818181818176,0.9272727272727292
4.272,9.218181818181817,-1.7590909090909086,0.9636363636363656
4.28,9.2,-1.7499999999999996,1.000000000000002
4.288,9.181818181818182,-1.7409090909090903,1.0363636363636384
4.296,9.163636363636362,-1.7318181818181813,1.0727272727272747
4.304,9.145454545454545,-1.7227272727272722,1.1090909090909111
4.312,9.127272727272725,-1.7136363636363632,1.1454545454545475
4.32,9.109090909090908,-1.704545454545454,1.1818181818181839
4.328,6.799999999999911,-1.2499999999999778,1.3
4.336,6.315463917525773,-1.3206185567010307,1.4051546391752576
4.344,6.34020618556701,-1.3536082474226803,1.41340206185567
4.352,6.364948453608247,-1.3865979381443299,1.4216494845360823
4.36,6.389690721649484,-1.4195876288659797,1.4298969072164949
4.368,6.414432989690722,-1.4525773195876293,1.4381443298969072
4.376,6.439175257731959,-1.4855670103092788,1.4463917525773198
4.384,6.463917525773196,-1.5185567010309287,1.4546391752577321
4.392,6.488659793814433,-1.5515463917525782,1.4628865979381445
4.4,6.513402061855671,-1.5845360824742278,1.471134020618557
4.408,6.538144329896908,-1.6175257731958776,1.4793814432989694
4.416,6.562886597938145,-1.6505154639175272,1.487628865979382
4.424,6.587628865979382,-1.6835051546391768,1.4958762886597943
4.432,9.750000000000245,-7.7000000000008875,-1.1500000000001553
4.44,10.338461538461543,-9.707692307692307,-1.3923076923076838
4.448,10.382417582417586,-9.716483516483516,-1.269230769230761
4.456,10.42637362637363,-9.725274725274726,-1.146153846153838
4.464,10.470329670329674,-9.734065934065935,-1.0230769230769152
4.472,10.514285714285718,-9.742857142857144,-0.8999999999999923
4.48,10.558241758241762,-9.751648351648353,-0.7769230769230693
4.488,10.602197802197805,-9.760439560439561,-0.6538461538461464
4.496,10.64615384615385,-9.76923076923077,-0.5307692307692234
4.5040000000000004,10.690109890109893,-9.778021978021979,-0.40769230769230047
4.5120000000000005,10.734065934065937,-9.786813186813188,-0.2846153846153776
4.5200000000000005,10.77802197802198,-9.795604395604396,-0.16153846153845475
4.5280000000000005,13.133333333333507,-7.133333333333136,2.5000000000001923
4.5360000000000005,6.760674157303357,-3.9921348314606715,10.355056179775266
4.5440000000000005,6.4460674157303215,-3.9292134831460643,9.99550561797751
4.5520000000000005,6.131460674157286,-3.866292134831457,9.635955056179755
4.5600000000000005,5.81685393258425,-3.80337078651685,9.276404494382001
4.5680000000000005,5.5022471910112145,-3.740449438202243,8.916853932584246
4.5760000000000005,5.187640449438179,-3.6775280898876357,8.55730337078649
4.5840000000000005,4.873033707865144,-3.6146067415730285,8.197752808988735
4.5920000000000005,4.5584269662921075,-3.5516853932584214,7.838202247190981
4.6000000000000005,4.243820224719072,-3.488764044943814,7.478651685393226
4.6080000000000005,3.9292134831460364,-3.425842696629207,7.11910112359547
4.616,3.6146067415730356,-3.362921348314607,6.759550561797756
4.624,3.3,-3.3,6.4
4.632,8.204301075268814,-2.42043010752687,6.0021505376344075
4.64,8.238709677419353,-2.5838709677419245,6.019354838709677
4.648,8.27311827956989,-2.7473118279569784,6.036559139784945
4.656,8.307526881720428,-2.9107526881720323,6.053763440860214
4.664,8.341935483870964,-3.074193548387086,6.070967741935482
4.672,8.376344086021502,-3.23763440860214,6.0881720430107515
4.68,8.41075268817204,-3.401075268817194,6.105376344086021
4.688,8.445161290322577,-3.5645161290322482,6.122580645161289
4.696,8.479569892473116,-3.727956989247302,6.139784946236558
4.704,8.513978494623654,-3.891397849462356,6.156989247311827
4.712,8.54838709677419,-4.05483870967741,6.1741935483870956
4.72,8.582795698924729,-4.218279569892464,6.191397849462365
4.728,8.2,-4.8,6.1
4.736,8.41935483870968,-6.143010752688171,5.678494623655914
4.744,8.290322580645164,-6.2118279569892465,5.644086021505377
4.752,8.161290322580646,-6.280645161290321,5.609677419354839
4.76,8.03225806451613,-6.349462365591397,5.575268817204302
4.768,7.903225806451614,-6.418279569892473,5.540860215053764
4.776,7.774193548387098,-6.487096774193548,5.506451612903226
4.784,7.645161290322582,-6.555913978494623,5.472043010752689
4.792,7.516129032258065,-6.624731182795699,5.43763440860215
4.8,7.387096774193549,-6.693548387096774,5.403225806451613
4.808,7.258064516129033,-6.76236559139785,5.368817204301076
4.816,7.129032258064516,-6.831182795698925,5.334408602150537
4.824,7.0,-6.9,5.3
4.832,5.302150537634407,-5.098924731182796,6.695698924731185
4.84,5.3193548387096765,-5.090322580645162,6.661290322580648
4.848,5.336559139784945,-5.081720430107527,6.62688172043011
4.856,5.353763440860214,-5.073118279569893,6.592473118279572
4.864,5.370967741935482,-5.064516129032258,6.5580645161290345
4.872,5.388172043010751,-5.055913978494624,6.523655913978497
4.88,5.4053763440860205,-5.04731182795699,6.489247311827959
4.888,5.422580645161289,-5.038709677419355,6.454838709677421
4.896,5.439784946236558,-5.030107526881721,6.420430107526884
4.904,5.456989247311827,-5.021505376344086,6.386021505376346
4.912,5.474193548387095,-5.012903225806452,6.351612903225808
4.92,5.4913978494623645,-5.004301075268818,6.317204301075271
4.928,4.8,-4.0,6.1
4.936,4.97272727272728,-6.136363636363559,6.081818181818201
4.944,4.914285714285713,-6.84285714285715,5.96666666666666
4.952,4.942857142857142,-6.728571428571434,6.099999999999994
4.96,4.971428571428571,-6.614285714285719,6.233333333333328
4.968,4.999999999999999,-6.500000000000004,6.366666666666662
4.976,5.028571428571428,-6.38571428571429,6.4999999999999964
4.984,5.057142857142857,-6.271428571428575,6.63333333333333
4.992,5.085714285714285,-6.15714285714286,6.766666666666664
5.0,5.114285714285714,-6.0428571428571445,6.899999999999998
5.008,5.142857142857142,-5.92857142857143,7.033333333333331
5.016,5.171428571428572,-5.814285714285715,7.166666666666666
5.024,5.2,-5.7,7.3
5.032,3.594623655913977,-4.687096774193544,6.498924731182795
5.04,3.551612903225805,-4.583870967741931,6.490322580645161
5.048,3.508602150537633,-4.480645161290318,6.481720430107527
5.056,3.4655913978494604,-4.377419354838705,6.473118279569892
5.064,3.4225806451612883,-4.2741935483870925,6.4645161290322575
5.072,3.3795698924731163,-4.170967741935479,6.455913978494624
5.08,3.3365591397849443,-4.067741935483866,6.447311827956989
5.088,3.293548387096772,-3.964516129032253,6.438709677419355
5.096,3.2505376344086,-3.86129032258064,6.43010752688172
5.104,3.207526881720428,-3.7580645161290267,6.4215053763440855
5.112,3.164516129032256,-3.6548387096774135,6.412903225806452
5.12,3.121505376344084,-3.551612903225801,6.404301075268817
5.128,2.6,-2.7999999999999554,7.5000000000002665
5.136,2.829347826086958,-2.3945652173913046,8.06195652173913
5.144,2.7163043478260875,-2.385869565217391,8.001086956521739
5.152,2.6032608695652177,-2.377173913043478,7.940217391304348
5.16,2.4902173913043475,-2.368478260869565,7.879347826086956
5.168,2.3771739130434772,-2.359782608695652,7.818478260869565
5.176,2.264130434782607,-2.3510869565217387,7.7576086956521735
5.184,2.151086956521737,-2.3423913043478257,7.696739130434781
5.192,2.038043478260867,-2.3336956521739127,7.63586956521739
5.2,1.924999999999997,-2.3249999999999997,7.574999999999998
5.208,1.811956521739127,-2.3163043478260863,7.514130434782607
5.216,1.698913043478257,-2.3076086956521733,7.453260869565216
5.224,1.4499999999999336,-2.1999999999999558,7.099999999999866
5.232,1.7142857142856942,-1.9571428571428664,8.41428571428572
5.24,0.20219780219779807,-1.5384615384615379,9.143956043956043
5.248,0.6857142857142857,-1.6,9.214285714285714
5.256,1.1692307692307733,-1.661538461538462,9.284615384615385
5.264,1.6527472527472609,-1.723076923076924,9.354945054945055
5.272,2.1362637362637487,-1.7846153846153863,9.425274725274727
5.28,2.6197802197802362,-1.8461538461538483,9.495604395604397
5.288,3.103296703296724,-1.9076923076923105,9.56593406593407
5.296,3.5868131868132114,-1.9692307692307724,9.63626373626374
5.304,4.070329670329699,-2.0307692307692347,9.706593406593411
5.312,4.553846153846187,-2.0923076923076964,9.776923076923081
5.32,5.0373626373626745,-2.1538461538461586,9.847252747252753
5.328,1.7000000000000002,-2.3,9.2
5.336,1.7823529411764651,-2.4941176470588218,9.564705882352941
5.344,1.3588235294117674,-2.352941176470589,9.51764705882353
5.352,1.8040000000000003,-2.267999999999999,9.7
5.36,1.8146666666666669,-2.1826666666666656,9.7
5.368,1.8253333333333335,-2.0973333333333324,9.7
5.376,1.836,-2.011999999999999,9.7
5.384,1.8466666666666667,-1.9266666666666659,9.7
5.392,1.8573333333333333,-1.8413333333333326,9.7
5.4,1.8679999999999999,-1.7559999999999996,9.7
5.408,1.8786666666666667,-1.6706666666666663,9.7
5.416,1.8893333333333333,-1.5853333333333333,9.7
5.424,1.9,-1.5,9.7
5.432,1.0799999999999752,-1.6600000000000212,9.7
5.44,0.8333333333333347,-1.8666666666666654,9.7
5.448,0.8777777777777792,-1.8222222222222206,9.7
5.456,0.9222222222222238,-1.7777777777777761,9.7
5.464,0.9666666666666683,-1.7333333333333316,9.7
5.472,1.0111111111111128,-1.688888888888887,9.7
5.48,1.0555555555555576,-1.6444444444444426,9.7
5.488,1.100000000000002,-1.5999999999999979,9.7
5.496,1.1444444444444466,-1.5555555555555534,9.7
5.5040000000000004,1.188888888888891,-1.5111111111111089,9.7
5.5120000000000005,1.2333333333333356,-1.4666666666666643,9.7
5.5200000000000005,1.2777777777777803,-1.4222222222222198,9.7
5.5280000000000005,0.9999999999999705,-1.1666666666666272,9.80000000000003
5.5360000000000005,0.42604166666667076,-1.3,9.794791666666667
5.5440000000000005,0.4677083333333374,-1.3,9.786458333333334
5.5520000000000005,0.509375000000004,-1.3,9.778125
5.5600000000000005,0.5510416666666708,-1.3,9.769791666666666
5.5680000000000005,0.5927083333333374,-1.3,9.761458333333334
5.5760000000000005,0.6343750000000041,-1.3,9.753124999999999
5.5840000000000005,0.6760416666666706,-1.3,9.744791666666666
5.5920000000000005,0.7177083333333374,-1.3,9.736458333333331
5.6000000000000005,0.7593750000000041,-1.3,9.728124999999999
5.6080000000000005,0.8010416666666706,-1.3,9.719791666666666
5.6160000000000005,0.8427083333333374,-1.3,9.711458333333333
5.6240000000000006,0.8843750000000041,-1.3,9.703124999999998
5.632,0.3,-1.2,9.8
5.64,0.13749999999999585,-0.7249999999999972,10.281250000000004
5.648,0.18749999999999584,-0.7583333333333305,10.256250000000003
5.656,0.23749999999999583,-0.7916666666666639,10.231250000000003
5.664,0.2874999999999958,-0.8249999999999972,10.206250000000002
5.672,0.3374999999999958,-0.8583333333333305,10.181250000000002
5.68,0.38749999999999585,-0.8916666666666639,10.156250000000002
5.688,0.4374999999999958,-0.9249999999999973,10.131250000000003
5.696,0.4874999999999958,-0.9583333333333306,10.106250000000003
5.704,0.5374999999999958,-0.9916666666666639,10.081250000000002
5.712,0.5874999999999958,-1.0249999999999972,10.056250000000002
5.72,0.6374999999999957,-1.0583333333333307,10.031250000000002
5.728,0.6874999999999958,-1.091666666666664,10.006250000000001
5.736,0.25999999999999823,-1.070000000000001,9.540000000000001
5.744,0.4499999999999778,-0.9000000000000444,9.499999999999956
5.752,0.49350649350649367,-0.7870129870129873,9.8
5.76,0.4831168831168832,-0.7662337662337665,9.8
5.768,0.47272727272727283,-0.7454545454545457,9.8
5.776,0.46233766233766244,-0.7246753246753249,9.8
5.784,0.45194805194805204,-0.703896103896104,9.8
5.792,0.44155844155844165,-0.6831168831168832,9.8
5.8,0.4311688311688312,-0.6623376623376624,9.8
5.808,0.4207792207792208,-0.6415584415584417,9.8
5.816,0.4103896103896104,-0.6207792207792208,9.8
5.824,0.4,-0.6,9.8
5.832,-0.08200000000000193,-0.4039999999999996,9.790000000000001
5.84,-0.010000000000001605,-0.41999999999999965,9.750000000000002
5.848,0.06199999999999872,-0.4359999999999997,9.71
5.856,0.13399999999999904,-0.4519999999999998,9.670000000000002
5.864,0.20599999999999938,-0.46799999999999986,9.63
5.872,0.2779999999999997,-0.48399999999999993,9.590000000000002
5.88,0.35,-0.5,9.55
5.888,0.4220000000000004,-0.516,9.51
5.896,0.49400000000000066,-0.5320000000000001,9.47
5.904,0.566000000000001,-0.5480000000000003,9.43
5.912,0.6380000000000013,-0.5640000000000003,9.39
5.92,0.7100000000000016,-0.5800000000000003,9.35
5.928,0.7820000000000019,-0.5960000000000004,9.31
5.936,0.8,2.5,11.6
5.944,0.3737704918032699,-0.006557377049188351,10.962295081967207
5.952,0.07213114754097427,-0.28196721311476264,10.778688524590159
5.96,-0.2295081967213214,-0.5573770491803369,10.595081967213108
5.968,-0.5311475409836169,-0.8327868852459113,10.411475409836058
5.976,-0.8327868852459127,-1.1081967213114856,10.22786885245901
5.984,-1.1344262295082084,-1.3836065573770597,10.04426229508196
5.992,-1.4360655737705037,-1.659016393442634,9.86065573770491
6.0,-1.85,-1.2999999999999998,9.35
6.008,-0.7041322314049585,-0.17107438016528978,9.108264462809917
6.016,-0.7107438016528925,-0.12479338842975238,9.121487603305784
6.024,-0.7173553719008264,-0.07851239669421499,9.134710743801653
6.032,-0.7239669421487603,-0.0322314049586776,9.14793388429752
6.04,-0.7305785123966942,0.014049586776859802,9.161157024793388
6.048,-0.7371900826446282,0.060330578512397204,9.174380165289257
6.056,-0.7438016528925621,0.1066115702479346,9.187603305785125
6.064,-0.750413223140496,0.152892561983472,9.200826446280992
6.072,-0.75702479338843,0.1991735537190094,9.21404958677686
6.08,-0.7636363636363639,0.2454545454545468,9.227272727272728
6.088,-0.7702479338842978,0.29173553719008416,9.240495867768596
6.096,-0.7768595041322317,0.33801652892562156,9.253719008264463
6.104,-0.7834710743801656,0.384297520661159,9.266942148760332
6.112,-0.7900826446280995,0.43057851239669637,9.2801652892562
6.12,-0.7966942148760334,0.4768595041322338,9.293388429752067
6.128,-1.760000000000128,1.2200000000000957,9.3
6.136,-0.7749999999999906,-0.06666666666667653,9.891666666666671
6.144,0.033333333333313606,-0.8999999999999704,10.3
6.152,-0.37187500000001006,-0.07187499999997671,9.99999999999999
6.16,-0.73437500000001,0.7656250000000233,9.599999999999989
6.168,-1.09687500000001,1.6031250000000237,9.199999999999989
6.176,-1.45937500000001,2.440625000000024,8.79999999999999
6.184,-1.8218750000000101,3.2781250000000233,8.39999999999999
6.192,-2.18437500000001,4.115625000000024,7.999999999999989
6.2,-2.54687500000001,4.953125000000023,7.599999999999989
6.208,-2.90937500000001,5.7906250000000234,7.199999999999989
6.216,-2.7,1.9,10.0
6.224,0.08058252427184504,-0.5514563106796125,9.990291262135923
6.232,0.04951456310679639,-0.47378640776699094,9.974757281553398
6.24,0.018446601941747742,-0.39611650485436933,9.959223300970875
6.248,-0.012621359223300904,-0.31844660194174773,9.94368932038835
6.256,-0.04368932038834955,-0.24077669902912613,9.928155339805825
6.264,-0.0747572815533982,-0.16310679611650453,9.912621359223301
6.272,-0.10582524271844684,-0.08543689320388292,9.897087378640776
6.28,-0.1368932038834955,-0.0077669902912612665,9.881553398058253
6.288,-0.16796116504854416,0.06990291262136028,9.866019417475728
6.296,-0.19902912621359278,0.14757281553398194,9.850485436893203
6.304,-0.23009708737864146,0.22524271844660348,9.83495145631068
6.312,-0.26116504854369005,0.30291262135922514,9.819417475728155
6.32,-0.2922330097087388,0.3805825242718467,9.803883495145632
6.328,-0.7,0.3,9.6
6.336,-0.6670103092783503,0.28350515463917514,9.6
6.344,-0.6340206185567006,0.26701030927835034,9.6
6.352,-0.601030927835051,0.2505154639175255,9.6
6.36,-0.5680412371134013,0.23402061855670064,9.6
6.368,-0.5350515463917516,0.2175257731958758,9.6
6.376,-0.502061855670102,0.20103092783505097,9.6
6.384,-0.4690721649484523,0.18453608247422615,9.6
6.392,-0.4360824742268026,0.1680412371134013,9.6
6.4,-0.4030927835051529,0.15154639175257645,9.6
6.408,-0.37010309278350323,0.13505154639175163,9.6
6.416,-0.33711340206185353,0.11855670103092678,9.6
6.424,-0.3041237113402039,0.10206185567010195,9.6
6.432,-0.7,0.4,9.6
6.44,-0.5,0.22058823529411917,9.7
6.448,-0.5,0.24411764705882488,9.7
6.456,-0.5,0.2676470588235306,9.7
6.464,-0.5,0.29117647058823637,9.7
6.472,-0.5,0.31470588235294206,9.7
6.48,-0.5,0.3382352941176478,9.7
6.488,-0.5,0.36176470588235354,9.7
6.496,-0.5,0.3852941176470593,9.7
6.5040000000000004,-0.5136363636363646,0.4136363636363646,9.713636363636365
6.5120000000000005,-0.550000000000002,0.450000000000002,9.750000000000002
6.5200000000000005,-0.5863636363636395,0.4863636363636395,9.78636363636364
6.528,-0.1,-0.7,9.8
