accel_time_list,vertical_Accel_x,vertical_Accel_y,vertical_Accel_z
0.0,1.469,-4.307,-7.191
0.007998771121351767,0.26216033104486036,-5.761031828583969,-8.43416770431675
0.015997542242703534,0.2812594375999248,-5.7531146775761,-8.405274184143703
0.0239963133640553,0.3003585441549892,-5.745197526568231,-8.376380663970657
0.03199508448540707,0.3194576507100536,-5.7372803755603625,-8.347487143797611
0.03999385560675883,0.338556757265118,-5.729363224552494,-8.318593623624565
0.0479926267281106,0.3576558638201825,-5.721446073544625,-8.28970010345152
0.055991397849462374,0.3767549703752469,-5.7135289225367565,-8.260806583278473
0.06399016897081414,0.3958540769303113,-5.705611771528888,-8.231913063105425
0.0719889400921659,0.41495318348537574,-5.69769462052102,-8.20301954293238
0.07998771121351766,0.43405229004044016,-5.68977746951315,-8.174126022759333
0.08798648233486944,0.45315139659550463,-5.681860318505282,-8.145232502586287
0.0959852534562212,0.47225050315056905,-5.673943167497414,-8.116338982413241
0.10398402457757297,0.42307035330261067,-5.124310445468504,-8.166769892473118
0.11198279569892475,0.2894580645161262,-5.604750537634412,-8.11501505376344
0.11998156682027651,0.22051745325493935,-5.560552359764817,-7.833756607871179
0.12798033794162827,0.20047455550258664,-5.50042366650776,-7.844605515828875
0.13597910906298005,0.1804316577502339,-5.440294973250702,-7.855454423786571
0.1439778801843318,0.16038875999788124,-5.380166279993643,-7.866303331744266
0.15197665130568358,0.14034586224552853,-5.320037586736586,-7.877152239701962
0.15997542242703533,0.12030296449317586,-5.259908893479528,-7.888001147659657
0.1679741935483871,0.10026006674082313,-5.199780200222469,-7.898850055617353
0.17597296466973888,0.0802171689884704,-5.139651506965411,-7.909698963575048
0.18397173579109063,0.06017427123611774,-5.079522813708353,-7.920547871532744
0.1919705069124424,0.040131373483765,-5.019394120451295,-7.93139677949044
0.1999692780337942,0.02008847573141226,-4.959265427194237,-7.942245687448135
0.20796804915514594,0.3752875576036865,-4.940838095238085,-8.241517357910908
0.21596682027649772,0.3754237670359839,-4.916880713795471,-8.249661437395822
0.2239655913978495,0.375849233584992,-4.909732875772135,-8.254341569434912
0.23196436251920124,0.37627470013400005,-4.902585037748799,-8.259021701474
0.23996313364055302,0.37670016668300815,-4.895437199725463,-8.263701833513089
0.24796190476190477,0.3771256332320162,-4.888289361702128,-8.268381965552178
0.25596067588325655,0.3775510997810243,-4.881141523678792,-8.273062097591268
0.2639594470046083,0.37797656633003235,-4.873993685655456,-8.277742229630356
0.2719582181259601,0.37840203287904045,-4.866845847632121,-8.282422361669445
0.2799569892473118,0.3788274994280485,-4.859698009608785,-8.287102493708534
0.2879557603686636,0.3792529659770566,-4.85255017158545,-8.291782625747622
0.2959545314900154,0.37967843252606465,-4.845402333562114,-8.296462757786712
0.30395330261136716,0.28624147465437594,-5.143738556067595,-8.237494316436251
0.31195207373271894,0.30711236559139765,-5.213323809523808,-7.7938461597542235
0.31995084485407066,0.2744507168458782,-5.048015873015873,-7.666532386072709
0.32794961597542244,0.2552960897548076,-4.898851620680939,-7.638926224503685
0.3359483870967742,0.2444623111474071,-4.759632503062474,-7.672743813801552
0.343947158218126,0.2336285325400066,-4.62041338544401,-7.7065614030994185
0.35194592933947777,0.2227947539326061,-4.481194267825545,-7.740378992397286
0.35994470046082955,0.21196097532520558,-4.341975150207081,-7.774196581695153
0.36794347158218127,0.20112719671780516,-4.202756032588617,-7.80801417099302
0.37594224270353305,0.19029341811040462,-4.063536914970153,-7.841831760290886
0.3839410138248848,0.17945963950300414,-3.9243177973516885,-7.875649349588754
0.3919397849462366,0.1686258608956036,-3.785098679733224,-7.90946693888662
0.3999385560675884,0.15779208228820313,-3.6458795621147595,-7.9432845281844875
0.4079373271889401,-0.2907216589861621,-2.513534562211956,-4.449576958525336
0.4159360983102919,-0.3805800736666508,-2.3667320912409355,-4.490856716713741
0.42393486943164366,-0.4950571098227714,-2.2656723485786956,-4.549170338437144
0.43193364055299543,-0.6095341459788919,-2.164612605916455,-4.607483960160548
0.4399324116743472,-0.7240111821350125,-2.0635528632542153,-4.66579758188395
0.447931182795699,-0.8384882182911331,-1.962493120591975,-4.724111203607354
0.4559299539170507,-0.9529652544472528,-1.8614333779297354,-4.782424825330756
0.4639287250384025,-1.0674422906033734,-1.7603736352674955,-4.84073844705416
0.47192749615975427,-1.1819193267594938,-1.659313892605255,-4.899052068777563
0.47992626728110604,-1.2963963629156146,-1.5582541499430151,-4.957365690500966
0.4879250384024578,-1.4108733990717353,-1.4571944072807748,-5.0156793122243695
0.49592380952380954,-1.525350435227855,-1.3561346646185353,-5.073992933947773
0.5039225806451614,-1.9192180645161079,0.6624451612903384,-6.012522580645164
0.5119213517665131,-1.4042828157349894,1.645717872169907,-6.8592972684164835
0.5199201228878648,-1.3180351966873707,1.9109814666399518,-6.868861016496361
0.5279188940092167,-1.2317875776397509,2.1762450611100004,-6.878424764576238
0.5359176651305684,-1.1455399585921322,2.4415086555800447,-6.887988512656114
0.5439164362519202,-1.0592923395445126,2.7067722500500935,-6.897552260735991
0.5519152073732719,-0.973044720496894,2.9720358445201382,-6.907116008815868
0.5599139784946237,-0.8867971014492754,3.2372994389901826,-6.916679756895745
0.5679127496159755,-0.8005494824016556,3.5025630334602313,-6.926243504975623
0.5759115207373272,-0.714301863354037,3.767826627930276,-6.9358072530555
0.583910291858679,-0.6280542443064172,4.033090222400324,-6.945371001135377
0.5919090629800308,-0.5418066252587985,4.298353816870369,-6.954934749215254
0.5999078341013825,-0.45555900621117995,4.563617411340414,-6.964498497295131
0.6079066052227343,-3.747021198156733,3.2992823348694458,-8.142701382488504
0.615905376344086,-3.715582258064516,3.5564551971326175,-8.188293010752687
0.6239041474654379,-3.624096313364054,3.799751152073736,-8.205790322580645
0.6319029185867896,-3.532610368663594,4.043047107014851,-8.223287634408601
0.6399016897081413,-3.4411244239631333,4.286343061955966,-8.240784946236559
0.6479004608294932,-3.349638479262672,4.529639016897084,-8.258282258064517
0.6558992319508449,-3.2581525345622113,4.772934971838199,-8.275779569892473
0.6638980030721967,-3.16666658986175,5.0162309267793175,-8.29327688172043
0.6718967741935484,-3.0751806451612897,5.259526881720432,-8.310774193548387
0.6798955453149003,-2.983694700460828,5.502822836661551,-8.328271505376344
0.687894316436252,-2.8922087557603677,5.746118791602665,-8.345768817204302
0.6958930875576037,-2.8007228110599076,5.989414746543781,-8.363266129032258
0.7038918586789555,-2.7092368663594457,6.232710701484899,-8.380763440860216
0.7118906298003073,-6.412317419354842,12.480834900153617,-8.583238771121348
0.7198894009216591,-6.798658064516136,13.355900460829508,-8.097713364055291
0.7278881720430108,-6.058324279835383,13.760460905349799,-7.407942731979283
0.7358869431643625,-5.302193533215753,14.158424456202235,-6.715308403026679
0.7438857142857144,-4.546062786596112,14.556388007054679,-6.022674074074065
0.7518844854070661,-3.789932039976481,14.954351557907115,-5.330039745121462
0.7598832565284179,-3.03380129335684,15.352315108759559,-4.637405416168848
0.7678820276497696,-2.277670546737209,15.750278659611995,-3.9447710872162443
0.7758807987711214,-1.521539800117579,16.14824221046443,-3.2521367582636396
0.7838795698924732,-0.7654090534979376,16.546205761316877,-2.559502429311026
0.7918783410138249,-0.009278306878306886,16.94416931216931,-1.8668681003584222
0.7998771121351768,0.7468524397413336,17.342132863021753,-1.1742337714058086
0.8078758832565285,2.7148344086021465,15.314819047619054,4.281231029185887
0.8158746543778802,2.395119952936563,15.097737386018238,4.227430552014904
0.823873425499232,2.1118443246069862,14.804931306990879,3.9881481648527624
0.8318721966205838,1.8285686962774128,14.512125227963525,3.7488657776906233
0.8398709677419356,1.5452930679478356,14.219319148936167,3.5095833905284812
0.8478697388632873,1.2620174396182624,13.926513069908813,3.2703010033663427
0.855868509984639,0.9787418112886892,13.633706990881459,3.0310186162042037
0.8638672811059909,0.6954661829591118,13.340900911854101,2.791736229042061
0.8718660522273426,0.4121905546295386,13.048094832826747,2.5524538418799225
0.8798648233486944,0.12891492629996115,12.75528875379939,2.3131714547177804
0.8878635944700461,-0.15436070202961183,12.462482674772035,2.0738890675556414
0.895862365591398,-0.43763633035918925,12.169676595744678,1.8346066803934993
0.9038611367127497,-0.25585099846387777,11.183012288786447,0.6551453149001688
0.9118599078341014,-0.4303801100044595,9.812800386502154,2.877640701650067
0.9198586789554533,-0.3835055910675052,9.741929554201144,2.8914020283104573
0.927857450076805,-0.3366310721305515,9.671058721900136,2.9051633549708473
0.9358562211981568,-0.2897565531935971,9.600187889599127,2.9189246816312377
0.9438549923195085,-0.2428820342566434,9.529317057298117,2.9326860082916277
0.9518537634408603,-0.19600751531968968,9.458446224997108,2.9464473349520177
0.9598525345622121,-0.1491329963827353,9.387575392696098,2.960208661612408
0.9678513056835638,-0.10225847744578159,9.31670456039509,2.973969988272798
0.9758500768049156,-0.05538395850882727,9.24583372809408,2.9877313149331886
0.9838488479262674,-0.008509439571873556,9.17496289579307,3.0014926415935785
0.9918476190476191,0.03836507936508016,9.104092063492061,3.0152539682539685
0.9998463901689709,0.08523959830203459,9.033221231191051,3.029015294914359
1.0078451612903228,-0.11046267281105968,9.165127188940097,2.8682479262672778
1.0158439324116744,0.15107831308476571,9.97233789275241,3.31706015570451
1.0238427035330262,0.2216129311548682,9.99578883535819,3.260977862728668
1.031841474654378,0.29214754922497066,10.019239777963973,3.2048955697528263
1.0398402457757296,0.3626821672950712,10.042690720569754,3.1488132767769863
1.0478390168970815,0.43321678536517366,10.066141663175534,3.0927309838011445
1.0558377880184333,0.5037514034352761,10.089592605781316,3.0366486908253028
1.0638365591397851,0.5742860215053787,10.113043548387097,2.9805663978494605
1.0718353302611368,0.6448206395754791,10.136494490992877,2.9244841048736205
1.0798341013824886,0.7153552576455816,10.15994543359866,2.8684018118977788
1.0878328725038404,0.785889875715684,10.18339637620444,2.812319518921937
1.095831643625192,0.8564244937857846,10.206847318810222,2.756237225946097
1.1038304147465439,0.826012800819249,10.327521556579617,2.1199624167946767
1.1118291858678957,0.53716828810377,10.014680730500082,2.2737165727939934
1.1198279569892473,1.0104623655913911,10.0412688172043,2.4179032258064495
1.1278267281105991,1.6317780420973957,10.444850977705816,2.854213725245986
1.135825499231951,1.4941775605098164,10.278930522688585,3.2336148960019986
1.1438242703533028,1.356577078922237,10.113010067671354,3.6130160667580107
1.1518230414746544,1.2189765973346613,9.947089612654128,3.9924172375140126
1.1598218125960063,1.081376115747082,9.781169157636898,4.371818408270025
1.167820583717358,0.9437756341595027,9.615248702619667,4.751219579026037
1.1758193548387097,0.8061751525719272,9.449328247602441,5.1306207497820395
1.1838181259600615,0.6685746709843478,9.28340779258521,5.510021920538051
1.1918168970814134,0.5309741893967683,9.11748733756798,5.889423091294064
1.199815668202765,0.3933737078091928,8.951566882550754,6.268824262050066
1.2078144393241168,1.232017511520688,7.690655299539099,4.190712135176501
1.2158132104454686,1.3427992633335029,7.660655748806636,3.3942277852105
1.2238119815668205,1.5493911798226117,7.764725781675837,2.864158683910593
1.231810752688172,1.7559830963117147,7.868795814545035,2.3340895826107007
1.239809523809524,1.9625750128008232,7.972865847414237,1.8040204813107934
1.2478082949308757,2.169166929289932,8.076935880283438,1.2739513800108861
1.2558070660522274,2.375758845779035,8.181005913152637,0.743882278710994
1.2638058371735792,2.5823507622681436,8.285075946021838,0.21381317741108674
1.271804608294931,2.7889426787572527,8.389145978891039,-0.3162559238888205
1.2798033794162826,2.9955345952463555,8.493216011760238,-0.8463250251887127
1.2878021505376345,3.202126511735464,8.597286044629438,-1.37639412648862
1.2958009216589863,3.408718428224573,8.701356077498641,-1.9064632277885272
1.3037996927803381,3.142098310291811,8.10851858678945,3.2264857142855288
1.3117984639016897,2.942111520737295,8.897758064516145,3.135001689708179
1.3197972350230416,2.4439151677320226,9.124494425449681,3.5881630246271246
1.3277960061443934,2.3284920403679994,9.168616679054557,3.5707033414267544
1.335794777265745,2.2130689130039793,9.212738932659432,3.5532436582263847
1.3437935483870969,2.097645785639956,9.256861186264308,3.5357839750260145
1.3517923195084487,1.9822226582759328,9.300983439869185,3.5183242918256443
1.3597910906298005,1.8667995309119094,9.34510569347406,3.500864608625274
1.3677898617511521,1.7513764035478894,9.389227947078936,3.4834049254249044
1.375788632872504,1.6359532761838662,9.433350200683812,3.4659452422245343
1.3837874039938558,1.520530148819843,9.477472454288689,3.448485559024164
1.3917861751152074,1.405107021455823,9.521594707893563,3.4310258758237944
1.3997849462365592,1.2896838940917996,9.56571696149844,3.413566192623424
1.407783717357911,0.4310324116743061,10.321628264208895,3.8374875576036254
1.4157824884792627,0.18521735618495438,9.704547486149226,3.12378770776161
1.4237812596006145,0.2850671844526161,9.714163986261413,2.9795402060788043
1.4317800307219664,0.3849170127202778,9.723780486373599,2.8352927043959983
1.4397788018433182,0.4847668409879395,9.733396986485786,2.691045202713193
1.4477775729646698,0.5846166692555984,9.743013486597974,2.5467977010303913
1.4557763440860216,0.68446649752326,9.752629986710161,2.4025501993475857
1.4637751152073735,0.7843163257909218,9.762246486822347,2.25830269766478
1.471773886328725,0.8841661540585807,9.771862986934535,2.1140551959819787
1.479772657450077,0.9840159823262424,9.781479487046722,1.969807694299173
1.4877714285714287,1.083865810593904,9.79109598715891,1.8255601926163674
1.4957701996927804,1.183715638861563,9.800712487271095,1.6813126909335658
1.5037689708141322,1.243,9.194,1.526
1.511767741935484,1.243,9.194,1.526
1.5197665130568359,1.2313485236388457,9.308925925925932,1.584257381805772
1.5277652841781875,1.2028337133155467,9.243135702158623,1.889456002910502
1.5357640552995393,1.1295818093621142,9.257344045597867,1.9232402861993696
1.5437628264208911,1.0563299054086817,9.27155238903711,1.9570245694882373
1.5517615975422427,0.9830780014552511,9.285760732476353,1.990808852777104
1.5597603686635946,0.9098260975018186,9.299969075915596,2.0245931360659717
1.5677591397849464,0.8365741935483861,9.31417741935484,2.058377419354839
1.5757579109062982,0.7633222895949536,9.328385762794083,2.0921617026437067
1.5837566820276499,0.6900703856415231,9.342594106233324,2.125945985932573
1.5917554531490017,0.6168184816880906,9.35680244967257,2.159730269221441
1.5997542242703535,0.5435665777346581,9.371010793111813,2.1935145525103086
1.6077529953917051,0.32103502304147846,9.433621198156684,2.4797050691244245
1.615751766513057,0.35824261337073526,9.40017609363521,2.5373530087490828
1.6237505376344088,0.4355350864890154,9.373136769518466,2.6100374941561495
1.6317493087557604,0.5128275596072934,9.346097445401723,2.682721979563214
1.6397480798771122,0.5901200327255736,9.319058121284979,2.7554064649702807
1.647746850998464,0.6674125058438537,9.292018797168236,2.828090950377347
1.655745622119816,0.7447049789621338,9.264979473051492,2.9007754357844138
1.6637443932411675,0.8219974520804119,9.237940148934749,2.9734599211914783
1.6717431643625194,0.8992899251986919,9.210900824818005,3.046144406598545
1.6797419354838712,0.9765823983169721,9.183861500701262,3.1188288920056113
1.6877407066052228,1.0538748714352502,9.15682217658452,3.191513377412676
1.6957394777265746,1.1311673445535302,9.129782852467775,3.2641978628197426
1.7037382488479265,1.0747786175115186,8.933657695852535,3.5484226728110633
1.711737019969278,1.0293111862092506,8.845247530295271,3.8460664413722476
1.71973579109063,1.0326884451271547,8.82622823007339,3.8359346646185357
1.7277345622119817,1.036065704045059,8.807208929851509,3.8258028878648234
1.7357333333333336,1.039442962962963,8.78818962962963,3.815671111111111
1.7437321044546852,1.042820221880867,8.769170329407748,3.8055393343573987
1.751730875576037,1.046197480798771,8.750151029185867,3.7954075576036863
1.7597296466973888,1.0495747397166753,8.731131728963986,3.785275780849974
1.7677284178187405,1.0529519986345792,8.712112428742106,3.775144004096262
1.7757271889400923,1.0563292575524834,8.693093128520225,3.7650122273425497
1.7837259600614441,1.0597065164703874,8.674073828298344,3.7548804505888373
1.791724731182796,1.0630837753882916,8.655054528076462,3.744748673835125
1.7997235023041476,1.0664610343061955,8.636035227854581,3.734616897081413
1.8077222734254994,1.6998070660522309,10.112060522273437,3.8259468509984695
1.8157210445468512,1.7224458252812054,10.16996720017178,3.836758406421882
1.8237198156682028,1.7374112680243794,10.202048292948813,3.834436182547941
1.8317185867895547,1.7523767107675539,10.234129385725847,3.8321139586740003
1.8397173579109065,1.767342153510728,10.266210478502883,3.829791734800059
1.8477161290322581,1.7823075962539021,10.298291571279917,3.8274695109261185
1.85571490015361,1.7972730389970766,10.330372664056952,3.825147287052178
1.8637136712749618,1.812238481740251,10.362453756833986,3.822825063178237
1.8717124423963136,1.8272039244834253,10.394534849611022,3.820502839304296
1.8797112135176652,1.8421693672265993,10.426615942388056,3.818180615430355
1.887709984639017,1.8571348099697738,10.45869703516509,3.8158583915564144
1.895708755760369,1.8721002527129482,10.490778127942125,3.8135361676824733
1.9037075268817205,1.9257716845878146,10.640607526881723,3.782668458781361
1.9117062980030723,2.0550851510496693,11.020549155145936,3.6960151049667167
1.9197050691244242,2.727275317522753,12.790156457232777,3.784997414858941
1.9277038402457758,2.3900588325652827,12.859999385560677,3.7963127496159754
1.9357026113671276,2.052842347607803,12.929842313888578,3.8076280843730097
1.9437013824884795,1.7156258626503234,12.99968524221648,3.818943419130044
1.9517001536098313,1.3784093776928437,13.06952817054438,3.8302587538870783
1.959698924731183,1.0411928927353733,13.13937109887228,3.841574088644112
1.9676976958525347,0.7039764077778936,13.209214027200183,3.852889423401147
1.9756964669738866,0.3667599228204139,13.279056955528084,3.864204758158181
1.9836952380952382,0.029543437862943556,13.348899883855983,3.875520092915215
1.99169400921659,-0.30767304709453613,13.418742812183885,3.886835427672249
1.9996927803379418,-0.6448895320520158,13.488585740511786,3.8981507624292835
2.0076915514592937,-0.8254665898617584,13.207244623655898,3.6072446236558973
2.0156903225806455,-0.9754435483871051,12.857298387096755,3.257298387096755
2.023689093701997,-1.4,13.33109062980031,3.3
2.0316878648233487,-1.3898843883903307,13.239306330341984,3.3
2.0396866359447006,-1.3793596895464466,13.17615813727868,3.3
2.0476854070660524,-1.3688349907025625,13.113009944215376,3.3
2.0556841781874042,-1.3583102918586787,13.049861751152072,3.3
2.063682949308756,-1.3477855930147946,12.986713558088768,3.3
2.071681720430108,-1.3372608941709108,12.923565365025464,3.3
2.0796804915514593,-1.3267361953270274,12.860417171962164,3.3
2.087679262672811,-1.3162114964831435,12.79726897889886,3.3
2.095678033794163,-1.3056867976392594,12.734120785835556,3.3
2.103676804915515,0.15456221198162845,10.393917050691162,4.180798771121317
2.1116755760368666,0.38528417818740684,9.603010752688151,2.9060215053763043
2.1196743471582185,0.4,9.5,2.6924155145929336
2.1276731182795703,0.4,9.5,2.683326001955034
2.1356718894009217,0.4,9.5,2.6742364893171344
2.1436706605222735,0.4,9.5,2.665146976679235
2.1516694316436253,0.4,9.5,2.656057464041335
2.159668202764977,0.4,9.5,2.646967951403435
2.167666973886329,0.4,9.5,2.637878438765535
2.175665745007681,0.4,9.5,2.6287889261276356
2.1836645161290322,0.4,9.5,2.6196994134897365
2.191663287250384,0.4,9.5,2.6106099008518364
2.199662058371736,0.4,9.5,2.601520388213937
2.2076608294930877,1.4339170506912418,10.283041474654379,1.7339170506912418
2.2156596006144396,1.3752916109211633,10.234110962456436,1.7082361296929456
2.2236583717357914,1.3494891234329316,10.165304329154484,1.7168369588556895
2.2316571428571432,1.3236866359446997,10.096497695852534,1.7254377880184333
2.2396559139784946,1.2978841484564696,10.027691062550586,1.7340386171811768
2.2476546850998464,1.2720816609682377,9.958884429248634,1.7426394463439208
2.2556534562211983,1.246279173480006,9.890077795946683,1.7512402755066647
2.26365222734255,1.2204766859917744,9.821271162644733,1.7598411046694085
2.271650998463902,1.1946741985035427,9.752464529342781,1.7684419338321524
2.279649769585254,1.1688717110153108,9.68365789604083,1.7770427629948964
2.2876485407066056,1.1430692235270792,9.614851262738878,1.7856435921576403
2.295647311827957,1.1172667360388489,9.546044629436931,1.7942444213203836
2.303646082949309,1.0278341013824885,9.259447004608294,1.8721658986175116
2.3116448540706607,0.8096857980728865,8.532285993576288,2.0903142019271135
2.3196436251920125,0.8881208397337467,7.624751664106501,2.212872503840248
2.3276423963133643,1.1547465437788056,7.518101382488478,2.3728479262672835
2.335641167434716,1.1877180645161367,7.586739521615097,2.9280619047618988
2.343639938556068,1.3388948387096866,7.563885889839805,2.8040809523809447
2.3516387096774194,1.490071612903228,7.541032258064516,2.680099999999998
2.3596374807987712,1.6412483870967782,7.518178626289225,2.5561190476190445
2.367636251920123,1.7924251612903281,7.4953249945139335,2.4321380952380904
2.375635023041475,1.943601935483878,7.472471362738643,2.3081571428571372
2.3836337941628267,2.094778709677428,7.449617730963352,2.184176190476183
2.3916325652841786,2.2459554838709783,7.426764099188061,2.0601952380952295
2.39963133640553,2.3971322580645196,7.403910467412771,1.9362142857142828
2.407630107526882,2.8805834101382537,8.066728110599088,0.9143662058371729
2.4156288786482336,3.146687093283061,7.5253159474933575,4.401574483312383
2.4236276497695854,3.148777681189778,7.2980781315458625,4.31204278382907
2.4316264208909373,3.150868269096495,7.0708403155983675,4.222511084345757
2.439625192012289,3.152958857003212,6.843602499650872,4.132979384862444
2.447623963133641,3.155049444909929,6.616364683703377,4.043447685379131
2.4556227342549923,3.157140032816646,6.389126867755895,3.953915985895823
2.463621505376344,3.159230620723363,6.1618890518084,3.86438428641251
2.471620276497696,3.1613212086300795,5.934651235860905,3.774852586929197
2.479619047619048,3.1634117965367965,5.70741341991341,3.685320887445884
2.4876178187403997,3.1655023844435135,5.480175603965915,3.5957891879625707
2.4956165898617515,3.1675929723502305,5.25293778801842,3.5062574884792577
2.5036153609831033,3.1507062980028544,7.207680491551644,1.2618890937025267
2.5116141321044547,2.619044358555077,6.255705597674381,2.784944264407116
2.5196129032258066,2.6368480749219567,6.308170655567118,2.855643080124871
2.5276116743471584,2.6546517912888365,6.360635713459856,2.9263418958426257
2.53561044546851,2.6724555076557164,6.413100771352594,2.997040711560381
2.543609216589862,2.690259224022596,6.465565829245332,3.067739527278136
2.551607987711214,2.708062940389476,6.518030887138069,3.1384383429958906
2.5596067588325653,2.725866656756355,6.570495945030805,3.2091371587136415
2.567605529953917,2.743670373123235,6.622961002923542,3.2798359744313967
2.575604301075269,2.7614740894901146,6.67542606081628,3.3505347901491516
2.5836030721966208,2.779277805856995,6.727891118709018,3.4212336058669064
2.5916018433179726,2.7970815222238747,6.780356176601756,3.4919324215846617
2.5996006144393244,2.8148852385907546,6.832821234494493,3.5626312373024165
2.6075993855606763,2.5568288786482167,7.250490117767562,4.2047683051715685
2.6155981566820277,2.7949712086300798,8.730691296606619,2.9843688940092163
2.6235969278033795,2.8903201962016487,8.837493070101942,2.9023814900153604
2.6315956989247313,2.9856691837732177,8.944294843597264,2.820394086021504
2.639594470046083,3.0810181713447866,9.051096617092588,2.7384066820276476
2.647593241167435,3.1763671589163556,9.15789839058791,2.6564192780337916
2.655592012288787,3.2717161464879245,9.264700164083234,2.5744318740399352
2.6635907834101387,3.3670651340594935,9.371501937578556,2.4924444700460793
2.67158955453149,3.462414121631057,9.478303711073872,2.4104570660522273
2.679588325652842,3.557763109202626,9.585105484569196,2.328469662058371
2.6875870967741937,3.653112096774195,9.691907258064518,2.246482258064515
2.6955858678955456,3.748461084345764,9.798709031559842,2.1644948540706586
2.7035846390168974,4.371888684075804,11.657629561358602,2.303049735449659
2.711583410138249,4.438821658985863,11.59038709677402,0.18813502304104557
2.719582181259601,3.5202384167470457,10.204664326795976,-0.7248686814560563
2.7275809523809524,3.5468389811738654,10.066173975636763,-0.4121725359911345
2.7355797235023043,3.5734395456006864,9.927683624477545,-0.09947639052619539
2.743578494623656,3.6000401100275075,9.789193273318325,0.2132197549387439
2.751577265745008,3.626640674454329,9.650702922159107,0.525915900403683
2.7595760368663598,3.65324123888115,9.512212570999887,0.8386120458686223
2.7675748079877116,3.679841803307971,9.37372221984067,1.1513081913335617
2.775573579109063,3.7064423677347906,9.235231868681456,1.4640043367984834
2.783572350230415,3.7330429321616116,9.096741517522238,1.7767004822634225
2.7915711213517667,3.7596434965884327,8.958251166363018,2.0893966277283615
2.7995698924731185,3.786244061015254,8.8197608152038,2.402092773193301
2.8075686635944703,3.4136012586095785,13.647010207621033,-0.942557445121647
2.815567434715822,3.3095312257403773,13.759681069652979,-0.8941347769353988
2.823566205837174,3.205461192871176,13.872351931684925,-0.8457121087491506
2.8315649769585254,3.1013911600019806,13.985022793716864,-0.7972894405629051
2.839563748079877,2.9973211271327793,14.097693655748808,-0.7488667723766569
2.847562519201229,2.893251094263578,14.210364517780754,-0.7004441041904086
2.855561290322581,2.789181061394377,14.3230353798127,-0.6520214360041605
2.8635600614439327,2.685111028525175,14.435706241844644,-0.6035987678179122
2.8715588325652845,2.581040995655974,14.54837710387659,-0.555176099631664
2.8795576036866364,2.4769709627867726,14.661047965908535,-0.5067534314454158
2.8875563748079878,2.372900929917577,14.773718827940474,-0.4583307632591703
2.8955551459293396,2.268830897048376,14.886389689972418,-0.40990809507292214
2.9035539170506914,0.43040184331797826,10.947100460829372,0.9977760368662827
2.9115526881720433,1.024197278911563,9.697546894886985,0.25052637700241526
2.919551459293395,0.9735928085519902,9.645799742938648,0.2971314618013122
2.927550230414747,0.9229883381924173,9.59405259099031,0.3437365466002092
2.9355490015360988,0.8723838678328444,9.542305439041973,0.39034163139910616
2.94354777265745,0.8217793974732743,9.49055828709364,0.4369467161980005
2.951546543778802,0.7711749271137015,9.4388111351453,0.48355180099689754
2.959545314900154,0.7205704567541287,9.387063983196963,0.5301568857957945
2.9675440860215057,0.6699659863945557,9.335316831248626,0.5767619705946915
2.9755428571428575,0.6193615160349828,9.283569679300289,0.6233670553935884
2.9835416282642093,0.56875704567541,9.231822527351952,0.6699721401924854
2.9915403993855607,0.5181525753158399,9.180075375403616,0.7165772249913798
2.9995391705069125,0.467548104956267,9.128328223455279,0.7631823097902767
3.0075379416282644,0.4483633043181435,8.317312374125276,0.6951907492746199
3.015536712749616,0.5132422256357758,8.113788086704211,0.6534193889742266
3.023535483870968,1.5052903225806613,8.248109677419363,0.1850064516128907
3.03153425499232,1.7397963517665194,8.330842238436592,-0.0154820831199948
3.0395330261136717,1.852778993855614,8.295625426693974,-0.16534794760198943
3.047531797235023,1.9657616359447023,8.260408614951357,-0.3152138120839757
3.055530568356375,2.078744278033797,8.22519180320874,-0.4650796765659704
3.0635293394777268,2.1917269201228913,8.18997499146612,-0.614945541047965
3.0715281105990786,2.3047095622119858,8.154758179723501,-0.7648114055299595
3.0795268817204304,2.4176922043010807,8.119541367980883,-0.9146772700119542
3.0875256528417823,2.530674846390175,8.084324556238265,-1.0645431344939487
3.095524423963134,2.6436574884792696,8.049107744495647,-1.2144089989759435
3.1035231950844855,2.7349677419354856,8.558533333333342,-1.3634832565284174
3.1115219662058373,1.7200894589520397,9.517022328042328,-0.6183300017067744
3.119520737327189,1.7061360471070148,9.486715873015873,-0.8072787506400414
3.127519508448541,1.69218263526199,9.456409417989418,-0.9962274995733083
3.135518279569893,1.6782292234169651,9.426102962962963,-1.1851762485065753
3.1435170506912447,1.6642758115719403,9.395796507936508,-1.3741249974398424
3.1515158218125965,1.6503223997269154,9.365490052910053,-1.5630737463731093
3.159514592933948,1.6363689878818912,9.3351835978836,-1.7520224953063654
3.1675133640552997,1.6224155760368664,9.304877142857142,-1.9409712442396327
3.1755121351766515,1.6084621641918415,9.274570687830687,-2.1299199931728996
3.1835109062980034,1.5945087523468167,9.244264232804232,-2.3188687421061664
3.191509677419355,1.5805553405017916,9.213957777777777,-2.5078174910394333
3.199508448540707,1.5666019286567667,9.183651322751322,-2.6967662399727
3.2075072196620584,2.1477989759344642,9.903305273937537,-3.5241214541730734
3.2155059907834103,2.5899677626469226,10.63043496090716,-4.168307129912495
3.223504761904762,2.464414018191546,10.79112937399679,-4.045809095773141
3.231503533026114,2.3388602737361697,10.95182378708642,-3.9233110616337865
3.2395023041474658,2.213306529280793,11.112518200176051,-3.800813027494432
3.2475010752688176,2.0877527848254163,11.273212613265681,-3.678314993355077
3.2554998463901694,1.9621990403700398,11.43390702635531,-3.555816959215723
3.263498617511521,1.8366452959146704,11.594601439444933,-3.433318925076375
3.2714973886328726,1.7110915514592937,11.755295852534562,-3.3108208909370203
3.2794961597542245,1.5855378070039172,11.915990265624192,-3.188322856797666
3.2874949308755763,1.4599840625485405,12.076684678713823,-3.0658248226583114
3.295493701996928,1.334430318093164,12.237379091803453,-2.9433267885189567
3.30349247311828,0.5403225806453322,12.792580645161303,-2.013718279569754
3.311491244239632,2.0765867598236074,12.100530191764527,-2.472050017343039
3.319490015360983,2.2085234791800916,12.05821411228383,-2.3919762978378976
3.327488786482335,2.340460198536583,12.015898032803129,-2.311902578332752
3.335487557603687,2.4723969178930747,11.97358195332243,-2.231828858827606
3.3434863287250387,2.604333637249566,11.93126587384173,-2.1517551393224603
3.3514850998463905,2.7362703566060578,11.88894979436103,-2.0716814198173146
3.3594838709677424,2.868207075962549,11.84663371488033,-1.9916077003121686
3.367482642089094,3.000143795319041,11.80431763539963,-1.9115339808070229
3.3754814132104456,3.1320805146755246,11.762001555918932,-1.8314602613018813
3.3834801843317974,3.2640172340320164,11.719685476438233,-1.7513865417967356
3.3914789554531493,3.395953953388508,11.677369396957532,-1.6713128222915898
3.399477726574501,3.5278906727449995,11.635053317476833,-1.591239102786444
3.407476497695853,3.1728534562211577,12.945401536098352,-2.2701671274961837
3.4154752688172048,2.6148066170388344,12.631161952026439,-2.1962213399503643
3.423474039938556,1.6811656938043662,11.31895514592927,-1.6905170506912155
3.431472811059908,1.3788971093422653,10.939585720270507,-1.538732264049313
3.43947158218126,1.1818364753525972,10.771092125999953,-1.4742226943563326
3.4474703533026116,0.9847758413629292,10.602598531729399,-1.409713124663352
3.4554691244239635,0.7877152073732612,10.434104937458844,-1.3452035549703718
3.4634678955453153,0.5906545733835932,10.26561134318829,-1.2806939852773913
3.471466666666667,0.3935939393939252,10.097117748917736,-1.216184415584411
3.4794654377880185,0.19653330540426817,9.928624154647192,-1.151674845891434
3.4874642089093704,-0.0005273285853999443,9.760130560376638,-1.0871652761984536
3.495462980030722,-0.19758796257506783,9.591636966106083,-1.0226557065054733
3.503461751152074,0.21141529953917032,8.264087188940051,-0.4308412903225405
3.511460522273426,1.4799393104625373,6.976357470558114,1.083411554872845
3.5194592933947777,1.5136230244068967,6.947828520225293,1.0731909028844508
3.5274580645161295,1.5473067383512562,6.9192995698924715,1.0629702508960568
3.535456835637481,1.5809904522956137,6.890770619559651,1.0527495989076634
3.5434556067588328,1.6146741662399733,6.8622416692268295,1.0425289469192693
3.5514543778801846,1.6483578801843326,6.8337127188940086,1.0323082949308753
3.5594531490015364,1.682041594128692,6.805183768561187,1.0220876429424812
3.5674519201228883,1.7157253080730515,6.776654818228366,1.0118669909540872
3.57545069124424,1.749409022017411,6.748125867895544,1.0016463389656933
3.583449462365592,1.7830927359617703,6.719596917562722,0.9914256869772993
3.5914482334869433,1.8167764499061279,6.691067967229902,0.9812050349889058
3.599447004608295,1.8504601638504874,6.662539016897081,0.9709843830005117
3.607445775729647,1.5578678955452947,6.589433998975922,0.985011674347176
3.615444546850999,1.2824656743199696,6.43462067887389,1.2151219308619823
3.6234433179723506,1.25103687451572,6.452317075160067,1.2154050732025612
3.6314420890937025,1.2196080747114704,6.470013471446244,1.2156882155431399
3.639440860215054,1.1881792749072224,6.48770986773242,1.2159713578837188
3.6474396313364057,1.1567504751029727,6.505406264018596,1.2162545002242977
3.6554384024577575,1.125321675298723,6.523102660304772,1.2165376425648764
3.6634371735791094,1.0938928754944732,6.5407990565909495,1.2168207849054553
3.671435944700461,1.0624640756902237,6.558495452877126,1.217103927246034
3.679434715821813,1.031035275885974,6.576191849163303,1.217387069586613
3.687433486943165,0.9996064760817243,6.593888245449479,1.2176702119271918
3.6954322580645163,0.9681776762774763,6.6115846417356545,1.2179533542677705
3.703431029185868,0.9367488764732266,6.629281038021832,1.2182364966083494
3.71142980030722,0.905320076668977,6.646977434308008,1.2185196389489281
3.7194285714285718,0.8738912768647273,6.664673830594185,1.218802781289507
3.7274273425499236,0.7199665130568021,7.393406451613085,1.338026728110547
3.7354261136712754,0.3855194242787694,7.834804684047725,1.1330622687961633
3.7434248847926272,0.3700697430717747,7.846309765797614,1.1596883151316224
3.7514236559139786,0.35462006186478096,7.857814847547504,1.1863143614670797
3.7594224270353305,0.33917038065778626,7.869319929297394,1.2129404078025385
3.7674211981566823,0.3237206994507916,7.880825011047283,1.2395664541379974
3.775419969278034,0.308271018243797,7.892330092797173,1.2661925004734562
3.783418740399386,0.29282133703680235,7.903835174547062,1.2928185468089153
3.791417511520738,0.2773716558298077,7.915340256296952,1.3194445931443741
3.799416282642089,0.2619219746228139,7.926845338046841,1.3460706394798314
3.807415053763441,0.7847680727874268,8.177324565756821,1.4991515301902427
3.815413824884793,0.7269308046791899,7.9982751506557905,1.6695868840836636
3.8234125960061447,1.3781893838538917,7.543101928656805,1.8322137566137915
3.8314113671274965,1.1879963816350791,8.398081686294644,2.631202116402167
3.8394101382488484,1.1913237015817673,8.447581641549382,2.848316602316614
3.8474089093702,1.2100235313654681,8.433097380329638,3.019209266409279
3.8554076804915516,1.228723361149168,8.418613119109892,3.1901019305019345
3.8634064516129034,1.2474231909328688,8.404128857890148,3.360994594594599
3.8714052227342552,1.2661230207165697,8.389644596670403,3.531887258687264
3.879403993855607,1.2848228505002706,8.375160335450657,3.7027799227799285
3.887402764976959,1.3035226802839712,8.360676074230913,3.8736725868725936
3.8954015360983107,1.322222510067672,8.346191813011167,4.044565250965259
3.9034003072196626,1.340922339851373,8.331707551791421,4.215457915057923
3.911399078341014,1.0384984331797047,11.159870599078474,3.928445161290308
3.919397849462366,0.8664765789148394,11.93358126313188,4.102531207514538
3.9273966205837176,0.7783062167840764,12.011822116284412,4.418252817063068
3.9353953917050695,0.6901358546533132,12.090062969436945,4.733974426611598
3.9433941628264213,0.6019654925225502,12.168303822589479,5.049696036160128
3.951392933947773,0.5137951303917869,12.246544675742012,5.365417645708659
3.959391705069125,0.4256247682610239,12.324785528894544,5.681139255257189
3.9673904761904764,0.33745440613026567,12.403026382047074,5.996860864805702
3.975389247311828,0.24928404399950255,12.481267235199606,6.312582474354231
3.98338801843318,0.16111368186873942,12.55950808835214,6.628304083902762
3.991386789554532,0.0729433197379763,12.637748941504674,6.944025693451293
3.9993855606758837,-0.015227042392786827,12.715989794657206,7.259747302999823
4.007384331797235,1.2644207373272596,13.846961751152142,7.62826082949306
4.015383102918587,3.2723239255845846,14.821934097968922,7.25404015019629
4.023381874039939,3.4124801706775973,14.673245830346469,7.35811305000854
4.031380645161291,3.5526364157706256,14.524557562723997,7.462185949820801
4.039379416282642,3.6927926608636388,14.375869295101543,7.566258849633051
4.047378187403994,3.8329489059566515,14.227181027479089,7.6703317494453005
4.055376958525346,3.97310515104968,14.078492759856617,7.774404649257562
4.0633757296466975,4.113261396142693,13.929804492234164,7.878477549069812
4.07137450076805,4.253417641235721,13.781116224611692,7.9825504488820735
4.079373271889401,4.393573886328735,13.632427956989238,8.086623348694324
4.087372043010753,4.533730131421763,13.483739689366768,8.190696248506585
4.095370814132105,4.673886376514776,13.335051421744312,8.294769148318835
4.103369585253456,3.1329109062979126,9.072701843317928,7.438400307219679
4.1113683563748085,0.029229417989417555,7.305968977641237,6.779654999146609
4.11936712749616,0.007188359788360358,7.381779552824712,6.631499982932245
4.127365898617512,-0.014852698412699289,7.457590128008196,6.483344966717864
4.1353646697388635,-0.036893756613756476,7.5334007031916705,6.3351899505035
4.143363440860216,-0.05893481481481612,7.609211278375154,6.187034934289119
4.151362211981567,-0.08097587301587332,7.685021853558629,6.0388799180747545
4.159360983102919,-0.10301693121693051,7.760832428742104,5.89072490186039
4.167359754224271,-0.12505798941799015,7.836643003925587,5.7425698856460095
4.175358525345622,-0.14709904761904735,7.912453579109062,5.594414869431645
4.1833572964669745,-0.169140105820107,7.988264154292546,5.446259853217264
4.191356067588326,-0.1911811640211642,8.06407472947602,5.2981048370029
4.199354838709678,-0.21322222222222384,8.139885304659504,5.149949820788519
4.20735360983103,-1.1861938556067646,7.595010240655392,5.80594813108038
4.215352380952381,-0.8146666666667689,7.817523809523713,4.757057142857288
4.223351152073733,-0.08898264738596598,8.545403146353108,4.167243667567087
4.231349923195085,0.08735807687554961,8.710894962656928,3.6763765524303658
4.239348694316437,0.26369880113708477,8.876386778960768,3.18550943729359
4.247347465437788,0.44003952539860036,9.041878595264588,2.6946423221568687
4.255346236559141,0.6163802496601355,9.207370411568427,2.203775207020093
4.263345007680492,0.7927209739216511,9.372862227872249,1.7129080918833712
4.271343778801843,0.9690616981831667,9.538354044176069,1.22204097674665
4.279342549923196,1.1454024224447017,9.703845860479907,0.7311738616098742
4.287341321044547,1.3217431467062173,9.86933767678373,0.24030674647315298
4.295340092165899,1.4980838709677524,10.034829493087567,-0.2505603686636233
4.303338863287251,1.674424595229268,10.200321309391388,-0.7414274838003445
4.311337634408602,0.5651100791681399,10.04048732128087,-0.09759818031431178
4.319336405529954,0.47009171013317524,10.013502456069274,-0.160973059198872
4.327335176651306,0.375073341098221,9.986517590857682,-0.2243479380834252
4.335333947772658,0.2800549720632563,9.959532725646087,-0.2877228169679854
4.343332718894009,0.18503660302830205,9.932547860434495,-0.3510976958525386
4.351331490015362,0.0900182339933373,9.9055629952229,-0.41447257473709886
4.359330261136713,-0.005000135041616893,9.878578130011308,-0.47784745362165204
4.3673290322580645,-0.10001850407657109,9.851593264799716,-0.5412223325062052
4.375327803379417,-0.19503687311153584,9.82460839958812,-0.6045972113907654
4.383326574500768,-0.29005524214649003,9.797623534376529,-0.6679720902753186
4.39132534562212,-0.3850736111814548,9.770638669164933,-0.7313469691598788
4.399324116743472,-0.480091980216409,9.743653803953341,-0.794721848044432
4.407322887864824,-0.13625668202787536,9.607845314900246,-1.5309483870964997
4.4153216589861755,-0.9734704650188515,10.169323292836197,-0.35388839547549295
4.423320430107527,-0.9625630498533724,10.191774389051808,-0.36806803519061587
4.431319201228879,-0.951655634687892,10.214225485267422,-0.38224767490574035
4.4393179723502305,-0.9407482195224128,10.236676581483033,-0.3964273146208633
4.447316743471583,-0.9298408043569325,10.259127677698647,-0.4106069543359877
4.455315514592934,-0.9189333891914533,10.281578773914259,-0.42478659405111063
4.4633142857142865,-0.908025974025973,10.304029870129872,-0.4389662337662351
4.471313056835638,-0.8971185588604937,10.326480966345484,-0.45314587348135804
4.479311827956989,-0.8862111436950146,10.348932062561095,-0.46732551319648097
4.4873105990783415,-0.8753037285295343,10.371383158776709,-0.48150515291160545
4.495309370199693,-0.8643963133640551,10.39383425499232,-0.4956847926267283
4.503308141321045,-1.2761373271893295,10.18772350230396,-1.1872623655918086
4.511306912442397,-1.0008406520985076,10.29004083048412,-1.3874489965809444
4.519305683563749,-0.9894015493120576,10.312402986307257,-1.4142835835687069
4.5273044546851,-0.9779624465256088,10.334765142130388,-1.4411181705564664
4.535303225806452,-0.96652334373916,10.357127297953522,-1.467952757544226
4.543301996927804,-0.95508424095271,10.379489453776657,-1.4947873445319884
4.551300768049155,-0.9436451381662613,10.40185160959979,-1.521621931519748
4.559299539170508,-0.9322060353798112,10.424213765422925,-1.5484565185075105
4.567298310291859,-0.9207669325933625,10.446575921246058,-1.5752911054952698
4.575297081413211,-0.9093278298069124,10.468938077069193,-1.6021256924830325
4.583295852534563,-0.8978887270204636,10.491300232892327,-1.628960279470792
4.591294623655914,-0.886449624234015,10.51366238871546,-1.6557948664585513
4.599293394777266,-0.875010521447565,10.536024544538595,-1.682629453446314
4.607292165898618,-0.9601801424382121,10.309954084625039,-1.6412470046082923
4.61529093701997,-0.8725330261133943,9.977383717357549,-1.874255913978525
4.623289708141321,-0.21326882081861986,9.46014309930423,-1.991673866449813
4.631288479262674,0.1638967633505558,9.346184136622375,-2.082389341284914
4.639287250384025,0.5410623475196897,9.232225173940533,-2.1731048161200053
4.647286021505376,0.9182279316888237,9.11826621125869,-2.2638202909550964
4.655284792626729,1.2953935158579992,9.004307248576836,-2.3545357657901977
4.66328356374808,1.6725591000271334,8.890348285894996,-2.445251240625289
4.671282334869432,2.0497246841963093,8.776389323213142,-2.5359667154603898
4.679281105990784,2.426890268365443,8.6624303605313,-2.626682190295481
4.687279877112136,2.804055852534619,8.548471397849445,-2.7173976651305822
4.695278648233487,3.1812214367037526,8.434512435167603,-2.8081131399656734
4.703277419354839,3.6955948387096877,8.22090967741935,-3.0756903225806536
4.711276190476191,2.511178491171752,8.60943434991974,-4.634064419475656
4.7192749615975425,2.5742699218143215,8.506169316004764,-4.664891144134348
4.727273732718895,2.637361352456898,8.402904282089777,-4.695717868793043
4.735272503840246,2.700452783099468,8.299639248174802,-4.7265445934517345
4.7432712749615975,2.763544213742038,8.196374214259826,-4.757371318110426
4.75127004608295,2.8266356443846146,8.09310918034484,-4.788198042769121
4.759268817204301,2.889727075027184,7.989844146429865,-4.819024767427813
4.7672675883256534,2.952818505669761,7.8865791125148785,-4.849851492086507
4.775266359447005,3.0159099363123305,7.783314078599903,-4.880678216745198
4.783265130568357,3.0790013669549072,7.680049044684917,-4.911504941403893
4.7912639016897085,3.142092797597477,7.576784010769941,-4.942331666062585
4.79926267281106,3.2051842282400465,7.473518976854966,-4.973158390721276
4.807261443932412,4.798150371484997,7.625618082071537,-4.618202200695949
4.815260215053764,4.680372547728772,7.583338863287252,-4.777361421988146
4.823258986175116,4.562594723972534,7.541059644502961,-4.936520643280359
4.831257757296467,4.444816900216309,7.4987804257186745,-5.095679864572555
4.8392565284178195,4.32703907646007,7.456501206934385,-5.254839085864769
4.847255299539171,4.209261252703845,7.414221988150098,-5.413998307156965
4.855254070660522,4.091483428947621,7.371942769365813,-5.573157528449162
4.863252841781875,3.973705605191382,7.329663550581522,-5.732316749741376
4.871251612903226,3.855927781435157,7.287384331797236,-5.891475971033572
4.879250384024578,3.7381499576789183,7.245105113012945,-6.050635192325785
4.88724915514593,3.620372133922693,7.202825894228659,-6.209794413617981
4.895247926267282,3.5025943101664554,7.160546675444369,-6.368953634910195
4.903246697388633,3.38481648641023,7.1182674566600825,-6.528112856202392
4.911245468509985,2.955406758832569,5.941901382488473,-8.016128110599087
4.919244239631337,3.2841875938487197,5.718662403562363,-8.306267436441775
4.927243010752688,3.5151633442068433,5.6608735290564205,-8.305458571946359
4.935241781874041,3.746139094564992,5.603084654550471,-8.30464970745094
4.943240552995392,3.9771148449231153,5.545295780044528,-8.303840842955523
4.951239324116744,4.208090595281265,5.487506905538579,-8.303031978460105
4.959238095238096,4.439066345639388,5.429718031032635,-8.302223113964688
4.967236866359447,4.670042095997511,5.371929156526693,-8.30141424946927
4.975235637480799,4.90101784635566,5.314140282020744,-8.300605384973851
4.983234408602151,5.131993596713783,5.256351407514801,-8.299796520478434
4.991233179723503,5.362969347071932,5.198562533008851,-8.298987655983016
4.999231950844854,5.593945097430055,5.1407736585029085,-8.298178791487599
5.007230721966207,4.9202036370843825,5.4880349371521016,-8.108233407660666
5.015229493087558,4.892594975471976,5.45457771170903,-8.08165684554779
5.023228264208909,4.8649863138595695,5.421120486265957,-8.055080283434913
5.031227035330262,4.83737765224716,5.387663260822882,-8.028503721322032
5.039225806451613,4.809768990634754,5.354206035379811,-8.001927159209155
5.047224577572965,4.782160329022344,5.320748809936735,-7.975350597096275
5.055223348694317,4.754551667409937,5.287291584493663,-7.948774034983398
5.063222119815669,4.726943005797528,5.253834359050587,-7.922197472870518
5.07122089093702,4.699334344185122,5.220377133607515,-7.89562091075764
5.079219662058372,4.671725682572715,5.186919908164443,-7.869044348644763
5.087218433179724,4.644117020960306,5.153462682721368,-7.842467786531883
5.0952172043010755,4.6165083593478995,5.120005457278295,-7.815891224419006
5.103215975422428,4.020520839733688,4.978940809011785,-7.755263389656906
5.111214746543779,3.4034731182795515,6.680480491551544,-6.62199846390164
5.1192135176651306,3.0487971618755023,7.511586350669297,-5.930220612976375
5.127212288786483,3.0358467705361702,7.435883695413642,-5.9705953624460575
5.135211059907834,3.0228963791968395,7.360181040157995,-6.010970111915736
5.1432098310291865,3.0099459878575074,7.28447838490234,-6.051344861385418
5.151208602150538,2.9969955965181767,7.208775729646693,-6.091719610855097
5.15920737327189,2.984045205178844,7.133073074391039,-6.132094360324779
5.1672061443932416,2.9710948138395135,7.057370419135392,-6.1724691097944575
5.175204915514593,2.958144422500183,6.981667763879745,-6.212843859264136
5.183203686635945,2.9451940311608507,6.90596510862409,-6.253218608733818
5.191202457757297,2.93224363982152,6.8302624533684435,-6.293593358203497
5.199201228878649,2.919293248482188,6.754559798112789,-6.333968107673179
5.2072,3.123771428571435,7.225228571428653,-6.849485714285641
5.2151987711213526,2.4048291300097815,6.98151823767631,-5.065540762463363
5.223197542242704,2.4519128054741,7.040327384443518,-5.214426979472153
5.231196313364055,2.498996480938418,7.099136531210727,-5.363313196480943
5.239195084485408,2.5460801564027418,7.157945677977942,-5.512199413489751
5.247193855606759,2.59316383186706,7.21675482474515,-5.661085630498541
5.255192626728111,2.6402475073313836,7.275563971512366,-5.809971847507348
5.263191397849463,2.687331182795702,7.334373118279574,-5.958858064516138
5.271190168970815,2.7344148582600254,7.393182265046789,-6.107744281524946
5.279188940092166,2.781498533724344,7.451991411813998,-6.256630498533736
5.287187711213518,2.8285822091886623,7.510800558581206,-6.405516715542527
5.29518648233487,2.8756658846529857,7.569609705348421,-6.5544029325513335
5.303185253456221,3.9019737327188637,7.515643317972258,-6.144204147465439
5.311184024577574,3.4470930107526545,6.575904331797192,-5.938013133640523
5.319182795698925,3.1251424731182684,6.16316774193547,-5.656056451612893
5.327181566820277,2.8855897142857128,5.867915797235025,-5.435118193548382
5.335180337941629,2.865752761904761,5.88593969482847,-5.3768871397849445
5.34317910906298,2.84591580952381,5.903963592421915,-5.318656086021506
5.351177880184332,2.826078857142856,5.921987490015362,-5.260425032258062
5.359176651305684,2.806241904761905,5.940011387608807,-5.202193978494624
5.367175422427036,2.7864049523809515,5.9580352852022544,-5.14396292473118
5.375174193548387,2.766568,5.976059182795699,-5.0857318709677415
5.38317296466974,2.7467310476190465,5.994083080389146,-5.027500817204297
5.391171735791091,2.726894095238095,6.012106977982591,-4.96926976344086
5.3991705069124425,2.7070571428571437,6.030130875576036,-4.911038709677421
5.407169278033795,3.9380683256528464,6.945699946640797,-5.965121160966936
5.415168049155146,4.045251858678955,6.977779228716954,-6.02456466003719
5.423166820276498,4.152435391705076,7.009858510793114,-6.08400815910745
5.43116559139785,4.2596189247311855,7.041937792869271,-6.143451658177703
5.439164362519202,4.366802457757306,7.074017074945431,-6.202895157247964
5.4471631336405535,4.473985990783415,7.106096357021587,-6.262338656318217
5.455161904761905,4.581169523809524,7.138175639097744,-6.321782155388472
5.463160675883257,4.688353056835645,7.170254921173904,-6.381225654458731
5.4711594470046085,4.7955365898617535,7.202334203250061,-6.440669153528985
5.479158218125961,4.9027201228878745,7.234413485326221,-6.500112652599245
5.487156989247312,5.009903655913984,7.266492767402378,-6.559556151669499
5.4951557603686645,5.117087188940104,7.298572049478539,-6.6189996507397595
5.503154531490016,5.549637480798737,9.468728110599052,-8.593632872503944
5.511153302611367,4.43638601985365,9.07678925061526,-8.213421257618553
5.5191520737327195,4.3061694663297,9.001273970566364,-8.22193607848967
5.527150844854071,4.175952912805764,8.925758690517478,-8.230450899360784
5.535149615975423,4.045736359281815,8.850243410468583,-8.238965720231903
5.543148387096775,3.915519805757879,8.774728130419694,-8.247480541103018
5.551147158218126,3.7853032522339434,8.699212850370808,-8.255995361974135
5.559145929339478,3.6550866987099933,8.62369757032191,-8.264510182845251
5.56714470046083,3.524870145186058,8.548182290273024,-8.273025003716366
5.575143471582182,3.3946535916621077,8.472667010224129,-8.281539824587485
5.583142242703533,3.2644370381381727,8.39715173017524,-8.2900546454586
5.591141013824886,3.1342204846142225,8.321636450126345,-8.298569466329717
5.599139784946237,3.0040039310902866,8.246121170077458,-8.307084287200833
5.607138556067588,3.079683841236806,10.372838537898687,-10.31723477528368
5.615137327188941,3.119161647093803,10.19032894306525,-10.446247212724845
5.623136098310292,3.1586394529507955,10.007819348231836,-10.575259650165997
5.631134869431644,3.198117258807792,9.825309753398399,-10.704272087607162
5.639133640552996,3.2375950646647844,9.642800158564985,-10.833284525048315
5.647132411674348,3.277072870521781,9.460290563731547,-10.96229696248948
5.655131182795699,3.3165506763787733,9.277780968898131,-11.091309399930632
5.663129953917051,3.3560284822357658,9.095271374064716,-11.220321837371783
5.671128725038403,3.3955062880927622,8.91276177923128,-11.349334274812948
5.679127496159754,3.4349840939497547,8.730252184397866,-11.4783467122541
5.687126267281107,3.4744618998067516,8.547742589564429,-11.607359149695267
5.695125038402458,3.5139397056637436,8.365232994731013,-11.736371587136418
5.70312380952381,2.232799999999976,6.039204761904694,-10.386957142857012
5.711122580645162,2.2009397849462413,5.697650537634397,-9.64362580645158
5.719121351766513,2.251227616853194,5.579797637334503,-9.321079694243284
5.727120122887865,2.2709388742593832,5.560181603394043,-9.257279972203927
5.735118894009217,2.2906501316655707,5.5405655694535865,-9.193480250164578
5.743117665130569,2.31036138907176,5.520949535513128,-9.12968052812522
5.7511164362519205,2.330072646477947,5.50133350157267,-9.06588080608587
5.759115207373273,2.349783903884137,5.481717467632212,-9.002081084046512
5.767113978494624,2.369495161290324,5.462101433691755,-8.938281362007164
5.7751127496159755,2.389206418696511,5.442485399751297,-8.874481639967813
5.783111520737328,2.4089176761027002,5.422869365810839,-8.810681917928456
5.791110291858679,2.4286289335088878,5.403253331870382,-8.746882195889107
5.7991090629800315,2.448340190915077,5.383637297929923,-8.68308247384975
5.807107834101383,2.572168005266627,5.617006846609622,-7.955678604344912
5.815106605222735,2.215363798092392,5.890619590611932,-6.692240895938265
5.8231053763440865,2.326416504126038,5.8228160540135,-6.6361564891222775
5.831104147465438,2.437469210159683,5.755012517415068,-6.580072082306291
5.83910291858679,2.5485219161933412,5.687208980816629,-6.5239876754902975
5.847101689708142,2.659574622226987,5.619405444218197,-6.467903268674311
5.855100460829494,2.7706273282606446,5.551601907619758,-6.411818861858318
5.863099231950845,2.8816800342942903,5.483798371021326,-6.355734455042331
5.8710980030721975,2.9927327403279484,5.415994834422886,-6.299650048226338
5.879096774193549,3.103785446361594,5.348191297824454,-6.243565641410351
5.8870955453149,3.21483815239524,5.280387761226022,-6.187481234594364
5.895094316436253,3.325890858428898,5.212584224627583,-6.131396827778371
5.903093087557604,3.2628871889400886,4.626644792626697,-5.949991705069101
5.911091858678956,3.9476949103942554,1.5859791909882215,-6.1172964123570654
5.919090629800308,3.8282465949820743,1.5638492575524825,-6.214703669568189
5.92708940092166,3.7087982795698804,1.5417193241167413,-6.312110926779324
5.935088172043011,3.5893499641576994,1.5195893906810023,-6.409518183990448
5.943086943164363,3.4699016487455183,1.4974594572452635,-6.506925441201571
5.951085714285715,3.3504533333333244,1.475329523809522,-6.604332698412706
5.959084485407066,3.2310050179211434,1.4531995903737833,-6.70173995562383
5.967083256528419,3.111556702508949,1.431069656938042,-6.799147212834964
5.97508202764977,2.992108387096768,1.4089397235023031,-6.896554470046088
5.983080798771121,2.8726600716845874,1.3868097900665641,-6.993961727257211
5.991079569892474,2.753211756272393,1.364679856630823,-7.091368984468346
5.999078341013825,2.6337634408602124,1.342549923195084,-7.18877624167947
6.007077112135177,2.3014029730935093,-1.12726947789175,-8.514247090497665
6.015075883256529,2.3432030028244424,-1.1552221726706662,-8.53987756140264
6.023074654377881,2.38500303255538,-1.1831748674495854,-8.56550803230762
6.031073425499232,2.426803062286313,-1.2111275622285016,-8.591138503212594
6.039072196620584,2.468603092017246,-1.2390802570074178,-8.61676897411757
6.047070967741936,2.510403121748184,-1.267032951786337,-8.642399445022548
6.0550697388632875,2.552203151479117,-1.2949856465652532,-8.668029915927523
6.06306850998464,2.594003181210055,-1.3229383413441724,-8.693660386832502
6.071067281105991,2.635803210940988,-1.3508910361230886,-8.719290857737478
6.079066052227343,2.6776032406719255,-1.3788437309020076,-8.744921328642455
6.087064823348695,2.7194032704028586,-1.4067964256809238,-8.770551799547432
6.095063594470046,2.7612033001337917,-1.43474912045984,-8.796182270452407
6.1030623655913985,2.778525448028661,-2.3207684587813686,-9.654225567503035
6.11106113671275,2.504960675883248,-2.4589264464925593,-10.690270814132129
6.119059907834102,2.3689815668202647,-2.187634792626705,-11.11820506912446
6.1270586789554535,2.358285909411727,-2.5627198115165886,-11.654669668285793
6.135057450076806,2.5925201934653814,-2.6276828040021663,-11.591219956823174
6.143056221198157,2.82675447751901,-2.6926457964877364,-11.527770245360562
6.151054992319509,3.060988761572638,-2.7576087889733065,-11.46432053389795
6.159053763440861,3.2952230456262925,-2.8225717814588838,-11.400870822435332
6.167052534562212,3.5294573296799205,-2.887534773944454,-11.33742111097272
6.1750513056835645,3.7636916137335747,-2.9524977664300316,-11.273971399510101
6.183050076804916,3.997925897787203,-3.0174607589156017,-11.21052168804749
6.191048847926268,4.232160181840857,-3.082423751401179,-11.14707197658487
6.19904761904762,4.462238095238055,-3.1485000000000216,-11.0912380952382
6.207046390168971,5.058528783867699,-2.1194116482008107,-13.150324593914439
6.215045161290323,5.085503363074812,-1.8932336307481035,-13.068720109814684
6.223043932411675,5.112477942281923,-1.6670556132954215,-12.987115625714939
6.231042703533027,5.139452521489036,-1.4408775958427142,-12.905511141615186
6.239041474654378,5.166427100696147,-1.2146995783900318,-12.82390665751544
6.247040245775731,5.1934016799032605,-0.9885215609373246,-12.742302173415686
6.255039016897082,5.220376259110371,-0.7623435434846426,-12.660697689315942
6.263037788018433,5.247350838317482,-0.5361655260319604,-12.579093205216196
6.271036559139786,5.274325417524596,-0.30998750857925317,-12.497488721116442
6.279035330261137,5.301299996731707,-0.08380949112657099,-12.415884237016698
6.287034101382489,5.328274575938821,0.14236852632613628,-12.334279752916943
6.295032872503841,5.355249155145931,0.3685465437788187,-12.252675268817198
6.303031643625193,4.575500153609751,3.7155725038403937,-9.168222119815352
6.311030414746544,3.7787216986274195,4.0245959268619025,-7.474929250284918
6.319029185867896,3.6829084617544576,4.138900946434763,-7.331897461308494
6.327027956989248,3.587095224881485,4.253205966007636,-7.188865672332056
6.335026728110599,3.4912819880085233,4.367510985580496,-7.045833883355632
6.343025499231952,3.395468751135551,4.481816005153369,-6.902802094379193
6.351024270353303,3.299655514262589,4.596121024726229,-6.75977030540277
6.3590230414746545,3.203842277389627,4.71042604429909,-6.616738516426347
6.367021812596007,3.108029040516655,4.824731063871963,-6.473706727449907
6.375020583717358,3.0122158036436932,4.939036083444822,-6.330674938473484
6.38301935483871,2.9164025667707207,5.053341103017695,-6.187643149497045
6.391018125960062,2.820589329897759,5.167646122590556,-6.044611360520622
6.399016897081414,2.7247760930247864,5.281951142163429,-5.901579571544183
6.4070156682027655,2.423695832924791,4.9441361309932255,-5.303320913815084
6.415014439324117,2.3661727554989023,4.850703676831058,-5.353100500049027
6.423013210445469,2.3086496780730075,4.757271222668879,-5.402880086282974
6.4310119815668205,2.251126600647119,4.663838768506711,-5.452659672516916
6.439010752688173,2.193603523221224,4.570406314344533,-5.502439258750863
6.447009523809524,2.1360804457953355,4.4769738601823645,-5.552218844984806
6.4550082949308765,2.0785573683694407,4.3835414060201865,-5.601998431218753
6.463007066052228,2.021034290943552,4.290108951858018,-5.6517780174526955
6.471005837173579,1.9635112135176633,4.19667649769585,-5.701557603686637
6.4790046082949315,1.9059881360917683,4.103244043533672,-5.7513371899205845
6.487003379416283,1.84846505866588,4.009811589371504,-5.801116776154527
6.495002150537635,1.790941981239985,3.916379135209325,-5.850896362388474
6.503000921658987,1.590546331088272,3.9851576745834834,-6.226587805742678
6.510999692780339,1.658843530662896,4.018383339241409,-6.654829705778157
6.51899846390169,2.122495775729648,4.070979262672816,-7.658847926267322
6.526997235023042,2.1815196290030943,4.148786711777404,-7.832403744968791
6.534996006144394,2.2529010674911114,4.2165231406405015,-7.799598658344511
6.542994777265745,2.324282505979121,4.284259569503591,-7.766793571720234
6.550993548387098,2.3956639444671386,4.3519959983666885,-7.733988485095954
6.558992319508449,2.4670453829551477,4.419732427229778,-7.701183398471677
6.566991090629801,2.5384268214431653,4.487468856092876,-7.6683783118473965
6.574989861751153,2.609808259931175,4.555205284955966,-7.63557322522312
6.582988632872504,2.681189698419184,4.622941713819056,-7.602768138598844
6.590987403993856,2.7525711369072017,4.690678142682153,-7.569963051974563
6.598986175115208,2.823952575395211,4.758414571545243,-7.5371579653502865
6.60698494623656,3.3124752688171437,5.187020430107608,-9.043638709677435
6.614983717357911,3.283700837421336,5.1791276613316155,-9.057735427712537
6.622982488479264,3.256350200683809,5.169236707794459,-9.071496754372927
6.630981259600615,3.2289995639462847,5.159345754257305,-9.085258081033317
6.638980030721966,3.2016489272087605,5.149454800720149,-9.099019407693707
6.646978801843319,3.1742982904712336,5.139563847182993,-9.112780734354097
6.65497757296467,3.1469476537337093,5.1296728936458384,-9.126542061014487
6.662976344086022,3.119597016996182,5.119781940108682,-9.140303387674878
6.670975115207374,3.092246380258658,5.109890986571528,-9.154064714335266
6.678973886328726,3.064895743521131,5.100000033034371,-9.167826040995658
6.686972657450077,3.0375451067836066,5.090109079497216,-9.181587367656048
6.694971428571429,3.0101944700460828,5.080218125960061,-9.195348694316436
6.702970199692781,3.467714183307772,5.49096968766004,-9.79600286738359
6.7109689708141325,3.4901480798771094,6.3057095238095355,-12.147668663594489
6.718967741935485,3.4916857557085903,6.3113581007611455,-12.127799565059803
6.726966513056836,3.4943819706933152,6.311717596092442,-12.099489307720187
6.734965284178188,3.497078185678041,6.312077091423739,-12.07117905038057
6.74296405529954,3.499774400662766,6.312436586755036,-12.042868793040956
6.750962826420891,3.5024706156474914,6.312796082086332,-12.01455853570134
6.7589615975422435,3.505166830632217,6.313155577417629,-11.986248278361723
6.766960368663595,3.507863045616942,6.313515072748926,-11.957938021022107
6.774959139784947,3.5105592606016676,6.313874568080222,-11.92962776368249
6.7829579109062985,3.513255475586393,6.3142340634115195,-11.901317506342876
6.79095668202765,3.515951690571118,6.314593558742816,-11.87300724900326
6.798955453149002,3.5186479055558437,6.314953054074113,-11.844696991663643
6.806954224270354,2.084614592933962,6.322251766513057,-10.89854900153607
6.814952995391706,2.0428528913334305,6.163367672563294,-10.975650156087411
6.822951766513057,2.007503483474555,6.003822291594403,-11.040672424557751
6.8309505376344095,1.9721540756156757,5.844276910625495,-11.1056946930281
6.838949308755761,1.9368046677568,5.684731529656604,-11.17071696149844
6.846948079877112,1.9014552598979246,5.525186148687713,-11.23573922996878
6.854946850998465,1.8661058520390452,5.365640767718805,-11.300761498439128
6.862945622119816,1.8307564441801698,5.206095386749915,-11.365783766909468
6.870944393241168,1.7954070363212904,5.046550005781006,-11.430806035379817
6.87894316436252,1.7600576284624148,4.887004624812116,-11.495828303850157
6.886941935483872,1.7247082206035353,4.7274592438432075,-11.560850572320504
6.894940706605223,1.68935881274466,4.567913862874317,-11.625872840790844
6.902939477726575,1.630403502304149,4.435106666666668,-11.524288356374813
6.910938248847927,1.5308188018433109,4.348319999999994,-11.135948018433153
6.918937019969278,1.4312341013824839,4.261533333333329,-10.747607680491534
6.926935791090631,1.222242549923134,4.06728540706616,-9.423062980030588
6.934934562211982,1.0992410076804793,4.00243529339477,-9.361304417818735
6.942933333333334,0.978512888888869,3.9312995555555443,-9.306166222222213
6.950932104454686,0.8577847700972724,3.8601638177163258,-9.251028026625697
6.958930875576037,0.7370566513056757,3.7890280798771077,-9.195889831029183
6.966929646697389,0.6163285325140656,3.7178923420378815,-9.140751635432661
6.974928417818741,0.4956004137224689,3.6467566041986634,-9.085613439836145
6.982927188940093,0.3748722949308587,3.5756208663594373,-9.030475244239623
6.990925960061444,0.2541441761392621,3.504485128520219,-8.975337048643107
6.998924731182797,0.13341605734765194,3.433349390680993,-8.920198853046585
7.006923502304148,0.37753824884792603,3.393240552995403,-6.986892165898498
7.0149222734254995,0.3779990910098659,3.396662270575007,-6.693732725228435
7.022921044546852,0.3791535528211951,3.3720062647473337,-6.670313642770043
7.030919815668203,0.38030801463252417,3.347350258919663,-6.646894560311654
7.038918586789555,0.38146247644385334,3.32269425309199,-6.623475477853261
7.046917357910907,0.3826169382551824,3.298038247264319,-6.600056395394872
7.054916129032259,0.3837714000665116,3.2733822414366456,-6.576637312936479
7.0629149001536105,0.38492586187784067,3.248726235608975,-6.553218230478089
7.070913671274962,0.3860803236891697,3.2240702297813044,-6.5297991480197
7.078912442396314,0.3872347855004989,3.1994142239536307,-6.5063800655613075
7.0869112135176655,0.388389247311828,3.17475821812596,-6.4829609831029185
7.094909984639018,0.38954370912315717,3.150102212298287,-6.459541900644526
7.102908755760369,0.3906981709344862,3.125446206470616,-6.436122818186137
7.1109075268817215,0.27051397849457787,2.6916752688171046,-6.0640193548383445
7.118906298003073,0.5603437788018436,2.8602954188126812,-6.697480166260056
7.126905069124424,0.5651430414746544,2.770803285443209,-6.761940851179182
7.1349038402457765,0.5699423041474658,2.681311152073726,-6.826401536098315
7.142902611367128,0.5747415668202767,2.591819018704254,-6.890862221017441
7.15090138248848,0.579540829493088,2.502326885334771,-6.955322905936574
7.158900153609832,0.5843400921658989,2.4128347519652986,-7.0197835908557
7.166898924731184,0.5891393548387102,2.3233426185958157,-7.084244275774833
7.174897695852535,0.593938617511521,2.233850485226343,-7.1487049606939586
7.182896466973887,0.5987378801843318,2.1443583518568707,-7.213165645613085
7.190895238095239,0.6035371428571432,2.054866218487388,-7.277626330532218
7.19889400921659,0.608336405529954,1.9653740851179156,-7.342087015451344
7.206892780337943,0.15704869593338305,1.9143648023284006,-9.511033315546936
7.214891551459294,0.17540377071711577,1.8997144215377149,-9.56508816880912
7.222890322580645,0.1937588455008485,1.8850640407470292,-9.619143022071306
7.230889093701998,0.2121139202845832,1.8704136599563417,-9.673197875333498
7.238887864823349,0.23046899506831592,1.855763279165656,-9.727252728595683
7.246886635944701,0.2488240698520507,1.8411128983749687,-9.781307581857874
7.254885407066053,0.2671791446357834,1.826462517584283,-9.835362435120059
7.262884178187405,0.2855342194195181,1.8118121367935955,-9.889417288382251
7.270882949308756,0.30388929420325084,1.7971617560029098,-9.943472141644436
7.278881720430108,0.3222443689869835,1.7825113752122241,-9.997526994906622
7.28688049155146,0.34059944377071827,1.7678609944215367,-10.051581848168812
7.294879262672811,0.358954518554451,1.753210613630851,-10.105636701431
7.302878033794164,0.3891115530762448,1.707305796749927,-10.17833351119736
7.310876804915515,0.45773258953836415,1.5595390249818049,-10.311786692537801
7.318875576036867,0.5263536260004911,1.4117722532136665,-10.445239873878256
7.326874347158219,1.2388900153609685,0.8778473118276227,-12.863414132104657
7.33487311827957,1.1441110030932364,0.8078723228752394,-13.02436164383562
7.342871889400922,1.0507554826084131,0.8046947288681268,-13.146644227005881
7.350870660522274,0.9573999621236002,0.8015171348610146,-13.26892681017613
7.358869431643626,0.8640444416387769,0.798339540853902,-13.39120939334639
7.3668682027649774,0.7706889211539638,0.7951619468467899,-13.513491976516638
7.37486697388633,0.6773334006691405,0.7919843528396774,-13.6357745596869
7.382865745007681,0.5839778801843276,0.7888067588325651,-13.758057142857147
7.3908645161290325,0.4906223596995146,0.785629164825453,-13.880339726027396
7.398863287250385,0.3972668392146913,0.7824515708183405,-14.002622309197658
7.406862058371736,0.7436715821812906,0.9112304147463097,-14.156862980030688
7.4148608294930884,1.6639900541854638,-0.3880790195978883,-13.32615886970171
7.42285960061444,1.799090177410926,-0.19848177444673548,-13.200815489272621
7.430858371735792,1.9341903006364032,-0.008884529295561494,-13.075472108843519
7.4388571428571435,2.0692904238618652,0.18071271585559134,-12.95012872841443
7.446855913978495,2.2043905470873275,0.3703099610067442,-12.824785347985342
7.454854685099847,2.339490670312805,0.5599072061579181,-12.69944196755624
7.4628534562211986,2.474590793538267,0.7495044513090711,-12.574098587127152
7.470852227342551,2.609690916763744,0.9391016964602449,-12.44875520669805
7.478850998463902,2.7447910399892064,1.1286989416113977,-12.323411826268961
7.4868497695852545,2.8798911632146833,1.3182961867625718,-12.198068445839858
7.494848540706606,3.0149912864401456,1.5078934319137245,-12.07272506541077
7.502847311827957,3.8041440860214006,1.486513978494811,-10.915645161290177
7.5108460829493096,3.568769585253453,2.3369399605003784,-10.7113728768927
7.518844854070661,3.4917136822470924,1.5293258037085784,-10.81811705892034
7.526843625192013,3.4954273974105776,1.5024013687733122,-10.790906953587882
7.534842396313365,3.499141112574062,1.4754769338380491,-10.763696848255428
7.542841167434717,3.502854827737547,1.448552498902783,-10.736486742922972
7.550839938556068,3.506568542901032,1.4216280639675198,-10.709276637590516
7.55883870967742,3.510282258064516,1.3947036290322568,-10.682066532258062
7.566837480798772,3.5139959732280013,1.3677791940969906,-10.654856426925607
7.574836251920123,3.5177096883914856,1.3408547591617275,-10.627646321593152
7.582835023041476,3.5214234035549707,1.3139303242264613,-10.600436216260695
7.590833794162827,3.5251371187184555,1.2870058892911982,-10.57322611092824
7.598832565284178,3.5288508338819398,1.260081454355935,-10.546016005595787
7.606831336405531,3.532564549045425,1.233157019420669,-10.51880590026333
7.614830107526882,3.5362782642089092,1.2062325844854058,-10.491595794930875
7.622828878648234,3.5399919793723944,1.1793081495501396,-10.464385689598418
7.630827649769586,2.6693354838709245,1.376152995391775,-8.153564976958426
7.638826420890938,2.6274313004542913,1.4598787953067338,-8.066526031963916
7.646825192012289,2.6104977318037705,1.5037018498545636,-8.036403000294145
7.654823963133641,2.5935641631532502,1.547524904402393,-8.006279968624375
7.662822734254993,2.5766305945027277,1.5913479589502277,-7.976156936954601
7.670821505376344,2.559697025852207,1.6351710134980575,-7.94603390528483
7.678820276497697,2.5427634572016844,1.678994068045892,-7.915910873615057
7.686819047619048,2.5258298885511636,1.7228171225937217,-7.8857878419452865
7.6948178187404,2.508896319900641,1.7666401771415563,-7.8556648102755124
7.702816589861752,2.491962751250121,1.8104632316893858,-7.825541778605743
7.710815360983103,2.4750291825996,1.8542862862372156,-7.795418746935972
7.718814132104455,2.4580956139490775,1.8981093407850502,-7.765295715266198
7.726812903225807,1.3704129032257013,2.6701419354840046,-7.071348387096704
7.734811674347159,1.1212685525227444,2.7234745834810297,-7.202868940092156
7.7428104454685105,1.1092088668320916,2.690248918823109,-7.140478525345616
7.750809216589863,1.0971491811414373,2.657023254165184,-7.078088110599068
7.758807987711214,1.0850894954507846,2.623797589507263,-7.015697695852528
7.7668067588325655,1.0730298097601318,2.590571924849342,-6.953307281105987
7.774805529953918,1.0609701240694775,2.5573462601914176,-6.89091686635944
7.782804301075269,1.0489104383788248,2.5241205955334967,-6.8285264516129
7.7908030721966215,1.0368507526881707,2.490894930875572,-6.766136036866352
7.798801843317973,1.1571013824885736,2.411686635944665,-6.892820276497828
7.806800614439325,1.7598888120839833,2.4988081957245374,-6.902477950588835
7.8147993855606765,1.831211187916033,2.578379304275481,-6.886647049411161
7.822798156682028,1.902533563748083,2.657950412826424,-6.870816148233486
7.83079692780338,1.9738559395801405,2.7375215213773765,-6.85498524705581
7.838795698924732,2.0451783154121905,2.81709262992832,-6.839154345878136
7.846794470046084,2.116500691244248,2.896663738479272,-6.823323444700459
7.854793241167435,2.1878230670762977,2.9762348470302156,-6.807492543522784
7.8627920122887875,2.2591454429083555,3.055805955581168,-6.791661642345108
7.870790783410139,2.3304678187404053,3.1353770641321113,-6.775830741167433
7.87878955453149,2.401790194572455,3.2149481726830547,-6.759999839989758
7.886788325652843,2.473112570404513,3.294519281234007,-6.7441689388120825
7.894787096774194,2.5444349462365627,3.3740903897849504,-6.7283380376344075
7.902785867895546,2.7220921658987396,2.10721689708227,-6.773152995391555
7.910784639016898,2.710137695852533,3.3188887864823307,-6.5703776344086045
7.91878341013825,2.670228037836522,3.2233245209798587,-6.61929643463498
7.926782181259601,2.6303183798205163,3.127760255477397,-6.66821523486135
7.934780952380953,2.5904087218045104,3.0321959899749356,-6.71713403508772
7.942779723502305,2.5504990637885,2.936631724472463,-6.766052835314095
7.950778494623656,2.5105894057724942,2.841067458970002,-6.814971635540466
7.958777265745009,2.470679747756484,2.7455031934675294,-6.863890435766842
7.96677603686636,2.4307700897404776,2.649938927965068,-6.912809235993212
7.974774807987712,2.3908604317244673,2.554374662462596,-6.961728036219587
7.982773579109064,2.3509507737084614,2.4588103969601343,-7.010646836445957
7.990772350230415,2.3110411156924555,2.3632461314576725,-7.059565636672327
7.998771121351767,2.271131457676445,2.2676818659552005,-7.108484436898703
8.00676989247312,2.283810752687722,3.674105376344154,-8.46977849462441
8.01476866359447,2.3144536866359235,3.1678391705069373,-11.397385714285623
8.022767434715822,2.5678365046957983,2.813162826420892,-12.647742441035215
8.030766205837175,2.367968476929347,2.7731689708141296,-12.623948628205875
8.038764976958525,2.1681004491629405,2.7331751152073767,-12.600154815376541
8.046763748079877,1.9682324213964895,2.693181259600615,-12.576361002547202
8.05476251920123,1.7683643936300384,2.6531874039938526,-12.552567189717863
8.062761290322582,1.5684963658635875,2.6131935483870907,-12.528773376888521
8.070760061443933,1.3686283380971809,2.5731996927803378,-12.504979564059187
8.078758832565285,1.16876031033073,2.5332058371735755,-12.481185751229848
8.086757603686637,0.968892282564279,2.4932119815668137,-12.457391938400509
8.094756374807988,0.7690242547978723,2.4532181259600607,-12.433598125571175
8.10275514592934,0.19510506912442782,2.1266681003584247,-11.168067434715823
8.110753917050692,0.7470202764977141,2.3879612903225893,-11.37003640552996
8.118752688172044,-0.025486202875996296,0.8133215442414855,-13.480585308977844
8.126751459293395,0.15000490811170525,0.8379924527603496,-13.465551474099161
8.134750230414747,0.3254960190994458,0.8626633612792192,-13.450517639220475
8.1427490015361,0.5009871300871863,0.8873342697980888,-13.43548380434179
8.15074777265745,0.6764782410748879,0.9120051783169529,-13.420449969463107
8.158746543778802,0.8519693520626284,0.9366760868358226,-13.40541613458442
8.166745314900155,1.027460463050369,0.9613469953546921,-13.390382299705735
8.174744086021507,1.2029515740381094,0.9860179038735618,-13.375348464827049
8.182742857142857,1.3784426850258111,1.0106888123924258,-13.360314629948366
8.19074162826421,1.5539337960135515,1.0353597209112955,-13.34528079506968
8.198740399385562,1.7294249070012921,1.0600306294301651,-13.330246960190994
8.206739170506912,1.2302503840247865,3.1616181259598735,-11.8982156682028
8.214737941628265,0.6820357758984489,3.5542645498894343,-12.546806171401563
8.222736712749617,0.685639617832245,3.5391459934842406,-12.57150567343563
8.23073548387097,0.6892434597660411,3.5240274370790474,-12.596205175469697
8.23873425499232,0.6928473016998364,3.5089088806738573,-12.620904677503757
8.246733026113672,0.6964511436336325,3.4937903242686636,-12.645604179537823
8.254731797235024,0.7000549855674286,3.4786717678634704,-12.67030368157189
8.262730568356375,0.7036588275012239,3.4635532114582803,-12.69500318360595
8.270729339477727,0.70726266943502,3.4484346550530867,-12.719702685640016
8.27872811059908,0.7108665113688161,3.4333160986478934,-12.744402187674082
8.286726881720432,0.7144703533026122,3.4181975422427,-12.769101689708148
8.294725652841782,0.7180741952364075,3.40307898583751,-12.793801191742208
8.302724423963134,0.4867811059907838,2.6534907834101387,-11.483100921658988
8.310723195084487,-0.35169493741218155,2.1625903846782006,-10.265952439781664
8.318721966205837,-0.41891865215544555,2.021335490407545,-10.215066640520307
8.32672073732719,-0.4861423668987245,1.8800805961368574,-10.16418084125894
8.334719508448542,-0.5533660816420034,1.73882570186617,-10.113295041997572
8.342718279569894,-0.6205897963852823,1.5975708075954826,-10.062409242736203
8.350717050691244,-0.6878135111285464,1.4563159133248267,-10.011523443474847
8.358715821812597,-0.7550372258718252,1.3150610190541392,-9.96063764421348
8.366714592933949,-0.8222609406151042,1.173806124783452,-9.909751844952112
8.3747133640553,-0.8894846553583682,1.032551230512796,-9.858866045690755
8.382712135176652,-0.956708370101647,0.8912963362421085,-9.807980246429386
8.390710906298004,-1.023932084844926,0.7500414419714212,-9.757094447168019
8.398709677419356,-1.0911557995882049,0.6087865477007337,-9.70620864790665
8.406708448540707,-1.0051644722405089,0.24190478384902434,-9.374302282203203
8.41470721966206,-1.0594418477068304,0.036793438665767064,-9.491427145051581
8.422705990783411,-1.4057549623468664,0.14730823873216636,-8.996052838035284
8.430704761904762,-1.4807678281068495,0.23646527293844016,-8.924941811846693
8.438703533026114,-1.5557806938668493,0.3256223071447337,-8.853830785658085
8.446702304147466,-1.630793559626849,0.41477934135102734,-8.782719759469476
8.454701075268819,-1.7058064253868488,0.503936375557321,-8.711608733280867
8.46269984639017,-1.780819291146832,0.5930934097635947,-8.640497707092276
8.470698617511522,-1.8558321569068317,0.6822504439698883,-8.569386680903667
8.478697388632874,-1.9308450226668314,0.7714074781761819,-8.498275654715059
8.486696159754224,-2.0058578884268146,0.8605645123824557,-8.427164628526466
8.494694930875577,-2.0808707541868143,0.9497215465887493,-8.356053602337859
8.502693701996929,-1.9409245007680465,1.3757208141320458,-8.203855529953962
8.510692473118281,-1.9007698924731244,0.5130494623656948,-9.000791397849671
8.518691244239632,-1.8296622933044187,1.0165573326104669,-8.657329574410404
8.526690015360984,-1.8307915315803742,1.044788289509357,-8.615265448631058
8.534688786482336,-1.8319207698563298,1.073019246408247,-8.573201322851713
8.542687557603687,-1.8330500081322851,1.1012502033071307,-8.531137197072375
8.550686328725039,-1.8341792464082407,1.1294811602060209,-8.48907307129303
8.558685099846391,-1.8353084846841965,1.1577121171049112,-8.447008945513682
8.566683870967744,-1.836437722960152,1.1859430740038013,-8.404944819734336
8.574682642089094,-1.8375669612361074,1.214174030902685,-8.362880693954999
8.582681413210446,-1.838696199512063,1.242404987801575,-8.320816568175653
8.590680184331799,-1.8398254377880185,1.2706359447004654,-8.278752442396307
8.598678955453149,-1.840954676063974,1.298866901599349,-8.23668831661697
8.606677726574501,-0.9311982590885789,-0.496283154122195,-7.736380747567863
8.614676497695854,-0.9198157652194989,-1.3652446762066512,-7.810007890694487
8.622675268817204,-0.9126589700056591,-1.3930298811545003,-7.854492284474629
8.630674039938556,-0.9055021747918176,-1.4208150861023554,-7.898976678254781
8.638672811059909,-0.8983453795779761,-1.4486002910502105,-7.943461072034933
8.646671582181261,-0.8911885843641346,-1.4763854959980656,-7.987945465815084
8.654670353302611,-0.8840317891502948,-1.5041707009459144,-8.032429859595226
8.662669124423964,-0.8768749939364533,-1.5319559058937697,-8.076914253375378
8.670667895545316,-0.8697181987226118,-1.5597411108416246,-8.12139864715553
8.678666666666667,-0.862561403508772,-1.5875263157894737,-8.165883040935672
8.686665437788019,-0.8554046082949305,-1.6153115207373288,-8.210367434715824
8.694664208909371,-0.848247813081089,-1.6430967256851838,-8.254851828495976
8.702662980030723,-0.8410910178672475,-1.670881930633039,-8.299336222276127
8.710661751152074,-0.8339342226534077,-1.6986671355808878,-8.34382061605627
8.718660522273426,-0.8267774274395662,-1.726452340528743,-8.38830500983642
8.726659293394778,-0.7906302611365239,-4.286746082949664,-9.507157757296941
8.734658064516129,-0.7718006641366166,-4.954945825426938,-10.464774288425039
8.742656835637481,-0.843201459293394,-5.046343548387096,-10.569816973886327
8.750655606758833,-0.9146022544501713,-5.137741271347254,-10.674859659347616
8.758654377880186,-0.9860030496069487,-5.229138994307412,-10.779902344808905
8.766653149001536,-1.0574038447637102,-5.32053671726755,-10.88494503027017
8.774651920122889,-1.1288046399204874,-5.411934440227708,-10.98998771573146
8.78265069124424,-1.2002054350772648,-5.503332163187866,-11.095030401192748
8.790649462365591,-1.2716062302340263,-5.594729886148004,-11.200073086654012
8.798648233486944,-1.3430070253908037,-5.686127609108162,-11.3051157721153
8.806647004608296,-2.246264097193089,-5.406832090490196,-11.978872056975275
8.814645775729648,-1.9415836335706984,-5.721692808267035,-11.919972015081687
8.822644546850999,-1.439178904249821,-6.446412596006109,-11.677093497183781
8.830643317972351,-1.5008307543051467,-6.480712345379597,-11.316476837254399
8.838642089093703,-1.7932068881882581,-6.67541927399146,-11.04493960708218
8.846640860215054,-2.0855830220713045,-6.870126202603281,-10.773402376910019
8.854639631336406,-2.377959155954416,-7.064833131215144,-10.5018651467378
8.862638402457758,-2.670335289837528,-7.259540059827008,-10.230327916565578
8.87063717357911,-2.962711423720639,-7.454246988438871,-9.958790686393359
8.878635944700461,-3.2550875576036855,-7.648953917050691,-9.687253456221198
8.886634715821813,-3.547463691486797,-7.843660845662555,-9.415716226048978
8.894633486943166,-3.8398398253699084,-8.038367774274418,-9.144178995876757
8.902632258064516,-3.065264516128957,-7.749677419354757,-8.515129032258006
8.910631029185868,-2.7834076804915457,-7.560156559139788,-8.308631213517662
8.91862980030722,-2.695842186110427,-7.603770911148845,-8.25752327593176
8.926628571428573,-2.6082766917293077,-7.6473852631579025,-8.206415338345856
8.934627342549923,-2.5207111973482084,-7.69099961516695,-8.155307400759964
8.942626113671276,-2.433145702967089,-7.734613967176007,-8.10419946317406
8.950624884792628,-2.34558020858597,-7.7782283191850645,-8.053091525588158
8.958623655913978,-2.2580147142048705,-7.821842671194113,-8.001983588002267
8.96662242703533,-2.1704492198237513,-7.86545702320317,-7.9508756504163625
8.974621198156683,-2.0828837254426324,-7.9090713752122275,-7.899767712830459
8.982619969278035,-1.9953182310615132,-7.952685727221285,-7.848659775244556
8.990618740399386,-1.9077527366804135,-7.996300079230332,-7.7975518376586646
8.998617511520738,-1.8201872422992946,-8.03991443123939,-7.746443900072761
9.00661628264209,-1.7134418842806045,-8.106069636456674,-6.513185867895466
9.01461505376344,-1.758651437349134,-7.999377090190916,-6.284428132543338
9.022613824884793,-1.7979107119345465,-8.029494912066212,-6.181178688987107
9.030612596006145,-1.8371699865199589,-8.059612733941508,-6.0779292454308775
9.038611367127498,-1.8764292611053712,-8.089730555816804,-5.974679801874648
9.046610138248848,-1.915688535690775,-8.119848377692092,-5.87143035831844
9.0546089093702,-1.9549478102761875,-8.149966199567388,-5.76818091476221
9.062607680491553,-1.9942070848615998,-8.180084021442683,-5.66493147120598
9.070606451612903,-2.0334663594470035,-8.210201843317972,-5.5616820276497725
9.078605222734256,-2.072725634032416,-8.240319665193267,-5.458432584093543
9.086603993855608,-2.111984908617828,-8.270437487068563,-5.355183140537312
9.09460276497696,-2.1512441832032407,-8.300555308943858,-5.251933696981082
9.10260153609831,-2.1905034577886444,-8.330673130819148,-5.148684253424875
9.110600307219663,-1.8944270353299852,-8.279274039938457,-4.6510319508445965
9.118599078341015,-1.079425115207376,-7.411448732718885,-2.0873669354838613
9.126597849462366,-1.0981495112414466,-7.343550073313784,-2.0192864858260022
9.134596620583718,-1.1168739072755214,-7.275651413908668,-1.9512060361681285
9.14259539170507,-1.1355983033095962,-7.207752754503552,-1.8831255865102545
9.150594162826422,-1.154322699343671,-7.1398540950984355,-1.8150451368523806
9.158592933947773,-1.1730470953777417,-7.071955435693335,-1.7469646871945217
9.166591705069125,-1.1917714914118165,-7.004056776288219,-1.6788842375366477
9.174590476190478,-1.2104958874458913,-6.936158116883103,-1.6108037878787738
9.182589247311828,-1.229220283479962,-6.868259457478002,-1.542723338220915
9.19058801843318,-1.2479446795140368,-6.800360798072886,-1.474642888563041
9.198586789554533,-1.2666690755481116,-6.7324621386677705,-1.406562438905167
9.206585560675885,-0.8259494367639243,-6.214225268817201,-1.9817278801844405
9.214584331797235,-0.6693068356374829,-6.200227419354839,-2.5756366359446927
9.222583102918588,-0.6062339657270582,-6.434901949049412,-3.8966380872583537
9.23058187403994,-0.6368786083348364,-6.4198393281066055,-3.8368031240648612
9.23858064516129,-0.6675232509426079,-6.404776707163803,-3.7769681608713825
9.246579416282643,-0.6981678935503861,-6.389714086220997,-3.71713319767789
9.254578187403995,-0.7288125361581643,-6.37465146527819,-3.6572982344843976
9.262576958525347,-0.7594571787659425,-6.359588844335384,-3.597463271290905
9.270575729646698,-0.790101821373714,-6.344526223392582,-3.5376283080974265
9.27857450076805,-0.8207464639814922,-6.329463602449775,-3.477793344903934
9.286573271889402,-0.8513911065892705,-6.314400981506969,-3.4179583817104415
9.294572043010753,-0.8820357491970419,-6.299338360564167,-3.3581234185169624
9.302570814132105,-1.1465536098310516,-6.209314162826421,-3.3962668509985234
9.310569585253457,-1.525354377880187,-6.30013428571428,-4.234644925755252
9.31856835637481,-1.5373525345622154,-6.275338095238087,-4.253219849803727
9.32656712749616,-1.5493506912442412,-6.250541904761901,-4.2717947738521955
9.334565898617512,-1.5613488479262696,-6.225745714285709,-4.29036969790067
9.342564669738865,-1.573347004608298,-6.200949523809517,-4.308944621949143
9.350563440860215,-1.5853451612903238,-6.17615333333333,-4.327519545997613
9.358562211981567,-1.5973433179723524,-6.1513571428571385,-4.346094470046086
9.36656098310292,-1.6093414746543808,-6.126560952380946,-4.36466939409456
9.374559754224272,-1.6213396313364092,-6.101764761904754,-4.383244318143034
9.382558525345623,-1.633337788018435,-6.0769685714285675,-4.401819242191503
9.390557296466975,-1.6453359447004634,-6.052172380952375,-4.420394166239977
9.398556067588327,-1.6573341013824918,-6.027376190476184,-4.438969090288451
9.406554838709678,-2.9814341311134216,-7.721179396462013,-6.22478473812001
9.41455360983103,-3.016525514097419,-7.839096764283238,-6.29376338800522
9.422552380952382,-3.051616897081416,-7.957014132104463,-6.36274203789043
9.430551152073733,-3.0867082800654053,-8.074931499925663,-6.431720687775624
9.438549923195085,-3.1217996630494023,-8.19284886774689,-6.500699337660834
9.446548694316437,-3.156891046033399,-8.310766235568114,-6.5696779875460445
9.45454746543779,-3.1919824290173966,-8.42868360338934,-6.638656637431255
9.46254623655914,-3.227073812001386,-8.54660097121054,-6.7076352873164495
9.470545007680492,-3.262165194985383,-8.664518339031764,-6.77661393720166
9.478543778801845,-3.29725657796938,-8.78243570685299,-6.84559258708687
9.486542549923195,-3.3323479609533693,-8.90035307467419,-6.914571236972064
9.494541321044547,-3.367439343937366,-9.018270442495414,-6.983549886857274
9.5025400921659,-4.159937327188672,-11.605202764976976,-8.91394470046111
9.510538863287252,-2.7080237408896135,-11.032321874693592,-8.862274915841416
9.518537634408602,-2.528987417067044,-10.95624845573096,-8.796242507435373
9.526536405529955,-2.3499510932444343,-10.88017503676831,-8.730210099029316
9.534535176651307,-2.1709147694218247,-10.804101617805662,-8.664177690623259
9.542533947772657,-1.991878445599255,-10.728028198843031,-8.598145282217216
9.55053271889401,-1.8128421217766455,-10.651954779880382,-8.532112873811158
9.558531490015362,-1.633805797954036,-10.575881360917734,-8.466080465405101
9.566530261136714,-1.4547694741314263,-10.499807941955083,-8.400048056999044
9.574529032258065,-1.2757331503088565,-10.423734522992453,-8.334015648593
9.582527803379417,-1.0966968264862471,-10.347661104029804,-8.267983240186943
9.59052657450077,-0.9176605026636375,-10.271587685067155,-8.201950831780884
9.59852534562212,-0.7386241788410679,-10.195514266104523,-8.135918423374843
9.606524116743472,-0.6748885876931381,-9.67758968103367,-7.6894048974428175
9.614522887864824,-0.6184266738953555,-9.131791180988436,-7.218888949127963
9.622521658986177,-2.7780626817592085,-9.744585342937679,-6.624301060355241
9.630520430107527,-2.7994186240734935,-9.758175488046769,-6.6153703935692665
9.63851920122888,-2.820774566387784,-9.771765633155862,-6.60643972678329
9.646517972350232,-2.842130508702074,-9.785355778264957,-6.597509059997315
9.654516743471582,-2.8634864510163593,-9.798945923374047,-6.588578393211341
9.662515514592934,-2.8848423933306493,-9.81253606848314,-6.579647726425365
9.670514285714287,-2.9061983356449392,-9.826126213592234,-6.57071705963939
9.678513056835639,-2.9275542779592296,-9.839716358701327,-6.5617863928534135
9.68651182795699,-2.9489102202735147,-9.853306503810419,-6.552855726067439
9.694510599078342,-2.970266162587805,-9.866896648919512,-6.543925059281464
9.702509370199694,-2.991622104902095,-9.880486794028606,-6.534994392495488
9.710508141321045,-3.0129780472163805,-9.894076939137697,-6.5260637257095135
9.718506912442397,-3.0343339895306705,-9.90766708424679,-6.5171330589235374
9.72650568356375,-2.5761471582179793,-8.750986789554055,-6.139305990783197
9.734504454685101,-2.0407079786753415,-6.716924717628984,-5.485508561489102
9.742503225806452,-2.0444721062618596,-6.700574288425048,-5.408461574952564
9.750501996927804,-2.048236233848378,-6.684223859221107,-5.331414588416008
9.758500768049156,-2.052000361434897,-6.667873430017166,-5.254367601879452
9.766499539170507,-2.055764489021415,-6.65152300081323,-5.177320615342914
9.77449831029186,-2.059528616607934,-6.635172571609289,-5.100273628806359
9.782497081413212,-2.0632927441944524,-6.618822142405348,-5.023226642269803
9.790495852534564,-2.067056871780971,-6.602471713201407,-4.946179655733248
9.798494623655914,-2.070820999367489,-6.58612128399747,-4.869132669196709
9.806493394777267,-2.284550844854172,-5.707109984638936,-4.913013517665297
9.814492165898619,-2.0376074050532393,-6.8455549658350545,-4.310301827427294
9.82249093701997,-2.068775030457122,-6.842245129508979,-4.272054829881525
9.830489708141322,-2.099942655861012,-6.838935293182901,-4.233807832335749
9.838488479262674,-2.131110281264902,-6.835625456856825,-4.195560834789973
9.846487250384026,-2.162277906668792,-6.832315620530748,-4.157313837244196
9.854486021505377,-2.1934455320726753,-6.829005784204671,-4.119066839698428
9.862484792626729,-2.2246131574765653,-6.825695947878595,-4.080819842152652
9.870483563748081,-2.2557807828804552,-6.822386111552518,-4.042572844606875
9.878482334869432,-2.2869484082843385,-6.8190762752264416,-4.004325847061107
9.886481105990784,-2.3181160336882285,-6.815766438900365,-3.9660788495153305
9.894479877112136,-2.3492836590921184,-6.812456602574288,-3.927831851969554
9.902478648233489,-2.6245530568357087,-7.1737705069125415,-4.112539170506968
9.910477419354839,-2.994733870967744,-7.924159326788217,-4.257355680224402
9.918476190476191,-3.044726190476195,-7.883122153209106,-4.200668737060036
9.926474961597544,-3.094718509984647,-7.842084979629995,-4.14398179389567
9.934473732718894,-3.144710829493087,-7.801047806050892,-4.0872948507313165
9.942472503840246,-3.1947031490015383,-7.760010632471781,-4.030607907566951
9.950471274961599,-3.24469546850999,-7.718973458892669,-3.9739209644025855
9.958470046082951,-3.2946877880184413,-7.6779362853135575,-3.9172340212382193
9.966468817204301,-3.344680107526882,-7.636899111734455,-3.860547078073866
9.974467588325654,-3.3946724270353332,-7.595861938155344,-3.8038601349095003
9.982466359447006,-3.4446647465437845,-7.5548247645762325,-3.7471731917451345
9.990465130568356,-3.494657066052225,-7.51378759099713,-3.6904862485807812
9.998463901689709,-3.5446493855606764,-7.472750417418019,-3.6337993054164155
10.006462672811061,-3.278363931378998,-8.310819563954627,-3.9929168105951995
10.014461443932413,-3.2327911009565033,-8.428717417289517,-3.939614075307533
10.022460215053764,-3.1872182705340193,-8.546615270624383,-3.8863113400198777
10.030458986175116,-3.1416454401115246,-8.664513123959273,-3.8330086047322105
10.038457757296468,-3.09607260968903,-8.782410977294163,-3.779705869444544
10.046456528417819,-3.0504997792665454,-8.900308830629026,-3.7264031341568886
10.054455299539171,-3.004926948844051,-9.018206683963916,-3.6731003988692215
10.062454070660523,-2.9593541184215564,-9.136104537298806,-3.6197976635815547
10.070452841781876,-2.9137812879990617,-9.254002390633696,-3.5664949282938876
10.078451612903226,-2.8682084575765776,-9.37190024396856,-3.5131921930062324
10.086450384024578,-2.822635627154083,-9.48979809730345,-3.4598894577185657
10.09444915514593,-2.777062796731588,-9.607695950638341,-3.4065867224308986
10.102447926267281,-2.7314899663091037,-9.725593803973204,-3.3532839871432434
10.110446697388634,-2.6859171358866094,-9.843491657308094,-3.2999812518555762
10.118445468509986,-2.6403443054641147,-9.961389510642984,-3.2466785165679095
10.126444239631338,-2.600111520737324,-10.18818788676777,-3.1520389730084957
10.134443010752689,-2.392501075268725,-11.908845161290676,-2.8777849462365572
10.14244178187404,-2.263414270848817,-13.465874806335997,-2.6030847860198443
10.150440552995393,-2.246384629106583,-13.533305306971913,-2.4488719191318373
10.158439324116744,-2.2293549873643532,-13.600735807607814,-2.2946590522438646
10.166438095238096,-2.2123253456221192,-13.66816630824373,-2.140446185355858
10.174436866359448,-2.1952957038798853,-13.735596808879645,-1.9862333184678511
10.1824356374808,-2.1782660621376513,-13.803027309515562,-1.8320204515798442
10.190434408602151,-2.1612364203954213,-13.870457810151462,-1.6778075846918716
10.198433179723503,-2.1442067786531873,-13.937888310787379,-1.5235947178038647
10.206431950844856,-2.1271771369109533,-14.005318811423296,-1.3693818509158577
10.214430721966206,-2.1101474951687234,-14.072749312059196,-1.2151689840278852
10.222429493087558,-2.0931178534264894,-14.140179812695113,-1.0609561171398783
10.23042826420891,-2.1125459293395643,-14.119417818740192,-0.8556854070659075
10.238427035330261,0.39801051267280013,-12.078047331029179,-0.2424621255760393
10.246425806451613,0.1921671370967503,-11.947817338709664,-0.288580040322586
10.254424577572966,-0.013676238479299552,-11.817587346390146,-0.3346979550691327
10.262423348694318,-0.21951961405534942,-11.68735735407063,-0.38081586981567933
10.270422119815668,-0.4253629896313535,-11.55712736175114,-0.42693378456221576
10.27842089093702,-0.6312063652074034,-11.426897369431625,-0.47305169930876245
10.286419662058373,-0.8370497407834532,-11.296667377112108,-0.5191696140553091
10.294418433179723,-1.0428931163594573,-11.16643738479262,-0.5652875288018455
10.302417204301076,-1.310384946236691,-10.997107526881637,-0.5228473118278
10.310415975422428,-1.8354777880183866,-11.45340466973887,-0.29488018433178853
10.31841474654378,-1.3410715382927307,-11.067412552117611,0.1915228000877566
10.32641351766513,-1.3075528783556432,-11.00189880769512,0.07009383658839805
10.334412288786483,-1.274034218418548,-10.936385063272617,-0.05133512691098743
10.342411059907835,-1.240515558481453,-10.870871318850114,-0.17276409041037297
10.350409831029186,-1.2069968985443653,-10.805357574427623,-0.2941930539097315
10.358408602150538,-1.1734782386072702,-10.73984383000512,-0.4156220174091171
10.36640737327189,-1.139959578670175,-10.674330085582614,-0.5370509809085026
10.374406144393243,-1.10644091873308,-10.60881634116011,-0.658479944407888
10.382404915514593,-1.0729222587959921,-10.543302596737622,-0.7799089079072467
10.390403686635945,-1.039403598858897,-10.477788852315117,-0.9013378714066321
10.398402457757298,-1.005884938921802,-10.412275107892613,-1.0227668349060175
10.406401228878648,-0.9723662789847143,-10.346761363470122,-1.144195798405376
10.4144,-0.9388476190476192,-10.281247619047619,-1.2656247619047616
10.422398771121353,-0.9498678955453881,-10.007053149001173,-1.393561290322602
10.430397542242705,-0.9481967701511805,-8.189140468105743,-1.6682473562939597
10.438396313364056,-0.9158859447004616,-8.134517281105992,-1.6597223502304148
10.446395084485408,-0.8835751192497354,-8.079894094106232,-1.6511973441668681
10.45439385560676,-0.8512642937990091,-8.025270907106469,-1.6426723381033217
10.46239262672811,-0.8189534683482902,-7.970647720106719,-1.6341473320397768
10.470391397849463,-0.786642642897564,-7.916024533106957,-1.6256223259762301
10.478390168970815,-0.7543318174468379,-7.861401346107195,-1.6170973199126835
10.486388940092167,-0.7220209919961116,-7.8067781591074334,-1.608572313849137
10.494387711213518,-0.6897101665453926,-7.752154972107683,-1.6000473077855921
10.50238648233487,-0.550001689708066,-7.147554377879811,-1.667176804915564
10.510385253456223,-0.170954838709655,-5.078802764976813,-2.362180337941631
10.518384024577573,-0.1858330680072617,-4.686813350090769,-2.417564585951683
10.526382795698925,-0.20204875855327595,-4.6291494819159285,-2.4899171065493704
10.534381566820278,-0.21826444909929021,-4.571485613741089,-2.562269627147057
10.54238033794163,-0.23448013964530445,-4.513821745566249,-2.634622147744744
10.55037910906298,-0.2506958301913151,-4.456157877391422,-2.706974668342415
10.558377880184333,-0.2669115207373294,-4.3984940092165825,-2.7793271889401017
10.566376651305685,-0.2831272112833436,-4.340830141041742,-2.8516797095377884
10.574375422427035,-0.29934290182935425,-4.283166272866915,-2.9240322301354595
10.582374193548388,-0.3155585923753685,-4.225502404692075,-2.9963847507331463
10.59037296466974,-0.3317742829213827,-4.167838536517236,-3.068737271330833
10.598371735791092,-0.347989973467397,-4.110174668342395,-3.14108979192852
10.606370506912443,-0.3642056640134076,-4.0525108001675685,-3.213442312526191
10.614369278033795,-0.3804213545594219,-3.9948469319927287,-3.2857948331238775
10.622368049155147,-0.3966370451054361,-3.937183063817889,-3.3581473537215647
10.630366820276498,-0.6391110599078301,-3.972811520737347,-3.859143317972369
10.63836559139785,-0.6741881720430137,-4.113727342549925,-4.084534562211988
10.646364362519202,-0.7373784639016965,-4.140580359885893,-4.210001000658341
10.654363133640555,-0.8005687557603792,-4.167433377221861,-4.335467439104695
10.662361904761905,-0.8637590476190479,-4.194286394557824,-4.460933877551021
10.670360675883257,-0.9269493394777306,-4.221139411893792,-4.586400315997375
10.67835944700461,-0.9901396313364134,-4.24799242922976,-4.7118667544437285
10.68635821812596,-1.0533299231950821,-4.274845446565722,-4.837333192890054
10.694356989247312,-1.116520215053765,-4.30169846390169,-4.9627996313364084
10.702355760368665,-1.4063023041475369,-5.422611059908366,-6.186784331797743
10.710354531490017,-2.115757842635368,-8.040661443932725,-8.095978835978974
10.718353302611368,-2.955028522121712,-9.71594743130227,-8.86161083613055
10.72635207373272,-2.9433759913523345,-9.709726164874551,-8.847489548842237
10.734350844854072,-2.9317234605829574,-9.703504898446834,-8.833368261553924
10.742349615975423,-2.9200709298135825,-9.697283632019117,-8.819246974265614
10.750348387096775,-2.908418399044205,-9.691062365591398,-8.8051256869773
10.758347158218127,-2.8967658682748274,-9.684841099163679,-8.791004399688987
10.76634592933948,-2.88511333750545,-9.678619832735961,-8.776883112400673
10.77434470046083,-2.873460806736075,-9.672398566308244,-8.762761825112362
10.782343471582182,-2.861808275966698,-9.666177299880525,-8.748640537824048
10.790342242703534,-2.8501557451973203,-9.659956033452806,-8.734519250535735
10.798341013824885,-3.009847926267449,-9.642405529953905,-8.816142857142951
10.806339784946237,-2.0972845760620484,-12.973175603737017,-5.358027005111907
10.81433855606759,-2.0978090856437763,-13.106204346402787,-5.164548533151985
10.822337327188942,-2.0983335952255042,-13.239233089068556,-4.971070061192061
10.830336098310292,-2.098858104807232,-13.372261831734294,-4.777591589232181
10.838334869431645,-2.0993826143889605,-13.505290574400064,-4.584113117272259
10.846333640552997,-2.0999071239706883,-13.638319317065832,-4.3906346453123355
10.854332411674347,-2.1004316335524162,-13.77134805973157,-4.197156173352456
10.8623311827957,-2.100956143134144,-13.90437680239734,-4.003677701392533
10.870329953917052,-2.1014806527158725,-14.037405545063109,-3.8101992294326097
10.878328725038404,-2.1020051622976004,-14.170434287728877,-3.616720757472687
10.886327496159755,-2.1025296718793283,-14.303463030394617,-3.4232422855128073
10.894326267281107,-2.103054181461056,-14.436491773060386,-3.2297638135528843
10.90232503840246,-2.103578691042784,-14.569520515726154,-3.0362853415929614
10.91032380952381,-2.104103200624512,-14.702549258391894,-2.8428068696330815
10.918322580645162,-2.1046277102062403,-14.835578001057662,-2.6493283976731585
10.926321351766514,-1.4120316436252596,-14.713239938555049,-4.007947158220191
10.934320122887867,-0.506641617133067,-11.048271412987797,-3.6560730648501036
10.942318894009217,-0.5364341414546193,-10.904409457022636,-3.8838641554798707
10.95031766513057,-0.5662266657761782,-10.760547501057443,-4.111655246109689
10.958316436251922,-0.5960191900977371,-10.61668554509225,-4.339446336739507
10.966315207373272,-0.6258117144192893,-10.47282358912709,-4.567237427369274
10.974313978494624,-0.6556042387408482,-10.328961633161896,-4.795028517999092
10.982312749615977,-0.6853967630624072,-10.185099677196703,-5.02281960862891
10.990311520737329,-0.715189287383966,-10.04123772123151,-5.250610699258727
10.99831029185868,-0.7449818117055182,-9.89737576526635,-5.478401789888495
11.006309062980032,-4.951541628258623,-10.867584331796829,-3.916180645152433
11.014307834101384,-5.949401949349511,-7.820886929570589,-11.396605440234861
11.022306605222735,-5.775198624308416,-7.932232655003195,-11.14283911749113
11.030305376344087,-5.600995299267283,-8.043578380435825,-10.889072794747342
11.038304147465439,-5.42679197422615,-8.154924105868455,-10.635306472003554
11.046302918586791,-5.252588649185017,-8.266269831301084,-10.381540149259767
11.054301689708142,-5.078385324143923,-8.377615556733689,-10.127773826516036
11.062300460829494,-4.904181999102789,-8.488961282166319,-9.874007503772248
11.070299231950846,-4.729978674061657,-8.60030700759895,-9.62024118102846
11.078298003072197,-4.555775349020562,-8.711652733031555,-9.366474858284729
11.08629677419355,-4.381572023979429,-8.822998458464184,-9.112708535540941
11.094295545314901,-4.207368698938296,-8.934344183896815,-8.858942212797153
11.102294316436252,-4.0331653738972015,-9.04568990932942,-8.60517589005342
11.110293087557604,-3.8589620488560685,-9.15703563476205,-8.351409567309634
11.118291858678957,-3.6847587238149355,-9.26838136019468,-8.097643244565845
11.126290629800309,-3.288073816506133,-10.030356235162612,-0.911065354001194
11.13428940092166,-3.6829222454964627,-9.532250942605751,-3.299789275241033
11.142288172043012,-3.7532099126344103,-8.399654334677415,-4.476218380376346
11.150286943164364,-3.7898292866743515,-8.328040336981559,-4.511337984831033
11.158285714285714,-3.8264486607142842,-8.256426339285717,-4.546457589285713
11.166284485407067,-3.863068034754225,-8.18481234158986,-4.5815771937404
11.174283256528419,-3.8996874087941658,-8.113198343894004,-4.616696798195087
11.182282027649771,-3.9363067828341065,-8.041584346198146,-4.651816402649774
11.190280798771122,-3.9729261568740393,-7.969970348502305,-4.686936007104454
11.198279569892474,-4.0095455309139805,-7.8983563508064485,-4.722055611559141
11.206278341013826,-3.48473271889391,-7.400611367127538,-4.061299539170432
11.214277112135177,-2.883336644478583,-7.630943551231724,-2.449851698242024
11.222275883256529,-2.8064595664789187,-7.6293141719292255,-2.358976770779993
11.230274654377881,-2.729582488479254,-7.627684792626728,-2.268101843317962
11.238273425499234,-2.65270541047959,-7.62605541332423,-2.1772269158559308
11.246272196620584,-2.5758283324799423,-7.624426034021733,-2.08635198839392
11.254270967741936,-2.498951254480278,-7.622796654719235,-1.995477060931889
11.262269738863289,-2.4220741764806135,-7.621167275416737,-1.904602133469858
11.27026850998464,-2.3451970984809662,-7.61953789611424,-1.813727206007847
11.278267281105991,-2.2683200204813017,-7.617908516811743,-1.722852278545816
11.286266052227344,-2.191442942481637,-7.6162791375092445,-1.631977351083785
11.294264823348696,-2.114565864481973,-7.614649758206747,-1.5411024236217539
11.302263594470046,-2.0376887864823257,-7.61302037890425,-1.450227496159743
11.310262365591399,-1.960811708482661,-7.611390999601752,-1.359352568697712
11.318261136712751,-1.8839346304829967,-7.609761620299254,-1.2684776412356809
11.326259907834102,-1.4890849078340829,-7.639767857142816,-1.339629953917051
11.334258678955454,-1.3170880171202768,-7.245762348523638,-1.3390948678561567
11.342257450076806,-1.3430669318733868,-7.231542310974567,-1.3142781677104225
11.350256221198158,-1.369045846626497,-7.217322273425497,-1.2894614675646883
11.358254992319509,-1.3950247613796014,-7.203102235876429,-1.2646447674189596
11.366253763440861,-1.4210036761327116,-7.188882198327358,-1.2398280672732254
11.374252534562213,-1.4469825908858218,-7.174662160778287,-1.2150113671274914
11.382251305683564,-1.472961505638926,-7.1604421232292195,-1.1901946669817627
11.390250076804916,-1.4989404203920362,-7.146222085680149,-1.1653779668360285
11.398248847926268,-1.5249193351451464,-7.132002048131078,-1.1405612666902942
11.40624761904762,-1.5508982498982566,-7.117782010582007,-1.11574456654456
11.414246390168971,-1.576877164651361,-7.10356197303294,-1.0909278663988315
11.422245161290324,-1.6028560794044713,-7.089341935483868,-1.0661111662530973
11.430243932411676,-1.6288349941575815,-7.075121897934798,-1.041294466107363
11.438242703533026,-1.6548139089106857,-7.06090186038573,-1.0164777659616344
11.446241474654379,-1.680792823663796,-7.046681822836659,-0.9916610658159002
11.45424024577573,-1.482,-7.582024577573104,-0.9539877112134482
11.462239016897083,-1.3400129212975493,-9.294158904852276,-0.4135739676515751
11.470237788018434,-1.3306026023312547,-9.360501653564654,-0.4052223095689885
11.478236559139786,-1.3211922833649579,-9.426844402277048,-0.39687065148640005
11.486235330261138,-1.311781964398661,-9.49318715098944,-0.3885189934038116
11.494234101382489,-1.3023716454323662,-9.559529899701818,-0.380167335321225
11.502232872503841,-1.2929613264660693,-9.62587264841421,-0.37181567723863657
11.510231643625193,-1.2835510074997725,-9.692215397126605,-0.3634640191560481
11.518230414746546,-1.2741406885334756,-9.758558145838997,-0.3551123610734596
11.526229185867896,-1.2590182488479085,-9.843787158218188,-0.3381305069124161
11.534227956989248,-1.0502503225806097,-10.569275698924855,-0.028578064516076362
11.5422267281106,-2.4285857801187727,-13.68480355497073,-0.16330032916396423
11.550225499231951,-3.4960284690220145,-15.631867571257896,0.1457779655231345
11.558224270353303,-3.384712237583194,-15.685303806110264,0.4325116914149465
11.566223041474656,-3.2733960061443734,-15.738740040962632,0.7192454173067586
11.574221812596008,-3.162079774705553,-15.792176275814999,1.0059791431985705
11.582220583717358,-3.0507635432667572,-15.845612510667355,1.292712869090319
11.59021935483871,-2.9394473118279367,-15.899048745519723,1.5794465949821308
11.598218125960063,-2.828131080389116,-15.952484980372091,1.866180320873943
11.606216897081413,-2.7168148489503205,-16.005921215224447,2.152914046765691
11.614215668202766,-2.6054986175115,-16.059357450076813,2.439647772657503
11.622214439324118,-1.037699539169768,-15.85991121351721,2.2149741935481657
11.63021321044547,0.19220278501302912,-14.034843558405115,1.7584252654778667
11.63821198156682,0.23732628731717004,-13.91642696854338,1.8118953115608083
11.646210752688173,0.282449789621321,-13.79801037868162,1.8653653576437619
11.654209523809525,0.32757329192547197,-13.67959378881986,1.9188354037267152
11.662208294930876,0.3726967942296129,-13.561177198958125,1.9723054498096568
11.670207066052228,0.41782029653376385,-13.442760609096366,2.0257754958926104
11.67820583717358,0.46294379883791476,-13.324344019234605,2.0792455419755638
11.686204608294933,0.5080673011420658,-13.205927429372846,2.132715588058517
11.694203379416283,0.5531908034462066,-13.087510839511111,2.1861856341414585
11.702202150537635,0.5983143057503576,-12.96909424964935,2.2396556802244123
11.710200921658988,0.6434378080545086,-12.85067765978759,2.2931257263073657
11.718199692780338,0.6885613103586494,-12.732261069925856,2.346595772390307
11.72619846390169,1.8940945007680605,-11.799642703532918,3.246348509984608
11.734197235023043,2.3127634542175706,-10.439273425499263,4.204093354705038
11.742196006144395,2.192086342082388,-10.612580133128558,3.6489322691955373
11.750194777265746,2.0714092299472315,-10.785886840757819,3.093771183686159
11.758193548387098,1.9507321178120487,-10.959193548387116,2.5386100981766577
11.76619231950845,1.8300550056768659,-11.132500256016412,1.9834490126671565
11.7741910906298,1.7093778935417097,-11.305806963645672,1.4282879271577786
11.782189861751153,1.5887007814065268,-11.47911367127497,0.8731268416482774
11.790188632872505,1.4680236692713438,-11.652420378904266,0.31796575613877565
11.798187403993857,1.347346557136161,-11.825727086533563,-0.23719532937072518
11.806186175115208,0.44030230414737964,-7.832267741935399,1.9624281105990706
11.81418494623656,-0.505408070556994,-7.712974024404975,1.298946719826009
11.822183717357913,-0.6921658951656452,-7.69095493536305,1.201882980375892
11.830182488479263,-0.878923719774255,-7.66893584632113,1.1048192409257964
11.838181259600615,-1.0656815443829062,-7.646916757279206,1.0077555014756794
11.846180030721968,-1.2524393689915574,-7.62489766823728,0.9106917620255622
11.85417880184332,-1.4391971936002086,-7.602878579195356,0.8136280225754452
11.86217757296467,-1.6259550182088183,-7.580859490153436,0.7165642831253497
11.870176344086023,-1.8127128428174695,-7.558840401111511,0.6195005436752326
11.878175115207375,-1.9994706674261207,-7.536821312069587,0.5224368042251155
11.886173886328725,-2.18622849203473,-7.514802223027667,0.42537306477502
11.894172657450078,-2.3729863166433818,-7.492783133985742,0.328309325324903
11.90217142857143,-3.0700285714283835,-7.249474285714367,0.14617714285746947
11.91017019969278,-2.563720569752827,-7.4798913000977505,1.0587826001955014
11.918168970814133,-2.576611151312031,-7.498863591931041,1.096727183862082
11.926167741935485,-2.5895017328712355,-7.517835883764331,1.1346717675286626
11.934166513056837,-2.60239231443044,-7.5368081755976215,1.1726163511952432
11.942165284178188,-2.6152828959896413,-7.555780467430908,1.2105609348618156
11.95016405529954,-2.6281734775488452,-7.574752759264197,1.2485055185283962
11.958162826420892,-2.6410640591080496,-7.593725051097488,1.2864501021949768
11.966161597542243,-2.653954640667251,-7.612697342930774,1.3243946858615492
11.974160368663595,-2.666845222226455,-7.631669634764065,1.3623392695281298
11.982159139784947,-2.6797358037856593,-7.650641926597355,1.4002838531947104
11.9901579109063,-2.6926263853448633,-7.669614218430645,1.438228436861291
11.99815668202765,-2.7055169669040646,-7.6885865102639315,1.4761730205278631
12.006155453149002,-2.718407548463269,-7.707558802097221,1.514117604194444
12.014154224270355,-2.7312981300224735,-7.726531093930512,1.5520621878610246
12.022152995391705,-2.7441887115816748,-7.745503385763798,1.5900067715275967
12.030151766513058,-2.501669431643639,-7.620109062980197,2.325041474654586
12.03815053763441,-2.593028789455442,-7.866851774771651,2.6313226962654643
12.046149308755762,-2.6854016946633164,-7.8692600069372185,2.633042862098013
12.054148079877113,-2.7777745998711705,-7.871668239102787,2.634763027930562
12.062146850998465,-2.8701475050790455,-7.874076471268355,2.6364831937631106
12.070145622119817,-2.96252041028692,-7.876484703433923,2.6382033595956593
12.078144393241168,-3.054893315494774,-7.878892935599492,2.639923525428208
12.08614316436252,-3.147266220702649,-7.881301167765059,2.641643691260757
12.094141935483872,-3.2396391259105237,-7.883709399930628,2.6433638570933056
12.102140706605224,-3.3320120311183983,-7.886117632096196,2.6450840229258548
12.110139477726575,-3.424384936326253,-7.888525864261764,2.646804188758403
12.118138248847927,-3.5167578415341274,-7.8909340964273325,2.648524354590952
12.12613701996928,-3.733010906298135,-7.939617818740444,2.505029953916911
12.13413579109063,-3.6217536098309964,-8.157086328725043,2.4740121351766646
12.142134562211982,-3.094498607038065,-8.118111793045658,2.637880016757454
12.150133333333335,-2.5479462121211247,-8.066665151515142,2.8036727272727537
12.158132104454687,-2.001393817204185,-8.015218509984628,2.969465437788054
12.166130875576037,-1.4548414222873665,-7.963771868454124,3.135258148303317
12.17412964669739,-0.9082890273704267,-7.912325226923609,3.3010508588186167
12.182128417818742,-0.36173663245348653,-7.860878585393094,3.466843569333917
12.190127188940092,0.18481576246333198,-7.80943194386259,3.63263627984918
12.198125960061445,0.7313681573802722,-7.757985302332075,3.7984289903644797
12.206124731182797,1.2779205522972115,-7.706538660801559,3.9642217008797798
12.21412350230415,1.8244729472141517,-7.655092019271044,4.13001441139508
12.2221222734255,2.37102534213097,-7.60364537774054,4.295807121910343
12.230121044546852,2.957908387096779,-7.501294091141825,4.17981898617511
12.238119815668204,2.9915032258064573,-7.445835944700451,4.14142488479262
12.246118586789555,3.008920888992592,-7.363484263742247,4.196004145521009
12.254117357910907,3.0010233681385983,-7.2390476851581695,4.396074673822178
12.26211612903226,2.9931258472846047,-7.114611106574093,4.596145202123346
12.270114900153612,2.985228326430611,-6.990174527990016,4.796215730424516
12.278113671274962,2.9773308055766194,-6.8657379494059665,4.99628625872564
12.286112442396314,2.969433284722626,-6.741301370821889,5.196356787026808
12.294111213517667,2.961535763868633,-6.616864792237812,5.396427315327977
12.302109984639017,2.953638243014641,-6.4924282136537625,5.596497843629101
12.31010875576037,2.9457407221606475,-6.367991635069686,5.79656837193027
12.318107526881722,2.937843201306654,-6.243555056485608,5.996638900231439
12.326106298003074,3.7615035330265654,-5.21355483870999,7.870739170508016
12.334105069124425,4.086792031490017,-5.4498264880952405,8.695844422043018
12.342103840245777,4.116954064260116,-5.483404662698417,8.803744511648759
12.350102611367129,4.147116097030215,-5.516982837301594,8.911644601254501
12.35810138248848,4.177278129800308,-5.5505610119047635,9.019544690860219
12.366100153609832,4.207440162570407,-5.58413918650794,9.12744478046596
12.374098924731184,4.237602195340506,-5.617717361111117,9.235344870071701
12.382097695852536,4.267764228110606,-5.6512955357142935,9.343244959677444
12.390096466973887,4.297926260880698,-5.684873710317463,9.451145049283161
12.39809523809524,4.328088293650797,-5.71845188492064,9.559045138888903
12.406094009216591,4.3582503264208965,-5.7520300595238165,9.666945228494644
12.414092780337942,4.388412359190989,-5.785608234126986,9.774845318100361
12.422091551459294,4.418574391961088,-5.819186408730163,9.882745407706103
12.430090322580647,4.187683870968231,-5.574748387095976,9.871683870967242
12.438089093701999,4.51619815668201,-4.294589008363142,8.850538368322244
12.44608786482335,4.444209216589855,-4.058180884109894,8.863958528759175
12.454086635944702,4.372220276497685,-3.821772759856593,8.877378689196112
12.462085407066054,4.300231336405513,-3.5853646356032915,8.890798849633047
12.470084178187404,4.228242396313359,-3.3489565113500435,8.90421901006998
12.478082949308757,4.156253456221188,-3.112548387096742,8.917639170506915
12.486081720430109,4.084264516129018,-2.876140262843441,8.93105933094385
12.494080491551461,4.012275576036847,-2.63973213859014,8.944479491380786
12.502079262672812,3.9402866359446924,-2.4033240143368917,8.957899651817717
12.510078033794164,3.8682976958525215,-2.1669158900835908,8.971319812254654
12.518076804915516,3.796308755760351,-1.9305077658302894,8.984739972691589
12.526075576036867,3.549883870967727,-1.4829216589861605,8.20516774193557
12.534074347158219,3.388683352328086,-1.2582023949919545,8.43226485638307
12.542073118279571,3.329165614521895,-1.074058642617597,8.444564042085794
12.550071889400924,3.269647876715704,-0.8899148902432397,8.456863227788519
12.558070660522274,3.210130138909526,-0.7057711378689233,8.46916241349124
12.566069431643626,3.1506124011033347,-0.521627385494566,8.481461599193965
12.574068202764979,3.0910946632971434,-0.3374836331202087,8.49376078489669
12.582066973886329,3.0315769254909655,-0.1533398807458921,8.506059970599411
12.590065745007681,2.972059187684774,0.030803871628465096,8.518359156302136
12.598064516129034,2.9125414498785833,0.21494762400282252,8.53065834200486
12.606063287250386,2.853023712072392,0.39909137637717973,8.542957527707584
12.614062058371736,2.793505974266214,0.5832351287514963,8.555256713410307
12.622060829493089,2.733988236460023,0.7673788811258537,8.567555899113032
12.630059600614441,2.844969073220702,0.18909503328204968,8.558940399385559
12.638058371735791,2.6849365810840444,-0.17481215712091452,8.996177529076155
12.646057142857144,2.6178937728937726,-0.22729450549450614,9.273203663003663
12.654055913978496,2.603024262475874,-0.26851894127378356,9.301712103666945
12.662054685099848,2.5881547520579753,-0.309743377053061,9.330220544330226
12.670053456221199,2.57328524164008,-0.35096781283232925,9.358728984993501
12.678052227342551,2.5584157312221816,-0.39219224861160673,9.387237425656783
12.686050998463903,2.543546220804283,-0.43341668439088415,9.415745866320064
12.694049769585254,2.528676710386388,-0.4746411201701524,9.44425430698334
12.702048540706606,2.5138071999684892,-0.5158655559494298,9.472762747646621
12.710047311827958,2.4989376895505906,-0.5570899917287073,9.501271188309902
12.718046082949309,2.484068179132695,-0.5983144275079756,9.529779628973177
12.726044854070661,2.6169761904762447,-1.0391107526882284,9.78479400921675
12.734043625192013,2.955695932678813,-1.3604753712237418,10.961784126984135
12.742042396313366,2.8680572230013865,-1.203166205837145,11.04443809523811
12.750041167434716,2.78041851332398,-1.045857040450583,11.127092063492066
12.758039938556069,2.692779803646554,-0.888547875063986,11.209746031746041
12.76603870967742,2.6051410939691277,-0.7312387096773891,11.292400000000015
12.774037480798771,2.517502384291721,-0.5739295442908271,11.375053968253972
12.782036251920124,2.429863674614295,-0.4166203789042302,11.457707936507946
12.790035023041476,2.342224964936869,-0.2593112135176332,11.540361904761921
12.798033794162828,2.2545862552594427,-0.10200204813103642,11.623015873015895
12.806032565284179,-0.43372672811066504,2.7052016897082387,11.61151474654369
12.814031336405531,-0.6229847926267312,3.1231059422750604,11.28533077855929
