gyro_time_list,gyro_x_list,gyro_y_list,gyro_z_list
0.0,-0.1,0.0,0.0
0.007999390243902438,1.1430963712076145,0.2959354550862582,0.18780636525877456
0.015998780487804877,1.0520464009518145,0.28943188578227247,0.16829565734681737
0.023998170731707315,0.9609964306960143,0.2829283164782867,0.1487849494348602
0.031997560975609754,0.8699464604402142,0.276424747174301,0.12927424152290304
0.03999695121951219,0.7788964901844142,0.2699211778703153,0.10976353361094589
0.04799634146341463,0.687846519928614,0.26341760856632956,0.09025282569898871
0.05599573170731707,0.5967965496728138,0.25691403926234385,0.07074211778703152
0.06399512195121951,0.5057465794170137,0.25041046995835814,0.05123140987507435
0.07199451219512194,0.41469660916121376,0.2439069006543724,0.031720701963117215
0.07999390243902438,0.3236466389054137,0.2374033313503867,0.01220999405116005
0.08799329268292683,0.23259666864961348,0.23089976204640095,-0.007300713860797142
0.09599268292682926,0.1415466983938134,0.22439619274241523,-0.026811421772754307
0.1039920731707317,0.050496728138013314,0.21789262343842952,-0.04632212968471147
0.11199146341463415,-0.04055324211778699,0.21138905413444378,-0.06583283759666869
0.11999085365853658,-0.13160321237358708,0.20488548483045807,-0.08534354550862583
0.12799024390243902,-0.39902439024390135,0.0009756097560986721,0.09902439024390133
0.13598963414634146,-0.0030506470881035285,-0.0030506470881035285,0.0
0.14398902439024389,-0.011213290194126407,-0.011213290194126407,0.0
0.15198841463414633,-0.019375933300149313,-0.019375933300149313,0.0
0.15998780487804876,-0.027538576406172192,-0.027538576406172192,0.0
0.1679871951219512,-0.0357012195121951,-0.0357012195121951,0.0
0.17598658536585365,-0.04386386261821801,-0.04386386261821801,0.0
0.18398597560975608,-0.05202650572424089,-0.05202650572424089,0.0
0.19198536585365852,-0.06018914883026379,-0.06018914883026379,0.0
0.19998475609756097,-0.0683517919362867,-0.0683517919362867,0.0
0.2079841463414634,-0.07651443504230958,-0.07651443504230958,0.0
0.21598353658536584,-0.08467707814833249,-0.08467707814833249,0.0
0.2239829268292683,-0.0928397212543554,-0.0928397212543554,0.0
0.2319823170731707,-0.001768292682929884,-0.1,0.09823170731707012
0.23998170731707316,0.09899825783972126,0.0,0.09899825783972126
0.24798109756097558,0.09083561473369839,0.0,0.09083561473369839
0.25598048780487803,0.08267297162767548,0.0,0.08267297162767548
0.2639798780487805,0.07451032852165257,0.0,0.07451032852165257
0.27197926829268293,0.06634768541562966,0.0,0.06634768541562966
0.2799786585365853,0.05818504230960682,0.0,0.05818504230960682
0.28797804878048777,0.05002239920358391,0.0,0.05002239920358391
0.2959774390243902,0.041859756097561006,0.0,0.041859756097561006
0.30397682926829267,0.0336971129915381,0.0,0.0336971129915381
0.3119762195121951,0.025534469885515193,0.0,0.025534469885515193
0.3199756097560975,0.017371826779492353,0.0,0.017371826779492353
0.32797499999999996,0.009209183673469443,0.0,0.009209183673469443
0.3359743902439024,0.0010465405674465328,0.0,0.0010465405674465328
0.34397378048780486,0.0,0.0,0.0
0.3519731707317073,-0.09224263541336711,0.0,-0.0077573645866328995
0.35997256097560976,-0.0818538169147925,0.0,-0.018146183085207507
0.36797195121951215,-0.07146499841621796,0.0,-0.02853500158378204
0.3759713414634146,-0.06107617991764336,0.0,-0.03892382008235665
0.38397073170731705,-0.05068736141906875,0.0,-0.04931263858093125
0.3919701219512195,-0.040298542920494146,0.0,-0.05970145707950586
0.39996951219512195,-0.02990972442191954,0.0,-0.07009027557808047
0.40796890243902434,-0.019520905923345003,0.0,-0.080479094076655
0.4159682926829268,-0.009132087424770396,0.0,-0.09086791257522961
0.42396768292682924,-0.019353658536584977,0.0,-0.08064634146341502
0.4319670731707317,-0.1,0.0,0.0
0.43996646341463413,-0.11436384209202916,0.0,0.0
0.4479658536585366,-0.13085743022378676,0.0,0.0
0.455965243902439,-0.1473510183555443,0.0,0.0
0.4639646341463414,-0.1638446064873019,0.0,0.0
0.4719640243902439,-0.18033819461905953,0.0,0.0
0.4799634146341463,-0.19683178275081714,0.0,0.0
0.4879628048780488,-0.21332537088257475,0.0,0.0
0.49596219512195117,-0.22981895901433227,0.0,0.0
0.5039615853658537,-0.24631254714609002,0.0,0.0
0.5119609756097561,-0.2628061352778475,0.0,0.0
0.5199603658536585,-0.279299723409605,0.0,0.0
0.527959756097561,-0.2957933115413628,0.0,0.0
0.5359591463414634,-0.7918292682926646,0.0,0.2
0.5439585365853659,-0.8173011664899258,0.0,0.20865058324496286
0.5519579268292683,-0.834691145281018,0.0,0.21734557264050894
0.5599573170731706,-0.8520811240721101,0.0,0.22604056203605502
0.5679567073170732,-0.8694711028632025,0.0,0.23473555143160124
0.5759560975609755,-0.8868610816542947,0.0,0.24343054082714732
0.583955487804878,-0.9042510604453871,0.0,0.2521255302226935
0.5919548780487804,-0.9216410392364792,0.0,0.2608205196182396
0.5999542682926828,-0.9390310180275714,0.0,0.2695155090137857
0.6079536585365853,-0.9564209968186638,0.0,0.2782104984093319
0.6159530487804877,-0.9738109756097559,0.0,0.28690548780487796
0.6239524390243902,-0.9912009544008483,0.0,0.29560047720042415
0.6319518292682926,-1.347591463414631,0.14759146341463125,0.4
0.639951219512195,-1.4,0.3,0.4
0.6479506097560975,-1.4,0.3,0.4
0.6559499999999999,-1.4,0.3,0.4
0.6639493902439024,-1.4,0.3,0.4
0.6719487804878048,-1.4,0.3,0.4
0.6799481707317073,-1.4,0.3,0.4
0.6879475609756097,-1.4,0.3,0.4
0.6959469512195121,-1.4,0.3,0.4
0.7039463414634146,-1.4,0.3,0.4
0.711945731707317,-1.4,0.3,0.4
0.7199451219512195,-1.4,0.3,0.4
0.7279445121951219,-1.4,0.3,0.4
0.7359439024390243,-1.4,0.3,0.4
0.7439432926829268,-1.4,0.3882588075880757,0.4
0.7519426829268292,-1.578853658536584,0.4,0.539426829268292
0.7599420731707317,-1.7029878048780487,0.4,0.6
0.7679414634146341,-1.715294559099437,0.4,0.6
0.7759408536585365,-1.7276013133208254,0.4,0.6
0.783940243902439,-1.7399080675422138,0.4,0.6
0.7919396341463414,-1.7522148217636022,0.4,0.6
0.7999390243902439,-1.7645215759849906,0.4,0.6
0.8079384146341463,-1.776828330206379,0.4,0.6
0.8159378048780487,-1.7891350844277674,0.4,0.6
0.8239371951219512,-1.8937195121951227,0.4,0.6937195121951227
0.8319365853658536,-3.0723902439024338,0.4,1.0574634146341446
0.8399359756097561,-3.230826558265583,0.39229336043360435,1.1154132791327915
0.8479353658536585,-3.266379403794038,0.3834051490514906,1.133189701897019
0.8559347560975609,-3.301932249322493,0.3745169376693768,1.1509661246612466
0.8639341463414634,-3.3374850948509485,0.36562872628726295,1.1687425474254742
0.8719335365853658,-3.3730379403794037,0.35674051490514913,1.1865189701897019
0.8799329268292683,-3.408590785907859,0.34785230352303526,1.2042953929539295
0.8879323170731707,-3.4441436314363143,0.3389640921409215,1.2220718157181572
0.8959317073170732,-3.4796964769647696,0.3300758807588076,1.2398482384823848
0.9039310975609756,-3.515249322493225,0.32118766937669385,1.2576246612466124
0.911930487804878,-3.5508021680216797,0.3122994579945801,1.2754010840108398
0.9199298780487805,-3.5863550135501354,0.3034112466124662,1.2931775067750677
0.9279292682926829,-3.8327439024390233,0.4,1.5327439024390235
0.9359286585365854,-3.8994054878048776,0.4,1.5994054878048776
0.9439280487804877,-3.8783382471187346,0.8108308764406326,1.6945845617796838
0.9519274390243901,-3.8431760922004825,0.8284119538997586,1.6857940230501207
0.9599268292682926,-3.80801393728223,0.845993031358885,1.6770034843205575
0.967926219512195,-3.772851782363978,0.8635741088180111,1.6682129455909944
0.9759256097560975,-3.7376896274457247,0.8811551862771375,1.6594224068614312
0.9839249999999999,-3.7025274725274726,0.8987362637362637,1.6506318681318681
0.9919243902439023,-3.6673653176092205,0.9163173411953898,1.641841329402305
0.9999237804878048,-3.632203162690968,0.9338984186545162,1.633050790672742
1.0079231707317073,-3.597041007772715,0.9514794961136425,1.6242602519431788
1.0159225609756097,-3.5618788528544627,0.9690605735727686,1.6154697132136158
1.0239219512195121,-3.5267166979362106,0.9866416510318947,1.6066791744840527
1.0319213414634145,-2.5314634146341586,1.0460670731707302,1.5
1.039920731707317,-2.1230631276900995,1.0961561453849835,1.6038438546150167
1.0479201219512195,-2.1701183644189386,1.088313605930177,1.6116863940698232
1.055919512195122,-2.2171736011477763,1.0804710664753707,1.6195289335246295
1.0639189024390243,-2.2642288378766136,1.0726285270205644,1.6273714729794357
1.0719182926829267,-2.3112840746054513,1.0647859875657582,1.635214012434242
1.079917682926829,-2.358339311334289,1.0569434481109519,1.643056551889048
1.0879170731707317,-2.405394548063128,1.0491009086561454,1.6508990913438546
1.0959164634146341,-2.4524497847919657,1.041258369201339,1.6587416307986609
1.1039158536585365,-2.4995050215208034,1.0334158297465328,1.6665841702534672
1.111915243902439,-2.546560258249641,1.0255732902917265,1.6744267097082735
1.1199146341463413,-2.593615494978479,1.0177307508369202,1.6822692491630797
1.127914024390244,-2.640670731707318,1.0098882113821137,1.6901117886178862
1.1359134146341463,-2.6877259684361556,1.0020456719273074,1.6979543280726925
1.1439128048780487,-3.3,0.7635899390243915,1.9364100609756085
1.151912195121951,-3.3,0.6635975609756117,2.0364024390243882
1.1599115853658535,-3.201111689470553,0.398888310529447,2.301111689470553
1.167910975609756,-3.210867043426532,0.38913295657346825,2.3108670434265317
1.1759103658536585,-3.2206223973825105,0.3793776026174897,2.32062239738251
1.1839097560975609,-3.230377751338489,0.36962224866151117,2.3303777513384887
1.1919091463414633,-3.2401331052944675,0.3598668947055327,2.340133105294467
1.1999085365853657,-3.249888459250446,0.35011154074955414,2.3498884592504456
1.2079079268292683,-3.2596438132064245,0.3403561867935754,2.3596438132064246
1.2159073170731707,-3.269399167162403,0.33060083283759684,2.369399167162403
1.223906707317073,-3.2791545211183815,0.3208454788816183,2.3791545211183815
1.2319060975609755,-3.28890987507436,0.3110901249256398,2.38890987507436
1.2399054878048779,-3.2986652290303384,0.30133477096966127,2.3986652290303385
1.2479048780487805,-4.056195121951215,-0.0780975609756078,2.6
1.2559042682926829,-3.8523196138211375,-0.1,2.486377032520325
1.2639036585365853,-3.774547764227642,-0.1,2.464156504065041
1.2719030487804877,-3.696775914634147,-0.1,2.441935975609756
1.27990243902439,-3.6190040650406514,-0.1,2.4197154471544717
1.2879018292682927,-3.541232215447154,-0.1,2.397494918699187
1.295901219512195,-3.4634603658536585,-0.1,2.375274390243902
1.3039006097560975,-3.385688516260163,-0.1,2.353053861788618
1.3118999999999998,-3.3079166666666677,-0.1,2.3308333333333335
1.3198993902439025,-3.23014481707317,-0.1,2.3086128048780483
1.3278987804878049,1.1044512195122027,0.5898780487804894,0.8753048780487764
1.3358981707317072,1.6211168491786958,0.7070389497262319,0.5718442010950723
1.3438975609756096,1.6456047784967645,0.7152015928322547,0.539193628670981
1.351896951219512,1.6700927078148329,0.7233642359382776,0.5065430562468896
1.3598963414634146,1.694580637132902,0.7315268790443007,0.4738924838227973
1.367895731707317,1.7190685664509706,0.7396895221503235,0.44124191139870594
1.3758951219512194,1.743556495769039,0.7478521652563463,0.4085913389746145
1.3838945121951218,1.7680444250871077,0.7560148083623692,0.3759407665505232
1.3918939024390242,1.792532354405176,0.7641774514683921,0.34329019412643186
1.3998932926829268,1.8170202837232452,0.7723400945744151,0.31063962170233955
1.4078926829268292,1.8415082130413138,0.780502737680438,0.2779890492782482
1.4158920731707316,1.8659961423593823,0.7886653807864609,0.24533847685415683
1.423891463414634,1.890484071677451,0.7968280238924836,0.21268790443006547
1.4318908536585364,0.33638211382117755,0.31455284552847096,-0.2927235772357645
1.439890243902439,0.4036700414173954,0.1,-0.5
1.4478896341463414,0.4112166359871146,0.1,-0.5
1.4558890243902438,0.41876323055683384,0.1,-0.5
1.4638884146341462,0.4263098251265531,0.1,-0.5
1.4718878048780486,0.4338564196962723,0.1,-0.5
1.4798871951219512,0.4414030142659917,0.1,-0.5
1.4878865853658536,0.448949608835711,0.1,-0.5
1.495885975609756,0.4564962034054302,0.1,-0.5
1.5038853658536584,0.4640427979751494,0.1,-0.5
1.5118847560975608,0.47158939254486865,0.1,-0.5
1.5198841463414634,0.4791359871145881,0.1,-0.5
1.5278835365853658,0.48668258168430734,0.1,-0.5
1.5358829268292682,0.49422917625402657,0.1,-0.5
1.5438823170731706,0.5,0.005884146341472718,-0.40588414634147274
1.551881707317073,0.5875745257452558,0.0,-0.3124254742547441
1.5598810975609756,0.39420731707317086,0.0,-0.2
1.567880487804878,0.38226792864943593,0.0,-0.2
1.5758798780487804,0.370328540225701,0.0,-0.2
1.5838792682926828,0.35838915180196607,0.0,-0.2
1.5918786585365852,0.34644976337823113,0.0,-0.2
1.5998780487804878,0.33451037495449587,0.0,-0.2
1.6078774390243902,0.32257098653076094,0.0,-0.2
1.6158768292682926,0.310631598107026,0.0,-0.2
1.623876219512195,0.3,0.0,-0.2
1.6318756097560974,0.4645934959349577,0.0645934959349577,-0.2645934959349577
1.639875,0.5,0.1,-0.30638586956521746
1.6478743902439024,0.5,0.1,-0.31508085896076354
1.6558737804878048,0.5,0.1,-0.3237758483563096
1.6638731707317072,0.5,0.1,-0.3324708377518557
1.6718725609756095,0.5,0.1,-0.34116582714740173
1.6798719512195122,0.5,0.1,-0.3498608165429481
1.6878713414634146,0.5,0.1,-0.3585558059384942
1.695870731707317,0.5,0.1,-0.36725079533404026
1.7038701219512193,0.5,0.1,-0.3759457847295863
1.7118695121951217,0.5,0.1,-0.38464077412513237
1.7198689024390243,0.5,0.1,-0.39333576352067867
1.7278682926829267,0.3826341463414666,0.1,-0.5
1.7358676829268291,-0.10102080344332828,0.0,-0.39897919655667174
1.7438670731707315,-0.11043185078909581,0.0,-0.3895681492109042
1.751866463414634,-0.11984289813486335,0.0,-0.3801571018651367
1.7598658536585365,-0.12925394548063113,0.0,-0.3707460545193689
1.767865243902439,-0.13866499282639866,0.0,-0.36133500717360134
1.7758646341463413,-0.1480760401721662,0.0,-0.3519239598278338
1.7838640243902437,-0.1574870875179337,0.0,-0.3425129124820663
1.7918634146341463,-0.16689813486370147,0.0,-0.3331018651362985
1.7998628048780487,-0.176309182209469,0.0,-0.323690817790531
1.8078621951219511,-0.18572022955523654,0.0,-0.31427977044476346
1.8158615853658535,-0.19513127690100407,0.0,-0.30486872309899593
1.823860975609756,0.0,0.0,-0.1
1.8318603658536585,0.0,0.0,-0.097249648217636
1.839859756097561,0.0,0.0,-0.08955792682926833
1.8478591463414633,0.0,0.0,-0.08186620544090065
1.8558585365853657,0.0,0.0,-0.07417448405253296
1.863857926829268,0.0,0.0,-0.06648276266416528
1.8718573170731707,0.0,0.0,-0.05879104127579739
1.879856707317073,0.0,0.0,-0.05109931988742971
1.8878560975609755,0.0,0.0,-0.04340759849906203
1.895855487804878,0.0,0.0,-0.03571587711069435
1.9038548780487803,0.0,0.0,-0.028024155722326666
1.911854268292683,0.0,0.0,-0.020332434333958774
1.9198536585365853,0.0,0.0,-0.012640712945591104
1.9278530487804877,0.0,0.0,-0.00494899155722342
1.93585243902439,-0.10947154471544487,0.0,0.009471544715444867
1.9438518292682925,-0.1983536585365836,0.0,0.0983536585365836
1.951851219512195,-0.3,-0.1,0.1
1.9598506097560975,-0.3,-0.1,0.1
1.9678499999999999,-0.3,-0.1,0.1
1.9758493902439023,-0.3,-0.1,0.1
1.9838487804878047,-0.3,-0.1,0.1
1.9918481707317073,-0.3,-0.1,0.1
1.9998475609756097,-0.3,-0.1,0.1
2.007846951219512,-0.3,-0.1,0.1
2.0158463414634147,-0.3,-0.1,0.1
2.023845731707317,-0.3,-0.1,0.1
2.0318451219512195,-0.3,-0.1,0.1
2.039844512195122,-0.09683943089430895,0.0,0.1
2.0478439024390243,-0.08795121951219517,0.0,0.1
2.0558432926829266,-0.07906300813008138,0.0,0.1
2.063842682926829,-0.0701747967479676,0.0,0.1
2.0718420731707314,-0.06128658536585382,0.0,0.1
2.079841463414634,-0.05239837398374003,0.0,0.1
2.0878408536585367,-0.043510162601625754,0.0,0.1
2.095840243902439,-0.03462195121951196,0.0,0.1
2.1038396341463415,-0.025733739837398184,0.0,0.1
2.111839024390244,-0.016845528455284392,0.0,0.1
2.1198384146341462,-0.007957317073170614,0.0,0.1
2.1278378048780486,-0.08378048780485736,0.0,0.016219512195142644
2.135837195121951,0.0019969512195120954,0.0,0.0
2.1438365853658534,0.010691940615058168,0.0,0.0
2.151835975609756,0.01938693001060424,0.0,0.0
2.159835365853658,0.02808191940615031,0.0,0.0
2.167834756097561,0.036776908801696866,0.0,0.0
2.1758341463414634,0.04547189819724294,0.0,0.0
2.183833536585366,0.05416688759278901,0.0,0.0
2.1918329268292682,0.06286187698833508,0.0,0.0
2.1998323170731706,0.07155686638388116,0.0,0.0
2.207831707317073,0.08025185577942723,0.0,0.0
2.2158310975609754,0.0889468451749733,0.0,0.0
2.223830487804878,0.09764183457051938,0.0,0.0
2.23182987804878,0.0,-0.1,-0.1
2.2398292682926826,0.0,-0.1,-0.1
2.2478286585365854,0.0,-0.1,-0.1
2.255828048780488,0.0,-0.1,-0.1
2.26382743902439,0.0,-0.1,-0.1
2.2718268292682926,0.0,-0.1,-0.1
2.279826219512195,0.0,-0.1,-0.1
2.2878256097560974,0.0,-0.1,-0.1
2.295825,0.0,-0.1,-0.1
2.303824390243902,0.0,-0.1,-0.1
2.3118237804878046,0.0,-0.1,-0.1
2.319823170731707,0.0,-0.1,-0.1
2.32782256097561,0.0,-0.1,-0.1
2.335821951219512,0.0,-0.1,-0.1
2.3438213414634146,0.05357046070460749,-0.046429539295392515,-0.1
2.351820731707317,0.1,0.0,-0.1
2.3598201219512194,0.01798780487805217,0.0,0.0
2.3678195121951218,-0.011847745750184633,0.0,0.0
2.375818902439024,-0.023968033998521543,0.0,0.0
2.3838182926829266,-0.03608832224685845,0.0,0.0
2.391817682926829,-0.048208610495195356,0.0,0.0
2.3998170731707313,-0.06032889874353227,0.0,0.0
2.407816463414634,-0.07244918699186985,0.0,0.0
2.4158158536585366,-0.08456947524020675,0.0,0.0
2.423815243902439,-0.09668976348854366,0.0,0.0
2.4318146341463414,-0.1,-0.1,0.0
2.4398140243902438,-0.1,-0.09131775067750686,0.0
2.447813414634146,-0.1,-0.08242953929539308,0.0
2.4558128048780485,-0.1,-0.0735413279132793,0.0
2.463812195121951,-0.1,-0.06465311653116551,0.0
2.4718115853658533,-0.1,-0.055764905149051726,0.0
2.4798109756097557,-0.1,-0.04687669376693794,0.0
2.4878103658536586,-0.1,-0.03798848238482366,0.0
2.495809756097561,-0.1,-0.02910027100270987,0.0
2.5038091463414633,-0.1,-0.020212059620596093,0.0
2.5118085365853657,-0.1,-0.011323848238482315,0.0
2.519807926829268,-0.1,-0.0024356368563685227,0.0
2.5278073170731705,-0.05321138211382491,0.0,0.1
2.535806707317073,0.002724958560265042,0.0,0.1
2.5438060975609753,0.010491356855315895,0.0,0.1
2.5518054878048777,0.018257755150366747,0.0,0.1
2.55980487804878,0.0260241534454176,0.0,0.1
2.567804268292683,0.03379055174046888,0.0,0.1
2.5758036585365853,0.041556950035519735,0.0,0.1
2.5838030487804877,0.04932334833057059,0.0,0.1
2.59180243902439,0.05708974662562144,0.0,0.1
2.5998018292682925,0.06485614492067229,0.0,0.1
2.607801219512195,0.07262254321572315,0.0,0.1
2.6158006097560973,0.080388941510774,0.0,0.1
2.6237999999999997,0.08815533980582485,0.0,0.1
2.631799390243902,0.0959217381008757,0.0,0.1
2.639798780487805,0.060060975609748046,0.0,0.23993902439025197
2.6477981707317073,-0.1,-0.1,0.3
2.6557975609756097,-0.1,-0.1,0.3
2.663796951219512,-0.1,-0.1,0.3
2.6717963414634145,-0.1,-0.1,0.3
2.679795731707317,-0.1,-0.1,0.3
2.6877951219512193,-0.1,-0.1,0.3
2.6957945121951217,-0.1,-0.1,0.3
2.703793902439024,-0.1,-0.1,0.3
2.7117932926829265,-0.1,-0.1,0.3
2.7197926829268293,-0.1,-0.1,0.3
2.7277920731707317,-0.2,-0.1,0.22079268292684429
2.735791463414634,-0.09506034699522246,-0.09506034699522246,0.0
2.7437908536585365,-0.0868135529293437,-0.0868135529293437,0.0
2.751790243902439,-0.07856675886346495,-0.07856675886346495,0.0
2.7597896341463413,-0.07031996479758619,-0.07031996479758619,0.0
2.7677890243902437,-0.06207317073170743,-0.06207317073170743,0.0
2.775788414634146,-0.05382637666582867,-0.05382637666582867,0.0
2.7837878048780484,-0.04557958259994992,-0.04557958259994992,0.0
2.791787195121951,-0.037332788534071154,-0.037332788534071154,0.0
2.7997865853658537,-0.029085994468191934,-0.029085994468191934,0.0
2.807785975609756,-0.020839200402313185,-0.020839200402313185,0.0
2.8157853658536585,-0.012592406336434422,-0.012592406336434422,0.0
2.823784756097561,-0.00434561227055566,-0.00434561227055566,0.0
2.8317841463414632,0.1,0.0,0.0
2.8397835365853656,-0.00498285060975591,0.0,0.0
2.847782926829268,-0.013315548780487563,0.0,0.0
2.8557823170731704,-0.021648246951219217,0.0,0.0
2.863781707317073,-0.02998094512195087,0.0,0.0
2.871781097560975,-0.038313643292682525,0.0,0.0
2.879780487804878,-0.04664634146341464,0.0,0.0
2.8877798780487804,-0.05497903963414629,0.0,0.0
2.895779268292683,-0.06331173780487795,0.0,0.0
2.9037786585365852,-0.0716444359756096,0.0,0.0
2.9117780487804876,-0.07997713414634125,0.0,0.0
2.91977743902439,-0.0883098323170729,0.0,0.0
2.9277768292682924,-0.09664253048780456,0.0,0.0
2.935776219512195,-0.27762195121948385,-0.0776219512194839,0.0
2.943775609756097,-0.511324725011955,-0.10566236250597749,0.0
2.9517749999999996,-0.5270098039215675,-0.11350490196078378,0.0
2.9597743902439024,-0.542694882831181,-0.12134744141559049,0.0
2.967773780487805,-0.5583799617407935,-0.12918998087039676,0.0
2.975773170731707,-0.5740650406504061,-0.13703252032520305,0.0
2.9837725609756096,-0.5897501195600187,-0.1448750597800093,0.0
2.991771951219512,-0.6054351984696311,-0.1527175992348156,0.0
2.9997713414634144,-0.6211202773792437,-0.16056013868962188,0.0
3.007770731707317,-0.6368053562888563,-0.16840267814442816,0.0
3.015770121951219,-0.6524904351984688,-0.17624521759923445,0.0
3.0237695121951216,-0.6681755141080814,-0.18408775705404073,0.0
3.031768902439024,-0.683860593017694,-0.191930296508847,0.0
3.039768292682927,-0.6995456719273073,-0.1997728359636537,0.0
3.047767682926829,-1.1230640243902439,-0.3230640243902439,-0.22306402439024392
3.0557670731707316,-1.189725609756097,-0.38972560975609716,-0.2897256097560971
3.063766463414634,-1.2208198874296432,-0.4,-0.3104099437148216
3.0717658536585364,-1.2454333958724197,-0.4,-0.32271669793620994
3.0797652439024388,-1.2700469043151965,-0.4,-0.3350234521575982
3.087764634146341,-1.294660412757973,-0.4,-0.34733020637898654
3.0957640243902436,-1.3192739212007496,-0.4,-0.35963696060037487
3.103763414634146,-1.3438874296435261,-0.4,-0.3719437148217632
3.111762804878049,-1.3685009380863042,-0.4,-0.3842504690431522
3.119762195121951,-1.3931144465290808,-0.4,-0.39655722326454046
3.1277615853658536,-1.4,-0.3279801829268289,-0.4
3.135760975609756,-1.0,-0.3,-0.3
3.1437603658536584,-0.9856162428645566,-0.2928081214322783,-0.3
3.1517597560975608,-0.9685962636222112,-0.2842981318111055,-0.3
3.159759146341463,-0.9515762843798656,-0.2757881421899328,-0.3
3.1677585365853655,-0.9345563051375201,-0.26727815256876003,-0.3
3.175757926829268,-0.9175363258951745,-0.25876816294758725,-0.3
3.1837573170731703,-0.900516346652829,-0.2502581733264145,-0.3
3.191756707317073,-0.8834963674104825,-0.24174818370524123,-0.3
3.1997560975609756,-0.866476388168137,-0.23323819408406848,-0.3
3.207755487804878,-0.8494564089257914,-0.2247282044628957,-0.3
3.2157548780487804,-0.8324364296834459,-0.21621821484172293,-0.3
3.2237542682926827,-0.8154164504411003,-0.20770822522055016,-0.3
3.231753658536585,-0.4231707317074926,-0.2,-0.22463414634149853
3.2397530487804875,1.2032012195121946,0.1032012195121947,0.0032012195121946946
3.24775243902439,1.212502836074872,0.11250283607487192,0.012502836074871912
3.2557518292682923,1.221804452637549,0.12180445263754913,0.02180445263754913
3.2637512195121947,1.2311060692002262,0.13110606920022636,0.03110606920022635
3.2717506097560975,1.240407685762904,0.14040768576290408,0.040407685762904086
3.27975,1.2497093023255812,0.1497093023255813,0.0497093023255813
3.2877493902439023,1.2590109188882586,0.15901091888825852,0.05901091888825852
3.2957487804878047,1.2683125354509357,0.16831253545093575,0.06831253545093574
3.303748170731707,1.277614152013613,0.17761415201361297,0.07761415201361295
3.3117475609756095,1.2869157685762902,0.18691576857629016,0.08691576857629017
3.319746951219512,1.2962173851389673,0.19621738513896742,0.0962173851389674
3.3277463414634143,0.0880487804878606,0.06268292682928686,0.6746341463414263
3.3357457317073167,-0.11909169351127319,0.0,0.8063638978370911
3.343745121951219,-0.14173147722043095,0.0,0.8139104924068103
3.351744512195122,-0.16437126092958992,0.0,0.82145708697653
3.3597439024390243,-0.18701104463874768,0.0,0.8290036815462493
3.3677432926829267,-0.20965082834790544,0.0,0.8365502761159685
3.375742682926829,-0.2322906120570632,0.0,0.8440968706856877
3.3837420731707315,-0.2549303957662209,0.0,0.851643465255407
3.391741463414634,-0.27757017947537865,0.0,0.8591900598251262
3.3997408536585363,-0.3002099631845364,0.0,0.8667366543948455
3.4077402439024387,-0.32284974689369417,0.0,0.8742832489645648
3.415739634146341,-0.3454895306028519,0.0,0.881829843534284
3.4237390243902435,-0.3681293143120097,0.0,0.8893764381040032
3.4317384146341463,-0.39076909802116866,0.0,0.8969230326737229
3.4397378048780487,-0.7782229965156806,-0.1,0.9391114982578403
3.447737195121951,-0.917382302892796,-0.09130884855360202,0.991308848553602
3.4557365853658535,-0.9545887691435047,-0.07270561542824769,0.9727056154282477
3.463735975609756,-0.9917952353942133,-0.05410238230289335,0.9541023823028933
3.4717353658536583,-1.029001701644922,-0.035499149177539005,0.9354991491775391
3.4797347560975607,-1.0662081678956308,-0.01689591605218467,0.9168959160521847
3.487734146341463,-1.136707317073148,-0.018353658536573985,0.881646341463426
3.4957335365853655,-1.2755161900756964,-0.1,0.8
3.503732926829268,-1.2341400336417183,-0.1,0.8
3.5117323170731707,-1.192763877207738,-0.1,0.8
3.519731707317073,-1.15138772077376,-0.1,0.8
3.5277310975609755,-1.110011564339782,-0.1,0.8
3.535730487804878,-1.068635407905804,-0.1,0.8
3.5437298780487803,-1.027259251471826,-0.1,0.8
3.5517292682926827,-1.0729268292682637,-0.11353658536586826,0.7
3.559728658536585,-0.980784094812781,-0.0961568189625562,0.6
3.5677280487804874,-0.9244503607007925,-0.08489007214015849,0.6
3.57572743902439,-0.8681166265888038,-0.07362332531776078,0.6
3.5837268292682927,-0.8117828924768122,-0.06235657849536245,0.6
3.591726219512195,-0.7554491583648237,-0.05108983167296474,0.6
3.5997256097560975,-0.6991154242528351,-0.03982308485056703,0.6
3.607725,-0.6427816901408465,-0.02855633802816933,0.6
3.6157243902439022,-0.586447956028858,-0.017289591205771615,0.6
3.6237237804878046,-0.5301142219168695,-0.0060228443833739015,0.6
3.631723170731707,0.13615853658535823,0.13615853658535823,0.3638414634146418
3.6397225609756094,-0.1,0.19921460763520693,0.4
3.647721951219512,-0.1,0.19051961823966085,0.4
3.655721341463414,-0.1,0.1818246288441148,0.4
3.663720731707317,-0.1,0.17312963944856824,0.4
3.6717201219512194,-0.1,0.16443465005302216,0.4
3.679719512195122,-0.1,0.15573966065747608,0.4
3.6877189024390242,-0.1,0.14704467126193002,0.4
3.6957182926829266,-0.1,0.13834968186638394,0.4
3.703717682926829,-0.1,0.12965469247083788,0.4
3.7117170731707314,-0.1,0.1209597030752918,0.4
3.719716463414634,-0.1,0.11226471367974573,0.4
3.727715853658536,-0.1,0.10356972428419965,0.4
3.7357152439024386,0.12847560975615907,0.014237804878079532,0.12847560975615907
3.7437146341463414,-0.006851667496266667,-0.10685166749626668,-0.11370333499253334
3.751714024390244,-0.015014310602289528,-0.11501431060228953,-0.13002862120457906
3.759713414634146,-0.02317695370831239,-0.1231769537083124,-0.1463539074166248
3.7677128048780486,-0.03133959681433525,-0.13133959681433527,-0.1626791936286705
3.775712195121951,-0.03950223992035811,-0.13950223992035812,-0.1790044798407162
3.7837115853658534,-0.04766488302638097,-0.14766488302638098,-0.19532976605276195
3.791710975609756,-0.05582752613240383,-0.15582752613240383,-0.21165505226480769
3.799710365853658,-0.0639901692384267,-0.1639901692384267,-0.2279803384768534
3.8077097560975606,-0.07215281234444956,-0.17215281234444957,-0.24430562468889913
3.815709146341463,-0.08031545545047242,-0.18031545545047242,-0.2606309109009448
3.823708536585366,-0.08847809855649573,-0.18847809855649572,-0.27695619711299146
3.831707926829268,-0.0966407416625186,-0.1966407416625186,-0.29328148332503723
3.8397073170731706,0.39193245778610514,0.11313320825515788,-0.8131332082551579
3.847706707317073,0.8226688555346988,0.17466697936209985,-0.8746669793620998
3.8557060975609754,2.0360813008130023,0.3060135501355004,-0.6879728997289992
3.8637054878048778,2.1427398373983677,0.32378997289972794,-0.652420054200544
3.87170487804878,2.249398373983733,0.3415663956639555,-0.6168672086720889
3.8797042682926826,2.3560569105690985,0.3593428184281831,-0.5813143631436337
3.887703658536585,2.462715447154464,0.3771192411924107,-0.5457615176151787
3.8957030487804873,2.5693739837398297,0.3948956639566382,-0.5102086720867235
3.90370243902439,1.3946341463414766,-0.2175609756097539,-0.01756097560975388
3.9117018292682926,0.29692180145485725,-0.4006156397090286,-0.20184691912708563
3.919701219512195,0.2618367565254609,-0.40763264869490784,-0.22289794608472346
3.9277006097560974,0.22675171159606455,-0.4146496576807871,-0.2439489730423613
3.9356999999999998,0.19166666666666818,-0.42166666666666636,-0.2649999999999991
3.943699390243902,0.1565816217372718,-0.42868367565254567,-0.2860510269576369
3.9516987804878045,0.12149657680787546,-0.43570068463842493,-0.30710205391527473
3.959698170731707,0.08641153187847908,-0.4427176936243042,-0.32815308087291256
3.9676975609756093,0.051326486949082706,-0.44973470261018345,-0.34920410783055034
3.9756969512195117,0.01624144201968636,-0.45675171159606276,-0.37025513478818817
3.9836963414634146,-0.018843602909711987,-0.4637687205819424,-0.3913061617458272
3.991695731707317,-0.053928647839108335,-0.47078572956782166,-0.412357188703465
3.9996951219512193,-0.08901369276850468,-0.4778027385537009,-0.4334082156611028
4.007694512195122,-0.12409873769790108,-0.48481974753958024,-0.45445924261874066
4.015693902439024,-0.1591837826272955,-0.4918367565254591,-0.47551026957637726
4.0236932926829265,-0.19426882755669378,-0.49885376551133875,-0.49656129653401626
4.031692682926829,-0.4938536585365866,-0.40614634146341344,-1.0815609756097597
4.039692073170731,-0.28221227134146404,-0.4,-1.3059292428861786
4.047691463414634,-0.2572141768292677,-0.4,-1.3142619410569107
4.055690853658536,-0.23221608231707414,-0.4,-1.322594639227642
4.063690243902439,-0.20721798780487782,-0.4,-1.330927337398374
4.071689634146341,-0.18221989329268423,-0.4,-1.3392600355691053
4.079689024390244,-0.1572217987804879,-0.4,-1.3475927337398375
4.087688414634146,-0.13222370426829433,-0.4,-1.3559254319105685
4.0956878048780485,-0.10722560975609799,-0.4,-1.3642581300813006
4.103687195121951,-0.08222751524390165,-0.4,-1.3725908282520327
4.111686585365853,-0.057229420731708086,-0.4,-1.380923526422764
4.119685975609756,-0.03223132621951175,-0.4,-1.389256224593496
4.127685365853658,-0.007233231707318155,-0.4,-1.397588922764227
4.135684756097561,0.13152439024390944,-0.3,-1.163048780487819
4.143684146341463,0.20189229926007027,-0.2962154014798595,-0.8943231022197893
4.151683536585366,0.21088037818580385,-0.2782392436283923,-0.8673588654425886
4.159682926829268,0.2198684571115364,-0.2602630857769272,-0.8403946286653908
4.1676823170731705,0.22885653603727,-0.24228692792546003,-0.8134303918881901
4.175681707317073,0.23784461496300358,-0.2243107700739929,-0.7864661551109894
4.183681097560975,0.24683269388873613,-0.20633461222252775,-0.7595019183337917
4.191680487804878,0.2558207728144697,-0.18835845437106058,-0.7325376815565909
4.19967987804878,0.2648088517402023,-0.17038229651959544,-0.7055734447793931
4.207679268292683,0.27379693066593586,-0.1524061386681283,-0.6786092080021924
4.215678658536585,0.2827850095916684,-0.13442998081666316,-0.6516449712249948
4.223678048780488,0.291773088517402,-0.11645382296519602,-0.624680734447794
4.23167743902439,0.3096777003484245,-0.0903222996515755,-0.5709668989547264
4.2396768292682925,0.4,0.012898686679169685,-0.26130393996249096
4.247676219512194,0.4,0.07443245778610823,-0.07670262664167529
4.255675609756097,-0.00944005496393066,0.19763998625901735,0.7047200274819653
4.263675,-0.05450704225352373,0.18637323943661907,0.7272535211267618
4.271674390243902,-0.09957402954311179,0.17510649261422206,0.7497870147715558
4.279673780487805,-0.14464101683270486,0.1638397457918238,0.7723205084163524
4.287673170731707,-0.1897080041222929,0.15257299896942678,0.7948540020611464
4.29567256097561,-0.23477499141188599,0.14130625214702852,0.8173874957059429
4.303671951219512,-0.27984197870147404,0.1300395053246315,0.839920989350737
4.3116713414634145,-0.3249089659910671,0.11877275850223323,0.8624544829955335
4.319670731707316,-0.36997595328065513,0.10750601167983623,0.8849879766403276
4.327670121951219,-0.7835060975609536,0.18350609756095349,1.4505182926828604
4.335669512195122,-0.16108739837398567,0.2097281504065036,2.0902718495934964
4.343668902439024,-0.09442581300813552,0.22639354674796613,2.073606453252034
4.351668292682927,-0.027764227642277983,0.24305894308943052,2.0569410569105697
4.359667682926829,0.03889735772357214,0.25972433943089307,2.040275660569107
4.367667073170732,0.1055589430894297,0.2763897357723574,2.0236102642276426
4.375666463414634,0.17222052845527985,0.29305513211381995,2.00694486788618
4.3836658536585364,0.2388821138211374,0.30972052845528436,1.9902794715447156
4.391665243902438,0.3055436991869875,0.3263859247967469,1.9736140752032532
4.399664634146341,0.372205284552845,0.34305132113821124,1.9569486788617887
4.407664024390243,0.4388668699186952,0.3597167174796738,1.9402832825203262
4.415663414634146,0.5055284552845527,0.3763821138211382,1.9236178861788618
4.423662804878049,0.5721900406504103,0.3930475101626026,1.9069524898373973
4.431662195121951,1.5337804878049461,0.2675609756098924,0.30268292682967707
4.439661585365854,0.8404043645699633,-0.02383825417201473,-0.21191912708600738
4.447660975609756,0.7562002567394162,-0.057519897304233555,-0.2287599486521168
4.455660365853658,0.6719961489088597,-0.09120154043645612,-0.24560077021822807
4.46365975609756,0.5877920410783126,-0.12488318356867495,-0.26244159178433746
4.471659146341463,0.5035879332477563,-0.1585648267008975,-0.2792824133504488
4.479658536585365,0.41938382541720926,-0.19224646983311633,-0.2961232349165582
4.487657926829268,0.3351797175866529,-0.2259281129653389,-0.31296405648266945
4.495657317073171,0.25097560975609645,-0.2596097560975615,-0.3298048780487808
4.503656707317073,0.16677150192554935,-0.29329139922978026,-0.3466456996148901
4.511656097560976,0.08256739409499292,-0.32697304236200286,-0.36348652118100144
4.519655487804878,-0.001636713735554074,-0.3606546854942217,-0.3803273427471109
4.52765487804878,-0.0858408215661105,-0.39433632862644424,-0.3971681643132221
4.535654268292682,-1.2724912891986746,-0.9,0.01375435540066268
4.543653658536585,0.012582184517497456,-0.7928101802757158,0.5071898197242842
4.551653048780487,0.07344711028631629,-0.7580302226935336,0.5419697773064664
4.55965243902439,0.13431203605514186,-0.7232502651113475,0.5767497348886526
4.567651829268292,0.1951769618239607,-0.6884703075291654,0.6115296924708347
4.575651219512195,0.2560418875927863,-0.6536903499469793,0.6463096500530208
4.583650609756098,0.31690681336161186,-0.6189103923647932,0.6810896076352069
4.59165,0.37777173913043066,-0.5841304347826111,0.715869565217389
4.599649390243902,0.43863666489925623,-0.549350477200425,0.7506495227995751
4.607648780487804,0.4995015906680751,-0.5145705196182428,0.7854294803817572
4.615648170731707,0.5603665164369007,-0.47979056203605674,0.8202094379639433
4.623647560975609,0.6212314422057195,-0.4450106044538745,0.8549893955461255
4.631646951219512,0.6820963679745451,-0.4102306468716885,0.8897693531283115
4.639646341463414,0.756463414634137,-0.23060975609758885,1.0129268292682743
4.647645731707317,0.508341463414663,0.11874390243900279,1.0270853658536658
4.65564512195122,0.24665103189493162,0.2511163227016895,0.9488836772983106
4.6636445121951215,-0.06445121951218091,0.38222560975609043,0.8177743902439096
4.671643902439024,-0.12465774980330532,0.38767112509834734,0.7876711250983474
4.679643292682926,-0.15046223446105345,0.3747688827694733,0.7747688827694733
4.687642682926829,-0.1762667191188044,0.3618666404405978,0.7618666404405978
4.695642073170731,-0.20207120377655252,0.34896439811172375,0.7489643981117238
4.703641463414634,-0.22787568843430347,0.33606215578284826,0.7360621557828483
4.711640853658536,-0.2536801730920516,0.3231599134539742,0.7231599134539741
4.719640243902439,-0.2794846577498026,0.3102576711250987,0.7102576711250987
4.727639634146342,-0.4639634146341787,0.21801829268291067,0.7
4.7356390243902435,-0.6909756097560942,0.1045121951219529,0.6045121951219529
4.743638414634146,-1.1944115486335585,0.2,0.29441154863355845
4.751637804878048,-1.1847737290625922,0.2,0.28477372906259224
4.759637195121951,-1.175135909491625,0.2,0.27513590949162503
4.767636585365853,-1.1654980899206588,0.2,0.2654980899206588
4.775635975609756,-1.1558602703496916,0.2,0.2558602703496916
4.783635365853658,-1.1462224507787255,0.2,0.2462224507787254
4.791634756097561,-1.136584631207758,0.2,0.23658463120775816
4.799634146341463,-1.126946811636792,0.2,0.22694681163679198
4.8076335365853655,-1.1173089920658248,0.2,0.2173089920658247
4.815632926829268,-1.1076711724948576,0.2,0.20767117249485748
4.82363231707317,-1.1948475609754967,0.23161585365849888,0.16838414634150112
4.831631707317073,-1.4768891352549909,0.6033015521064299,0.0
4.839631097560975,-1.425983924611978,0.6105737250554316,0.0
4.847630487804878,-1.3750787139689598,0.6178458980044342,0.0
4.85562987804878,-1.3241735033259472,0.6251180709534361,0.0
4.863629268292683,-1.2732682926829288,0.6323902439024387,0.0
4.871628658536585,-1.2223630820399163,0.6396624168514405,0.0
4.8796280487804875,-1.171457871396898,0.6469345898004432,0.0
4.88762743902439,-1.1205526607538796,0.6542067627494458,0.0
4.895626829268292,-1.0696474501108668,0.6614789356984475,0.0
4.903626219512195,-1.0187422394678487,0.6687511086474501,0.0
4.911625609756097,-0.9678370288248359,0.676023281596452,0.0
4.919625,-0.9169318181818176,0.6832954545454546,0.0
4.927624390243902,-0.8660266075388049,0.6905676274944564,0.0
4.935623780487805,-0.8151213968957867,0.6978398004434591,0.0
4.943623170731707,2.2557926829267068,0.9688414634146587,-0.33115853658534133
4.9516225609756095,2.607791248206599,0.8844175035868019,-0.40779124820659907
4.959621951219511,2.6172022955523664,0.8655954088952679,-0.4172022955523661
4.967621341463414,2.626613342898134,0.8467733142037318,-0.42661334289813413
4.975620731707317,2.6360243902439024,0.8279512195121956,-0.43602439024390216
4.983620121951219,2.6454354375896694,0.8091291248206617,-0.4454354375896692
4.991619512195122,2.654846484935437,0.7903070301291255,-0.4548464849354372
4.999618902439024,2.6642575322812045,0.7714849354375916,-0.46425753228120425
5.007618292682927,2.6736685796269724,0.7526628407460554,-0.4736685796269723
5.015617682926829,2.6830796269727393,0.7338407460545214,-0.48307962697273926
5.0236170731707315,2.6924906743185075,0.7150186513629853,-0.49249067431850735
5.031616463414633,2.538353658536665,0.5383536585366648,-0.5
5.039615853658536,1.0882433543436572,-0.40293916141408576,-0.8088174842422573
5.047615243902439,1.0522910386407232,-0.41192724033981926,-0.8357817210194578
5.055614634146341,1.0163387229377931,-0.42091531926555176,-0.8627459577966552
5.063614024390244,0.9803864072348591,-0.4299033981912852,-0.8897101945738557
5.071613414634146,0.9444340915319293,-0.4388914771170177,-0.9166744313510531
5.079612804878049,0.9084817758289954,-0.4478795560427512,-0.9436386681282536
5.087612195121951,0.8725294601260654,-0.4568676349684837,-0.9706029049054511
5.0956115853658535,0.8365771444231314,-0.46585571389421715,-0.9975671416826515
5.103610975609755,0.8006248287202014,-0.47484379281994965,-1.0245313784598489
5.111610365853658,0.7646725130172675,-0.4838318717456831,-1.0514956152370494
5.11960975609756,0.7287201973143376,-0.4928199506714156,-1.0784598520142468
5.127609146341463,0.5390853658537126,-0.5,-1.4218292682925748
5.135608536585366,0.19706906001644287,-0.6,-2.0
5.143607926829268,0.1880809810907104,-0.6,-2.0
5.151607317073171,0.17909290216497692,-0.6,-2.0
5.159606707317073,0.17010482323924442,-0.6,-2.0
5.167606097560975,0.16111674431351095,-0.6,-2.0
5.175605487804877,0.15212866538777844,-0.6,-2.0
5.18360487804878,0.14314058646204497,-0.6,-2.0
5.191604268292682,0.13415250753631247,-0.6,-2.0
5.199603658536585,0.125164428610579,-0.6,-2.0
5.207603048780488,0.11617634968484553,-0.6,-2.0
5.21560243902439,0.10718827075911304,-0.6,-2.0
5.223601829268293,0.1,-0.6,-1.91990853658538
5.231601219512195,-0.5017682926829257,-0.6994105691056914,-1.1982317073170743
5.239600609756097,-0.5252959110473456,-0.6915680296508847,-1.1747040889526543
5.247599999999999,-0.5488235294117632,-0.683725490196079,-1.1511764705882368
5.255599390243902,-0.5723511477761831,-0.6758829507412722,-1.1276488522238168
5.263598780487804,-0.5958787661406005,-0.6680404112864664,-1.1041212338593993
5.271598170731707,-0.6194063845050206,-0.6601978718316598,-1.0805936154949793
5.27959756097561,-0.6429340028694407,-0.6523553323768531,-1.0570659971305594
5.287596951219512,-0.6664616212338581,-0.6445127929220473,-1.0335383787661419
5.295596341463415,-0.6899892395982781,-0.6366702534672406,-1.0100107604017219
5.303595731707317,-0.7135168579626956,-0.6288277140124348,-0.9864831420373045
5.311595121951219,-0.7370444763271156,-0.6209851745576281,-0.9629555236728844
5.319594512195121,-0.7605720946915331,-0.6131426351028223,-0.9394279053084671
5.327593902439024,-0.784099713055953,-0.6053000956480157,-0.9159002869440469
5.335593292682926,-1.1593292682926248,-0.6,-0.5110060975610627
5.343592682926829,-0.9954514334617038,-0.4,0.20454856653829614
5.351592073170731,-0.9814174154899461,-0.4,0.21858258451005397
5.359591463414634,-0.9673833975181867,-0.4,0.23261660248181334
5.367590853658537,-0.9533493795464273,-0.4,0.24665062045357272
5.375590243902439,-0.9393153615746694,-0.4,0.2606846384253305
5.383589634146341,-0.9252813436029101,-0.4,0.2747186563970899
5.391589024390243,-0.9112473256311523,-0.4,0.2887526743688478
5.399588414634146,-0.8972133076593929,-0.4,0.3027866923406071
5.407587804878048,-0.8831792896876351,-0.4,0.3168207103123649
5.415587195121951,-0.8691452717158757,-0.4,0.3308547282841243
5.423586585365853,-0.8551112537441179,-0.4,0.3448887462558822
5.431585975609756,-0.8410772357723585,-0.4,0.3589227642276415
5.439585365853659,-0.8270432178005991,-0.4,0.37295678219940087
5.4475847560975605,-0.8130091998288413,-0.4,0.3869908001711587
5.455584146341463,-0.8,-0.4292073170731687,0.48762195121950613
5.463583536585365,-0.6975257240853663,-0.7,0.9975257240853663
5.471582926829268,-0.6850266768292681,-0.7,0.9850266768292681
5.47958231707317,-0.6725276295731712,-0.7,0.9725276295731713
5.487581707317073,-0.6600285823170731,-0.7,0.9600285823170731
5.495581097560975,-0.6475295350609763,-0.7,0.9475295350609764
5.503580487804878,-0.6350304878048781,-0.7,0.9350304878048782
5.51157987804878,-0.6225314405487814,-0.7,0.9225314405487814
5.5195792682926825,-0.6100323932926832,-0.7,0.9100323932926833
5.527578658536585,-0.6,-0.7789329268292869,0.9789329268292869
5.535578048780487,-1.111457994579942,-0.4971355013550145,1.2
5.54357743902439,-1.1470108401083992,-0.48824728997290023,1.2
5.551576829268292,-1.1825636856368524,-0.4793590785907869,1.2
5.559576219512195,-1.2181165311653095,-0.47047086720867265,1.2
5.567575609756097,-1.2536693766937628,-0.46158265582655933,1.2
5.575575,-1.2892222222222198,-0.45269444444444507,1.2
5.583574390243902,-1.3247750677506729,-0.4438062330623318,1.2
5.5915737804878045,-1.36032791327913,-0.43491802168021754,1.2
5.599573170731707,-1.395880758807587,-0.4260298102981033,1.2
5.607572560975609,-1.4314336043360403,-0.41714159891598995,1.2
5.615571951219512,-1.4669864498644973,-0.4082533875338757,1.2
5.623571341463414,-1.5380894308942619,-0.39047764227643456,1.2
5.631570731707317,-1.6004878048780913,-0.0858536585365975,1.2570731707317013
5.639570121951219,-0.14592114610467433,0.10540788538953258,1.1945921146104674
5.647569512195122,-0.06825716315416117,0.11317428368458389,1.1868257163154161
5.655568902439024,0.009406819796343363,0.12094068197963434,1.1790593180203657
5.6635682926829265,0.08707080274685652,0.12870708027468566,1.1712929197253144
5.671567682926829,0.1647347856973697,0.136473478569737,1.163526521430263
5.679567073170731,0.24239876864787424,0.14423987686478743,1.1557601231352126
5.687566463414634,0.32006275159838743,0.15200627515983875,1.1479937248401613
5.695565853658536,0.3977267345488919,0.1597726734548892,1.1402273265451108
5.703565243902439,0.47539071749940515,0.16753907174994054,1.1324609282500595
5.711564634146341,0.5530547004499096,0.17530547004499097,1.124694529955009
5.719564024390244,0.6307186834004228,0.1830718683400423,1.1169281316599577
5.727563414634146,0.7083826663509274,0.19083826663509273,1.1091617333649073
5.7355628048780485,0.7860466493014404,0.19860466493014406,1.101395335069856
5.74356219512195,1.0046849593495844,0.09531504065041563,0.6906300813008313
5.751561585365853,1.0713465447154438,0.028653455284556248,0.5573069105691124
5.759560975609756,1.1,0.0,0.49375208820581346
5.767560365853658,1.1,0.0,0.48279401937855054
5.775559756097561,1.1,0.0,0.47183595055128646
5.783559146341463,1.1,0.0,0.46087788172402355
5.791558536585366,1.1,0.0,0.4499198128967595
5.799557926829268,1.1,0.0,0.4389617440694966
5.8075573170731705,1.1,0.0,0.4280036752422325
5.815556707317072,1.1,0.0,0.4170456064149696
5.823556097560975,1.1,0.0,0.40608753758770555
5.831555487804878,0.5666768292682713,0.0,0.3
5.83955487804878,0.2896480044345907,0.3051759977827046,0.3051759977827046
5.847554268292683,0.27146757206208433,0.3142662139689578,0.3142662139689578
5.855553658536585,0.2532871396895799,0.32335643015521004,0.32335643015521004
5.863553048780488,0.23510670731707345,0.33244664634146326,0.33244664634146326
5.87155243902439,0.21692627494456904,0.3415368625277155,0.3415368625277155
5.8795518292682925,0.19874584257206263,0.3506270787139687,0.3506270787139687
5.887551219512194,0.18056541019955819,0.3597172949002209,0.3597172949002209
5.895550609756097,0.16238497782705177,0.36880751108647414,0.36880751108647414
5.903549999999999,0.14420454545454736,0.37789772727272636,0.37789772727272636
5.911549390243902,0.12602411308204092,0.3869879434589796,0.3869879434589796
5.919548780487805,0.10784368070953448,0.3960781596452328,0.3960781596452328
5.927548170731707,-1.4774085365853413,0.27740853658534126,0.3677743902439762
5.93554756097561,-0.9410719512195154,0.6196426829268282,-0.23273780487804702
5.943546951219512,-0.8690774390243976,0.6436408536585341,-0.27273475609755693
5.951546341463414,-0.7970829268292718,0.6676390243902427,-0.31273170731707123
5.959545731707316,-0.725088414634154,0.6916371951219487,-0.3527286585365811
5.967545121951219,-0.6530939024390282,0.7156353658536573,-0.3927256097560954
5.975544512195121,-0.5810993902439103,0.7396335365853632,-0.4327225609756053
5.983543902439024,-0.5091048780487846,0.7636317073170718,-0.47271951219511965
5.991543292682927,-0.4371103658536588,0.7876298780487804,-0.512716463414634
5.999542682926829,-0.36511585365854105,0.8116280487804863,-0.5527134146341438
6.007542073170732,-0.2931213414634152,0.835626219512195,-0.5927103658536581
6.015541463414634,-0.2211268292682974,0.8596243902439009,-0.6327073170731681
6.023540853658536,-0.14913231707317165,0.8836225609756094,-0.6727042682926824
6.031540243902438,1.1971341463411722,1.1540243902438496,-1.308048780487699
6.039539634146341,3.3067421602787457,1.2932578397212542,-2.203371080139373
6.047539024390243,3.3219790940766543,1.2780209059233458,-2.210989547038327
6.055538414634146,3.337216027874564,1.2627839721254357,-2.218608013937282
6.063537804878048,3.3524529616724728,1.2475470383275271,-2.2262264808362366
6.071537195121951,3.3676898954703827,1.2323101045296172,-2.2338449477351916
6.079536585365854,3.382926829268293,1.217073170731707,-2.2414634146341466
6.087535975609756,3.398163763066201,1.2018362369337985,-2.2490818815331006
6.095535365853658,3.4134006968641115,1.1865993031358886,-2.2567003484320556
6.10353475609756,3.42863763066202,1.17136236933798,-2.26431881533101
6.111534146341463,3.44387456445993,1.15612543554007,-2.271937282229965
6.119533536585365,3.4591114982578386,1.1408885017421615,-2.279555749128919
6.127532926829268,3.4743484320557485,1.1256515679442516,-2.287174216027874
6.13553231707317,3.489585365853657,1.110414634146343,-2.294792682926828
6.143531707317073,2.8404878048782245,0.6702439024391121,-2.0468292682927416
6.151531097560976,2.08381929046565,0.39460643015521657,-1.7946064301552165
6.1595304878048776,0.6649624765478499,0.09610694183865,-1.48832082551595
6.16752987804878,0.5542016885553497,0.08380018761726109,-1.4514005628517832
6.175529268292682,0.44344090056286184,0.07149343339587355,-1.4144803001876207
6.183528658536585,0.3326801125703617,0.05918667917448464,-1.3775600375234538
6.191528048780487,0.22191932457787383,0.0468799249530971,-1.3406397748592913
6.19952743902439,0.11115853658537367,0.034573170731708194,-1.3037195121951246
6.207526829268292,0.0003977485928858826,0.022266416510320644,-1.266799249530962
6.215526219512195,-0.11036303939961434,0.009959662288931748,-1.2298789868667952
6.223525609756098,-0.581402439024334,0.0762804878048668,-1.1237195121951333
6.2315249999999995,-0.16967741935484063,0.5075806451612899,-0.3962096774193551
6.239524390243902,-0.10086546026750436,0.5247836349331239,-0.38760818253343804
6.247523780487804,-0.03205350118017575,0.5419866247049561,-0.379006687647522
6.255523170731707,0.036758457907160536,0.5591896144767902,-0.37040519276160494
6.263522560975609,0.10557041699448916,0.5763926042486223,-0.3618036978756889
6.271521951219512,0.17438237608182539,0.5935955940204564,-0.35320220298977184
6.279521341463414,0.243194335169154,0.6107985837922885,-0.34460070810385574
6.287520731707317,0.31200629425649024,0.6280015735641226,-0.33599921321793874
6.295520121951219,0.38081825334381886,0.6452045633359547,-0.32739771833202264
6.3035195121951215,0.44963021243115514,0.6624075531077888,-0.3187962234461056
6.311518902439024,0.5184421715184915,0.6796105428796229,-0.3101947285601886
6.319518292682926,0.5872541306058201,0.696813532651455,-0.3015932336742725
6.327517682926829,3.201101453035807,1.3,0.4011014530358068
6.335517073170731,3.2181214322781515,1.3,0.4181214322781513
6.343516463414634,3.2351414115204977,1.3,0.43514141152049773
6.351515853658536,3.252161390762842,1.3,0.45216139076284223
6.359515243902439,3.269181370005189,1.3,0.4691813700051886
6.367514634146341,3.2862013492475333,1.3,0.4862013492475331
6.3755140243902435,3.3032213284898795,1.3,0.5032213284898795
6.383513414634146,3.320241307732226,1.3,0.520241307732226
6.391512804878048,3.3372612869745706,1.3,0.5372612869745704
6.399512195121951,3.354281266216917,1.3,0.5542812662169169
6.407511585365853,3.3713012454592612,1.3,0.5713012454592614
6.415510975609756,3.388321224701608,1.3,0.5883212247016077
6.423510365853658,3.3489634146342118,1.274481707317106,0.7
6.431509756097561,2.692760318949345,0.9975867729831149,0.7
6.439509146341463,2.6696851547842435,0.9898950515947477,0.7
6.4475085365853655,2.646609990619139,0.9822033302063796,0.7
6.455507926829267,2.623534826454037,0.9745116088180124,0.7
6.46350731707317,2.600459662288933,0.9668198874296443,0.7
6.471506707317073,2.5773844981238283,0.9591281660412762,0.7
6.479506097560975,2.554309333958727,0.9514364446529089,0.7
6.487505487804878,2.5312341697936223,0.9437447232645408,0.7
6.49550487804878,2.508159005628521,0.9360530018761736,0.7
6.503504268292683,2.485083841463416,0.9283612804878054,0.7
6.511503658536585,2.4620086772983143,0.9206695590994382,0.7
6.5195030487804875,2.43893351313321,0.9129778377110701,0.7
6.527502439024389,2.4158583489681082,0.9052861163227028,0.7
6.535501829268292,1.8726274944567938,0.895437915742799,0.7091241685144021
6.543501219512195,1.4362971175166437,0.822716186252774,0.854567627494452
6.551500609756097,0.5155025231286927,0.6,1.2120710681244724
6.5595,0.3224137931034512,0.6,1.2396551724137927
6.567499390243902,0.12932506307823116,0.6,1.2672392767031098
6.575498780487805,-0.0637636669470103,0.6,1.29482338099243
6.583498170731707,-0.19097439024389365,0.6,1.3259926829268267
6.5914975609756095,-0.3029658536585338,0.6,1.3579902439024383
6.599496951219511,-0.4149573170731615,0.6,1.389987804878046
6.607496341463414,-0.5269487804878016,0.6,1.4219853658536576
6.615495731707316,-0.6389402439024293,0.6,1.4539829268292654
6.623495121951219,-0.7509317073170695,0.6,1.485980487804877
6.631494512195122,0.5956097560973584,0.8752743902439152,1.7258231707317453
6.639493902439024,1.8516560421285986,0.8,1.4704822616408009
6.647493292682927,1.915287555432371,0.8,1.434121396895788
6.655492682926829,1.9789190687361364,0.8,1.3977605321507791
6.6634920731707314,2.042550582039909,0.8,1.3613996674057662
6.671491463414633,2.1061820953436743,0.8,1.3250388026607576
6.679490853658536,2.169813608647447,0.8,1.2886779379157447
6.687490243902438,2.2334451219512124,0.8,1.2523170731707358
6.695489634146341,2.2970766352549847,0.8,1.215956208425723
6.703489024390244,2.3607081485587575,0.8,1.17959534368071
6.711488414634146,2.424339661862523,0.8,1.1432344789357014
6.719487804878049,2.4879711751662956,0.8,1.1068736141906885
6.727487195121951,-1.2948780487803107,0.17692073170738348,0.0
6.735486585365853,-1.5329080675422138,0.09177298311444654,0.016454033771106935
6.743485975609755,-1.5680702224604641,0.08298244438488397,0.03403511123023206
6.751485365853658,-1.6032323773787183,0.07419190565532044,0.05161618868935914
6.75948475609756,-1.6383945322969684,0.06540136692575788,0.06919726614848426
6.767484146341463,-1.6735566872152225,0.056610828196194334,0.08677834360761134
6.775483536585366,-1.708718842133477,0.0478202894666308,0.10435942106673841
6.783482926829268,-1.743880997051727,0.039029750737068235,0.12194049852586354
6.791482317073171,-1.7790431519699812,0.030239212007504693,0.13952157598499063
6.799481707317073,-1.8142053068882316,0.02144867327794213,0.15710265344411575
6.807481097560975,-1.8493674618064855,0.012658134548378594,0.17468373090324282
6.815480487804877,-1.8845296167247358,0.0038675958188160303,0.19226480836236795
6.82347987804878,0.1139329268291649,0.24798780487802993,0.22600609756098503
6.831479268292682,0.46799334811529353,0.3,0.2
6.839478658536585,0.5407150776053191,0.3,0.2
6.847478048780487,0.6134368070953365,0.3,0.2
6.85547743902439,0.6861585365853622,0.3,0.2
6.863476829268293,0.7588802660753877,0.3,0.2
6.871476219512195,0.8316019955654053,0.3,0.2
6.879475609756097,0.9043237250554308,0.3,0.2
6.887474999999999,0.9770454545454483,0.3,0.2
6.895474390243902,1.0497671840354739,0.3,0.2
6.903473780487804,1.1224889135254914,0.3,0.2
6.911473170731707,1.195210643015517,0.3,0.2
6.919472560975609,1.2679323725055345,0.3,0.2
6.927471951219512,1.34065410199556,0.3,0.2
6.935471341463415,1.4735670731707216,0.3,0.18160823170731963
6.9434707317073165,1.8,0.28774390243902975,0.08774390243902977
6.951470121951219,1.8,0.2210823170731704,0.02108231707317039
6.959469512195121,0.6778849654168225,-0.20737167819439248,-0.20368583909719623
6.967468902439024,0.6062486348744093,-0.2312504550418636,-0.21562522752093177
6.975468292682926,0.5346123043320039,-0.255129231889332,-0.227564615944666
6.983467682926829,0.46297597378959066,-0.2790080087368031,-0.23950400436840155
6.991467073170731,0.39133964324718534,-0.30288678558427157,-0.2514433927921358
6.999466463414634,0.3197033127047721,-0.32676556243174265,-0.26338278121587133
7.007465853658536,0.24806698216236678,-0.3506443392792111,-0.27532216963960554
7.0154652439024385,0.17643065161995353,-0.3745231161266822,-0.2872615580633411
7.023464634146341,0.10479432107754016,-0.3984018929741533,-0.2992009464870766
7.031464024390243,1.181602787456402,-0.1295993031358995,-0.7704006968641005
7.039463414634146,1.7241633579126503,0.008054452637550127,-0.9040272263187751
7.047462804878048,1.7799730572887102,0.026657685762903435,-0.9133288428814518
7.055462195121951,1.8357827566647764,0.04526091888825881,-0.9226304594441295
7.063461585365853,1.8915924560408361,0.06386415201361212,-0.931932076006806
7.071460975609756,1.9474021554169023,0.0824673851389675,-0.9412336925694837
7.079460365853658,2.003211854792962,0.1010706182643208,-0.9505353091321604
7.0874597560975605,2.0590215541690284,0.11967385138967616,-0.959836925694838
7.095459146341463,2.1148312535450944,0.13827708451503154,-0.9691385422575157
7.103458536585365,2.170640952921154,0.15688031764038485,-0.9784401588201924
7.111457926829268,2.2264506522972205,0.17548355076574024,-0.9877417753828701
7.11945731707317,2.2822603516732802,0.19408678389109355,-0.9970433919455468
7.127456707317073,3.9,-0.03701219512182574,-0.9543292682927248
7.135456097560975,3.827844217151857,-0.24008654602674606,-0.8759480723839523
7.143455487804878,3.7504307631786036,-0.2830940204563312,-0.8501435877262012
7.15145487804878,3.673017309205359,-0.32610149488591156,-0.824339103068453
7.1594542682926825,3.5956038552321057,-0.36910896931549675,-0.798534618410702
7.167453658536585,3.5181904012588525,-0.41211644374508194,-0.7727301337529509
7.175453048780487,3.440776947285608,-0.4551239181746623,-0.7469256490952026
7.18345243902439,3.3633634933123546,-0.49813139260424744,-0.7211211644374516
7.191451829268292,3.28595003933911,-0.5411388670338279,-0.6953166797797032
7.199451219512195,3.2085365853658567,-0.5841463414634129,-0.6695121951219521
7.207450609756097,3.131123131392612,-0.6271538158929935,-0.6437077104642039
7.21545,3.0537096774193584,-0.6701612903225785,-0.6179032258064528
7.223449390243902,1.465182926829584,-0.9724695121950694,-0.5724695121950694
7.2314487804878045,0.39292682926852396,-1.0551219512195782,-1.0173170731706327
7.239448170731706,0.16384383139948427,-0.9638438313994843,-1.1144624674402064
7.247447560975609,0.12501183992422768,-0.9250118399242276,-1.129995264030309
7.255446951219512,0.0861798484489711,-0.8861798484489711,-1.1455280606204117
7.263446341463414,0.04734785697371882,-0.8473478569737188,-1.1610608572105126
7.271445731707317,0.008515865498462255,-0.8085158654984622,-1.1765936538006152
7.279445121951219,-0.030316125976790037,-0.7696838740232099,-1.192126450390716
7.287444512195122,-0.06914811745204663,-0.7308518825479533,-1.2076592469808187
7.295443902439024,-0.10798010892729887,-0.6920198910727011,-1.2231920435709196
7.3034432926829265,-0.14681210040255543,-0.6531878995974445,-1.2387248401610222
7.311442682926828,-0.18564409187780773,-0.6143559081221923,-1.2542576367511231
7.319442073170731,-0.2244760833530643,-0.5755239166469357,-1.2697904333412258
7.327441463414634,-0.2633080748283209,-0.5366919251716791,-1.2853232299313284
7.335440853658536,-0.2919844789357078,-0.4759534368071233,-1.304007760532146
7.343440243902439,-0.14654101995565777,-0.03962305986697334,-1.3767294900221712
7.351439634146341,1.2012560975609738,0.7,-1.4012560975609738
7.359439024390244,1.224111498257839,0.7,-1.424111498257839
7.367438414634146,1.2469668989547016,0.7,-1.4469668989547015
7.3754378048780485,1.2698222996515667,0.7,-1.4698222996515669
7.38343719512195,1.2926777003484293,0.7,-1.4926777003484295
7.391436585365853,1.3155331010452944,0.7,-1.5155331010452946
7.399435975609755,1.338388501742157,0.7,-1.5383885017421572
7.407435365853658,1.3612439024390222,0.7,-1.5612439024390223
7.415434756097561,1.3840993031358875,0.7,-1.5840993031358876
7.423434146341463,0.6414634146343434,0.3565853658537374,-1.7
7.431433536585366,-0.32742393764143934,-0.4091413125471465,-1.4862880311792803
7.439432926829268,-0.37690470203670895,-0.42563490067890297,-1.4615476489816455
7.44743231707317,-0.42638546643198405,-0.44212848881066136,-1.436807266784008
7.455431707317072,-0.4758662308272536,-0.45862207694241786,-1.4120668845863733
7.463431097560975,-0.5253469952225287,-0.47511566507417624,-1.3873265023887356
7.471430487804877,-0.5748277596177982,-0.49160925320593274,-1.362586120191101
7.47942987804878,-0.6243085240130734,-0.5081028413376911,-1.3378457379934634
7.487429268292683,-0.6737892884083485,-0.5245964294694494,-1.3131053557958259
7.495428658536585,-0.723270052803618,-0.5410900176012059,-1.288364973598191
7.503428048780488,-0.772750817198893,-0.5575836057329643,-1.2636245914005535
7.51142743902439,-0.8222315815941628,-0.5740771938647209,-1.2388842092029186
7.519426829268292,-0.8717123459894378,-0.5905707819964792,-1.2141438270052811
7.527426219512194,-1.5,-0.8713109756097364,-0.6860670731707907
7.535425609756097,-0.8742197489936069,-0.3957032914989345,0.11289012550319658
7.543424999999999,-0.8276213592233046,-0.38793689320388414,0.13618932038834775
7.551424390243902,-0.7810229694529971,-0.38017049490883287,0.1594885152735015
7.559423780487804,-0.7344245796826947,-0.3724040966137825,0.18278771015865267
7.567423170731707,-0.6878261899123872,-0.3646376983187312,0.20608690504380642
7.57542256097561,-0.6412278001420797,-0.35687130002367995,0.22938609992896017
7.583421951219512,-0.5946294103717773,-0.34910490172862957,0.25268529481411134
7.591421341463414,-0.5480310206014698,-0.3413385034335783,0.2759844896992651
7.599420731707316,-0.5014326308311675,-0.3335721051385279,0.29928368458441623
7.607420121951219,-0.45483424106086,-0.32580570684347665,0.32258287946957
7.615419512195121,-0.40823585129055767,-0.31803930854842627,0.3458820743547212
7.623418902439024,-0.3616374615202502,-0.310272910253375,0.36918126923987493
7.631418292682926,-0.31503907174994783,-0.3025065119583247,0.39248046412502613
7.639417682926829,-0.08353658536571583,-0.320884146341429,1.162652439024287
7.647417073170732,-1.033977485928706,-0.505662914321451,1.505662914321451
7.6554164634146336,-1.095511257035644,-0.515918542839274,1.515918542839274
7.663415853658536,-1.1570450281425886,-0.5261741713570981,1.5261741713570982
7.671415243902438,-1.2185787992495265,-0.5364297998749211,1.536429799874921
7.679414634146341,-1.2801125703564713,-0.5466854283927451,1.5466854283927451
7.687414024390243,-1.341646341463409,-0.5569410569105682,1.5569410569105682
7.695413414634146,-1.4031801125703538,-0.5671966854283923,1.5671966854283923
7.703412804878048,-1.4647138836772915,-0.5774523139462152,1.5774523139462153
7.711412195121951,-1.5262476547842363,-0.5877079424640393,1.5877079424640395
7.719411585365854,-1.587781425891181,-0.5979635709818635,1.5979635709818636
7.7274109756097555,-2.7760365853656435,-1.1116463414633573,1.5589024390244284
7.735410365853658,-2.4494645579268295,-1.0862176067073173,1.0862176067073173
7.74340975609756,-2.357804878048787,-1.0612195121951238,1.0612195121951238
7.751409146341463,-2.2661451981707335,-1.0362214176829274,1.0362214176829274
7.759408536585365,-2.1744855182926903,-1.0112233231707337,1.0112233231707337
7.767407926829268,-2.082825838414637,-0.9862252286585375,0.9862252286585375
7.77540731707317,-1.9911661585365938,-0.9612271341463439,0.9612271341463439
7.783406707317073,-1.8995064786585405,-0.9362290396341475,0.9362290396341475
7.791406097560975,-1.8078467987804974,-0.9112309451219539,0.9112309451219539
7.7994054878048775,-1.7161871189024442,-0.8862328506097575,0.8862328506097575
7.80740487804878,-1.6245274390243911,-0.8612347560975613,0.8612347560975613
7.815404268292682,-1.532867759146348,-0.8362366615853676,0.8362366615853676
7.823403658536585,-1.4412080792682946,-0.8112385670731713,0.8112385670731713
7.831403048780487,0.26121951219476625,-0.21939024390261688,0.6
7.83940243902439,0.5762530152774052,-0.005936746180648674,0.6
7.847401829268292,0.541090860359155,-0.014727284910211236,0.6
7.855401219512195,0.5059287054409008,-0.023517823639774775,0.6
7.863400609756097,0.4707665505226506,-0.03230836236933734,0.6
7.8713999999999995,0.43560439560439645,-0.041098901098900874,0.6
7.879399390243902,0.4004422406861423,-0.049889439828464416,0.6
7.887398780487804,0.36528008576789206,-0.05867997855802698,0.6
7.895398170731707,0.3301179308496379,-0.06747051728759051,0.6
7.903397560975609,0.29495577593138766,-0.07626105601715308,0.6
7.911396951219512,0.2597936210131335,-0.08505159474671661,0.6
7.919396341463414,0.22463146609488327,-0.09384213347627918,0.6
7.927395731707317,-0.5791463414633944,0.03957317073169719,0.4802134146341514
7.935395121951219,-0.776234146341472,0.6067902439024365,-0.003395121951218284
7.9433945121951215,-0.720238414634152,0.6227890243902423,-0.01139451219512115
7.951393902439023,-0.6642426829268382,0.6387878048780462,-0.019393902439023128
7.959393292682926,-0.6082469512195181,0.654786585365852,-0.027393292682925993
7.967392682926829,-0.552251219512198,0.6707853658536578,-0.03539268292682886
7.975392073170731,-0.49625548780488415,0.6867841463414617,-0.043392073170730835
7.983391463414634,-0.44025975609756407,0.7027829268292675,-0.0513914634146337
7.991390853658536,-0.3842640243902502,0.7187817073170714,-0.05939085365853568
7.999390243902439,-0.3282682926829302,0.7347804878048771,-0.06739024390243854
8.00738963414634,-0.27227256097561636,0.750779268292681,-0.07538963414634052
8.015389024390243,-0.21627682926829628,0.7667780487804868,-0.08338902439024339
8.023388414634146,-0.1602810975609762,0.7827768292682926,-0.09138841463414625
8.031387804878047,-0.10428536585366854,0.7987756097560947,-0.09938780487804734
8.03938719512195,0.5,0.9326600609756236,-0.3
8.047386585365853,-0.0044131097560739935,0.785083841463418,-0.2
8.055385975609756,-0.3543864329268228,0.7350876524390253,-0.2
8.063385365853659,-0.6,0.7037271341463418,-0.20372713414634186
8.07138475609756,-0.6,0.7162261814024372,-0.21622618140243724
8.079384146341463,-0.6,0.7287252286585354,-0.22872522865853542
8.087383536585365,-0.6,0.7412242759146336,-0.24122427591463358
8.095382926829268,-0.6,0.7537233231707318,-0.25372332317073176
8.10338231707317,-0.6,0.7662223704268272,-0.26622237042682717
8.111381707317072,-0.6,0.7787214176829254,-0.27872141768292535
8.119381097560975,-0.6,0.7912204649390235,-0.2912204649390235
8.127380487804878,0.0712195121948373,0.9190243902438708,-0.41902439024387084
8.13537987804878,2.5220426829268328,1.2,-0.6073475609756109
8.143379268292682,2.5742126193001003,1.2,-0.6247375397667001
8.151378658536585,2.6263825556733793,1.2,-0.642127518557793
8.159378048780487,2.6785524920466584,1.2,-0.6595174973488861
8.16737743902439,2.7307224284199374,1.2,-0.6769074761399791
8.175376829268291,2.782892364793205,1.2,-0.6942974549310683
8.183376219512194,2.835062301166484,1.2,-0.7116874337221614
8.191375609756097,2.887232237539763,1.2,-0.7290774125132544
8.199375,2.9394021739130425,1.2,-0.7464673913043474
8.207374390243903,2.9915721102863215,1.2,-0.7638573700954404
8.215373780487804,3.043742046659589,1.2,-0.7812473488865296
8.223373170731707,3.095911983032868,1.2,-0.7986373276776226
8.23137256097561,3.06274390243905,1.1925487804878099,-1.2149024390243799
8.239371951219512,2.5801649928264023,1.1,-1.4039670014347194
8.247371341463413,2.5331097560975717,1.1,-1.4133780487804857
8.255370731707316,2.4860545193687313,1.1,-1.4227890961262537
8.263370121951219,2.4389992826398905,1.1,-1.432200143472022
8.271369512195122,2.3919440459110497,1.1,-1.44161119081779
8.279368902439025,2.344888809182209,1.1,-1.4510222381635582
8.287368292682926,2.2978335724533787,1.1,-1.4604332855093243
8.295367682926829,2.250778335724538,1.1,-1.4698443328550923
8.303367073170731,2.203723098995697,1.1,-1.4792553802008606
8.311366463414634,2.1566678622668563,1.1,-1.4886664275466288
8.319365853658535,2.109612625538026,1.1,-1.4980774748923948
8.327365243902438,2.0,0.9996419177427076,-1.6992838354854152
8.335364634146341,2.0,0.991799378287901,-1.683598756575802
8.343364024390244,2.0,0.9839568388330943,-1.6679136776661885
8.351363414634147,2.0,0.9761142993782876,-1.6522285987565752
8.359362804878048,2.0,0.9682717599234827,-1.6365435198469653
8.36736219512195,2.0,0.960429220468676,-1.6208584409373519
8.375361585365853,2.0,0.9525866810138693,-1.6051733620277386
8.383360975609756,2.0,0.9447441415590626,-1.5894882831181252
8.391360365853657,2.0,0.9369016021042578,-1.5738032042085153
8.39935975609756,2.0,0.929059062649451,-1.558118125298902
8.407359146341463,2.0,0.9212165231946443,-1.5424330463892888
8.415358536585366,2.0,0.9133739837398377,-1.5267479674796753
8.423357926829267,2.0,0.9055314442850327,-1.5110628885700654
8.43135731707317,1.976178861788631,0.7880894308943155,-1.1642682926829464
8.439356707317073,1.676383677298308,0.7,-0.8175891181988721
8.447356097560975,1.5,0.7,-0.6990375741595237
8.455355487804878,1.5,0.7,-0.6774176005273543
8.46335487804878,1.5,0.7,-0.6557976268951898
8.471354268292682,1.5,0.7,-0.6341776532630204
8.479353658536585,1.5,0.7,-0.6125576796308512
8.487353048780488,1.5,0.7,-0.5909377059986818
8.495352439024389,1.5,0.7,-0.5693177323665172
8.503351829268292,1.5,0.7,-0.5476977587343479
8.511351219512195,1.5,0.7,-0.5260777851021785
8.519350609756097,1.5,0.7,-0.5044578114700091
8.52735,1.9304545454545547,1.0152272727272775,-0.2543181818181677
8.535349390243901,2.003176274944564,1.051588137472282,-0.14523558758315439
8.543348780487804,2.0758980044345887,1.0879490022172944,-0.03615299334811689
8.551348170731707,2.1,1.2045865352489136,0.3229326762445677
8.55934756097561,2.1,1.2155446040761777,0.3777230203808882
8.56734695121951,2.1,1.2265026729034392,0.4325133645171965
8.575346341463414,2.1,1.2374607417307033,0.487303708653517
8.583345731707317,2.1,1.2484188105579674,0.5420940527898375
8.59134512195122,2.1,1.2593768793852316,0.596884396926158
8.599344512195122,2.1,1.2703349482124957,0.6516747410624786
8.607343902439023,2.1,1.2812930170397574,0.7064650851987868
8.615343292682926,2.1,1.2922510858670215,0.7612554293351074
8.623342682926829,2.1,1.4671341463414296,1.3342682926828593
8.631342073170732,3.2232418699187466,1.7780691056910707,1.1219308943089294
8.639341463414633,3.3412441764867027,1.8,1.0505069882159566
8.647340853658536,3.38618457111537,1.8,0.9965785146615557
8.655340243902439,3.4311249657440377,1.8,0.9426500411071548
8.663339634146341,3.476065360372705,1.8,0.8887215675527539
8.671339024390244,3.5210057550013723,1.8,0.834793093998353
8.679338414634145,3.56594614963003,1.8,0.780864620443964
8.687337804878048,3.6108865442586975,1.8,0.7269361468895631
8.695337195121951,3.6558269388873645,1.8,0.6730076733351622
8.703336585365854,3.700767333516032,1.8,0.6190791997807613
8.711335975609755,3.7457077281446898,1.8,0.5651507262263724
8.719335365853658,3.790648122773357,1.8,0.5112222526719714
8.72733475609756,1.698464421570825,0.999078652942495,-0.7996928843141651
8.735334146341463,1.66176997091072,0.9770619825464321,-0.792353994182144
8.743333536585366,1.6250755202506153,0.9550453121503693,-0.7850151040501231
8.751332926829267,1.5883810695905187,0.9330286417543112,-0.7776762139181038
8.75933231707317,1.551686618930414,0.9110119713582484,-0.7703373237860828
8.767331707317073,1.5149921682703091,0.8889953009621855,-0.7629984336540618
8.775331097560976,1.4782977176102043,0.8669786305661227,-0.7556595435220409
8.783330487804877,1.4416032669501078,0.8449619601700646,-0.7483206533900215
8.79132987804878,1.404908816290003,0.8229452897740018,-0.7409817632580006
8.799329268292682,1.3682143656298982,0.800928619377939,-0.7336428731259796
8.807328658536585,1.3315199149697934,0.7789119489818761,-0.7263039829939587
8.815328048780486,1.2948254643096968,0.7568952785858181,-0.7189650928619393
8.82332743902439,1.258131013649592,0.7348786081897553,-0.7116262027299184
8.831326829268292,1.2214365629894872,0.7128619377936924,-0.7042873125978975
8.839326219512195,1.126084010840123,0.5891260162601847,-0.5891260162601847
8.847325609756098,0.8970399113081986,0.1911197339245957,-0.1940798226163971
8.855324999999999,0.8243181818181956,-0.027045454545413294,-0.04863636363639118
8.863324390243902,0.48365053978408756,-0.41089964014394165,0.20544982007197082
8.871323780487804,0.4443092762894834,-0.4371271491403444,0.2185635745701722
8.879323170731707,0.40496801279487926,-0.46335465813674714,0.23167732906837357
8.887322560975608,0.3656267493002838,-0.48958216713314406,0.24479108356657203
8.895321951219511,0.32628548580567973,-0.5158096761295469,0.25790483806477343
8.903321341463414,0.2869442223110755,-0.5420371851259496,0.2710185925629748
8.911320731707317,0.24760295881647137,-0.5682646941223524,0.2841323470611762
8.91932012195122,0.20826169532186722,-0.5944922031187552,0.2972461015593776
8.92731951219512,-1.0911219512192076,-0.9727804878048019,0.4
8.935318902439024,-2.4137837311883756,-1.4,-0.1137837311883757
8.943318292682926,-2.439313700051895,-1.4,-0.13931370005189508
8.95131768292683,-2.4648436689154143,-1.4,-0.16484366891541447
8.95931707317073,-2.4903736377789283,-1.4,-0.19037363777892816
8.967316463414633,-2.5159036066424476,-1.4,-0.21590360664244754
8.975315853658536,-2.541433575505967,-1.4,-0.24143357550596692
8.983315243902439,-2.5669635443694863,-1.4,-0.26696354436948627
8.991314634146342,-2.5924935132330056,-1.4,-0.29249351323300565
8.999314024390243,-2.6180234820965196,-1.4,-0.31802348209651937
9.007313414634146,-2.643553450960039,-1.4,-0.34355345096003875
9.015312804878048,-2.6690834198235582,-1.4,-0.3690834198235581
9.023312195121951,-2.6946133886870776,-1.4,-0.3946133886870775
9.031311585365852,-0.7065243902442425,-0.3688414634147475,-0.9344207317073737
9.039310975609755,-0.47641620771046733,-0.2764162077104673,-0.8764162077104674
9.047310365853658,-0.45061172305271624,-0.2506117230527162,-0.8506117230527163
9.05530975609756,-0.42480723839496515,-0.2248072383949651,-0.8248072383949652
9.063309146341464,-0.39900275373721406,-0.19900275373721402,-0.799002753737214
9.071308536585365,-0.3731982690794686,-0.17319826907946864,-0.7731982690794686
9.079307926829268,-0.34739378442171753,-0.14739378442171755,-0.7473937844217176
9.08730731707317,-0.32158929976396644,-0.12158929976396646,-0.7215892997639665
9.095306707317073,-0.29578481510621535,-0.09578481510621537,-0.6957848151062154
9.103306097560974,-0.26998033044847003,-0.06998033044847002,-0.6699803304484699
9.111305487804877,-0.24417584579071894,-0.044175845790718926,-0.6441758457907188
9.11930487804878,-0.21837136113296785,-0.018371361132967834,-0.6183713611329678
9.127304268292683,-0.1,0.2608536585364643,-0.3087195121953036
9.135303658536584,-0.6,0.6,0.20426104805602346
9.143303048780487,-0.6,0.6,0.2121812364163234
9.15130243902439,-0.6,0.6,0.22010142477662328
9.159301829268292,-0.6,0.6,0.2280216131369232
9.167301219512195,-0.6,0.6,0.2359418014972231
9.175300609756096,-0.6,0.6,0.24386198985752125
9.1833,-0.6,0.6,0.2517821782178212
9.191299390243902,-0.6,0.6,0.25970236657812107
9.199298780487805,-0.6,0.6,0.26762255493842096
9.207298170731706,-0.6,0.6,0.27554274329871914
9.215297560975609,-0.6,0.6,0.28346293165901904
9.223296951219512,-0.6,0.6,0.29138312001931893
9.231296341463414,-0.6,0.6,0.2993033083796188
9.239295731707317,-0.16063863928112643,0.7,0.1721277278562253
9.247295121951218,0.04987163029521585,0.7,0.13002567394095682
9.255294512195121,1.1236280487802808,0.8,0.16472560975605616
9.263293902439024,1.3108864215507816,0.7891135784492184,0.2217728431015633
9.271293292682927,1.3228258099745172,0.7771741900254828,0.24565161994903442
9.279292682926828,1.33476519839825,0.76523480160175,0.2695303967965002
9.28729207317073,1.3467045868219856,0.7532954131780144,0.2934091736439713
9.295291463414634,1.3586439752457211,0.7413560247542788,0.3172879504914424
9.303290853658536,1.3705833636694567,0.7294166363305432,0.3411667273389135
9.31129024390244,1.3825227520931922,0.7174772479068077,0.3650455041863846
9.31928963414634,1.394462140516925,0.7055378594830748,0.3889242810338504
9.327289024390243,1.1426585365853867,0.7,0.7431219512194844
9.335288414634146,0.30260047117516564,1.1026004711751658,1.8947990576496687
9.343287804878049,0.31169068736141897,1.111690687361419,1.876618625277162
9.35128719512195,0.32078090354767025,1.1207809035476703,1.8584381929046594
9.359286585365853,0.3298711197339236,1.1298711197339235,1.8402577605321528
9.367285975609756,0.33896133592017685,1.138961335920177,1.8220773281596463
9.375285365853658,0.3480515521064302,1.1480515521064303,1.8038968957871395
9.383284756097561,0.3571417682926835,1.1571417682926834,1.785716463414633
9.391284146341462,0.3662319844789348,1.1662319844789348,1.7675360310421304
9.399283536585365,0.37532220066518807,1.175322200665188,1.7493555986696239
9.407282926829268,0.3844124168514414,1.1844124168514414,1.731175166297117
9.41528231707317,0.3935026330376947,1.1935026330376948,1.7129947339246105
9.423281707317072,1.2126829268287733,1.4640853658535966,1.0436585365856133
9.431281097560975,2.8546036585364716,1.71405487804877,0.4437804878049195
9.439280487804877,3.8246293639406965,1.7876853180296517,0.08768531802965168
9.44727987804878,3.8559995217599234,1.7720002391200385,0.07200023912003832
9.455279268292683,3.88736967957915,1.756315160210425,0.05631516021042496
9.463278658536584,3.9187398373983697,1.740630081300815,0.04063008130081508
9.471278048780487,3.9501099952175966,1.7249450023912019,0.024945002391201718
9.47927743902439,3.981480153036823,1.7092599234815884,0.009259923481588356
9.487276829268293,4.01285031085605,1.6935748445719752,-0.006425155428024992
9.495276219512194,4.044220468675269,1.6778897656623653,-0.02211023433763487
9.503275609756097,4.075590626494496,1.6622046867527518,-0.03779531324724825
9.511275,4.106960784313723,1.6465196078431386,-0.053480392156861595
9.519274390243902,4.13833094213295,1.630834528933525,-0.06916547106647494
9.527273780487803,4.16970109995217,1.6151494500239152,-0.08485054997608482
9.535273170731706,4.145365853658755,1.49073170731751,-0.1
9.543272560975609,1.4875134012329192,0.29750268024658383,-0.10749195926024847
9.551271951219512,1.4435607075851011,0.28871214151702024,-0.13386357544893934
9.559271341463415,1.399608013937283,0.2799216027874566,-0.16023519163763023
9.567270731707316,1.3556553202894746,0.27113106405789494,-0.18660680782631525
9.575270121951219,1.3117026266416565,0.2623405253283313,-0.2129784240150061
9.583269512195121,1.2677499329938384,0.25354998659876765,-0.23935004020369702
9.591268902439024,1.2237972393460201,0.24475944786920406,-0.2657216563923879
9.599268292682925,1.1798445456982118,0.23596890913964239,-0.29209327258107287
9.607267682926828,1.1358918520503938,0.22717837041007877,-0.31846488876976375
9.615267073170731,1.0919391584025757,0.21838783168051512,-0.34483650495845464
9.623266463414634,1.0479864647547577,0.20959729295095153,-0.3712081211471455
9.631265853658537,1.0040337711069394,0.20080675422138788,-0.3975797373358364
9.639265243902438,0.8789126016260362,0.13945630081301813,-0.5816310975609457
9.64726463414634,1.1264634146340518,-0.013231707317025837,-1.2264634146340516
9.655264024390243,1.3088225695637243,-0.11764513912744841,-1.4088225695637242
9.663263414634146,1.3200893163861223,-0.14017863277224465,-1.4200893163861223
9.671262804878047,1.331356063208518,-0.1627121264170359,-1.4313560632085178
9.67926219512195,1.342622810030916,-0.18524562006183215,-1.442622810030916
9.687261585365853,1.3538895568533142,-0.20777911370662838,-1.4538895568533141
9.695260975609756,1.3651563036757122,-0.23031260735142461,-1.4651563036757123
9.703260365853659,1.3764230504981103,-0.25284610099622085,-1.4764230504981104
9.71125975609756,1.387689797320506,-0.27537959464101214,-1.487689797320506
9.719259146341463,1.3989565441429042,-0.2979130882858083,-1.4989565441429042
9.727258536585365,-0.11167714357554759,-1.1025949207945662,-1.1948101584108677
9.735257926829268,-0.18589829016846088,-1.1190885089263247,-1.1618229821473507
9.74325731707317,-0.2601194367613577,-1.1355820970580797,-1.128835805883841
9.751256707317072,-0.33434058335427097,-1.1520756851898382,-1.095848629620324
9.759256097560975,-0.4085617299471842,-1.1685692733215967,-1.062861453356807
9.767255487804878,-0.48278287654009755,-1.1850628614533552,-1.02987427709329
9.77525487804878,-0.5570040231330108,-1.2015564495851137,-0.9968871008297729
9.783254268292682,-0.6312251697259076,-1.2180500377168684,-0.9638999245662633
9.791253658536585,-0.7054463163188209,-1.2345436258486269,-0.9309127483027463
9.799253048780487,-0.7796674629117342,-1.2510372139803854,-0.8979255720392293
9.80725243902439,-0.8538886095046475,-1.2675308021121439,-0.8649383957757122
9.815251829268291,-0.9281097560975443,-1.2840243902438988,-0.8319512195122025
9.823251219512194,-1.125609756096948,-1.3251219512193897,-0.7497560975612209
9.831250609756097,-3.1002439024389568,-1.6,0.037591463414608714
9.83925,-4.08229166666667,-1.3867187500000029,0.5088541666666647
9.847249390243903,-4.0489608739837415,-1.361720655487806,0.5255195630081292
9.855248780487804,-4.015630081300819,-1.3367225609756148,0.5421849593495901
9.863248170731707,-3.9822992886178907,-1.311724466463418,0.5588503556910546
9.87124756097561,-3.9489684959349614,-1.2867263719512212,0.5755157520325191
9.879246951219512,-3.9156377032520324,-1.2617282774390244,0.5921811483739836
9.887246341463413,-3.882306910569111,-1.2367301829268333,0.6088465447154445
9.895245731707316,-3.848976117886182,-1.2117320884146365,0.625511941056909
9.903245121951219,-3.8156453252032527,-1.1867339939024397,0.6421773373983736
9.911244512195122,-3.782314532520324,-1.161735899390243,0.6588427337398381
9.919243902439023,-3.748983739837402,-1.1367378048780516,0.675508130081299
9.927243292682926,-3.715652947154473,-1.1117397103658548,0.6921735264227634
9.935242682926829,-0.954390243902684,-0.113597560975671,1.224268292682886
9.943242073170731,0.6431700143471951,0.2,1.3876657101865155
9.951241463414634,0.7090473457675721,0.2,1.3688436154949792
9.959240853658535,0.7749246771879346,0.2,1.3500215208034472
9.967240243902438,0.8408020086083116,0.2,1.3311994261119109
9.975239634146341,0.9066793400286886,0.2,1.3123773314203746
9.983239024390244,0.9725566714490657,0.2,1.2935552367288383
9.991238414634145,1.0384340028694279,0.2,1.2747331420373063
9.999237804878048,1.104311334289805,0.2,1.25591104734577
10.00723719512195,1.170188665710182,0.2,1.2370889526542337
10.015236585365853,1.236065997130559,0.2,1.2182668579626974
10.023235975609756,1.3235975609756443,0.18820121951217783,1.1764024390243557
10.031235365853657,0.2823170731712511,-0.12353658536574978,0.9
10.03923475609756,-1.0630480953685904,-0.4070053439298434,1.0070053439298434
10.047234146341463,-1.1439408057001916,-0.4159934228555769,1.015993422855577
10.055233536585366,-1.2248335160317931,-0.42498150178131033,1.0249815017813104
10.063232926829267,-1.3057262263633764,-0.43396958070704184,1.033969580707042
10.07123231707317,-1.386618936694978,-0.44295765963277534,1.0429576596327754
10.079231707317073,-1.4675116470265792,-0.45194573855850884,1.051945738558509
10.087231097560975,-1.5484043573581805,-0.4609338174842423,1.0609338174842424
10.095230487804878,-1.629297067689782,-0.4699218964099758,1.069921896409976
10.10322987804878,-1.7101897780213653,-0.4789099753357072,1.0789099753357074
10.111229268292682,-1.7910824883529666,-0.48789805426144073,1.0878980542614407
10.119228658536585,-1.8719751986845679,-0.49688613318717423,1.0968861331871742
10.127228048780488,-2.4514634146341545,-0.4628658536585386,1.2
10.135227439024389,-2.173016346652839,-0.3910054488842795,1.2
10.143226829268292,-2.121956408925799,-0.37398546964193297,1.2
10.151226219512195,-2.0708964711987594,-0.3569654903995864,1.2
10.159225609756097,-2.0198365334717194,-0.3399455111572398,1.2
10.167225,-1.96877659574468,-0.32292553191489326,1.2
10.175224390243901,-1.9177166580176515,-0.3059055526725505,1.2
10.183223780487804,-1.8666567202906117,-0.28888557343020393,1.2
10.191223170731707,-1.815596782563572,-0.27186559418785733,1.2
10.19922256097561,-1.7645368448365324,-0.2548456149455107,1.2
10.20722195121951,-1.713476907109504,-0.23782563570316798,1.2
10.215221341463414,-1.6624169693824644,-0.2208056564608214,1.2
10.223220731707316,-1.6113570316554244,-0.20378567721847485,1.2
10.23122012195122,0.12201219512195761,0.2610060975609788,0.6779878048780424
10.23921951219512,0.20700923514089414,0.3,0.5929907648591058
10.247218902439023,0.21477563343594533,0.3,0.5852243665640546
10.255218292682926,0.22254203173099651,0.3,0.5774579682690035
10.263217682926829,0.2303084300260477,0.3,0.5696915699739523
10.271217073170732,0.23807482832109889,0.3,0.5619251716789011
10.279216463414633,0.24584122661614832,0.3,0.5541587733838517
10.287215853658536,0.2536076249111995,0.3,0.5463923750888005
10.295215243902438,0.2613740232062507,0.3,0.5386259767937494
10.303214634146341,0.2691404215013019,0.3,0.5308595784986981
10.311214024390242,0.27690681979635134,0.3,0.5230931802036487
10.319213414634145,0.2846732180914025,0.3,0.5153267819085975
10.327212804878048,0.29243961638645366,0.3,0.5075603836135463
10.33521219512195,0.3,0.3,0.4893902439024925
10.343211585365854,0.25109756097561564,0.05109756097561563,0.32554878048780783
10.351210975609755,-0.23298085828958645,-0.1,0.2868076566841654
10.359210365853658,-0.2836099104661863,-0.1,0.2665560358135255
10.36720975609756,-0.3342389626427861,-0.1,0.24630441494288555
10.375209146341463,-0.38486801481938593,-0.1,0.2260527940722456
10.383208536585364,-0.43549706699597457,-0.1,0.20580117320161018
10.391207926829267,-0.48612611917257437,-0.1,0.18554955233097026
10.39920731707317,-0.5367551713491742,-0.1,0.1652979314603303
10.407206707317073,-0.587384223525774,-0.1,0.1450463105896904
10.415206097560976,-0.6380132757023739,-0.1,0.12479468971905044
10.423205487804877,-0.6886423278789624,-0.1,0.10454306884841502
10.43120487804878,-1.8204878048779252,-0.013252032520345805,-0.18674796747965422
10.439204268292682,-1.6721367974549348,0.31044870095439936,-0.4069658006362663
10.447203658536585,-1.6025768822905628,0.33653366914103894,-0.4243557794273593
10.455203048780486,-1.5330169671262062,0.36261863732767263,-0.44174575821844847
10.46320243902439,-1.463457051961834,0.3887036055143122,-0.45913573700954147
10.471201829268292,-1.393897136797462,0.41478857370095173,-0.4765257158006345
10.479201219512195,-1.32433722163309,0.4408735418875913,-0.4939156945917275
10.487200609756098,-1.2547773064687178,0.46695851007423084,-0.5113056733828205
10.495199999999999,-1.185217391304361,0.4930434782608646,-0.5286956521739097
10.503199390243902,-1.115657476139989,0.5191284464475041,-0.5460856309650027
10.511198780487804,-1.046097560975617,0.5452134146341436,-0.5634756097560958
10.519198170731707,-0.9765376458112448,0.5712983828207832,-0.5808655885471887
10.527197560975608,-0.9069777306468881,0.5973833510074169,-0.5982555673382779
10.535196951219511,3.0015846649845717,1.0,-0.9
10.543196341463414,3.065947574992985,1.0,-0.9
10.551195731707317,3.130310485001399,1.0,-0.9
10.55919512195122,3.194673395009813,1.0,-0.9
10.56719451219512,3.2590363050182125,1.0,-0.9
10.575193902439024,3.3233992150266265,1.0,-0.9
10.583193292682926,3.38776212503504,1.0,-0.9
10.59119268292683,3.452125035043454,1.0,-0.9
10.59919207317073,3.5164879450518534,1.0,-0.9
10.607191463414633,3.5808508550602673,1.0,-0.9
10.615190853658536,3.6452137650686813,1.0,-0.9
10.623190243902439,3.759512195121927,0.940487804878073,-0.8404878048780731
10.63118963414634,1.6963582628173293,0.39757217521155286,-0.7012139123942236
10.639189024390243,1.671870333499259,0.3812468889995061,-0.7093765555002469
10.647188414634146,1.6473824041811889,0.3649216027874593,-0.7175391986062704
10.655187804878048,1.6228944748631187,0.3485963165754125,-0.7257018417122937
10.663187195121951,1.5984065455450485,0.33227103036336575,-0.7338644848183171
10.671186585365852,1.5739186162269838,0.3159457441513226,-0.7420271279243387
10.679185975609755,1.5494306869089136,0.29962045793927583,-0.7501897710303621
10.687185365853658,1.5249427575908434,0.283295171727229,-0.7583524141363855
10.69518475609756,1.5004548282727732,0.26696988551518225,-0.7665150572424089
10.703184146341462,1.4759668989547086,0.2506445993031391,-0.7746777003484305
10.711183536585365,1.4514789696366384,0.23431931309109233,-0.7828403434544539
10.719182926829268,1.4269910403185682,0.21799402687904554,-0.7910029865604773
10.72718231707317,1.402503111000498,0.20166874066699877,-0.7991656296665006
10.735181707317073,0.9,0.0,-1.4484823848238355
10.743181097560974,0.9015142276422736,0.0,-1.6030284552845473
10.751180487804877,0.9117698561600979,0.0,-1.6235397123201958
10.75917987804878,0.9220254846779221,0.0,-1.6440509693558443
10.767179268292683,0.9322811131957462,0.0,-1.6645622263914928
10.775178658536584,0.9425367417135683,0.0,-1.6850734834271366
10.783178048780487,0.9527923702313925,0.0,-1.705584740462785
10.79117743902439,0.9630479987492166,0.0,-1.7260959974984336
10.799176829268292,0.9733036272670409,0.0,-1.7466072545340818
10.807176219512195,0.9835592557848651,0.0,-1.7671185115697303
10.815175609756096,0.993814884302687,0.0,-1.7876297686053744
10.823174999999999,1.0737500000001798,-0.008749999999940049,-1.9825000000001198
10.831174390243902,0.5934756097561007,-0.10260975609755972,-1.390865853658541
10.839173780487805,0.5490345528455293,-0.12038617886178826,-1.328648373983741
10.847173170731706,0.5045934959349678,-0.13816260162601288,-1.2664308943089548
10.855172560975609,0.4601524390243964,-0.15593902439024143,-1.204213414634155
10.863171951219512,0.415711382113825,-0.17371544715447,-1.141995934959355
10.871171341463414,0.37127032520325365,-0.19149186991869854,-1.079778455284555
10.879170731707317,0.3268292682926822,-0.20926829268292707,-1.0175609756097552
10.887170121951218,0.2823882113821207,-0.22704471544715168,-0.9553434959349689
10.895169512195121,0.23794715447154935,-0.24482113821138024,-0.8931260162601691
10.903168902439024,0.19350609756097792,-0.2625975609756088,-0.8309085365853691
10.911168292682927,0.14906504065040654,-0.28037398373983735,-0.7686910569105692
10.919167682926828,0.10462398373984505,-0.298150406504062,-0.7064735772357831
10.92716707317073,-1.7694918699186228,-0.7527845528455175,1.0694918699186227
10.935166463414633,-2.7172090402969196,-0.9,2.1206508483563034
10.943165853658536,-2.760683987274653,-0.9,2.1728207847295833
10.95116524390244,-2.8041589342523863,-0.9,2.2249907211028637
10.95916463414634,-2.8476338812301103,-0.9,2.277160657476132
10.967164024390243,-2.8911088282078437,-0.9,2.329330593849412
10.975163414634146,-2.934583775185577,-0.9,2.3815005302226924
10.983162804878049,-2.9780587221633104,-0.9,2.4336704665959723
10.99116219512195,-3.021533669141034,-0.9,2.4858404029692407
10.999161585365853,-3.0650086161187673,-0.9,2.538010339342521
11.007160975609755,-3.1084835630965006,-0.9,2.590180275715801
11.015160365853658,-3.151958510074234,-0.9,2.642350212089081
11.02315975609756,-3.195433457051958,-0.9,2.6945201484623498
11.031159146341462,2.103906319290422,0.30043403547671355,3.498842572062097
11.039158536585365,2.3002549889134927,0.3222505543237214,3.440665188470076
11.047157926829268,2.4966036585365634,0.34406707317072927,3.382487804878055
11.05515731707317,2.692952328159634,0.3658835920177371,3.3243104212860346
11.063156707317072,2.889300997782661,0.3877001108647401,3.2661330376940265
11.071156097560975,3.0856496674057317,0.40951662971174796,3.2079556541020056
11.079155487804877,3.2819983370288024,0.4313331485587558,3.1497782705099846
11.08715487804878,3.478347006651873,0.4531496674057637,3.0916008869179636
11.095154268292681,3.6746956762749,0.47496618625276665,3.0334235033259556
11.103153658536584,3.8710443458979706,0.4967827050997745,2.9752461197339346
11.111153048780487,4.067393015521041,0.5185992239467824,2.9170687361419136
11.11915243902439,4.263741685144112,0.5404157427937902,2.8588913525498927
11.127151829268293,4.460090354767183,0.562232261640798,2.800713968957872
11.135151219512194,4.65643902439021,0.5840487804878011,2.7425365853658636
11.143150609756097,6.162347560975997,0.7,1.7322256097567932
11.15115,5.044000000000038,0.5770000000000071,0.6130000000000166
11.159149390243902,4.1907317073171,0.4170121951219565,0.23969512195123166
11.167148780487803,1.8173013375295854,-0.033217938630984455,-0.22491345397323836
11.175148170731706,1.5334520062943207,-0.08482690794648715,-0.2636201809598654
11.183147560975609,1.2496026750590559,-0.13643587726198983,-0.30232690794649236
11.191146951219512,0.9657533438237911,-0.1880448465774925,-0.3410336349331194
11.199146341463415,0.6819040125885261,-0.2396538158929952,-0.37974036191974636
11.207145731707316,0.39805468135332434,-0.2912627852084864,-0.41844708890636484
11.215145121951219,0.11420535011805955,-0.3428717545239891,-0.4571538158929918
11.223144512195121,-0.16964398111720547,-0.3944807238394918,-0.49586054287961884
11.231143902439024,-3.8904065040650404,-0.9,-0.9
11.239143292682925,-3.6485670731707467,-0.8885704607046103,-0.9
11.247142682926828,-3.568573170731718,-0.8707940379403818,-0.9
11.255142073170731,-3.4885792682926895,-0.8530176151761533,-0.9
11.263141463414634,-3.408585365853661,-0.8352411924119246,-0.9
11.271140853658537,-3.3285914634146323,-0.8174647696476961,-0.9
11.279140243902438,-3.2485975609756217,-0.7996883468834715,-0.9
11.28713963414634,-3.1686036585365933,-0.7819119241192429,-0.9
11.295139024390243,-3.0886097560975645,-0.7641355013550144,-0.9
11.303138414634146,-3.008615853658536,-0.7463590785907858,-0.9
11.311137804878047,-2.928621951219525,-0.7285826558265611,-0.9
11.31913719512195,-2.8486280487804967,-0.7108062330623326,-0.9
11.327136585365853,-0.7043902439028212,-0.3295121951220331,-0.9
11.335135975609756,1.3,0.30356360864744897,-0.9
11.343135365853659,1.3,0.3126538248337023,-0.9
11.35113475609756,1.3,0.3217440410199536,-0.9
11.359134146341463,1.3,0.3308342572062069,-0.9
11.367133536585365,1.3,0.33992447339246024,-0.9
11.375132926829268,1.3,0.3490146895787135,-0.9
11.38313231707317,1.3,0.3581049057649648,-0.9
11.391131707317072,1.3,0.3671951219512181,-0.9
11.399131097560975,1.3,0.37628533813747145,-0.9
11.407130487804878,1.3,0.3853755543237247,-0.9
11.415129878048779,1.3,0.39446577050997605,-0.9
11.423129268292682,1.0064634146340814,0.7064634146340815,-0.687073170731837
11.431128658536585,1.4181545434923342,0.9,-0.39546136412691646
11.439128048780487,1.4464709691344682,0.9,-0.38838225771638296
11.44712743902439,1.4747873947766021,0.9,-0.38130315130584946
11.455126829268291,1.5031038204187301,0.9,-0.37422404489531746
11.463126219512194,1.5314202460608641,0.9,-0.36714493848478397
11.471125609756097,1.5597366717029981,0.9,-0.36006583207425047
11.479125,1.5880530973451321,0.9,-0.35298672566371697
11.4871243902439,1.6163695229872599,0.9,-0.34590761925318503
11.495123780487804,1.644685948629394,0.9,-0.3388285128426515
11.503123170731707,1.673002374271528,0.9,-0.331749406432118
11.51112256097561,1.701318799913662,0.9,-0.3246703000215845
11.519121951219512,1.7296352255557963,0.9,-0.3175911936110509
11.527121341463413,1.757951651197924,0.9,-0.310512087200519
11.535120731707316,1.786268076840058,0.9,-0.3034329807899855
11.543120121951219,2.1578215077605107,1.0192738359201703,-0.08072616407982976
11.551119512195122,2.375986696230603,1.0919955654102012,-0.008004434589798881
11.559118902439023,2.380989681050662,1.0936632270168876,0.21267354596622512
11.567118292682926,2.344069418386495,1.0813564727954985,0.23728705440900327
11.575117682926829,2.307149155722328,1.0690497185741092,0.2619005628517814
11.583117073170731,2.2702288930581607,1.0567429643527202,0.2865140712945596
11.591116463414634,2.2333086303939935,1.0444362101313311,0.31112757973733773
11.599115853658535,2.1963883677298344,1.0321294559099448,0.3357410881801104
11.607115243902438,2.159468105065667,1.0198227016885557,0.3603545966228886
11.615114634146341,2.1225478424015,1.0075159474671667,0.3849681050656667
11.623114024390244,0.56579268292668,0.59429878048778,0.70570121951222
11.631113414634145,-0.40419736187157573,0.5,0.7958026381284243
11.639112804878048,-0.4123600049775991,0.5,0.7876399950224009
11.64711219512195,-0.4205226480836225,0.5,0.7794773519163776
11.655111585365853,-0.4286852911896459,0.5,0.7713147088103541
11.663110975609756,-0.43684793429566926,0.5,0.7631520657043307
11.671110365853657,-0.44501057740169087,0.5,0.7549894225983091
11.67910975609756,-0.45317322050771425,0.5,0.7468267794922857
11.687109146341463,-0.46133586361373763,0.5,0.7386641363862624
11.695108536585366,-0.469498506719761,0.5,0.730501493280239
11.703107926829267,-0.4776611498257826,0.5,0.7223388501742174
11.71110731707317,-0.485823792931806,0.5,0.714176207068194
11.719106707317072,-0.4939864360378294,0.5,0.7060135639621706
11.727106097560975,0.19495934959335318,0.8106097560975074,0.5262601626016616
11.735105487804876,2.048559533175959,1.2044145030159963,0.1911709939680075
11.74310487804878,2.143175976921046,1.2130159979019133,0.17396800419617342
11.751104268292682,2.2377924206661337,1.2216174927878303,0.15676501442433938
11.759103658536585,2.332408864411221,1.2302189876737473,0.1395620246525053
11.767103048780488,2.427025308156308,1.2388204825596645,0.12235903488067124
11.775102439024389,2.5216417519013747,1.2474219774455795,0.105156045108841
11.783101829268292,2.616258195646462,1.2560234723314965,0.08795305533700692
11.791101219512194,2.710874639391549,1.2646249672174137,0.07075006556517285
11.799100609756097,2.8054910831366366,1.2732264621033307,0.05354707579333878
11.807099999999998,2.900107526881703,1.2818279569892457,0.03634408602150854
11.815099390243901,2.99472397062679,1.290429451875163,0.0191410962496745
11.823098780487804,3.0893404143718777,1.2990309467610799,0.0019381064778404289
11.831098170731707,3.3254573170733877,0.4352743902440327,-0.3
11.83909756097561,3.0535673581034923,0.2801002963300681,-0.3
11.84709695121951,3.0012348985639523,0.257672099384551,-0.3
11.855096341463414,2.9489024390244007,0.23524390243902887,-0.3
11.863095731707316,2.896569979484849,0.21281570549350676,-0.3
11.87109512195122,2.8442375199452976,0.19038750854798464,-0.3
11.87909451219512,2.7919050604057576,0.16795931160246752,-0.3
11.887093902439023,2.739572600866206,0.1455311146569454,-0.3
11.895093292682926,2.6872401413266545,0.12310291771142329,-0.3
11.903092682926829,2.6349076817871024,0.10067472076590117,-0.3
11.911092073170732,2.582575222247551,0.07824652382037905,-0.3
11.919091463414633,2.530242762708011,0.05581832687486191,-0.3
11.927090853658536,2.4779103031684593,0.03339012992933982,-0.3
11.935090243902438,2.4255778436289077,0.010961932983817702,-0.3
11.943089634146341,1.9357035647279823,-0.11607410881800442,-0.3
11.951089024390242,1.6895684803002555,-0.17760787992493615,-0.3
11.959088414634145,1.5122847919655555,-0.09385760401722221,-0.3030711979913889
11.967087804878048,1.5593400286943961,-0.07032998565280196,-0.314835007173599
11.97508719512195,1.6063952654232365,-0.04680236728838171,-0.3265988163558091
11.983086585365854,1.6534505021520771,-0.023274748923961475,-0.33836262553801927
11.991085975609755,1.700505738880907,0.0002528694404535514,-0.35012643472022675
11.999085365853658,1.7475609756097474,0.023780487804873796,-0.3618902439024369
12.00708475609756,1.794616212338588,0.04730810616929404,-0.37365405308464705
12.015084146341463,1.8416714490674284,0.07083572453371428,-0.38541786226685715
12.023083536585364,1.8887266857962586,0.09436334289812931,-0.3971816714490647
12.031082926829267,2.769430894308906,0.5231436314363019,-0.7462872628726038
12.03908231707317,3.0,0.7082317073170348,-1.0082317073170348
12.047081707317073,2.991147865853658,0.8,-1.1265564024390264
12.055081097560976,2.9811486280487793,0.8,-1.156554115853662
12.063080487804877,2.971149390243903,0.8,-1.1865518292682908
12.07107987804878,2.9611501524390245,0.8,-1.2165495426829265
12.079079268292682,2.951150914634146,0.8,-1.2465472560975621
12.087078658536585,2.9411516768292674,0.8,-1.2765449695121978
12.095078048780486,2.931152439024391,0.8,-1.3065426829268267
12.10307743902439,2.9211532012195125,0.8,-1.3365403963414622
12.111076829268292,2.911153963414634,0.8,-1.3665381097560978
12.119076219512195,2.9011547256097554,0.8,-1.3965358231707334
12.127075609756096,2.6,1.1509451219512012,-1.4490548780487986
12.135074999999999,2.4965056818181828,1.303494318181817,-1.2895170454545488
12.143074390243902,2.48741546563193,1.3125845343680702,-1.2622463968957895
12.151073780487804,2.4783252494456764,1.3216747505543234,-1.23497574833703
12.159073170731707,2.4692350332594235,1.3307649667405765,-1.2077050997782708
12.167072560975608,2.4601448170731723,1.3398551829268275,-1.1804344512195173
12.175071951219511,2.4510546008869194,1.3489453991130806,-1.153163802660758
12.183071341463414,2.441964384700666,1.3580356152993338,-1.1258931541019987
12.191070731707317,2.432874168514413,1.367125831485587,-1.0986225055432393
12.199070121951218,2.423783952328162,1.376216047671838,-1.071351856984486
12.20706951219512,2.414693736141909,1.385306263858091,-1.0440812084257265
12.215068902439024,2.4056035199556556,1.3943964800443442,-1.0168105598669672
12.223068292682926,2.4,1.434471544715437,-0.6310569105691259
12.23106768292683,2.9020934959349582,1.4989532520325208,0.0010467479674792072
12.23906707317073,2.917778574844568,1.4911107125777159,0.008889287422284146
12.247066463414633,2.9334636537541816,1.4832681731229092,0.016731826877090825
12.255065853658536,2.949148732663795,1.4754256336681024,0.024574366331897506
12.263065243902439,2.9648338115734085,1.4675830942132957,0.032416905786704184
12.27106463414634,2.9805188904830184,1.4597405547584907,0.04025944524150912
12.279064024390243,2.9962039693926314,1.4518980153036842,0.048101984696315804
12.287063414634146,3.011889048302245,1.4440554758488775,0.055944524151122485
12.295062804878048,3.0275741272118584,1.4362129363940708,0.06378706360592916
12.303062195121951,3.043259206121472,1.428370396939264,0.07162960306073585
12.311061585365852,3.0589442850310817,1.420527857484459,0.07947214251554079
12.319060975609755,3.074629363940695,1.4126853180296526,0.08731468197034746
12.327060365853658,3.090314442850308,1.4048427785748459,0.09515722142515415
12.33505975609756,3.1133032873806963,1.386696712619304,0.12660657476139203
12.343059146341462,3.148083244962875,1.351916755037125,0.19616648992575
12.351058536585365,3.182863202545062,1.3171367974549384,0.26572640509012346
12.359057926829268,3.352896341463378,1.3,0.14710365853662194
12.36705731707317,3.4,1.3,0.06639372822299594
12.375056707317073,3.4,1.3,0.02830139372822088
12.383056097560974,3.4,1.3,-0.009790940766545714
12.391055487804877,3.4,1.3,-0.047883275261320773
12.39905487804878,3.4,1.3,-0.0859756097560958
12.407054268292683,3.4,1.3,-0.12406794425087087
12.415053658536584,3.4,1.3,-0.16216027874563746
12.423053048780487,3.4,1.29734756097567,-0.2079573170729903
12.43105243902439,2.956853658536644,1.1,-1.124195121951141
12.439051829268292,2.468148267008987,0.9936296534017974,-1.6127406931964052
12.447051219512195,2.4260462130937093,0.9852092426187419,-1.6295815147625163
12.455050609756096,2.3839441591784407,0.9767888318356882,-1.6464223363286237
12.463049999999999,2.341842105263163,0.9683684210526327,-1.6632631578947348
12.471049390243902,2.299740051347885,0.959948010269577,-1.680103979460846
12.479048780487805,2.2576379974326075,0.9515275994865214,-1.6969448010269572
12.487048170731706,2.215535943517339,0.9431071887034678,-1.7137856225930646
12.495047560975609,2.173433889602061,0.9346867779204122,-1.7306264441591757
12.503046951219511,2.131331835686783,0.9262663671373567,-1.7474672657252868
12.511046341463414,2.0892297817715053,0.9178459563543011,-1.7643080872913979
12.519045731707315,2.047127727856237,0.9094255455712474,-1.7811489088575052
12.527045121951218,2.0050256739409593,0.9010051347881919,-1.7979897304236163
12.535044512195121,0.8996685262065464,0.9000473533990648,-0.7996685262065464
12.543043902439024,0.8400985988583334,0.9085573430202382,-0.7400985988583334
12.551043292682927,0.7805286715101204,0.9170673326414114,-0.6805286715101204
12.559042682926828,0.7209587441619206,0.9255773222625828,-0.6209587441619207
12.56704207317073,0.6613888168137076,0.934087311883756,-0.5613888168137077
12.575041463414633,0.6018188894654947,0.9425973015049294,-0.5018188894654947
12.583040853658536,0.5422489621172817,0.9511072911261026,-0.44224896211728165
12.591040243902437,0.4826790347690819,0.959617280747274,-0.3826790347690819
12.59903963414634,0.42310910742086894,0.9681272703684474,-0.3231091074208689
12.607039024390243,0.36353918007265595,0.9766372599896206,-0.26353918007265587
12.615038414634146,0.303969252724443,0.9851472496107939,-0.20396925272444288
12.623037804878049,0.24439932537623,0.9936572392319671,-0.1443993253762299
12.63103719512195,0.11269163763070081,1.0291027874564331,0.07461672473859837
12.639036585365853,1.7512195121945153,1.4036585365853225,1.0
12.647035975609755,3.1178125964803924,1.4910937017598038,0.9821874035196076
12.655035365853658,3.1380642173510327,1.4809678913244837,0.9619357826489673
12.66303475609756,3.1583158382216685,1.4708420808891656,0.9416841617783314
12.671034146341462,3.178567459092309,1.4607162704538454,0.921432540907691
12.679033536585365,3.1988190799629495,1.4505904600185253,0.9011809200370506
12.687032926829268,3.2190707008335897,1.440464649583205,0.8809292991664102
12.69503231707317,3.23932232170423,1.4303388391478848,0.8606776782957698
12.703031707317072,3.2595739425748658,1.420213028712567,0.8404260574251339
12.711031097560975,3.2798255634455065,1.4100872182772466,0.8201744365544935
12.719030487804877,3.298475609756099,1.3954268292682983,0.7984756097560995
12.72702987804878,2.939542682927007,0.797012195122002,0.448506097561001
12.735029268292681,1.674067663257281,0.5,0.28703383162864055
12.743028658536584,1.6396616837136129,0.5,0.2698308418568065
12.751028048780487,1.605255704169945,0.5,0.25262785208497246
12.75902743902439,1.5708497246262767,0.5,0.23542486231313836
12.767026829268293,1.5364437450826087,0.5,0.21822187254130432
12.775026219512194,1.502037765538948,0.5,0.20101888276947408
12.783025609756097,1.4676317859952799,0.5,0.18381589299764
12.791025,1.433225806451612,0.5,0.16661290322580596
12.799024390243902,1.3988198269079437,0.5,0.1494099134539719
12.807023780487803,1.3644138473642833,0.5,0.13220692368214165
12.815023170731706,1.330007867820615,0.5,0.11500393391030758
12.823022560975609,1.248871951219526,0.44887195121952606,0.04887195121952604
12.831021951219512,1.806738139908869,0.0988769766818552,-0.4022460466362896
12.839021341463415,1.8594813722862507,0.09008643795229157,-0.4198271240954169
12.847020731707316,1.9122246046636207,0.0812958992227299,-0.4374082015545402
12.855020121951219,1.9649678370410024,0.07250536049316628,-0.4549892790136675
12.863019512195121,2.017711069418384,0.06371482176360266,-0.4725703564727947
12.871018902439024,2.070454301795766,0.054924283034039026,-0.49015143393192195
12.879018292682925,2.1231975341731357,0.04613374430447735,-0.5077325113910452
12.887017682926828,2.1759407665505175,0.03734320557491372,-0.5253135888501725
12.895017073170731,2.2286839989278993,0.0285526668453501,-0.5428946663092997
12.903016463414634,2.281427231305281,0.019762128115786468,-0.560475743768427
12.911015853658535,2.3341704636826512,0.010971589386224806,-0.5780568212275503
12.919015243902438,2.386913696060033,0.0021810506566611737,-0.5956378986866776
12.92701463414634,2.867154471544659,-0.35073170731698844,-0.967154471544659
12.935014024390243,4.512428966557703,-1.5186434498365549,-1.2968927583605743
12.943013414634146,4.54541614282122,-1.5681242142318303,-1.288645964294695
12.951012804878047,4.57840331908473,-1.617604978627095,-1.2803991702288176
12.95901219512195,4.611390495348247,-1.6670857430223704,-1.2721523761629383
12.967011585365853,4.644377671611764,-1.716566507417646,-1.263905582097059
12.975010975609756,4.677364847875281,-1.7660472718129214,-1.2556587880311798
12.983010365853657,4.710352024138791,-1.815528036208186,-1.2474119939653023
12.99100975609756,4.743339200402308,-1.8650088006034615,-1.239165199899423
12.999009146341463,4.776326376665825,-1.914489564998737,-1.2309184058335438
13.007008536585365,4.809313552929342,-1.9639703293940125,-1.2226716117676646
13.015007926829268,4.842300729192859,-2.013451093789288,-1.2144248177017853
13.02300731707317,4.875287905456369,-2.0629318581845526,-1.2061780236359079
13.031006707317072,4.499329268292847,-2.800372628726196,-0.8999254742547608
13.039006097560975,3.6993902439024353,-3.24478319783198,-0.811043360433604
13.047005487804878,2.1498353658536575,-3.8500548780487804,-0.5499451219512193
13.055004878048779,2.031394248270828,-3.9,-0.49103021477976344
13.063004268292682,2.1149699672369766,-3.9,-0.46715143793229236
13.071003658536585,2.1985456862031256,-3.9,-0.4432726610848213
13.079003048780487,2.2821214051692746,-3.9,-0.4193938842373502
13.08700243902439,2.365697124135423,-3.9,-0.39551510738987905
13.095001829268291,2.4492728431015536,-3.9,-0.3716363305424133
13.103001219512194,2.5328485620677026,-3.9,-0.3477575536949422
13.111000609756097,2.616424281033851,-3.9,-0.3238787768474711
13.119,2.7,-3.9,-0.3
13.1269993902439,2.295960827790099,-1.587882483370298,1.1060587583148511
13.134998780487804,2.2798004434589823,-1.5394013303769476,1.1302993348115262
13.142998170731707,2.2636400591278654,-1.4909201773835972,1.1545399113082015
13.15099756097561,2.247479674796749,-1.4424390243902467,1.1787804878048767
13.158996951219512,2.231319290465632,-1.3939578713968963,1.203021064301552
13.166996341463413,2.2151589061345187,-1.3454767184035568,1.2272616407982218
13.174995731707316,2.198998521803402,-1.296995565410206,1.2515022172948969
13.182995121951219,2.1828381374722854,-1.248514412416856,1.2757427937915722
13.190994512195122,2.1666777531411685,-1.2000332594235052,1.2999833702882473
13.198993902439023,2.150517368810055,-1.1515521064301657,1.324223946784917
13.206993292682926,2.1343569844789383,-1.1030709534368153,1.3484645232815924
13.214992682926828,2.1181966001478214,-1.0545898004434648,1.3727050997782675
13.222992073170731,2.102036215816705,-1.0061086474501144,1.3969456762749428
13.230991463414632,-1.097012195121383,0.6987195121948784,2.099573170731626
13.238990853658535,-1.1439057893326123,0.7087811578665224,2.1087811578665225
13.246990243902438,-1.1878584829804304,0.717571696596086,2.117571696596086
13.254989634146341,-1.2318111766282485,0.7263622353256497,2.12636223532565
13.262989024390244,-1.2757638702760667,0.7351527740552133,2.1351527740552134
13.270988414634145,-1.319716563923875,0.743943312784775,2.143943312784775
13.278987804878048,-1.363669257571693,0.7527338515143386,2.1527338515143386
13.28698719512195,-1.4076219512195112,0.7615243902439023,2.1615243902439025
13.294986585365853,-1.4515746448673295,0.7703149289734659,2.170314928973466
13.302985975609754,-1.4955273385151377,0.7791054677030276,2.1791054677030277
13.310985365853657,-1.5394800321629558,0.7878960064325912,2.187896006432591
13.31898475609756,-1.5834327258107739,0.7966865451621549,2.196686545162155
13.326984146341463,-2.0253658536593235,0.9047560975611231,0.911097560975954
13.334983536585366,3.481868070953439,1.1879120473022926,-0.18186807095343913
13.342982926829267,3.4576274944567693,1.1717516629711795,-0.1576274944567693
13.35098231707317,3.433386917960094,1.1555912786400626,-0.13338691796009408
13.358981707317072,3.409146341463419,1.139430894308946,-0.10914634146341887
13.366981097560975,3.3849057649667436,1.123270509977829,-0.08490576496674364
13.374980487804876,3.360665188470074,1.1071101256467157,-0.060665188470073794
13.38297987804878,3.3364246119733987,1.090949741315599,-0.03642461197339858
13.390979268292682,3.3121840354767236,1.0747893569844822,-0.012184035476723365
13.398978658536585,3.2879434589800485,1.0586289726533655,0.01205654101995185
13.406978048780488,3.263702882483373,1.0424685883222486,0.036297117516627064
13.414977439024389,3.239462305986703,1.0263082039911353,0.060537694013296894
13.422976829268292,3.215221729490028,1.0101478196600187,0.08477827050997211
13.430976219512194,0.004756097560945527,0.6011890243902364,0.396432926829291
13.438975609756097,-0.3544715447154588,0.5113821138211353,0.5772357723577294
13.446974999999998,-0.4523124999999913,0.4825625000000029,0.6
13.454974390243901,-0.5123079268292625,0.46256402439024585,0.6
13.462973780487804,-0.5723033536585338,0.44256554878048876,0.6
13.470973170731707,-0.632298780487805,0.42256707317073167,0.6
13.47897256097561,-0.6922942073170761,0.40256859756097463,0.6
13.48697195121951,-0.7522896341463341,0.382570121951222,0.6
13.494971341463414,-0.8122850609756054,0.3625716463414649,0.6
13.502970731707316,-0.8722804878048765,0.3425731707317078,0.6
13.51097012195122,-0.9322759146341477,0.32257469512195075,0.6
13.51896951219512,-0.9922713414634057,0.3025762195121981,0.6
13.526968902439023,-1.8419686411149474,0.02901567944252631,0.5290156794425263
13.534968292682926,-1.6956964769647764,0.0010758807588059007,0.39892411924119414
13.542967682926829,-1.6601436314363192,0.009964092140920179,0.3900359078590798
13.550967073170732,-1.624590785907862,0.018852303523034457,0.38114769647696556
13.558966463414633,-1.5890379403794128,0.027740514905146764,0.37225948509485324
13.566965853658536,-1.5534850948509558,0.03662872628726104,0.363371273712739
13.574965243902438,-1.5179322493224987,0.04551693766937532,0.3544830623306247
13.582964634146341,-1.4823794037940417,0.0544051490514896,0.3455948509485104
13.590964024390242,-1.4468265582655924,0.0632933604336019,0.3367066395663981
13.598963414634145,-1.4112737127371353,0.07218157181571618,0.32781842818428386
13.606962804878048,-1.3757208672086783,0.08106978319783045,0.31893021680216954
13.61496219512195,-1.340168021680221,0.08995799457994474,0.3100420054200553
13.622961585365852,-1.304615176151772,0.09884620596205704,0.30115379403794296
13.630960975609755,-0.10390243902455229,0.3,-0.19609756097544773
13.638960365853658,0.18308966186253206,0.3,-0.4
13.64695975609756,0.15581901330377212,0.3,-0.4
13.654959146341463,0.1285483647450122,0.3,-0.4
13.662958536585364,0.10127771618625832,0.3,-0.4
13.670957926829267,0.0740070676274984,0.3,-0.4
13.67895731707317,0.04673641906873846,0.3,-0.4
13.686956707317073,0.019465770509978525,0.3,-0.4
13.694956097560974,-0.00780487804877536,0.3,-0.4
13.702955487804877,-0.03507552660753527,0.3,-0.4
13.71095487804878,-0.062346175166295204,0.3,-0.4
13.718954268292682,-0.08961682372505514,0.3,-0.4
13.726953658536585,-0.3122996515679682,0.22923344947734398,-0.32923344947734395
13.734953048780486,-0.5984375609756114,0.30156243902438856,0.0
13.74295243902439,-0.5920380487804892,0.30796195121951087,0.0
13.750951829268292,-0.5856385365853668,0.3143614634146331,0.0
13.758951219512195,-0.5792390243902446,0.3207609756097554,0.0
13.766950609756096,-0.5728395121951237,0.3271604878048763,0.0
13.774949999999999,-0.5664400000000015,0.3335599999999985,0.0
13.782949390243902,-0.5600404878048793,0.33995951219512077,0.0
13.790948780487804,-0.5536409756097569,0.3463590243902431,0.0
13.798948170731707,-0.5472414634146346,0.3527585365853653,0.0
13.806947560975608,-0.5408419512195138,0.3591580487804862,0.0
13.814946951219511,-0.5344424390243916,0.36555756097560843,0.0
13.822946341463414,-0.5280429268292692,0.37195707317073073,0.0
13.830945731707317,-0.521643414634147,0.37835658536585304,0.0
13.838945121951218,-0.5152439024390262,0.38475609756097384,0.0
13.84694451219512,-0.5088443902439039,0.39115560975609615,0.0
13.854943902439024,-0.5024448780487816,0.3975551219512184,0.0
13.862943292682926,-0.5676117886179014,0.5,0.016194105691049298
13.87094268292683,-0.4342886178861728,0.5,0.08285569105691362
13.87894207317073,-0.20193089430897676,0.566023035230341,0.1
13.886941463414633,-0.07646922183507919,0.6078435927216402,0.1
13.894940853658536,-0.03837688734030414,0.620541037553232,0.1
13.902940243902439,-0.00028455284552908466,0.6332384823848236,0.1
13.91093963414634,0.03780778164923751,0.6459359272164125,0.1
13.918939024390243,0.07590011614401257,0.6586333720480041,0.1
13.926938414634146,0.11399245063878763,0.6713308168795958,0.1
13.934937804878048,0.1520847851335627,0.6840282617111875,0.1
13.942937195121951,0.19017711962833775,0.6967257065427792,0.1
13.950936585365852,0.1,0.5,0.0687804878049029
13.958935975609755,0.0,0.4,0.0
13.966935365853658,0.0,0.4,0.0
13.97493475609756,0.0,0.4,0.0
13.982934146341462,0.0,0.4,0.0
13.990933536585365,0.0,0.4,0.0
13.998932926829267,0.0,0.4,0.0
14.00693231707317,0.0,0.4,0.0
14.014931707317071,0.0,0.4,0.0
14.022931097560974,-0.4931097560974497,0.20344512195127515,0.09655487804872487
14.030930487804877,-0.392928073668492,0.19292807366849196,0.1
14.03892987804878,-0.38476543056246876,0.18476543056246875,0.1
14.046929268292683,-0.3766027874564455,0.1766027874564455,0.1
14.054928658536584,-0.36844014435042405,0.16844014435042406,0.1
14.062928048780487,-0.36027750124440083,0.16027750124440082,0.1
14.07092743902439,-0.35211485813837756,0.15211485813837758,0.1
14.078926829268292,-0.34395221503235435,0.14395221503235434,0.1
14.086926219512193,-0.3357895719263329,0.1357895719263329,0.1
14.094925609756096,-0.32762692882030964,0.12762692882030968,0.1
14.102924999999999,-0.3194642857142864,0.11946428571428643,0.1
14.110924390243902,-0.3113016426082632,0.11130164260826318,0.1
14.118923780487805,-0.30313899950223994,0.10313899950223994,0.1
14.126923170731706,-0.3,-0.16410569105685696,0.1
14.134922560975609,-0.3049225609756078,-0.3049225609756078,0.09507743902439215
14.142921951219511,-0.3129219512195107,-0.3129219512195107,0.08707804878048929
14.150921341463414,-0.32092134146341356,-0.32092134146341356,0.07907865853658642
14.158920731707315,-0.3289207317073147,-0.3289207317073147,0.07107926829268532
14.166920121951218,-0.33692012195121757,-0.33692012195121757,0.06307987804878246
14.174919512195121,-0.3449195121951204,-0.3449195121951204,0.0550804878048796
14.182918902439024,-0.3529189024390233,-0.3529189024390233,0.04708109756097673
14.190918292682927,-0.36091829268292613,-0.36091829268292613,0.03908170731707387
14.198917682926828,-0.36891768292682725,-0.36891768292682725,0.03108231707317277
14.20691707317073,-0.3769170731707301,-0.3769170731707301,0.023082926829269906
14.214916463414633,-0.384916463414633,-0.384916463414633,0.015083536585367041
14.222915853658536,-0.3929158536585359,-0.3929158536585359,0.007084146341464176
14.230915243902437,-0.4,-0.44576219512187104,0.0
14.23891463414634,-0.4691463414633978,-0.5,0.0
14.246914024390243,-0.20222560975609744,-0.5,0.0022256097560974294
14.254913414634146,-0.21152722631877513,-0.5,0.011527226318775115
14.262912804878049,-0.2208288428814528,-0.5,0.020828842881452803
14.27091219512195,-0.2301304594441284,-0.5,0.030130459444128423
14.278911585365853,-0.2394320760068061,-0.5,0.03943207600680611
14.286910975609755,-0.2487336925694838,-0.5,0.048733692569483796
14.294910365853658,-0.2580353091321615,-0.5,0.05803530913216148
14.30290975609756,-0.2673369256948371,-0.5,0.06733692569483711
14.310909146341462,-0.2766385422575148,-0.5,0.07663854225751479
14.318908536585365,-0.28594015882019247,-0.5,0.08594015882019247
14.326907926829268,-0.2952417753828701,-0.5,0.09524177538287017
14.33490731707317,-0.29073170731707404,-0.545365853658537,0.1
14.342906707317072,-0.4871593319194088,-0.7128406680805912,0.0935796659597044
14.350906097560975,-0.46976935312831575,-0.7302306468716842,0.08488467656415788
14.358905487804877,-0.45237937433722275,-0.7476206256627772,0.07618968716861137
14.36690487804878,-0.4349893955461297,-0.7650106044538703,0.06749469777306485
14.374904268292681,-0.41759941675504053,-0.7824005832449594,0.05879970837752027
14.382903658536584,-0.4002094379639475,-0.7997905620360525,0.05010471898197376
14.390903048780487,-0.3828194591728545,-0.8171805408271455,0.041409729586427246
14.39890243902439,-0.3654294803817615,-0.8345705196182385,0.032714740190880734
14.40690182926829,-0.3480395015906723,-0.8519604984093276,0.02401975079533615
14.414901219512194,-0.33064952279957927,-0.8693504772004208,0.015324761399789638
14.422900609756097,-0.3132595440084862,-0.8867404559915137,0.006629772004243126
14.4309,-0.1,-1.0,-0.1
14.438899390243902,-0.1867066241685167,-0.4955688747228389,0.3044311252771611
14.446898780487803,-0.15943597560976283,-0.4864786585365876,0.3135213414634124
14.454898170731706,-0.1321653270510029,-0.4773884423503343,0.3226115576496657
14.462897560975609,-0.10489467849224296,-0.468298226164081,0.33170177383591903
14.470896951219512,-0.07762402993348304,-0.4592080099778277,0.3407919900221723
14.478896341463413,-0.05035338137472917,-0.4501177937915764,0.3498822062084236
14.486895731707316,-0.02308273281596923,-0.4410275776053231,0.3589724223946769
14.494895121951219,0.004187915742790704,-0.4319373614190698,0.36806263858093025
14.502894512195121,0.03145856430155064,-0.42284714523281647,0.3771528547671835
14.510893902439024,0.058729212860310576,-0.41375692904656314,0.38624307095343685
14.518893292682925,0.0859998614190644,-0.40466671286031186,0.3953332871396881
14.526892682926828,0.5053658536585596,0.27317073170720224,0.11073170731711912
14.534892073170731,0.19542796899931633,0.5,-0.004572031000683685
14.542891463414634,0.18795190335080908,0.5,-0.012048096649190933
14.550890853658535,0.1804758377023035,0.5,-0.01952416229769652
14.558890243902438,0.17299977205379624,0.5,-0.02700022794620377
