accel_time_list,vertical_Accel_x,vertical_Accel_y,vertical_Accel_z
0.0,0.44,-9.617,-2.462
0.007999172642029784,-0.5546330215293915,-10.417294645682817,-1.6846512234047362
0.015998345284059568,-0.6950119446981273,-10.500761422513179,-1.6490483484488168
0.023997517926089354,-0.8353908678668631,-10.584228199343539,-1.6134454734928974
0.031996690568119136,-0.9757697910355989,-10.667694976173898,-1.577842598536978
0.03999586321014892,-1.1161487142043347,-10.751161753004258,-1.5422397235810585
0.04799503585217871,-1.2565276373730707,-10.83462852983462,-1.506636848625139
0.05599420849420849,-1.3969065605418065,-10.918095306664979,-1.4710339736692195
0.06399338113623827,-1.5372854837105423,-11.001562083495338,-1.4354310987133
0.07199255377826806,-1.677664406879278,-11.085028860325698,-1.3998282237573807
0.07999172642029784,-1.8180433300480137,-11.16849563715606,-1.3642253488014613
0.08799089906232763,-1.9584222532167497,-11.25196241398642,-1.3286224738455417
0.09599007170435742,-2.0988011763854857,-11.335429190816779,-1.2930195988896223
0.10398924434638719,-2.239180099554221,-11.418895967647138,-1.2574167239337029
0.11198841698841698,-2.3795590227229573,-11.502362744477498,-1.2218138489777834
0.11998758963044676,-2.5199379458916926,-11.58582952130786,-1.186210974021864
0.12798676227247655,-0.7104260893546912,-10.541491726420317,-1.993254550468823
0.13598593491450633,-0.49522113793542355,-9.142070801234066,-2.6805809992544685
0.14398510755653612,-0.54444681573253,-9.170551371959535,-2.606390870574544
0.15198428019856589,-0.5936724935296361,-9.199031942685004,-2.5322007418946195
0.15998345284059567,-0.6428981713267425,-9.227512513410472,-2.458010613214695
0.16798262548262546,-0.6921238491238489,-9.255993084135941,-2.3838204845347706
0.17598179812465525,-0.7413495269209553,-9.28447365486141,-2.309630355854846
0.18398097076668504,-0.7905752047180616,-9.312954225586878,-2.235440227174921
0.19198014340871483,-0.8398008825151682,-9.341434796312347,-2.1612500984949965
0.1999793160507446,-0.8890265603122743,-9.369915367037816,-2.0870599698150722
0.20797848869277438,-0.9382522381093807,-9.398395937763285,-2.0128698411351476
0.21597766133480417,-0.9874779159064871,-9.426876508488753,-1.9386797124552229
0.22397683397683396,-1.0367035937035936,-9.455357079214222,-1.8644895837752982
0.23197600661886375,0.32973855488140313,-9.166958907887482,-2.255738554881403
0.2399751792608935,-0.1789244346387208,-9.41219580805295,-2.721489244346387
0.2479743519029233,-0.025469042230126387,-9.404656357976554,-2.7416250927211516
0.2559735245449531,0.12798635017846804,-9.397116907900159,-2.7617609410959165
0.26397269718698285,0.2814417425870619,-9.389577457823762,-2.781896789470681
0.27197186982901267,0.43489713499565685,-9.382038007747367,-2.8020326378454454
0.27997104247104243,0.5883525274042508,-9.374498557670972,-2.8221684862202103
0.28797021511307225,0.7418079198128457,-9.366959107594575,-2.842304334594975
0.295969387755102,0.8952633122214395,-9.35941965751818,-2.8624401829697392
0.30396856039713177,1.0487187046300335,-9.351880207441784,-2.882576031344504
0.3119677330391616,1.2021740970386285,-9.344340757365387,-2.9027118797192686
0.31996690568119135,1.3556294894472223,-9.336801307288992,-2.922847728094033
0.32796607832322117,1.7693234418091537,-9.384559018201875,-2.7140724765581923
0.33596525096525093,1.4381119691119704,-9.360181467181468,-2.836953667953668
0.3439644236072807,1.182138444567017,-9.433507216400074,-2.8476192314763744
0.3519635962493105,1.1651624209243256,-9.435950433426624,-2.8565653885177698
0.35996276889134027,1.183728401871259,-9.427852505566792,-2.8652558476844194
0.3679619415333701,1.2022943828181925,-9.419754577706959,-2.8739463068510687
0.37596111417539985,1.2208603637651256,-9.411656649847126,-2.8826367660177183
0.38396028681742966,1.239426344712059,-9.403558721987293,-2.891327225184368
0.3919594594594594,1.2579923256589922,-9.39546079412746,-2.9000176843510177
0.3999586321014892,1.2765583066059256,-9.387362866267628,-2.9087081435176674
0.407957804743519,1.295124287552859,-9.379264938407797,-2.917398602684317
0.41595697738554877,1.3136902684997922,-9.371167010547964,-2.9260890618509663
0.4239561500275786,1.3322562494467256,-9.363069082688131,-2.934779521017616
0.43195532266960834,1.4544624931053531,-9.061110314396032,-2.749994760066188
0.4399544953116381,1.3513253171538886,-9.111338389409818,-2.6447092112520685
0.4479536679536679,1.3410152724152724,-9.110449592449593,-2.625511196911197
0.4559528405956977,1.3307052276766564,-9.109560795489367,-2.6063131825703256
0.4639520132377275,1.32039518293804,-9.108671998529141,-2.5871151682294538
0.47195118587975726,1.310085138199424,-9.107783201568916,-2.5679171538885823
0.479950358521787,1.2997750934608079,-9.10689440460869,-2.548719139547711
0.48794953116381684,1.2894650487221917,-9.106005607648465,-2.5295211252068395
0.4959487038058466,1.2791550039835755,-9.105116810688239,-2.510323110865968
0.5039478764478764,1.2688449592449593,-9.104228013728013,-2.4911250965250966
0.5119470490899062,1.2585349145063434,-9.103339216767788,-2.471927082184225
0.5199462217319359,1.2482248697677272,-9.102450419807562,-2.4527290678433538
0.5279453943739657,1.1059405405405454,-9.107105129619415,-2.5626642029784863
0.5359445670159956,0.5019281209781217,-9.586737074829932,-2.6524765214193784
0.5439437396580253,0.3631869154869166,-9.62948820861678,-2.651054446283018
0.5519429123000551,0.22444570999571145,-9.672239342403627,-2.649632371146657
0.5599420849420849,0.08570450450450634,-9.714990476190476,-2.648210296010296
0.5679412575841146,-0.05303670098669877,-9.757741609977323,-2.646788220873935
0.5759404302261445,-0.19177790647790582,-9.800492743764172,-2.645366145737574
0.5839396028681743,-0.3305191119691109,-9.84324387755102,-2.6439440706012136
0.591938775510204,-0.46926031746031616,-9.885995011337867,-2.6425219954648527
0.5999379481522338,-0.6080015229515211,-9.928746145124716,-2.6410999203284917
0.6079371207942635,-0.7467427284427263,-9.971497278911563,-2.639677845192131
0.6159362934362934,-0.8854839339339334,-10.014248412698413,-2.6382557700557703
0.6239354660783232,-1.0028549365692225,-10.082870380584664,-2.3502796469939464
0.6319346387203529,-2.5678456517742374,-8.270703851811001,-4.916930180180176
0.6399338113623827,-2.109882257767973,-8.058342489428206,-5.019901746644604
0.6479329840044125,-2.011314674878962,-8.000837326101614,-4.99954829625544
0.6559321566464423,-1.9127470919899494,-7.943332162775021,-4.9791948458662745
0.6639313292884721,-1.814179509100938,-7.885826999448429,-4.95884139547711
0.6719305019305019,-1.715611926211927,-7.828321836121837,-4.938487945087945
0.6799296745725316,-1.6170443433229158,-7.770816672795245,-4.918134494698781
0.6879288472145614,-1.5184767604339044,-7.713311509468653,-4.897781044309616
0.6959280198565913,-1.419909177544892,-7.655806346142061,-4.877427593920451
0.703927192498621,-1.3213415946558809,-7.598301182815469,-4.857074143531286
0.7119263651406508,-1.2227740117668695,-7.540796019488877,-4.836720693142122
0.7199255377826805,-1.1242064288778584,-7.483290856162285,-4.816367242752957
0.7279247104247103,-0.8833162805662851,-7.662218790218791,-4.327232947232947
0.7359238830667402,-0.548684225041369,-7.603558190843906,-4.337898510755653
0.7439230557087699,-0.23784693877551233,-7.539646332046333,-4.565506729178155
0.7519222283507997,0.0013759335728432895,-7.431565778685472,-4.8425187161789465
0.7599214009928295,0.14201003637393417,-7.2524491696605615,-4.969856896885853
0.7679205736348593,0.28264413917502706,-7.07333256063565,-5.097195077592761
0.7759197462768891,0.4232782419761179,-6.8942159516107395,-5.224533258299667
0.7839189189189189,0.5639123447772088,-6.71509934258583,-5.351871439006573
0.7919180915609486,0.7045464475782997,-6.53598273356092,-5.47920961971348
0.7999172642029784,0.8451805503793905,-6.35686612453601,-5.606547800420386
0.8079164368450082,0.9858146531804834,-6.177749515511098,-5.733885981127294
0.815915609487038,1.1264487559815743,-5.998632906486188,-5.8612241618342
0.8239147821290678,1.3072591009376706,-5.652469663541098,-5.9003600386100405
0.8319139547710975,2.4583145739551258,-5.045237555527878,-6.837173069053254
0.8399131274131273,2.585011147091791,-5.021154024992735,-6.842075787769336
0.8479123000551572,2.7117077202284574,-4.997070494457591,-6.846978506485419
0.8559114726971869,2.838404293365122,-4.972986963922448,-6.851881225201502
0.8639106453392167,2.965100866501787,-4.948903433387304,-6.856783943917584
0.8719098179812464,3.0917974396384516,-4.924819902852161,-6.861686662633668
0.8799089906232762,3.2184940127751167,-4.900736372317018,-6.86658938134975
0.8879081632653061,3.345190585911783,-4.876652841781874,-6.871492100065833
0.8959073359073358,3.471887159048448,-4.8525693112467305,-6.8763948187819155
0.9039065085493656,3.598583732185113,-4.8284857807115875,-6.881297537497998
0.9119056811913954,3.7252803053217773,-4.8044022501764445,-6.886200256214081
0.9199048538334251,3.8519768784584425,-4.780318719641301,-6.891102974930163
0.927904026475455,4.118017466446042,-4.903456333884895,-8.240972421400977
0.9359031991174848,3.8668388950174672,-5.482032248575106,-9.11383850891708
0.9439023717595145,3.811289085003372,-5.4848763988478275,-9.174010063124348
0.9519015444015443,3.755739274989276,-5.4877205491205485,-9.234181617331616
0.959900717043574,3.70018946497518,-5.49056469939327,-9.294353171538885
0.9678998896856039,3.6446396549610838,-5.493408849665992,-9.354524725746154
0.9758990623276337,3.5890898449469884,-5.496252999938714,-9.414696279953423
0.9838982349696634,3.5335400349328925,-5.499097150211436,-9.47486783416069
0.9918974076116932,3.477990224918797,-5.501941300484157,-9.53503938836796
0.999896580253723,3.422440414904701,-5.504785450756879,-9.595210942575228
1.0078957528957528,3.366890604890605,-5.507629601029601,-9.655382496782497
1.0158949255377825,3.31134079487651,-5.510473751302323,-9.715554050989764
1.0238940981798124,3.153367071152787,-5.615821290678432,-9.90177357970215
1.0318932708218422,2.9904421637380825,-6.087663541092111,-9.77549787250808
1.0398924434638719,2.52460719300005,-5.599428772000201,-9.047915321165322
1.0478916161059018,2.5157899231559946,-5.564159692623979,-8.982376645314144
1.0558907887479314,2.506972653311939,-5.528890613247757,-8.91683796946297
1.0638899613899613,2.4981553834678834,-5.493621533871535,-8.851299293611794
1.0718891340319912,2.4893381136238277,-5.458352454495311,-8.785760617760618
1.0798883066740208,2.480520843779772,-5.42308337511909,-8.720221941909443
1.0878874793160507,2.4717035739357165,-5.387814295742867,-8.654683266058267
1.0958866519580803,2.4628863040916613,-5.352545216366646,-8.589144590207091
1.1038858246001102,2.4540690342476057,-5.317276136990423,-8.523605914355915
1.11188499724214,2.44525176440355,-5.282007057614201,-8.45806723850474
1.1198841698841697,2.4364344945594945,-5.246737978237979,-8.392528562653565
1.1278833425261996,2.8578363210148905,-4.649946635410926,-7.727205460562605
1.1358825151682292,2.8055421164604892,-4.374623512725557,-7.723597588842486
1.1438816878102591,2.60327732251202,-4.249493597825233,-7.770449885745803
1.151880860452289,2.4747004020669423,-4.482465439660929,-7.715366541353384
1.1598800330943186,2.674153456759655,-4.327534095857408,-7.68810620300752
1.1678792057363485,2.8736065114523734,-4.172602752053882,-7.660845864661654
1.1758783783783782,3.073059566145086,-4.017671408250361,-7.63358552631579
1.183877551020408,3.2725126208378046,-3.862740064446835,-7.606325187969926
1.191876723662438,3.471965675530523,-3.707808720643309,-7.579064849624061
1.1998758963044676,3.6714187302232357,-3.5528773768397874,-7.551804511278196
1.2078750689464974,3.8708717849159537,-3.397946033036262,-7.524544172932331
1.215874241588527,4.070324839608666,-3.2430146892327403,-7.497283834586467
1.223873414230557,4.244506343077773,-3.0442977109762976,-7.483480970766682
1.2318725868725868,4.143376833976835,-2.3118355212355226,-8.22111969111969
1.2398717595146165,4.034677391003922,-2.2373382439402834,-7.987600095161322
1.2478709321566464,4.030809659177007,-2.2738179873077824,-7.9405719922658715
1.255870104798676,4.026941927350091,-2.31029773067528,-7.893543889370422
1.2638692774407059,4.023074195523176,-2.346777474042779,-7.8465157864749715
1.2718684500827357,4.01920646369626,-2.383257217410278,-7.799487683579522
1.2798676227247654,4.0153387318693445,-2.419736960777776,-7.752459580684072
1.2878667953667953,4.0114710000424285,-2.456216704145275,-7.705431477788622
1.295865968008825,4.007603268215513,-2.4926964475127726,-7.658403374893173
1.3038651406508548,4.003735536388598,-2.5291761908802717,-7.611375271997723
1.3118643132928847,3.9998678045616822,-2.5656559342477703,-7.564347169102272
1.3198634859349143,3.996000072734767,-2.6021356776152684,-7.517319066206824
1.3278626585769442,3.719009376723715,-1.8938681742968266,-8.570960838389375
1.3358618312189738,3.870431596178138,-1.8890800046260874,-8.189621817340711
1.3438610038610037,3.920146884211399,-1.8919184207248723,-8.189105741686387
1.3518601765030336,3.96986217224466,-1.8947568368236571,-8.188589666032062
1.3598593491450632,4.01957746027792,-1.8975952529224418,-8.188073590377737
1.367858521787093,4.069292748311181,-1.9004336690212265,-8.187557514723412
1.3758576944291228,4.11900803634444,-1.9032720851200113,-8.187041439069088
1.3838568670711526,4.168723324377701,-1.906110501218796,-8.186525363414765
1.3918560397131825,4.218438612410962,-1.9089489173175809,-8.18600928776044
1.3998552123552122,4.268153900444221,-1.9117873334163655,-8.185493212106115
1.407854384997242,4.3178691884774825,-1.9146257495151504,-8.18497713645179
1.4158535576392717,4.367584476510742,-1.917464165613935,-8.184461060797465
1.4238527302813015,4.558669608383859,-1.6385990071705032,-8.613776061775958
1.4318519029233314,4.398877551020436,-0.5907473800330781,-10.440377826806381
1.439851075565361,4.2274161109161055,-0.8330558341272682,-10.414638168781028
1.447850248207391,4.397943927693924,-0.6567104372461549,-10.3266472697187
1.4558494208494206,4.568471744471738,-0.48036504036504635,-10.238656370656374
1.4638485934914505,4.738999561249558,-0.30401964348393296,-10.150665471594046
1.4718477661334803,4.909527378027376,-0.12767424660281956,-10.062674572531716
1.47984693877551,5.08005519480519,0.048671150278288944,-9.97468367346939
1.4878461114175399,5.250583011583009,0.22501654715940234,-9.886692774407061
1.4958452840595695,5.421110828360824,0.40136194404051073,-9.798701875344735
1.5038444567015994,5.591638645138643,0.5777073409216242,-9.710710976282407
1.5118436293436293,5.762166461916461,0.7540527378027377,-9.622720077220077
1.519842801985659,5.932694278694276,0.9303981346838461,-9.53472917815775
1.5278419746276888,5.274051847766133,0.852739106453393,-9.599236417539988
1.5358411472697187,5.322046883618312,0.7140867806582085,-9.625233728626586
1.5438403199117483,5.842233920995828,1.5677251196774997,-11.223718398670776
1.5518394925537782,5.751971651924035,1.5969566641471398,-11.344199764390238
1.5598386651958078,5.661709382852243,1.6261882086167792,-11.464681130109698
1.5678378378378377,5.571447113780449,1.6554197530864192,-11.58516249582916
1.5758370104798676,5.481184844708655,1.6846512975560592,-11.705643861548623
1.5838361831218972,5.390922575636864,1.7138828420256984,-11.826125227268081
1.591835355763927,5.30066030656507,1.7431143864953385,-11.946606592987544
1.5998345284059567,5.210398037493278,1.7723459309649776,-12.067087958707003
1.6078337010479866,5.120135768421484,1.8015774754346177,-12.187569324426466
1.6158328736900165,5.029873499349691,1.8308090199042577,-12.308050690145928
1.6238320463320461,4.702714285714341,2.0005279922779597,-12.571592664092629
1.631831218974076,3.5636440522154857,2.1527821290678455,-12.300780290494579
1.6398303916161057,1.5123063052373689,0.9155974582793522,-12.122587247784093
1.6478295642581355,1.4962149463179366,0.9088074628971641,-12.05924496209546
1.6558287369001654,1.4801235873985046,0.9020174675149759,-11.99590267640683
1.663827909542195,1.4640322284790728,0.895227472132788,-11.9325603907182
1.671827082184225,1.4479408695596407,0.8884374767505998,-11.869218105029567
1.6798262548262546,1.431849510640209,0.8816474813684119,-11.805875819340939
1.6878254274682845,1.4157581517207767,0.8748574859862237,-11.742533533652306
1.6958246001103143,1.3996667928013447,0.8680674906040355,-11.679191247963674
1.703823772752344,1.3835754338819128,0.8612774952218476,-11.615848962275045
1.7118229453943739,1.3674840749624806,0.8544874998396594,-11.552506676586413
1.7198221180364035,1.351392716043049,0.8476975044574715,-11.489164390897782
1.7278212906784334,0.6293011583012107,1.2507131825703426,-12.10183232211801
1.7358204633204632,-0.2111333278567317,0.45586993756674615,-11.456343465045594
1.743819635962493,-0.2649149992371863,0.44744527701822556,-11.405965696917066
1.7518188086045228,-0.31869667061764245,0.43902061646970475,-11.355587928788538
1.7598179812465524,-0.3724783419980971,0.43059595592118416,-11.30521016066001
1.7678171538885823,-0.4262600133785532,0.42217129537266335,-11.254832392531481
1.7758163265306122,-0.4800416847590093,0.41374663482414253,-11.204454624402953
1.7838154991726418,-0.533823356139464,0.40532197427562194,-11.154076856274425
1.7918146718146717,-0.58760502751992,0.39689731372710113,-11.103699088145898
1.7998138444567013,-0.6413866989003747,0.38847265317858054,-11.053321320017371
1.8078130170987312,-0.6951683702808309,0.38004799263005973,-11.002943551888842
1.815812189740761,-0.7489500416612869,0.3716233320815389,-10.952565783760313
1.8238113623827907,-0.8027317130417415,0.3631986715330183,-10.902188015631786
1.8318105350248206,-0.36241977593129737,-0.333637231701748,-7.91633808396942
1.8398097076668503,-0.3333475140710176,-0.3276163490679622,-7.913413655261581
1.8478088803088801,-0.304275252210737,-0.3215954664341763,-7.910489226553743
1.85580805295091,-0.27520299035045637,-0.3155745838003904,-7.907564797845904
1.8638072255929397,-0.24613072849017653,-0.30955370116660463,-7.904640369138065
1.8718063982349695,-0.21705846662989592,-0.3035328185328187,-7.901715940430226
1.8798055708769992,-0.1879862047696161,-0.2975119358990329,-7.898791511722387
1.887804743519029,-0.1589139429093355,-0.291491053265247,-7.895867083014548
1.895803916161059,-0.12984168104905489,-0.2854701706314611,-7.89294265430671
1.9038030888030886,-0.10076941918877508,-0.2794492879976753,-7.890018225598871
1.9118022614451184,-0.07169715732849447,-0.2734284053638894,-7.887093796891032
1.919801434087148,-0.04262489546821463,-0.2674075227301036,-7.884169368183193
1.927800606729178,-0.11381046607831913,-0.0809767420481797,-7.913803893178891
1.9357997793712078,-0.11443408714839698,0.2785769442912137,-7.948803088803091
1.9437989520132375,0.8422116129735158,0.2576692747168902,-7.385138495638497
1.9517981246552674,0.9231908915718426,0.4073821849059922,-7.345735163735164
1.959797297297297,1.0041701701701673,0.55709509509509,-7.306331831831833
1.9677964699393269,1.0851494487684943,0.706808005284192,-7.266928499928501
1.9757956425813568,1.166128727366821,0.8565209154732939,-7.227525168025169
1.9837948152233864,1.2471080059651458,1.0062338256623917,-7.188121836121837
1.9917939878654163,1.3280872845634728,1.1559467358514939,-7.148718504218506
1.999793160507446,1.4090665631617973,1.3056596460405916,-7.109315172315174
2.007792333149476,1.4900458417601243,1.4553725562296935,-7.069911840411842
2.0157915057915057,1.5710251203584513,1.6050854664187955,-7.03050850850851
2.0237906784335356,1.7293932708218347,1.6498626585769522,-6.9143507997793785
2.031789851075565,2.7843188086045205,1.901537451737433,-6.846970766685032
2.039789023717595,2.8244768129931166,1.9338079570253497,-6.981256370056833
2.0477881963596247,2.860386142353533,1.8899864025516209,-7.0510752356171595
2.0557873690016546,2.8962954717139495,1.846164848077892,-7.120894101177486
2.0637865416436845,2.9322048010743664,1.8023432936041632,-7.190712966737811
2.071785714285714,2.968114130434781,1.7585217391304369,-7.260531832298133
2.0797848869277438,3.0040234597951976,1.7147001846567078,-7.330350697858459
2.0877840595697736,3.0399327891556145,1.6708786301829792,-7.400169563418785
2.0957832322118035,3.075842118516031,1.6270570757092502,-7.469988428979111
2.1037824048538334,3.111751447876448,1.5832355212355214,-7.539807294539437
2.111781577495863,3.1476607772368626,1.539413966761795,-7.609626160099759
2.1197807501378927,3.183570106597279,1.4955924122880662,-7.679445025660085
2.1277799227799226,4.575362934362915,2.6119305019304693,-8.217772200772192
2.1357790954219524,4.4972920573634765,3.0246649200220483,-8.41512824048538
2.1437782680639823,4.457234284953498,3.09333522896577,-8.447235559274967
2.1517774407060117,4.403998411853095,3.1450999898561447,-8.477301415067423
2.1597766133480416,4.350762538752689,3.196864750746522,-8.507367270859879
2.1677757859900715,4.297526665652283,3.2486295116368993,-8.537433126652337
2.1757749586321014,4.244290792551878,3.3003942725272766,-8.567498982444794
2.1837741312741312,4.191054919451472,3.352159033417654,-8.59756483823725
2.1917733039161607,4.137819046351069,3.4039237943080285,-8.627630694029707
2.1997724765581905,4.084583173250663,3.455688555198406,-8.657696549822164
2.2077716492002204,4.031347300150257,3.507453316088783,-8.68776240561462
2.2157708218422503,3.9781114270498508,3.5592180769791604,-8.717828261407078
2.22376999448428,3.73095642581357,3.5636503033645894,-8.959828461114174
2.2317691671263096,2.4052587050513345,2.7859346624438825,-12.708326275584337
2.2397683397683394,2.324750902976711,2.6812573172250613,-12.763718395815168
2.2477675124103693,2.244243100902088,2.5765799720062406,-12.819110516045999
2.255766685052399,2.163735298827465,2.4719026267874193,-12.87450263627683
2.263765857694429,2.0832274967528415,2.3672252815685986,-12.92989475650766
2.2717650303364585,2.002719694678223,2.262547936349783,-12.985286876738487
2.2797642029784884,1.9222118926035996,2.157870591130962,-13.040678996969318
2.2877633756205182,1.8417040905289763,2.053193245912141,-13.096071117200148
2.295762548262548,1.761196288454353,1.9485159006933201,-13.15146323743098
2.303761720904578,1.6806884863797298,1.8438385554744992,-13.206855357661809
2.3117608935466074,1.6001806843051112,1.739161210255684,-13.262247477892636
2.3197600661886373,1.5196728822304877,1.6344838650368627,-13.317639598123467
2.327759238830667,1.8142788196359754,2.267357372678831,-13.43617038977754
2.335758411472697,1.548487589630451,1.9958747931605032,-11.259178157749604
2.343757584114727,1.4636143560872619,2.022159179235534,-11.093436020820258
2.3517567567567563,1.4023793103448299,2.0233544579061817,-11.032017086051571
2.359755929398786,1.3411442646023946,2.02454973657683,-10.970598151282882
2.367755102040816,1.279909218859959,2.025745015247478,-10.909179216514193
2.375754274682846,1.2186741731175237,2.0269402939181265,-10.847760281745504
2.383753447324876,1.1574391273750881,2.0281355725887744,-10.786341346976815
2.3917526199669052,1.0962040816326561,2.0293308512594224,-10.72492241220813
2.399751792608935,1.0349690358902208,2.0305261299300708,-10.66350347743944
2.407750965250965,0.9737339901477853,2.0317214086007187,-10.60208454267075
2.415750137892995,0.9124989444053498,2.0329166872713667,-10.540665607902062
2.4237493105350247,0.721000137893003,2.202969525648087,-10.38309376723663
2.431748483177054,0.5500832993596966,2.177845128180533,-9.996013345643783
2.439747655819084,0.5550393084966063,2.163411838413392,-9.968624874097703
2.447746828461114,0.5599953176335162,2.148978548646251,-9.941236402551622
2.455746001103144,0.564951326770426,2.1345452588791103,-9.913847931005542
2.4637451737451737,0.5699073359073359,2.1201119691119694,-9.88645945945946
2.471744346387203,0.5748633450442454,2.1056786793448294,-9.85907098791338
2.479743519029233,0.5798193541811553,2.0912453895776886,-9.8316825163673
2.487742691671263,0.584775363318065,2.0768120998105477,-9.80429404482122
2.4957418643132927,0.5897313724549749,2.0623788100434064,-9.776905573275139
2.5037410369553226,0.5946873815918847,2.0479455202762655,-9.749517101729058
2.511740209597352,0.5996433907287942,2.0335122305091256,-9.72212863018298
2.519739382239382,0.6045993998657041,2.0190789407419847,-9.694740158636897
2.5277385548814117,0.8154094957758321,1.8565633679749727,-7.76752840049587
2.5357377275234416,0.8198446806070566,1.7326949916172032,-7.740758892050264
2.5437369001654715,0.8242798654382811,1.6088266152594337,-7.71398938360466
2.551736072807501,0.8287150502695053,1.4849582389016711,-7.687219875159056
2.559735245449531,0.8331502351007298,1.3610898625439014,-7.660450366713452
2.5677344180915607,0.8375854199319543,1.237221486186132,-7.633680858267847
2.5757335907335905,0.8420206047631789,1.1133531098283624,-7.606911349822242
2.5837327633756204,0.8464557895944033,0.9894847334705928,-7.580141841376637
2.59173193601765,0.8508909744256276,0.8656163571128301,-7.553372332931033
2.5997311086596797,0.8553261592568521,0.7417479807550607,-7.526602824485429
2.6077302813017096,0.8597613440880765,0.6178796043972912,-7.499833316039824
2.6157294539437395,0.864196528919301,0.4940112280395217,-7.473063807594219
2.6237286265857693,0.8686317137505255,0.370142851681752,-7.446294299148614
2.6317277992277988,0.9723156370656099,0.3933069498069281,-6.602422779922858
2.6397269718698286,1.2736162312590864,0.5995238053452333,-6.169818257032543
2.6477261445118585,1.3694245035852168,0.6257938154991723,-6.1678184638720355
2.6557253171538884,1.4652327759113473,0.6520638256531113,-6.165818670711528
2.6637244897959182,1.5610410482374777,0.6783338358070503,-6.16381887755102
2.6717236624379477,1.6568493205636028,0.7046038459609878,-6.161819084390514
2.6797228350799775,1.752657592889733,0.7308738561149268,-6.159819291230006
2.6877220077220074,1.8484658652158634,0.7571438662688659,-6.1578194980694985
2.6957211803640373,1.9442741375419939,0.7834138764228048,-6.155819704908991
2.703720353006067,2.0400824098681243,0.8096838865767438,-6.153819911748483
2.7117195256480966,2.1358906821942494,0.8359538967306813,-6.151820118587976
2.7197186982901265,2.23169895452038,0.8622239068846203,-6.149820325427468
2.7277178709321563,2.3125172642029743,1.0532226696083653,-6.503783894098143
2.735717043574186,2.8112574370288614,1.049810994668139,-8.325649531163814
2.743716216216216,2.918001951951949,1.0080375375375388,-8.386443243243242
2.7517153888582455,3.024746466875031,0.9662640804069405,-8.447236955322666
2.7597145615002754,3.1314909817981187,0.9244906232763399,-8.508030667402092
2.7677137341423053,3.2382354967212064,0.8827171661457395,-8.56882437948152
2.775712906784335,3.344980011644294,0.8409437090151389,-8.629618091560946
2.783712079426365,3.4517245265673817,0.7991702518845384,-8.690411803640375
2.7917112520683944,3.558469041490463,0.7573967947539402,-8.751205515719798
2.7997104247104243,3.6652135564135513,0.7156233376233396,-8.811999227799225
2.807709597352454,3.771958071336639,0.6738498804927392,-8.872792939878652
2.815708769994484,3.8787025862597266,0.6320764233621387,-8.93358665195808
2.823707942636514,3.980389244346387,0.5581781025923923,-9.07097975730832
2.8317071152785434,4.182175951461614,-0.055773855488188556,-10.829038610038388
2.8397062879205732,4.2146886560029495,0.12208230679658694,-11.446754084696934
2.847705460562603,4.106966464423613,0.1985188453759836,-11.546654863026285
2.855704633204633,3.999244272844278,0.27495538395538033,-11.646555641355636
2.863703805846663,3.891522081264942,0.35139192253477697,-11.746456419684987
2.8717029784886923,3.7837998896856124,0.42782846111416944,-11.846357198014333
2.879702151130722,3.6760776981062766,0.5042649996935662,-11.946257976343684
2.887701323772752,3.568355506526941,0.5807015382729629,-12.046158754673035
2.895700496414782,3.460633314947605,0.6571380768523596,-12.146059533002386
2.9036996690568118,3.352911123368269,0.7335746154317562,-12.245960311331737
2.911698841698841,3.2451889317889395,0.8100111540111486,-12.345861089661083
2.919698014340871,3.1374667402096037,0.8864476925905453,-12.445761867990434
2.927697186982901,2.921214837286262,1.4002680639823137,-14.704913127413036
2.935696359624931,2.538802305453521,0.8447442906432281,-14.365738950957038
2.9436955322669607,2.531398815880579,0.735734289000247,-14.259111681590406
2.95169470490899,2.5239953263076367,0.6267242873572718,-14.15248441222378
2.95969387755102,2.516591836734694,0.5177142857142905,-14.045857142857148
2.96769305019305,2.5091883471617518,0.4087042840713093,-13.939229873490516
2.9756922228350797,2.501784857588809,0.2996942824283281,-13.832602604123883
2.9836913954771096,2.494381368015867,0.19068428078534683,-13.725975334757251
2.991690568119139,2.4869778784429246,0.08167427914237169,-13.619348065390627
2.999689740761169,2.479574388869982,-0.02733572250060956,-13.512720796023993
3.0076889134031988,2.4721708992970397,-0.1363457241435907,-13.406093526657362
3.0156880860452286,2.464767409724097,-0.24535572578657205,-13.29946625729073
3.0236872586872585,2.4452857142857196,-0.4335418275417918,-13.056644787644846
3.031686431329288,1.5724809707670886,-0.8422062879207565,-11.026173193601998
3.039685603971318,1.2100521235521327,-0.4715205920206089,-10.62723965802539
3.0476847766133477,1.1377744733883963,-0.2168785354716748,-10.451824195158737
3.0556839492553776,1.1611644592150911,0.002643063109600219,-10.40585426630454
3.0636831218974074,1.184554445041786,0.22216466169087518,-10.359884337450342
3.0716822945394373,1.207944430868481,0.44168626027215024,-10.313914408596146
3.0796814671814667,1.2313344166951745,0.6612078588534132,-10.267944479741951
3.0876806398234966,1.2547244025218696,0.880729457434688,-10.221974550887754
3.0956798124655265,1.2781143883485644,1.100251056015963,-10.176004622033558
3.1036789851075564,1.3015043741752592,1.319772654597238,-10.130034693179361
3.1116781577495862,1.324894360001954,1.539294253178513,-10.084064764325165
3.1196773303916157,1.3482843458286478,1.7588158517597758,-10.03809483547097
3.1276765030336455,1.5128404578047132,1.3432699944842081,-8.272708080529679
3.1356756756756754,1.581625108979948,1.8258796861377493,-7.769775065387969
3.1436748483177053,1.5670029654407536,1.8877227520476363,-7.761001779264452
3.151674020959735,1.5523808219015593,1.949565817957523,-7.752228493140936
3.1596731936017646,1.5377586783623656,2.0114088838674067,-7.743455207017419
3.1676723662437944,1.5231365348231714,2.073251949777293,-7.734681920893903
3.1756715388858243,1.508514391283977,2.13509501568718,-7.725908634770386
3.183670711527854,1.4938922477447825,2.196938081597067,-7.7171353486468695
3.191669884169884,1.479270104205588,2.258781147506954,-7.708362062523353
3.1996690568119135,1.4646479606663945,2.3206242134168376,-7.699588776399837
3.2076682294539434,1.4500258171272,2.3824672793267245,-7.690815490276321
3.2156674020959732,1.4354036735880056,2.4443103452366115,-7.682042204152804
3.223666574738003,1.7359567015994235,2.3890154440154925,-7.608009100937701
3.231665747380033,2.6221367898510657,1.7260137892995082,-6.8978687258687374
3.2396649200220624,2.66032301356619,1.7488090476397058,-6.623345559845563
3.2476640926640923,2.6904322589041674,1.7485394126068285,-6.567351351351354
3.255663265306122,2.7205415042421452,1.748269777573951,-6.511357142857145
3.263662437948152,2.7506507495801227,1.7480001425410736,-6.4553629343629355
3.271661610590182,2.7807599949181006,1.7477305075081961,-6.399368725868727
3.2796607832322113,2.8108692402560767,1.7474608724753187,-6.343374517374521
3.287659955874241,2.840978485594054,1.7471912374424414,-6.287380308880311
3.295659128516271,2.871087730932032,1.746921602409564,-6.231386100386103
3.303658301158301,2.9011969762700094,1.7466519673766865,-6.175391891891893
3.311657473800331,2.9313062216079873,1.746382332343809,-6.119397683397684
3.3196566464423602,2.961415466945963,1.7461126973109318,-6.0634034749034775
3.32765581908439,3.3614186431329265,1.8935670159956104,-5.933149476006585
3.33565499172642,3.579845921629332,2.0185243433031412,-5.990285918901123
3.34365416436845,3.572448837250681,2.0816575983488397,-6.037506841271815
3.3516533370104797,3.5650517528720296,2.1447908533945377,-6.084727763642508
3.359652509652509,3.5576546684933787,2.207924108440232,-6.131948686013198
3.367651682294539,3.5502575841147275,2.2710573634859306,-6.179169608383891
3.375650854936569,3.542860499736076,2.3341906185316286,-6.226390530754583
3.383650027578599,3.535463415357425,2.397323873577327,-6.273611453125276
3.3916492002206287,3.5280663309787736,2.460457128623025,-6.320832375495968
3.399648372862658,3.520669246600123,2.5235903836687195,-6.368053297866658
3.407647545504688,3.5132721622214715,2.586723638714418,-6.41527422023735
3.415646718146718,3.5058750778428203,2.649856893760116,-6.462495142608043
3.4236458907887477,3.5148130170987293,2.7222195256480943,-6.806958632101452
3.4316450634307776,2.879135525831954,2.0639147591469,-6.893081012134584
3.439644236072807,3.1495277830050985,1.4849180104474198,-7.5251927062716915
3.447643408714837,3.0815818695045625,1.5211495571201432,-7.61450111612212
3.4556425813568667,3.013635956004026,1.5573811037928669,-7.703809525972547
3.4636417539988966,2.94569004250349,1.5936126504655903,-7.793117935822975
3.4716409266409265,2.877744129002954,1.629844197138314,-7.8824263456734025
3.479640099282956,2.8097982155024215,1.6660757438110354,-7.971734755523825
3.487639271924986,2.7418523020018855,1.702307290483759,-8.061043165374253
3.4956384445670157,2.6739063885013494,1.7385388371564825,-8.150351575224681
3.5036376172090455,2.6059604750008134,1.7747703838292062,-8.239659985075109
3.5116367898510754,2.538014561500277,1.8110019305019296,-8.328968394925536
3.519635962493105,2.470068647999745,1.8472334771746513,-8.418276804775958
3.5276351351351347,3.419493243243169,1.4003986486485727,-9.861506756756652
3.5356343077771646,3.826833900552745,2.178311192216966,-10.59454711832979
3.5436334804191945,3.863510958092265,2.2468998427433067,-10.640755104974708
3.5516326530612243,3.9001880156317847,2.315488493269648,-10.686963091619626
3.5596318257032538,3.9368650731713024,2.3840771437959853,-10.73317107826454
3.5676309983452836,3.9735421307108223,2.4526657943223262,-10.779379064909458
3.5756301709873135,4.010219188250342,2.521254444848667,-10.825587051554376
3.5836293436293434,4.046896245789862,2.589843095375008,-10.871795038199291
3.5916285162713733,4.0835733033293815,2.6584317459013493,-10.918003024844209
3.5996276889134027,4.1202503608689,2.7270203964276867,-10.964211011489123
3.6076268615554326,4.1569274184084195,2.7956090469540276,-11.01041899813404
3.6156260341974624,4.193604475947939,2.8641976974803685,-11.056626984778958
3.6236252068394923,4.230281533487459,2.93278634800671,-11.102834971423876
3.631624379481522,1.7885833952852588,5.59854869421329,-12.917221084438477
3.6396235521235516,1.8344916904482103,5.426218692294786,-13.00973325499412
3.6476227247655815,1.8803999856111644,5.253888690376273,-13.102245425549771
3.6556218974076113,1.9263082807741183,5.08155868845776,-13.19475759610542
3.663621070049641,1.9722165759370724,4.909228686539247,-13.28726976666107
3.671620242691671,2.0181248711000266,4.736898684620734,-13.37978193721672
3.6796194153337005,2.064033166262978,4.56456868270223,-13.472294107772365
3.6876185879757304,2.109941461425932,4.392238680783718,-13.564806278328014
3.6956177606177603,2.155849756588886,4.219908678865204,-13.657318448883665
3.70361693325979,2.20175805175184,4.047578676946692,-13.749830619439313
3.71161610590182,2.247666346914794,3.8752486750281787,-13.842342789994964
3.7196152785438494,2.2935746420777456,3.7029186731096755,-13.93485496055061
3.7276144511858793,0.7058819635964735,1.5853345284056983,-10.83523000551582
3.735613623827909,0.5085305124925203,2.854440685474877,-11.005475146988067
3.743612796469939,0.4777251880625754,2.9045631608595115,-10.97339335883865
3.751611969111969,0.4469198636326306,2.9546856362441454,-10.941311570689232
3.7596111417539984,0.4161145392026874,3.0048081116287766,-10.909229782539816
3.7676103143960282,0.3853092147727425,3.054930587013411,-10.877147994390397
3.775609487038058,0.3545038903427976,3.105053062398045,-10.845066206240979
3.783608659680088,0.32369856591285273,3.155175537782679,-10.812984418091562
3.791607832322118,0.29289324148290785,3.205298013167313,-10.780902629942144
3.7996070049641473,0.2620879170529647,3.255420488551944,-10.748820841792728
3.807606177606177,0.2312825926230198,3.3055429639365785,-10.71673905364331
3.815605350248207,0.200477268193075,3.3556654393212124,-10.684657265493893
3.823604522890237,0.20464423607279814,3.3766100386100457,-9.925945394374175
3.8316036955322668,0.35526282404853504,3.318850588884203,-9.01111659258299
3.839602868174296,0.49124875896303255,3.2755609487038093,-8.550458356315541
3.847602040816326,1.3175121918897406,2.758397429101522,-7.293876093294456
3.855601213458356,1.3500283092527972,2.5956090715682647,-7.368154124970447
3.863600386100386,1.3825444266158537,2.432820714035007,-7.442432156646439
3.8715995587424157,1.4150605439789101,2.2700323565017495,-7.51671018832243
3.879598731384445,1.447576661341965,2.1072439989685012,-7.590988219998418
3.887597904026475,1.4800927787050215,1.944455641435244,-7.66526625167441
3.895597076668505,1.512608896068078,1.7816672839019867,-7.739544283350401
3.9035962493105347,1.5451250134311345,1.6188789263687293,-7.8138223150263935
3.9115954219525646,1.577641130794191,1.456090568835472,-7.888100346702385
3.919594594594594,1.6101572481572457,1.2933022113022237,-7.962378378378372
3.927593767236624,1.123968284611154,1.1299538058466447,-7.545325013789383
3.9355929398786538,1.0398575712055955,1.325830039548885,-7.707552487354918
3.9435921125206836,1.044537938176996,1.3134908902606472,-7.727635516541291
3.9515912851627135,1.0492183051483963,1.3011517409724098,-7.747718545727664
3.959590457804743,1.0538986721197965,1.2888125916841728,-7.767801574914036
3.967589630446773,1.058579039091197,1.2764734423959352,-7.787884604100409
3.9755888030888027,1.0632594060625975,1.2641342931076978,-7.807967633286782
3.9835879757308326,1.067939773033998,1.25179514381946,-7.828050662473155
3.9915871483728624,1.0726201400053983,1.2394559945312225,-7.848133691659528
3.999586321014892,1.0773005069767987,1.2271168452429855,-7.868216720845899
4.007585493656922,1.0819808739481993,1.2147776959547474,-7.888299750032273
4.015584666298952,1.0866612409195995,1.2024385466665104,-7.908382779218645
4.023583838940981,1.3052688913400845,1.1133494208495063,-7.830082735797128
4.031583011583011,2.0522586872586603,1.3166216216215751,-7.782938223938202
4.039582184225041,2.1470003030615277,1.3751830067340363,-7.902910618063676
4.047581356867071,2.1448906311559375,1.2614365298242867,-7.945016153179418
4.0555805295091005,2.1427809592503473,1.1476900529145497,-7.987121688295155
4.06357970215113,2.140671287344757,1.0339435760048128,-8.029227223410892
4.07157887479316,2.1385616154391665,0.9201970990950632,-8.071332758526635
4.07957804743519,2.1364519435335763,0.8064506221853264,-8.113438293642371
4.08757722007722,2.134342271627986,0.6927041452755768,-8.155543828758114
4.0955763927192494,2.132232599722396,0.5789576683658398,-8.19764936387385
4.103575565361279,2.1301229278168057,0.465211191456103,-8.239754898989588
4.111574738003309,2.128013255911215,0.3514647145463534,-8.28186043410533
4.119573910645339,2.125903584005625,0.23771823763661648,-8.323965969221067
4.127573083287369,2.193946497517914,0.16915057915055873,-8.955623827909516
4.135572255929398,1.935133489820982,-0.48934683535575696,-9.345729895828113
4.143571428571428,2.0172159090908974,-0.5623392857142754,-9.324004870129873
4.151570601213458,2.099298328360822,-0.635331736072802,-9.30227984443163
4.1595697738554875,2.1813807476307376,-0.7083241864313204,-9.280554818733393
4.167568946497518,2.2634631669006624,-0.7813166367898471,-9.25882979303515
4.175568119139547,2.345545586170578,-0.8543090871483656,-9.237104767336913
4.183567291781577,2.4276280054404937,-0.927301537506884,-9.215379741638674
4.191566464423607,2.509710424710418,-1.0002939878654105,-9.193654715940433
4.1995656370656365,2.5917928439803335,-1.073286438223929,-9.171929690242193
4.207564809707667,2.6738752632502583,-1.1462788885824557,-9.150204664543953
4.215563982349696,2.755957682520174,-1.2192713389409742,-9.128479638845713
4.223563154991726,2.8972919654347673,-1.2626289759147016,-9.146040724397842
4.231562327633756,3.2825854476925747,-1.183970444934734,-9.325355511123362
4.239561500275785,3.290218021957802,-1.208152345494159,-10.445861713024982
4.247560672917816,3.4091581008851346,-1.3882289581855802,-10.409294066661415
4.255559845559845,3.5280981798124538,-1.5683055708769817,-10.372726420297852
4.2635590182018746,3.647038258739773,-1.748382183568383,-10.336158773934288
4.271558190843905,3.765978337667105,-1.9284587962598043,-10.299591127570721
4.279557363485934,3.884918416594424,-2.108535408951206,-10.263023481207158
4.287556536127965,4.003858495521756,-2.288612021642627,-10.226455834843591
4.295555708769994,4.122798574449075,-2.4686886343340286,-10.189888188480028
4.3035548814120235,4.2417386533763946,-2.64876524702543,-10.153320542116465
4.311554054054054,4.360678732303727,-2.828841859716851,-10.116752895752898
4.319553226696083,4.479618811231045,-3.0089184724082525,-10.080185249389334
4.3275523993381135,4.371667559687973,-3.8316261129934404,-10.771937435978236
4.335551571980143,3.3600079977939465,-5.668960562603197,-12.177637617208841
4.343550744622172,3.1147263080593746,-5.920989776677473,-12.297021649200225
4.351549917264203,3.041338549750514,-6.011026975718001,-12.261025372311089
4.359549089906232,2.9679507914416625,-6.101064174758519,-12.225029095421956
4.3675482625482624,2.8945630331328025,-6.191101373799047,-12.18903281853282
4.375547435190292,2.8211752748239505,-6.281138572839565,-12.153036541643687
4.383546607832321,2.7477875165150984,-6.3711757718800826,-12.117040264754554
4.391545780474352,2.6743997582062384,-6.46121297092061,-12.081043987865417
4.399544953116381,2.6010119998973864,-6.551250169961128,-12.045047710976284
4.407544125758411,2.5276242415885264,-6.641287369001656,-12.009051434087148
4.415543298400441,2.454236483279675,-6.731324568042174,-11.973055157198017
4.42354247104247,2.31016409266415,-6.609648648648779,-11.74810617760631
4.4315416436845005,1.2670490899063993,-7.00610121345829,-11.52456398234973
4.43954081632653,-0.03816326530611923,-7.040708360763666,-10.859778801843326
4.44753998896856,-0.07015995587424051,-6.9940895266563485,-10.774282268443562
4.45553916161059,-0.10215664644235822,-6.947470692549038,-10.688785735043806
4.463538334252619,-0.13415333701047594,-6.900851858441726,-10.603289201644051
4.4715375068946495,-0.1661500275785972,-6.85423302433441,-10.517792668244287
4.479536679536679,-0.19814671814671492,-6.807614190227098,-10.432296134844531
4.487535852178709,-0.23014340871483624,-6.760995356119782,-10.346799601444767
4.495535024820739,-0.26214009928295395,-6.71437652201247,-10.261303068045011
4.503534197462768,-0.29413678985107167,-6.6677576879051585,-10.175806534645256
4.511533370104798,-0.32613348041919293,-6.621138853797842,-10.09031000124549
4.519532542746828,-0.35813017098731065,-6.574520019690531,-10.004813467845736
4.527531715388858,-0.47732818532819177,-5.868482625482578,-9.42625096525093
4.5355308880308876,1.3049152748253812,-2.2409231269793173,-7.604872131360895
4.543530060672917,1.3615386317296347,-2.1395403546174157,-7.613949844134434
4.551529233314947,1.4181619886338948,-2.038157582255503,-7.6230275569079735
4.559528405956977,1.4747853455381483,-1.9367748098936013,-7.632105269681513
4.567527578599007,1.5314087024424081,-1.8353920375316883,-7.641182982455053
4.5755267512410365,1.5880320593466617,-1.734009265169787,-7.650260695228592
4.583525923883066,1.6446554162509153,-1.6326264928078853,-7.659338408002131
4.591525096525096,1.701278773155175,-1.5312437204459721,-7.668416120775671
4.599524269167126,1.7579021300594286,-1.4298609480840705,-7.67749383354921
4.607523441809156,1.8145254869636886,-1.3284781757221578,-7.68657154632275
4.615522614451185,1.871148843867942,-1.2270954033602561,-7.69564925909629
4.623521787093215,1.9342831534157978,-1.1383693562367065,-7.69963032857931
4.631520959735245,2.0251308998502835,-1.1035158182964322,-7.681917874871957
4.639520132377275,2.0341627137341343,-0.8195841147270203,-7.47656205184776
4.647519305019305,2.4766163544496873,-0.6992171933838601,-7.799638400305066
4.655518477661334,2.504366570652283,-0.694575698147127,-7.823734673448958
4.663517650303364,2.532116786854879,-0.689934202910394,-7.847830946592849
4.671516822945394,2.5598670030574775,-0.6852927076736604,-7.871927219736742
4.6795159955874235,2.5876172192600735,-0.6806512124369273,-7.896023492880633
4.687515168229454,2.615367435462672,-0.6760097172001936,-7.920119766024526
4.695514340871483,2.643117651665268,-0.6713682219634605,-7.944216039168417
4.703513513513513,2.6708678678678637,-0.6667267267267274,-7.9683123123123085
4.711512686155543,2.6986180840704623,-0.6620852314899938,-7.992408585456202
4.719511858797572,2.7263683002730583,-0.6574437362532607,-8.016504858600092
4.727511031439603,3.2808881687809657,-1.0620405405405207,-8.101009238830658
4.735510204081632,4.757357823129263,-1.4954820861677827,-9.535061224489791
4.743509376723662,4.632837369001671,-1.694839244346361,-9.583056260341968
4.751508549365692,4.508316914874066,-1.8941964025249611,-9.63105129619415
4.759507722007721,4.383796460746474,-2.0935535607035396,-9.679046332046326
4.767506894649752,4.259276006618869,-2.2929107188821396,-9.727041367898508
4.775506067291781,4.134755552491277,-2.492267877060718,-9.775036403750684
4.7835052399338105,4.010235098363685,-2.691625035239296,-9.823031439602863
4.791504412575841,3.8857146442360797,-2.890982193417896,-9.871026475455045
4.79950358521787,3.761194190108488,-3.0903393515964748,-9.919021511307221
4.8075027578599006,3.6366737359808825,-3.2896965097750748,-9.967016547159403
4.81550193050193,3.512153281853291,-3.489053667953653,-10.01501158301158
4.823501103143959,2.8135609487041138,-3.7238035024820366,-9.120313844457183
4.83150027578599,2.911595913571072,-3.007647593467468,-8.513087891795964
4.839499448428019,2.856123390249172,-3.032427639152016,-8.54021552075589
4.8474986210700495,2.8006508669272656,-3.0572076848365666,-8.56734314971582
4.855497793712079,2.7451783436053656,-3.081987730521114,-8.594470778675745
4.863496966354108,2.6897058202834656,-3.106767776205662,-8.621598407635672
4.871496138996139,2.6342332969615594,-3.131547821890212,-8.648726036595601
4.879495311638168,2.57876077363966,-3.15632786757476,-8.675853665555527
4.887494484280198,2.5232882503177536,-3.1811079132593107,-8.702981294515455
4.895493656922228,2.4678157269958536,-3.2058879589438583,-8.730108923475381
4.903492829564257,2.4123432036739536,-3.230668004628406,-8.757236552435309
4.911492002206288,2.3568706803520474,-3.255448050312957,-8.784364181395237
4.919491174848317,2.3013981570301474,-3.2802280959975043,-8.811491810355163
4.927490347490347,2.012,-3.984,-8.86
4.935489520132377,2.02742133278769,-4.1584494659240985,-8.766634645837422
4.943488692774406,2.046430119388642,-4.373480988559298,-8.651549774923064
4.9514878654164365,2.0654389059895957,-4.588512511194522,-8.53646490400869
4.959487038058466,2.0844476925905475,-4.803544033829722,-8.421380033094332
4.967486210700496,2.103456479191501,-5.0185755564649455,-8.30629516217996
4.975485383342526,2.122465265792453,-5.233607079100145,-8.191210291265602
4.983484555984555,2.1414740523934044,-5.448638601735345,-8.076125420351243
4.991483728626585,2.1604828389943584,-5.663670124370569,-7.961040549436872
4.999482901268615,2.17949162559531,-5.8787016470057685,-7.845955678522513
5.007482073910645,2.198500412196264,-6.093733169640991,-7.730870807608142
5.015481246552675,2.2175091987972153,-6.308764692276192,-7.615785936693783
5.023480419194704,2.136279279279358,-6.976486118771433,-7.900000367714346
5.031479591836734,0.15643378438332295,-7.1036003771073695,-8.653634982253783
5.039478764478764,0.09930925801578647,-7.036563832466014,-8.52190947624645
5.047477937120794,0.042184731648243656,-6.969527287824651,-8.390183970239102
5.0554771097628235,-0.014939794719292826,-6.902490743183296,-8.258458464231769
5.063476282404853,-0.07206432108682928,-6.83545419854194,-8.126732958224435
5.071475455046883,-0.12918884745437212,-6.768417653900577,-7.995007452217088
5.079474627688913,-0.18631337382190857,-6.701381109259221,-7.863281946209755
5.087473800330943,-0.2434379001894514,-6.634344564617858,-7.731556440202407
5.095472972972972,-0.30056242655698784,-6.567308019976503,-7.599830934195074
5.103472145615002,-0.35768695292452435,-6.500271475335147,-7.468105428187741
5.111471318257032,-0.4148114792920671,-6.433234930693784,-7.336379922180393
5.119470490899062,-0.4719360056596036,-6.366198386052428,-7.20465441617306
5.127469663541092,-0.32258314947600697,-7.352466216216208,-7.817306536127943
5.135468836183121,-0.2734064907567228,-7.230453492992662,-7.105849094650943
5.143468008825151,-0.2021880504599453,-7.31139135811255,-6.853402087077221
5.151467181467181,-0.13096961016315992,-7.392329223232448,-6.600955079503471
5.1594663541092105,-0.05975116986638246,-7.473267088352336,-6.348508071929749
5.167465526751241,0.011467270430402965,-7.554204953472233,-6.096061064355999
5.17546469939327,0.08268571072718045,-7.635142818592121,-5.843614056782277
5.1834638720353,0.15390415102395794,-7.71608068371201,-5.591167049208555
5.19146304467733,0.22512259132074336,-7.7970185488319075,-5.338720041634804
5.199462217319359,0.29634103161752084,-7.877956413951796,-5.086273034061083
5.20746138996139,0.3675594719143062,-7.958894279071693,-4.8338260264873325
5.215460562603419,0.4387779122110837,-8.039832144191582,-4.58137901891361
5.223459735245449,0.19410493656946942,-7.763692084942364,-4.4713425261995905
5.231458907887479,0.5702162340088605,-5.8490180239489025,-2.457707310997635
5.239458080529508,0.5741728140253481,-5.806785832903349,-2.437236310042764
5.247457253171539,0.5781293940418363,-5.764553641857791,-2.4167653090878907
5.255456425813568,0.582085974058324,-5.722321450812238,-2.3962943081330197
5.2634555984555975,0.5860425540748117,-5.680089259766684,-2.3758233071781483
5.271454771097628,0.5899991340912997,-5.637857068721127,-2.355352306223275
5.279453943739657,0.5939557141077874,-5.595624877675574,-2.334881305268404
5.287453116381688,0.5979122941242755,-5.553392686630016,-2.314410304313531
5.295452289023717,0.6018688741407632,-5.511160495584463,-2.29393930335866
5.303451461665746,0.6058254541572509,-5.46892830453891,-2.273468302403789
5.311450634307777,0.609782034173739,-5.426696113493351,-2.2529973014489157
5.319449806949806,0.6137386141902267,-5.384463922447798,-2.2325263004940443
5.3274489795918365,1.0705850340136178,-5.821377551020401,-3.78057482993197
5.335448152233866,0.5999670435742377,-6.095349214009898,-3.879897890237165
5.343447324875895,0.42716098678852693,-6.232830358784435,-3.9380302510965732
5.351446497517926,0.4922018786278928,-6.261303604260234,-3.9632657362172643
5.359445670159955,0.5572427704672513,-6.289776849736029,-3.9885012213379527
5.367444842801985,0.6222836623066172,-6.318250095211828,-4.013736706458643
5.375444015444015,0.6873245541459758,-6.346723340687623,-4.038972191579331
5.383443188086044,0.7523654459853344,-6.375196586163419,-4.06420767670002
5.391442360728075,0.8174063378247003,-6.403669831639217,-4.089443161820711
5.399441533370104,0.8824472296640589,-6.432143077115012,-4.114678646941399
5.407440706012134,0.9474881215034248,-6.460616322590811,-4.13991413206209
5.415439878654164,1.0125290133427833,-6.489089568066606,-4.165149617182778
5.423439051296193,1.0961720904577565,-6.4966817429675,-4.118971318257185
5.4314382239382235,0.5571557554414686,-9.092817005388435,-4.884388561245701
5.439437396580253,0.5782524744973703,-9.089476691537916,-4.927988447294565
5.447436569222283,0.5993491935532743,-9.086136377687398,-4.971588333343433
5.455435741864313,0.6204459126091761,-9.08279606383688,-5.0151882193922965
5.463434914506342,0.6415426316650779,-9.079455749986362,-5.0587881054411605
5.471434087148372,0.6626393507209819,-9.076115436135844,-5.102387991490029
5.479433259790402,0.6837360697768836,-9.072775122285327,-5.145987877538893
5.487432432432432,0.7048327888327878,-9.069434808434808,-5.189587763587761
5.495431605074462,0.7259295078886895,-9.066094494584291,-5.2331876496366245
5.503430777716491,0.7470262269445912,-9.062754180733773,-5.2767875356854885
5.511429950358521,0.7681229460004952,-9.059413866883254,-5.320387421734357
5.519429123000551,0.7892196650563971,-9.056073553032737,-5.363987307783221
5.527428295642581,0.003334344548659246,-10.432552399338082,-6.005203346203314
5.5354274682846105,-1.0243879262795477,-11.614301120261695,-6.776712916294203
5.54342664092664,-1.0690729596591604,-11.78835208361068,-6.71520203701239
5.55142581356867,-1.1137579930387782,-11.962403046959686,-6.653691157730571
5.5594249862107,-1.158443026418391,-12.136454010308672,-6.592180278448758
5.56742415885273,-1.2031280597980087,-12.310504973657675,-6.530669399166938
5.575423331494759,-1.2478130931776215,-12.484555937006661,-6.469158519885126
5.583422504136789,-1.2924981265572344,-12.658606900355647,-6.407647640603313
5.591421676778819,-1.3371831599368522,-12.832657863704652,-6.346136761321493
5.599420849420849,-1.381868193316465,-13.006708827053638,-6.2846258820396805
5.607420022062879,-1.4265532266960828,-13.180759790402643,-6.2231150027578614
5.615419194704908,-1.4712382600756955,-13.354810753751629,-6.161604123476049
5.623418367346938,-2.1873979591833286,-13.824224489795753,-6.776214285713948
5.631417539988968,-0.13123804779104334,-9.983413803533622,-8.708099709979892
5.6394167126309975,-0.0956288276426546,-9.60427022282324,-8.956590137537127
5.647415885273028,-0.0600196074942619,-9.22512664211282,-9.20508056509439
5.655415057915057,-0.024410387345873155,-8.845983061402437,-9.453570992651624
5.663414230557087,0.011198832802515601,-8.466839480692057,-9.702061420208858
5.671413403199117,0.046808052950908285,-8.087695899981634,-9.95055184776612
5.6794125758411464,0.08241727309929703,-7.708552319271254,-10.199042275323354
5.687411748483177,0.11802649324768974,-7.329408738560831,-10.447532702880617
5.695410921125206,0.15363571339607848,-6.950265157850451,-10.696023130437851
5.703410093767236,0.18924493354446723,-6.57112157714007,-10.944513557995085
5.711409266409266,0.2248541536928599,-6.191977996429648,-11.193003985552348
5.719408439051295,0.2604633738412486,-5.812834415719267,-11.441494413109583
5.727407611693326,-0.09030979959551035,-5.69115480786911,-10.491361279647021
5.735406784335355,0.03361028932455708,-5.4971015895301765,-10.213796469939348
5.7434059569773845,0.2050694980694892,-5.466436293436264,-9.561600661886528
5.751405129619415,0.2706640138680936,-5.414986998660471,-9.418919076510914
5.759404302261444,0.33403408285040465,-5.333956418650303,-9.39398659035394
5.767403474903475,0.3974041518327228,-5.252925838640125,-9.369054104196962
5.775402647545504,0.4607742208150339,-5.171895258629957,-9.344121618039987
5.7834018201875335,0.524144289797345,-5.090864678619789,-9.319189131883013
5.791400992829564,0.5875143587796631,-5.009834098609611,-9.294256645726033
5.799400165471593,0.6508844277619742,-4.928803518599443,-9.26932415956906
5.8073993381136235,0.7142544967442923,-4.847772938589266,-9.244391673412082
5.815398510755653,0.7776245657266034,-4.766742358579098,-9.219459187255106
5.823397683397682,0.8436455598454902,-4.555232432432598,-8.574107335907497
5.831396856039713,1.4912035090769535,-3.139623944818824,-7.706774922660019
5.839396028681742,1.515461869589195,-3.1118876831578737,-7.682081824504189
5.847395201323772,1.5397202301014392,-3.084151421496921,-7.657388726348356
5.855394373965802,1.5639785906136807,-3.0564151598359706,-7.632695628192526
5.863393546607831,1.5882369511259222,-3.028678898175021,-7.608002530036696
5.871392719249862,1.6124953116381664,-3.000942636514068,-7.583309431880863
5.879391891891891,1.636753672150408,-2.9732063748531177,-7.558616333725033
5.887391064533921,1.6610120326626523,-2.945470113192165,-7.5339232355692
5.895390237175951,1.6852703931748938,-2.9177338515312146,-7.50923013741337
5.90338940981798,1.7095287536871353,-2.889997589870265,-7.48453703925754
5.9113885824600105,1.7337871141993795,-2.8622613282093115,-7.459843941101707
5.91938775510204,1.758045474711621,-2.8345250665483617,-7.435150842945877
5.92738692774407,1.4907736348593992,-1.5922714837287655,-6.3967879757308355
5.9353861003861,1.3030217932217936,-0.5846097812097778,-6.831417546117539
5.943385273028129,1.3007109211252073,-0.6096738554881368,-6.889100468836173
5.9513844456701595,1.2984000490286207,-0.6347379297664985,-6.946783391554814
5.959383618312189,1.2960891769320344,-0.6598020040448573,-7.004466314273449
5.967382790954219,1.2937783048354479,-0.6848660783232191,-7.06214923699209
5.975381963596249,1.2914674327388616,-0.709930152601578,-7.119832159710724
5.983381136238278,1.2891565606422755,-0.734994226879937,-7.177515082429359
5.991380308880308,1.2868456885456887,-0.7600583011582986,-7.235198005148
5.999379481522338,1.2845348164491026,-0.7851223754366575,-7.292880927866634
6.007378654164368,1.282223944352516,-0.8101864497150193,-7.350563850585275
6.0153778268063975,1.2799130722559298,-0.8352505239933782,-7.40824677330391
6.023376999448427,1.1272185603972564,-1.2202163541089102,-7.705925399889479
6.031376172090457,0.689,-2.2031417070566,-8.517508396803228
6.039375344732487,0.689,-2.2627100139653296,-8.611115736231232
6.047374517374517,0.689,-2.322278320874066,-8.704723075659246
6.0553736900165465,0.689,-2.3818466277827954,-8.79833041508725
6.063372862658576,0.689,-2.441414934691525,-8.891937754515252
6.071372035300606,0.689,-2.5009832416002613,-8.985545093943268
6.079371207942636,0.689,-2.5605515485089905,-9.07915243337127
6.087370380584666,0.689,-2.6201198554177267,-9.172759772799285
6.095369553226695,0.689,-2.679688162326457,-9.266367112227288
6.103368725868725,0.689,-2.739256469235186,-9.359974451655292
6.111367898510755,0.689,-2.798824776143922,-9.453581791083305
6.1193670711527846,0.689,-2.858393083052652,-9.54718913051131
6.127366243794815,0.3027915057915003,-3.4061941533370166,-10.21483894098181
6.135365416436844,0.5273083287368899,-3.1302555616841468,-9.915127780842074
6.143364589078875,0.6872917815774902,-2.916944291230013,-9.808472145615006
6.151363761720904,0.7514452201933396,-2.954734182221961,-10.46547924710424
6.1593629343629335,0.7670225563909757,-3.0139912111359415,-10.591466216216203
6.167362107004964,0.7825998925886136,-3.073248240049929,-10.717453185328178
6.175361279646993,0.7981772287862497,-3.1325052689639095,-10.843440154440142
6.1833604522890235,0.8137545649838877,-3.191762297877897,-10.969427123552117
6.191359624931053,0.8293319011815238,-3.251019326791878,-11.09541409266408
6.199358797573082,0.8449092373791599,-3.3102763557058585,-11.221401061776042
6.207357970215113,0.8604865735767978,-3.369533384619846,-11.34738803088802
6.215357142857142,0.8760639097744339,-3.4287904135338265,-11.473374999999983
6.2233563154991725,0.5953576944292223,-3.7038265306121687,-12.210721180363823
6.231355488141202,-1.5155237976620513,-3.284618116470637,-11.614789290607266
6.239354660783231,-1.456175097414736,-3.459911813722852,-11.552946224697383
6.247353833425262,-1.3968263971674144,-3.6352055109750863,-11.491103158787494
6.255353006067291,-1.3374776969200992,-3.8104992082273013,-11.42926009287761
6.263352178709321,-1.2781289966727774,-3.9857929054795354,-11.36741702696772
6.271351351351351,-1.2187802964254624,-4.16108660273175,-11.305573961057837
6.27935052399338,-1.1594315961781472,-4.336380299983965,-11.243730895147953
6.2873496966354105,-1.1000828959308255,-4.511673997236199,-11.181887829238063
6.29534886927744,-1.0407341956835103,-4.686967694488414,-11.12004476332818
6.30334804191947,-0.9813854954361887,-4.862261391740648,-11.058201697418289
6.3113472145615,-0.9220367951888735,-5.037555088992863,-10.996358631508405
6.319346387203529,-0.8626880949415584,-5.212848786245078,-10.934515565598522
6.3273455598455595,-0.31053088803082574,-5.295736486486538,-11.325043436293546
6.335344732487589,-0.663574554145982,-4.986143509539825,-10.654118184675793
6.343343905129619,-0.6769065085493658,-4.953544730708325,-10.568535638666974
6.351343077771649,-0.6902384629527483,-4.920945951876829,-10.482953092658164
6.359342250413678,-0.7035704173561306,-4.888347173045332,-10.397370546649356
6.367341423055708,-0.7169023717595144,-4.855748394213832,-10.311788000640536
6.375340595697738,-0.7302343261628969,-4.823149615382336,-10.226205454631726
6.383339768339768,-0.7435662805662807,-4.790550836550836,-10.140622908622907
6.391338940981798,-0.7568982349696631,-4.75795205771934,-10.055040362614099
6.399338113623827,-0.7702301893730454,-4.725353278887844,-9.969457816605289
6.407337286265857,-0.7835621437764293,-4.692754500056344,-9.88387527059647
6.415336458907887,-0.7968940981798117,-4.6601557212248474,-9.798292724587661
6.423335631549917,-0.8273666574737949,-4.241659955874351,-9.087232487589809
6.4313348041919465,-0.3440938391807972,-2.812371543682101,-7.532918631142236
6.439333976833976,-0.30270681551116696,-2.8625402677522196,-7.484488857646471
6.447333149476006,-0.26131979184153203,-2.9127089918223446,-7.436059084150701
6.455332322118036,-0.21993276817190177,-2.9628777158924633,-7.387629310654936
6.463331494760066,-0.1785457445022669,-3.0130464399625883,-7.339199537159166
6.471330667402095,-0.1371587208326366,-3.063215164032707,-7.290769763663401
6.479329840044125,-0.09577169716300632,-3.113383888102826,-7.242339990167636
6.487329012686155,-0.05438467349337145,-3.1635526121729507,-7.193910216671865
6.495328185328185,-0.012997649823741131,-3.21372133624307,-7.1454804431761
6.503327357970215,0.02838937384589374,-3.2638900603131944,-7.09705066968033
6.511326530612244,0.069776397515524,-3.3140587843833136,-7.048620896184565
6.519325703254274,0.11116342118515432,-3.3642275084534328,-7.0001911226888005
6.527324875896304,-0.06410921125206015,-2.836285898143047,-6.444444015444032
6.5353240485383335,-0.27608728626584766,-2.6709696635410998,-6.024487451737471
6.543323221180364,-0.7757981246552668,-2.637085241129992,-5.893468430810944
6.551322393822393,-0.6718088803088844,-2.687200539610176,-5.8850837558729125
6.559321566464423,-0.5678196359625021,-2.7373158380903604,-5.876699080934881
6.567320739106453,-0.46383039161610823,-2.78743113657055,-5.86831440599685
6.575319911748482,-0.35984114726972594,-2.8375464350507342,-5.859929731058819
6.583319084390513,-0.25585190292333204,-2.887661733530924,-5.851545056120788
6.591318257032542,-0.1518626585769497,-2.9377770320111085,-5.843160381182757
6.599317429674572,-0.047873414230567346,-2.9878923304912925,-5.834775706244726
6.607316602316602,0.05611583011582644,-3.0380076289714824,-5.826391031306694
6.615315774958631,0.16010507446220879,-3.088122927451667,-5.818006356368663
6.623314947600662,0.3738924434638732,-3.168790954219526,-5.95630170987314
6.631314120242691,1.0000717073550935,-4.241461635770637,-7.460524470011273
6.6393132928847205,0.9415560205280744,-4.474654907791537,-7.403573838701172
6.647312465526751,0.8830403337010486,-4.707848179812463,-7.346623207391065
6.65531163816878,0.8245246468740293,-4.941041451833363,-7.289672576080965
6.663310810810811,0.7660089600470035,-5.174234723854289,-7.232721944770858
6.67130998345284,0.7074932732199842,-5.407427995875189,-7.175771313460758
6.679309156094869,0.648977586392965,-5.640621267896089,-7.118820682150657
6.6873083287369,0.5904618995659392,-5.873814539917015,-7.06187005084055
6.695307501378929,0.5319462127389198,-6.107007811937915,-7.00491941953045
6.7033066740209595,0.47343052591189416,-6.34020108395884,-6.947968788220343
6.711305846662989,0.4149148390848748,-6.57339435597974,-6.891018156910242
6.719305019305018,0.35639915225785557,-6.80658762800064,-6.834067525600142
6.727304191947049,0.6593664736164643,-7.771052721088398,-7.251924572531685
6.735303364589078,0.3977872832015717,-10.098542311699452,-8.434834460991604
6.743302537231108,0.3754784794999093,-10.111963145798859,-8.429590558926273
6.751301709873138,0.3531696757982494,-10.125383979898265,-8.424346656860942
6.759300882515167,0.33086087209658954,-10.13880481399767,-8.419102754795611
6.767300055157198,0.30855206839492716,-10.152225648097076,-8.413858852730282
6.775299227799227,0.2862432646932673,-10.16564648219648,-8.408614950664951
6.783298400441257,0.2639344609916049,-10.179067316295887,-8.40337104859962
6.791297573083287,0.24162565728994503,-10.192488150395292,-8.39812714653429
6.799296745725316,0.21931685358828515,-10.205908984494696,-8.39288324446896
6.8072959183673465,0.1970080498866228,-10.219329818594103,-8.387639342403629
6.815295091009376,0.1746992461849629,-10.232750652693507,-8.382395440338298
6.823294263651406,-0.2711070049640828,-10.671107004964083,-8.444654578047425
6.831293436293436,-3.135899613899683,-11.686478764479688,-9.73717374517335
6.839292608935465,-2.803566523299307,-9.872386292506722,-10.43726108566718
6.847291781577495,-2.529707208240133,-9.558890627614566,-10.47572901702436
6.855290954219525,-2.255847893180989,-9.245394962722445,-10.514196948381535
6.863290126861555,-1.981988578121815,-8.931899297830288,-10.552664879738716
6.871289299503585,-1.708129263062671,-8.618403632938168,-10.59113281109589
6.879288472145614,-1.4342699480035273,-8.304907968046047,-10.629600742453066
6.887287644787644,-1.160410632944353,-7.99141230315389,-10.668068673810245
6.895286817429674,-0.8865513178852091,-7.6779166382617685,-10.706536605167422
6.903285990071704,-0.612692002826035,-7.364420973369613,-10.7450045365246
6.9112851627137335,-0.338832687766891,-7.050925308477492,-10.783472467881776
6.919284335355763,-0.0649733727077475,-6.73742964358537,-10.821940399238953
6.927283507997793,2.4334370957227027,-5.0574752544753245,-10.40751617108762
6.935282680639823,7.305600317154189,-2.538883066739841,-8.001186913955074
6.943281853281853,1.1641521235521195,-10.35530250965249,-5.008044208494229
6.951281025923882,1.2337449255377755,-10.694167460700461,-4.646381615416474
6.959280198565912,1.3033377275234315,-11.033032411748433,-4.284719022338718
6.967279371207942,1.3729305295090952,-11.371897362796442,-3.9230564292609236
6.975278543849972,1.4425233314947512,-11.710762313844413,-3.5613938361831683
6.983277716492002,1.5121161334804147,-12.049627264892422,-3.199731243105373
6.991276889134031,1.5817089354660707,-12.388492215940392,-2.8380686500276178
6.999276061776061,1.6513017374517267,-12.727357166988364,-2.4764060569498625
7.007275234418091,1.7208945394373905,-13.066222118036373,-2.114743463872067
7.0152744070601205,1.7904873414230464,-13.405087069084345,-1.7530808707943115
7.023273579702151,1.6204434638720364,-12.822291781577562,-1.6836536127965127
7.03127275234418,0.7735416911315619,-10.81611724166563,-2.147442550516286
7.03927192498621,0.5084508300268902,-10.796850417237515,-2.0629781684251802
7.04727109762824,0.24335996892218903,-10.7775835928094,-1.9785137863340654
7.055270270270269,-0.02173089218248281,-10.758316768381286,-1.8940494042429596
7.0632694429123,-0.28682175328718384,-10.73904994395317,-1.8095850221518446
7.071268615554329,-0.5519126143918557,-10.719783119525056,-1.725120640060739
7.079267788196359,-0.8170034754965273,-10.700516295096943,-1.6406562579696333
7.087266960838389,-1.0820943366012288,-10.681249470668826,-1.5561918758785183
7.095266133480418,-1.3471851977059002,-10.661982646240713,-1.4717274937874127
7.103265306122449,-1.6122760588106013,-10.642715821812597,-1.3872631116962977
7.111264478764478,-1.8773669199152732,-10.623448997384484,-1.302798729605192
7.1192636514065075,-2.142457781019945,-10.604182172956369,-1.2183343475140864
7.127262824048538,-2.1,-7.7948703805849435,-0.8368587975731179
7.135261996690567,-2.053148408447954,-7.437531211263939,-0.7843828028159846
7.143261169332598,-2.0015408430155004,-7.3687211240206665,-0.7671802810051668
7.151260341974627,-1.9499332775830522,-7.299911036777403,-0.7499777591943508
7.159259514616656,-1.8983257121506043,-7.231100949534139,-0.7327752373835348
7.167258687258687,-1.8467181467181506,-7.162290862290868,-0.715572715572717
7.175257859900716,-1.7951105812857027,-7.093480775047603,-0.6983701937619009
7.1832570325427465,-1.743503015853249,-7.024670687804332,-0.6811676719510831
7.191256205184776,-1.691895450420801,-6.955860600561068,-0.663965150140267
7.199255377826805,-1.640287884988353,-6.887050513317805,-0.6467626283294511
7.207254550468836,-1.5886803195558996,-6.818240426074532,-0.6295601065186331
7.215253723110865,-1.5370727541234515,-6.749430338831269,-0.6123575847078172
7.223252895752895,-0.7747104247104418,-6.387355212355221,-0.7252895752895582
7.231252068394925,-0.7023459045780466,-5.7976540954219535,-0.9023459045780466
7.239251241036954,-0.7106783760801606,-5.7893216239198395,-0.9106783760801607
7.247250413678985,-0.7190108475822755,-5.780989152417725,-0.9190108475822755
7.255249586321014,-0.7273433190843894,-5.772656680915611,-0.9273433190843895
7.263248758963044,-0.7356757905865043,-5.764324209413496,-0.9356757905865044
7.271247931605074,-0.7440082620886184,-5.755991737911382,-0.9440082620886183
7.279247104247103,-0.7523407335907324,-5.747659266409268,-0.9523407335907323
7.2872462768891335,-0.7606732050928473,-5.739326794907153,-0.9606732050928473
7.295245449531163,-0.7690056765949612,-5.730994323405039,-0.9690056765949613
7.303244622173193,-0.7773381480970761,-5.722661851902924,-0.9773381480970762
7.311243794815223,-0.7856706195991902,-5.71432938040081,-0.9856706195991901
7.319242967457252,-0.7940030911013042,-5.705996908898696,-0.9940030911013041
7.327242140099282,-1.0,-6.445284059569435,-1.2515719801435217
7.335241312741312,0.6599388312871551,-8.454628866426606,-0.907283848856881
7.343240485383342,0.5610726525654326,-8.589446382865319,-0.925259517715376
7.351239658025372,0.46220647384372093,-8.724263899304017,-0.943235186573869
7.359238830667401,0.3633402951220093,-8.859081415742715,-0.961210855432362
7.367238003309431,0.2644741164002868,-8.993898932181427,-0.979186524290857
7.375237175951461,0.16560793767857518,-9.128716448620125,-0.99716219314935
7.383236348593491,0.06674175895685264,-9.263533965058837,-1.015137862007845
7.3912355212355205,-0.032124419764858914,-9.398351481497535,-1.033113530866338
7.39923469387755,-0.13099059848657058,-9.533168997936233,-1.051089199724831
7.40723386651958,-0.22985677720829312,-9.667986514374945,-1.0690648685833262
7.41523303916161,-0.32872295593000467,-9.802804030813643,-1.087040537441819
7.42323221180364,-0.31548078690933073,-10.946442360727993,-2.3922596065453345
7.431231384445669,0.450399889685121,-12.953723110866116,-1.9115692222834708
7.439230557087699,1.6637216065787401,-12.621240535526246,-1.9716792859650043
7.447229729729729,1.7455313267813228,-12.648510442260442,-1.935319410319412
7.455228902371759,1.8273410469838964,-12.675780348994632,-1.8989595346738237
7.463228075013789,1.9091507671864791,-12.703050255728826,-1.8625996590282314
7.471227247655818,1.990960487389053,-12.730320162463018,-1.8262397833826431
7.479226420297848,2.0727702075916263,-12.757590069197208,-1.7898799077370549
7.487225592939878,2.1545799277942095,-12.784859975931402,-1.7535200320914626
7.4952247655819075,2.236389647996783,-12.812129882665594,-1.7171601564458743
7.503223938223938,2.3181993681993656,-12.839399789399788,-1.6808002808002822
7.511223110865967,2.400009088401939,-12.86666969613398,-1.6444404051546937
7.519222283507997,2.4818188086045128,-12.893939602868171,-1.6080805295091056
7.527221456150027,-2.232873690016216,-16.86806792214942,-2.8951067685760616
7.5352206287920565,-4.982939090694225,-13.607424449791809,-4.492215197929514
7.543219801434087,-4.571553069104095,-13.43197006964354,-4.098409775552637
7.551218974076116,-4.160167047514011,-13.256515689495291,-3.704604353175805
7.559218146718146,-3.748781025923927,-13.081061309347042,-3.3107989307989723
7.567217319360176,-3.337395004333797,-12.905606929198774,-2.916993508422096
7.575216492002205,-2.926008982743713,-12.730152549050523,-2.5231880860452636
7.583215664644236,-2.5146229611535835,-12.554698168902254,-2.129382663668387
7.591214837286265,-2.1032369395634993,-12.379243788754005,-1.7355772412915544
7.5992140099282945,-1.6918509179734156,-12.203789408605756,-1.3417718189147219
7.607213182570325,-1.2804648963832856,-12.028335028457487,-0.9479663965378453
7.615212355212354,-0.8690788747932015,-11.852880648309238,-0.5541609741610127
7.623211527854385,0.7333552123557148,-11.81431301709796,1.776612244897785
7.631210700496414,-0.9932888946262751,-10.227898340589842,1.7377350107380203
7.6392098731384435,-1.043836857917397,-10.110548775979646,2.0136213693067364
7.647209045780474,-1.0943848212085248,-9.993199211369436,2.289507727875483
7.655208218422503,-1.1449327844996466,-9.875849646759239,2.5653940864441993
7.6632073910645335,-1.1954807477907743,-9.758500082149029,2.8412804450129463
7.671206563706563,-1.2460287110818962,-9.641150517538831,3.1171668035816626
7.679205736348592,-1.2965766743730183,-9.523800952928633,3.3930531621503786
7.687204908990623,-1.3471246376641457,-9.406451388318423,3.6689395207191255
7.695204081632652,-1.3976726009552678,-9.289101823708226,3.9448258792878415
7.703203254274682,-1.4482205642463952,-9.171752259098016,4.2207122378565884
7.711202426916712,-1.4987685275375173,-9.054402694487818,4.496598596425304
7.719201599558741,-1.5493164908286392,-8.93705312987762,4.772484954994021
7.727200772200772,-1.4880115830114566,-8.697023166023593,3.1636177606179667
7.735199944842801,-1.511412890596893,-7.143273846495118,2.1582317051967985
7.743199117484831,-1.5335845104199122,-7.152925022182785,1.9739898918439471
7.751198290126861,-1.5557561302429286,-7.162576197870451,1.7897480784911164
7.75919746276889,-1.577927750065945,-7.172227373558117,1.6055062651382856
7.7671966354109205,-1.6000993698889638,-7.181878549245784,1.4212644517854345
7.77519580805295,-1.6222709897119802,-7.19152972493345,1.2370226384326037
7.78319498069498,-1.644442609534999,-7.201180900621117,1.0527808250797526
7.79119415333701,-1.6666142293580155,-7.210832076308783,0.8685390117269218
7.799193325979039,-1.688785849181032,-7.220483251996449,0.6842971983740911
7.8071924986210695,-1.7109574690040508,-7.230134427684116,0.5000553850212399
7.815191671263099,-1.7331290888270674,-7.239785603371782,0.3158135716684092
7.823190843905129,-1.7685744622173125,-7.429039988968578,0.23619663541090744
7.831190016547159,-1.763453943740052,-7.1465295091016205,0.32253612796495124
7.839189189189188,-1.054761670761678,-6.406142506142505,-0.24579606879607402
7.847188361831218,-0.9788604303515042,-6.421777252670109,-0.19152895439502748
7.855187534473248,-0.9029591899413386,-6.437411999197712,-0.137261839993987
7.863186707115278,-0.8270579495311647,-6.453046745725317,-0.08299472559294047
7.8711858797573075,-0.7511567091209992,-6.468681492252919,-0.028727611191899982
7.879185052399337,-0.6752554687108336,-6.484316238780523,0.025539503209140557
7.887184225041367,-0.5993542283006597,-6.499950985308128,0.07980661761018709
7.895183397683397,-0.5234529878904941,-6.51558573183573,0.13407373201122758
7.903182570325427,-0.4475517474803201,-6.531220478363335,0.1883408464122741
7.9111817429674565,-0.37165050707015457,-6.546855224890938,0.2426079608133146
7.919180915609486,-0.295749266659989,-6.5624899714185405,0.2968750752143551
7.927180088251516,-0.14761618469782234,-7.091866992356767,0.6951230005515564
7.935179260893546,-0.04310921125208096,-7.314809707666836,0.845554881412015
7.943178433535576,0.07101231844088056,-7.455061867990428,0.9298128332413977
7.951177606177605,0.21653338481338658,-8.138766692406694,1.2048356756756358
7.959176778819635,0.20032172825887362,-8.130660864129437,1.5721576833976263
7.967175951461665,0.1841100717043589,-8.12255503585218,1.9394796911196575
7.975175124103695,0.16789841514984594,-8.114449207574923,2.3068016988416478
7.983174296745725,0.1516867585953312,-8.106343379297666,2.6741237065636794
7.991173469387754,0.13547510204081825,-8.098237551020409,3.0414457142856697
7.999172642029784,0.11926344548630533,-8.090131722743154,3.40876772200766
8.007171814671814,0.1030517889317906,-8.082025894465895,3.776089729729691
8.015170987313844,0.08684013237727584,-8.073920066188638,4.143411737451722
8.023170159955873,0.0073168781025458865,-8.411315637065565,5.089620242691737
8.031169332597903,0.6226202176202029,-8.575806047234611,4.912071604071585
8.039168505239934,0.8502456662201572,-8.71206064336931,5.22554909647256
8.047167677881962,0.831390473563947,-8.794623532424534,5.318301407821796
8.055166850523992,0.8125352809077326,-8.877186421479776,5.411053719171052
8.063166023166023,0.7936800882515183,-8.959749310535019,5.503806030520309
8.071165195808051,0.774824895595308,-9.042312199590242,5.596558341869545
8.079164368450082,0.7559697029390936,-9.124875088645483,5.689310653218802
8.087163541092112,0.7371145102828792,-9.207437977700726,5.782062964568059
8.095162713734142,0.7182593176266648,-9.290000866755967,5.874815275917316
8.10316188637617,0.6994041249704546,-9.372563755811191,5.967567587266552
8.111161059018201,0.6805489323142402,-9.455126644866434,6.060319898615808
8.119160231660231,0.6616937396580258,-9.537689533921675,6.153072209965065
8.12715940430226,0.4423331494759813,-10.43331715388835,7.401596617024856
8.13515857694429,-0.19235055533268172,-13.003324631449665,10.228254860728066
8.14315774958632,-0.2914312164669218,-12.798436732186751,10.285248965802532
8.151156922228349,-0.39051187760113987,-12.593548832923881,10.342243070876986
8.15915609487038,-0.48959253873537995,-12.388660933660967,10.399237175951452
8.16715526751241,-0.58867319986962,-12.183773034398051,10.45623128102592
8.17515444015444,-0.68775386100386,-11.978885135135137,10.513225386100386
8.183153612796469,-0.7868345221380781,-11.773997235872267,10.57021949117484
8.191152785438499,-0.8859151832723182,-11.569109336609353,10.627213596249305
8.19915195808053,-0.9849958444065583,-11.364221437346439,10.684207701323773
8.207151130722558,-1.0840765055407764,-11.159333538083569,10.741201806398227
8.215150303364588,-1.1831571666750165,-10.954445638820655,10.798195911472693
8.223149476006618,-0.22773579702202804,-9.877230557088206,9.331303916161724
8.231148648648649,1.8933962510897964,-7.495535164196457,5.858960185992439
8.239147821290677,1.8105661085707265,-7.545164439620655,5.731833549810523
8.247146993932708,1.7277359660516385,-7.594793715044864,5.604706913628579
8.255146166574738,1.6449058235325502,-7.644422990469074,5.477580277446635
8.263145339216766,1.5620756810134806,-7.694052265893273,5.350453641264719
8.271144511858797,1.4792455384943923,-7.743681541317483,5.2233270050827745
8.279143684500827,1.3964153959753043,-7.793310816741693,5.09620036890083
8.287142857142856,1.3135852534562344,-7.842940092165891,4.969073732718915
8.295142029784886,1.2307551109371464,-7.8925693675901005,4.841947096536971
8.303141202426916,1.1479249684180584,-7.9421986430143106,4.7148204603550266
8.311140375068947,1.0650948258989703,-7.991827918438521,4.587693824173082
8.319139547710975,0.9822646833799005,-8.041457193862719,4.460567187991166
8.327138720353005,-0.32265368246872617,-8.301084445670163,5.42100608761285
8.335137892995036,-0.2450196069323904,-8.248289906232763,5.47902113972189
8.343137065637064,-0.16738553139607182,-8.195495366795376,5.537036191830918
8.351136238279095,-0.08975145585973601,-8.142700827357976,5.595051243939959
8.359135410921125,-0.012117380323400206,-8.089906287920577,5.6530662960489995
8.367134583563153,0.06551669521291836,-8.037111748483188,5.711081348158027
8.375133756205184,0.14315077074925414,-7.984317209045789,5.769096400267068
8.383132928847214,0.22078484628558998,-7.931522669608389,5.827111452376108
8.391132101489244,0.2984189218219258,-7.878728130170989,5.885126504485148
8.399131274131273,0.3760529973582443,-7.825933590733602,5.943141556594176
8.407130446773303,0.45368707289458016,-7.7731390512962015,6.001156608703217
8.415129619415334,0.5313211484309159,-7.720344511858802,6.059171660812257
8.423128792057362,0.6516822945392686,-7.071343215665169,5.89316974627714
8.431127964699392,0.9702895752895556,-6.323879757308345,5.494665195808068
8.439127137341423,0.7931938642601308,-6.5324739000126195,5.20341159563795
8.447126309983451,0.7803759129180852,-6.592612258188834,5.036007223599353
8.455125482625482,0.7675579615760366,-6.652750616365061,4.868602851560719
8.463124655267512,0.7547400102339881,-6.712888974541289,4.701198479522085
8.471123827909542,0.7419220588919395,-6.773027332717517,4.53379410748345
8.47912300055157,0.7291041075498939,-6.833165690893732,4.366389735444853
8.487122173193601,0.7162861562078453,-6.893304049069959,4.198985363406219
8.495121345835631,0.7034682048657968,-6.953442407246187,4.031580991367585
8.50312051847766,0.690650253523751,-7.013580765422401,3.8641766193289886
8.51111969111969,0.6778323021817024,-7.073719123598629,3.6967722472903546
8.51911886376172,0.6650143508396539,-7.133857481774856,3.5293678752517206
8.527118036403749,0.7294721456149974,-6.95317997005748,2.2251040107162448
8.53511720904578,0.7518758182057805,-7.129252727352602,2.2744989090589596
8.54311638168781,0.7476284699002778,-7.115094899667593,2.280162040132963
8.55111555432984,0.743381121594775,-7.1009370719825835,2.285825171206967
8.559114726971869,0.7391337732892732,-7.086779244297578,2.2914883022809693
8.567113899613899,0.7348864249837704,-7.072621416612568,2.2971514333549727
8.57511307225593,0.7306390766782677,-7.058463588927559,2.3028145644289766
8.583112244897958,0.7263917283727658,-7.044305761242553,2.308477695502979
8.591111417539988,0.722144380067263,-7.030147933557544,2.314140826576983
8.599110590182018,0.7178970317617602,-7.015990105872534,2.3198039576509863
8.607109762824047,0.7136496834562585,-7.001832278187528,2.325467088724989
8.615108935466077,0.7094023351507557,-6.987674450502519,2.3311302197989927
8.623108108108108,0.7051549868452529,-6.97351662281751,2.336793350872996
8.631107280750138,0.7009076385397501,-6.9593587951325,2.342456481947
8.639106453392166,0.6966602902342482,-6.945200967447494,2.3481196130210025
8.647105626034197,0.6968696911196879,-6.693631963596444,2.3789822118036192
8.655104798676227,-0.33970186335403024,-9.339902371759502,4.54205882635074
8.663103971318256,-0.4297795031055702,-9.51055138812278,4.6981006578894435
8.671103143960286,-0.5198571428571302,-9.681200404486095,4.854142489428182
8.679102316602316,-0.6099347826086903,-9.85184942084941,5.01018432096692
8.687101489244345,-0.7000124223602302,-10.022498437212688,5.166226152505624
8.695100661886375,-0.7900900621117902,-10.193147453576003,5.3222679840443625
8.703099834528405,-0.8801677018633502,-10.36379646993932,5.478309815583101
8.711099007170436,-0.9702453416149102,-10.534445486302635,5.634351647121839
8.719098179812464,-1.0603229813664503,-10.705094502665913,5.790393478660544
8.727097352454495,0.29135951461661563,-9.13671560948693,4.884597793712162
8.735096525096525,6.3082171246877055,-11.14174744492393,8.444720872132608
8.743095697738553,6.1604677005937685,-11.452303559261505,7.841489147010227
8.751094870380584,6.012718276499798,-11.76285967359915,7.238257421887711
8.759094043022614,5.864968852405828,-12.073415787936794,6.635025696765196
8.767093215664643,5.717219428311891,-12.38397190227437,6.031793971642815
8.775092388306673,5.56947000421792,-12.694528016612015,5.4285622465203
8.783091560948703,5.42172058012395,-13.005084130949658,4.825330521397785
8.791090733590734,5.27397115602998,-13.315640245287304,4.222098796275269
8.799089906232762,5.126221731936043,-13.62619635962488,3.618867071152887
8.807089078874792,4.978472307842073,-13.936752473962525,3.015635346030372
8.815088251516823,4.830722883748102,-14.247308588300168,2.412403620907856
8.823087424158851,3.098332372261753,-14.83234826756236,1.198852529710088
8.831086596800882,-1.2495466078314394,-15.684094870381582,-1.2226563706547338
8.839085769442912,-1.3151938858246,-12.81687472972973,-4.218866753998897
8.84708494208494,-1.5058141698841407,-12.63265378378381,-4.369651158301136
8.85508411472697,-1.696434453943724,-12.448432837837853,-4.520435562603407
8.863083287369001,-1.887054738003307,-12.264211891891893,-4.67121996690568
8.871082460011031,-2.0776750220628903,-12.079990945945935,-4.822004371207951
8.87908163265306,-2.2682953061224307,-11.895770000000017,-4.97278877551019
8.88708080529509,-2.458915590182014,-11.711549054054059,-5.123573179812462
8.89507997793712,-2.649535874241597,-11.5273281081081,-5.274357584114734
8.90307915057915,-2.840156158301138,-11.343107162162182,-5.425141988416972
8.91107832322118,-3.030776442360721,-11.158886216216223,-5.575926392719245
8.91907749586321,-3.2213967264203043,-10.974665270270265,-5.726710797021516
8.927076668505238,-3.412017010479845,-10.790444324324346,-5.877495201323755
8.935075841147269,-2.762050330943755,-11.574512686154886,-4.95259983452914
8.943075013789299,-0.32825709382852286,-9.082900410614716,-0.6266199056199782
8.95107418643133,-0.3253931925122404,-8.963011576202064,-0.17797495114165784
8.959073359073358,-0.3225292911959586,-8.843122741789438,0.2706700033365629
8.967072531715388,-0.3196653898796761,-8.723233907376786,0.7193149578148833
8.975071704357418,-0.3168014885633936,-8.603345072964132,1.1679599122932034
8.983070876999447,-0.31393758724711174,-8.483456238551506,1.6166048667714246
8.991070049641477,-0.3110736859308293,-8.363567404138854,2.0652498212497448
8.999069222283508,-0.3082097846145468,-8.243678569726201,2.513894775728065
9.007068394925536,-0.30534588329826495,-8.123789735313576,2.9625397302062857
9.015067567567566,-0.30248198198198245,-8.003900900900922,3.411184684684606
9.023066740209597,-0.30579087542352423,-7.8149655661493025,3.7340144984635266
9.031065912851627,-0.12835576392699552,-7.627237175951331,2.0025540540545013
9.039065085493656,-0.5898965417719707,-7.681046518041538,1.0011437871188622
9.047064258135686,-0.5328791832886606,-7.665327213663595,1.0345356822175706
9.055063430777716,-0.4758618248053505,-7.649607909285651,1.0679275773162793
9.063062603419745,-0.4188444663220531,-7.633888604907711,1.1013194724149804
9.071061776061775,-0.36182710783874295,-7.618169300529767,1.1347113675136888
9.079060948703805,-0.30480974935543287,-7.602449996151824,1.1681032626123973
9.087060121345834,-0.24779239087213545,-7.586730691773884,1.2014951577110984
9.095059293987864,-0.19077503238882532,-7.571011387395941,1.234887052809807
9.103058466629895,-0.13375767390551524,-7.5552920830179975,1.2682789479085155
9.111057639271925,-0.07674031542220516,-7.5395727786400535,1.3016708430072241
9.119056811913953,-0.019722956938907688,-7.523853474262113,1.335062738105925
9.127055984555984,-0.8056919039575283,-7.274642495173745,0.526599481177601
9.135055157198014,-0.8122745564441991,-7.277142236624379,0.5795106752160306
9.143054329840043,-0.8188572089308684,-7.279641978075014,0.6324218692544485
9.151053502482073,-0.8254398614175392,-7.282141719525648,0.6853330632928781
9.159052675124103,-0.83202251390421,-7.284641460976283,0.7382442573313078
9.167051847766132,-0.8386051663908793,-7.287141202426916,0.7911554513697256
9.175051020408162,-0.8451878188775501,-7.289640943877551,0.8440666454081553
9.183050193050192,-0.8517704713642208,-7.292140685328185,0.896977839446585
9.191049365692223,-0.8583531238508916,-7.29464042677882,0.9498890334850146
9.199048538334251,-0.8649357763375609,-7.297140168229454,1.0028002275234327
9.207047710976282,-0.8715184288242317,-7.299639909680089,1.0557114215618622
9.215046883618312,-0.8781010813109025,-7.302139651130723,1.1086226156002918
9.22304605626034,-0.6645311408347447,-8.101403222099572,2.040784726052528
9.23104522890237,-0.4238893638536752,-8.678010250045903,2.4520755193969044
9.239044401544401,-0.09458764013583294,-9.279950388426293,3.8888339303158586
9.24704357418643,-0.15270211125804017,-9.294888602396346,4.102016700004619
9.25504274682846,-0.2108165823802603,-9.309826816366403,4.315199469693426
9.26304191947049,-0.26893105350248037,-9.324765030336458,4.528382239382234
9.27104109211252,-0.3270455246247005,-9.339703244306515,4.741565009071041
9.27904026475455,-0.38515999574690774,-9.354641458276568,4.954747778759801
9.28703943739658,-0.44327446686912786,-9.369579672246624,5.167930548448608
9.29503861003861,-0.501388937991348,-9.384517886216681,5.381113318137416
9.303037782680638,-0.5595034091135552,-9.399456100186734,5.5942960878261765
9.311036955322669,-0.6176178802357752,-9.414394314156791,5.807478857514984
9.319036127964699,-0.6757323513579954,-9.429332528126848,6.020661627203792
9.327035300606727,-0.5124578047437767,-9.949399889685631,6.679870656370639
9.335034473248758,-0.27977558681128134,-11.361262082490656,7.534837650916202
9.343033645890788,-0.5113071949500481,-11.349885481399768,7.770457725072007
9.351032818532818,-0.7428388030888149,-11.338508880308881,8.006077799227812
9.359031991174847,-0.9743704112275302,-11.327132279217995,8.241697873383563
9.367031163816877,-1.205902019366297,-11.315755678127108,8.477317947539369
9.375030336458908,-1.4374336275050636,-11.30437907703622,8.712938021695173
9.383029509100936,-1.668965235643779,-11.293002475945336,8.948558095850924
9.391028681742966,-1.9004968437825458,-11.281625874854448,9.18417817000673
9.399027854384997,-2.1320284519213124,-11.270249273763561,9.419798244162534
9.407027027027025,-2.3635600600600277,-11.258872672672675,9.655418318318286
9.415026199669056,-2.5950916681987946,-11.247496071581788,9.89103839247409
9.423025372311086,-2.3209578047438013,-10.300323496966655,9.010007446222335
9.431024544953116,-0.13749194646231006,-8.539653929656968,6.465403319407118
9.439023717595145,-0.0967302050204843,-8.489276161528448,6.430428213493568
9.447022890237175,-0.05596846357864947,-8.438898393399917,6.39545310758001
9.455022062879205,-0.015206722136814649,-8.388520625271386,6.360478001666452
9.463021235521234,0.025555019305011112,-8.338142857142866,6.325502895752902
9.471020408163264,0.06631676074684592,-8.287765089014336,6.290527789839345
9.479019580805295,0.10707850218868073,-8.237387320885805,6.255552683925787
9.487018753447323,0.1478402436305065,-8.187009552757287,6.220577578012238
9.495017926089353,0.1886019850723413,-8.136631784628756,6.1856024720986795
9.503017098731384,0.2293637265141761,-8.086254016500225,6.150627366185122
9.511016271373414,0.2701254679560109,-8.035876248371695,6.115652260271565
9.519015444015443,0.31088720939783665,-7.985498480243175,6.080677154358015
9.527014616657473,0.8631352818298098,-7.957856165870605,5.995021458497142
9.535013789299503,0.9371701775592385,-7.879140903169775,6.006764924716293
9.543012961941532,1.0112050732886506,-7.800425640468964,6.018508390935441
9.551012134583562,1.0852399690180792,-7.721710377768135,6.0302518571545916
9.559011307225592,1.1592748647475077,-7.642995115067305,6.041995323373743
9.567010479867621,1.2333097604769199,-7.564279852366494,6.053738789592891
9.575009652509651,1.3073446562063487,-7.485564589665664,6.065482255812041
9.583008825151682,1.3813795519357772,-7.406849326964835,6.0772257220311925
9.591007997793712,1.4554144476652058,-7.328134064264006,6.088969188250343
9.59900717043574,1.529449343394618,-7.249418801563194,6.100712654469491
9.60700634307777,1.6034842391240467,-7.170703538862365,6.112456120688642
9.615005515719801,1.6775191348534753,-7.091988276161535,6.1241995869077925
9.62300468836183,1.725582653061232,-6.971055129619477,6.147834693877536
9.63100386100386,1.695985714285719,-6.723880694980735,6.207028571428562
9.63900303364589,1.6663887755102063,-6.476706260341992,6.266222448979588
9.647002206287919,1.8616661812833555,-5.703566023166062,6.457024394190095
9.65500137892995,1.7632230299687681,-5.5803787644787946,6.4971269130354745
9.66300055157198,1.6647798786541808,-5.457191505791527,6.537229431880854
9.67099972421401,1.5663367273395934,-5.334004247104258,6.577331950726233
9.678998896856038,1.4678935760250278,-5.210816988417018,6.617434469571603
9.686998069498069,1.3694504247104404,-5.087629729729749,6.657536988416982
9.694997242140099,1.271007273395853,-4.9644424710424815,6.697639507262362
9.702996414782127,1.1725641220812875,-4.84125521235524,6.737742026107731
9.710995587424158,1.0741209707667,-4.718067953667973,6.77784454495311
9.718994760066188,0.9756778194521127,-4.594880694980705,6.817947063798489
9.726993932708217,1.4456188637619327,-4.678742967456481,5.56112024269137
9.734993105350247,1.4234675529340293,-4.686709360964462,5.54895003208123
9.742992277992277,1.4019187613269268,-4.69242305570877,5.535890158379956
9.750991450634308,1.3803699697198246,-4.698136750453077,5.522830284678681
9.758990623276336,1.358821178112727,-4.703850445197383,5.509770410977411
9.766989795918366,1.3372723865056249,-4.7095641399416905,5.496710537276137
9.774988968560397,1.3157235948985224,-4.715277834685998,5.4836506635748625
9.782988141202425,1.2941748032914249,-4.720991529430305,5.470590789873591
9.790987313844456,1.2726260116843227,-4.726705224174611,5.457530916172317
9.798986486486486,1.2510772200772204,-4.732418918918919,5.444471042471043
9.806985659128514,1.229528428470123,-4.738132613663225,5.431411168769771
9.814984831770545,1.2079796368630205,-4.743846308407533,5.418351295068497
9.822984004412575,1.1864308452559182,-4.74956000315184,5.405291421367223
9.830983177054605,0.7723299779370798,-5.311284059569804,5.325083149476022
9.838982349696634,0.8230946224830535,-5.329001859231365,5.039048835811306
9.846981522338664,0.8820548163389171,-5.470740008180598,4.89470421487759
9.854980694980695,0.9410150101947807,-5.612478157129831,4.750359593943875
9.862979867622723,0.9999752040506313,-5.754216306079033,4.6060149730101925
9.870979040264753,1.0589353979064948,-5.895954455028265,4.461670352076478
9.878978212906784,1.1178955917623585,-6.037692603977499,4.317325731142763
9.886977385548812,1.1768557856182091,-6.1794307529267005,4.172981110209079
9.894976558190843,1.2358159794740728,-6.321168901875934,4.028636489275365
9.902975730832873,1.2947761733299363,-6.462907050825167,3.88429186834165
9.910974903474903,1.3537363671858,-6.6046451997744,3.739947247407935
9.918974076116932,1.4126965610416506,-6.746383348723602,3.595602626474252
9.926973248758962,1.688335079977866,-8.22855929398778,4.7988968560396525
9.934972421400992,1.7708785086948415,-8.61673590612366,5.260185904002219
9.942971594043021,1.684997281538117,-8.639151170120552,5.419817744858526
9.950970766685051,1.5991160543813732,-8.661566434117452,5.579449585714868
9.958969939327082,1.5132348272246294,-8.68398169811435,5.739081426571211
9.96696911196911,1.4273536000679048,-8.706396962111242,5.898713267427517
9.97496828461114,1.341472372911161,-8.728812226108142,6.05834510828386
9.98296745725317,1.2555911457544173,-8.75122749010504,6.217976949140203
9.990966629895201,1.1697099185976736,-8.773642754101939,6.377608789996545
9.99896580253723,1.083828691440949,-8.796058018098831,6.5372406308528515
10.00696497517926,0.9979474642842052,-8.818473282095729,6.696872471709194
10.01496414782129,0.9120662371274615,-8.840888546092629,6.856504312565537
10.022963320463319,0.18077799227882074,-10.123162162161004,9.00898648648474
10.03096249310535,0.7920735429303316,-11.537118220260949,12.268541643683989
10.03896166574738,1.092306871010913,-11.465195338307593,12.484641056957354
10.046960838389408,1.3859907808682488,-11.39003827667095,12.69024616475631
10.054960011031438,1.67967469072565,-11.314881215034292,12.89585127255531
10.062959183673469,1.9733586005830508,-11.239724153397633,13.10145638035431
10.070958356315499,2.2670425104404517,-11.164567091760974,13.307061488153312
10.078957528957528,2.5607264202977875,-11.08941003012433,13.512666595952266
10.086956701599558,2.854410330155189,-11.014252968487673,13.718271703751267
10.094955874241588,3.1480942400125898,-10.939095906851014,13.923876811550269
10.102955046883617,3.4417781498699256,-10.86393884521437,14.129481919349223
10.110954219525647,3.7354620597273263,-10.788781783577713,14.335087027148223
10.118953392167677,4.029145969584728,-10.713624721941054,14.540692134947225
10.126952564809706,1.6660091009377487,-8.404786265857949,6.076712906784503
10.134951737451736,0.3524864864864959,-9.12723809523806,4.319854568854556
10.142950910093766,0.30614645187059597,-9.297335444522613,4.3858707292795875
10.150950082735797,0.2598064172546961,-9.467432793807166,4.451886889704619
10.158949255377825,0.2134663826388065,-9.637530143091682,4.517903050129637
10.166948428019856,0.16712634802290657,-9.807627492376236,4.583919210554669
10.174947600661886,0.12078631340700668,-9.97772484166079,4.649935370979701
10.182946773303915,0.0744462787911171,-10.147822190945305,4.715951531404718
10.190945945945945,0.028106244175217177,-10.317919540229857,4.781967691829751
10.198945118587975,-0.01823379044068274,-10.48801688951441,4.8479838522547825
10.206944291230004,-0.06457382505657233,-10.658114238798927,4.9140000126798
10.214943463872034,-0.11091385967247225,-10.82821158808348,4.980016173104832
10.222942636514064,-0.19456591285160396,-10.825224489795982,5.014458907887487
10.230941809156095,-0.5320170987313677,-7.462009790402658,6.082420022062851
10.238940981798123,-0.6506552241303456,-7.183936761342884,6.360382115433472
10.246940154440153,-0.6410382412910507,-6.957982603791602,6.438037004902171
10.254939327082184,-0.6314212584517559,-6.73202844624032,6.515691894370868
10.262938499724212,-0.6218042756124632,-6.506074288689088,6.59334678383955
10.270937672366243,-0.6121872927731684,-6.280120131137805,6.671001673308249
10.278936845008273,-0.6025703099338735,-6.054165973586523,6.748656562776947
10.286936017650302,-0.5929533270945808,-5.8282118160352905,6.826311452245628
10.294935190292332,-0.583336344255286,-5.6022576584840085,6.903966341714327
10.302934362934362,-0.5737193614159912,-5.3763035009327265,6.981621231183025
10.310933535576392,-0.5641023785766963,-5.1503493433814445,7.059276120651724
10.318932708218421,-0.5544853957374036,-4.924395185830212,7.136931010120405
10.326931880860451,0.04505901820188351,-5.693207528957533,6.206238830667421
10.334931053502482,-0.15758668872954348,-5.590551480051481,5.747619599191033
10.34293022614451,-0.22779067843353112,-5.613328699292973,5.495569911748516
10.35092939878654,-0.2517881963596218,-5.679867271724406,5.315588527302836
10.35892857142857,-0.2757857142857125,-5.74640584415584,5.135607142857156
10.3669277440706,-0.29978323221179787,-5.812944416587258,4.955625758411516
10.37492691671263,-0.32378075013788854,-5.879482989018691,4.775644373965836
10.38292608935466,-0.34777826806397927,-5.946021561450125,4.5956629895201555
10.39092526199669,-0.3717757859900699,-6.012560133881558,4.415681605074475
10.398924434638719,-0.3957733039161553,-6.079098706312976,4.235700220628836
10.40692360728075,-0.41977082184224596,-6.14563727874441,4.055718836183155
10.41492277992278,-0.44376833976833663,-6.212175851175843,3.875737451737475
10.422921952564808,-0.467765857694422,-6.278714423607261,3.695756067291835
10.430921125206838,-0.5139282956426772,-6.5621776061777135,3.162908439051287
10.438920297848869,-0.2935916344916535,-6.432858659680093,3.1954517190660012
10.446919470490897,-0.1405407979408405,-6.396862382790965,3.223715462401169
10.454918643132928,0.01251003861000649,-6.360866105901828,3.2519792057363426
10.462917815774958,0.16556087516085344,-6.324869829012692,3.2802429490715164
10.470916988416988,0.3186117117117005,-6.2888735521235555,3.30850669240669
10.478916161059017,0.47166254826251347,-6.252877275234426,3.3367704357418577
10.486915333701047,0.6247133848133604,-6.21688099834529,3.3650341790770315
10.494914506343077,0.7777642213642075,-6.180884721456153,3.3932979224122053
10.502913678985106,0.9308150579150205,-6.144888444567025,3.421561665747373
10.510912851627136,1.0838658944658675,-6.1088921676778885,3.4498254090825466
10.518912024269166,1.2369167310167144,-6.072895890788752,3.4780891524177204
10.526911196911195,1.2261281853281973,-6.278688030887969,4.056159073358938
10.534910369553225,0.9374723811176543,-6.74775821625341,4.98293493929608
10.542909542195256,0.8892975885768877,-6.692123521136368,5.067959852996761
10.550908714837286,0.8411227960361211,-6.636488826019326,5.152984766697443
10.558907887479315,0.7929480034953651,-6.5808541309022965,5.238009680398106
10.566907060121345,0.7447732109545985,-6.525219435785255,5.323034594098787
10.574906232763375,0.6965984184138319,-6.469584740668212,5.408059507799468
10.582905405405404,0.6484236258730759,-6.413950045551183,5.49308442150013
10.590904578047434,0.6002488333323093,-6.3583153504341405,5.578109335200812
10.598903750689464,0.5520740407915427,-6.302680655317099,5.6631342489014935
10.606902923331493,0.5038992482507867,-6.247045960200069,5.748159162602156
10.614902095973523,0.45572445571002007,-6.191411265083027,5.833184076302837
10.622901268615554,0.8867120794263131,-6.2336064533921585,5.878036679536682
10.630900441257584,0.8022973090328719,-6.946621061247965,7.110679137670013
10.638899613899612,0.7920855992770907,-6.8462910128974155,7.2339004353897725
10.646898786541643,0.7818738895213073,-6.7459609645468435,7.357121733109559
10.654897959183673,0.7716621797655239,-6.6456309161962706,7.480343030829347
10.662897131825702,0.7614504700097426,-6.545300867845721,7.603564328549106
10.670896304467732,0.7512387602539592,-6.444970819495149,7.726785626268892
10.678895477109762,0.7410270504981757,-6.344640771144576,7.85000692398868
10.68689464975179,0.7308153407423945,-6.244310722794026,7.973228221708439
10.694893822393821,0.7206036309866111,-6.143980674443454,8.096449519428226
10.702892995035851,0.7103919212308277,-6.043650626092882,8.219670817148012
10.710892167677882,0.7001802114750443,-5.943320577742309,8.3428921148678
10.71889134031991,0.689968501719263,-5.842990529391759,8.466113412587559
10.72689051296194,-0.0753862382790624,-6.482364451185812,10.691299089906064
10.73488968560397,-0.5001423055708812,-7.347075013789308,12.87587313844459
10.742888858246,0.7450835199595465,-7.3893361598628475,11.762681350886249
10.75088803088803,0.9584590407963547,-7.3504004279667,11.424017583848965
10.75888720353006,1.171834561633163,-7.311464696070552,11.085353816811683
10.766886376172089,1.3852100824699236,-7.2725289641744135,10.746690049774475
10.774885548814119,1.598585603306732,-7.233593232278266,10.408026282737193
10.78288472145615,1.81196112414354,-7.194657500382118,10.06936251569991
10.79088389409818,2.0253366449803485,-7.155721768485971,9.730698748662626
10.798883066740208,2.2387121658171094,-7.116786036589832,9.392034981625418
10.806882239382238,2.4520876866539174,-7.077850304693684,9.053371214588136
10.814881412024269,2.665463207490726,-7.0389145727975375,8.714707447550854
10.822880584666297,3.845017098731735,-7.145296469938998,7.431099834527656
10.830879757308328,2.808743289207587,-6.974219088986952,7.699385502849784
10.838878929950358,2.6179296918091555,-6.880645434018202,7.765212027716492
10.846878102592386,2.4271160944107666,-6.787071779049472,7.831038552583185
10.854877275234417,2.236302497012335,-6.693498124080722,7.896865077449893
10.862876447876447,2.045488899613904,-6.599924469111971,7.9626916023166014
10.870875620518477,1.8546753022154725,-6.506350814143221,8.02851812718331
10.878874793160506,1.6638617048170834,-6.4127771591744915,8.094344652050003
10.886873965802536,1.473048107418652,-6.319203504205741,8.16017117691671
10.894873138444567,1.2822345100202208,-6.225629849236991,8.225997701783418
10.902872311086595,1.0914209126218317,-6.1320561942682605,8.29182422665011
10.910871483728625,0.9006073152234002,-6.03848253929951,8.357650751516818
10.918870656370656,0.7097937178249691,-5.94490888433076,8.423477276383526
10.926869829012684,-0.15006260341957361,-6.372044953118331,9.22846856039565
10.934869001654715,-0.7410461108114085,-2.6560333185844014,10.991714028111991
10.942868174296745,-0.7986225732348128,-2.2305828176236733,10.968243928162298
10.950867346938775,-0.8561990356582171,-1.805132316662945,10.944773828212606
10.958866519580804,-0.9137754980816086,-1.3796818157023112,10.921303728262917
10.966865692222834,-0.971351960505013,-0.9542313147415828,10.897833628313224
10.974864864864864,-1.0289284229284172,-0.5287808137808545,10.874363528363531
10.982864037506893,-1.086504885351809,-0.10333031282022098,10.850893428413844
10.990863210148923,-1.1440813477752132,0.3221201881405076,10.82742332846415
10.998862382790954,-1.2016578101986175,0.7475706891012357,10.803953228514457
11.006861555432982,-1.2592342726220092,1.1730211900618697,10.78048312856477
11.014860728075012,-1.3168107350454137,1.5984716910225982,10.757013028615077
11.022859900717043,-0.5020730832875195,1.4762374517376309,10.039956701599603
11.030859073359073,-0.3623835948410429,-1.0742837221720216,9.52119481639694
11.038858246001102,-0.39012540634424786,-1.1101098038985533,9.459413972374467
11.046857418643132,-0.41786721784745906,-1.1459358856250927,9.397633128351977
11.054856591285162,-0.4456090293506702,-1.1817619673516324,9.335852284329489
11.06285576392719,-0.47335084085387524,-1.2175880490781639,9.274071440307013
11.070854936569221,-0.5010926523570864,-1.2534141308047035,9.212290596284525
11.078854109211251,-0.5288344638602975,-1.2892402125312432,9.150509752262037
11.08685328185328,-0.5565762753635026,-1.3250662942577747,9.088728908239561
11.09485245449531,-0.5843180868667137,-1.3608923759843143,9.026948064217073
11.10285162713734,-0.612059898369925,-1.396718457710854,8.965167220194584
11.11085079977937,-0.6398017098731361,-1.4325445394373935,8.903386376172095
11.1188499724214,-0.6675435213763412,-1.4683706211639251,8.84160553214962
11.12684914506343,-1.0233668566525713,-1.7394320034320012,8.66080455966171
11.13484831770546,-1.02158926273212,-1.7518751608751602,8.61814230557088
11.142847490347489,-1.0428822393821777,-1.6850308880310982,8.557117760617823
11.150846662989519,-1.0386503457932048,-1.5430390343247793,8.60158895158894
11.15884583563155,-1.0301384056741212,-1.4125909881624377,8.651122289872282
11.166845008273578,-1.0216264655550396,-1.2821429420001251,8.700655628155614
11.174844180915608,-1.013114525435956,-1.1516948958377835,8.750188966438955
11.182843353557638,-1.0046025853168723,-1.021246849675442,8.799722304722296
11.190842526199669,-0.9960906451977888,-0.8907988035131005,8.84925564300564
11.198841698841697,-0.987578705078707,-0.7603507573507878,8.89878898128897
11.206840871483728,-0.9790667649596234,-0.6299027111884463,8.948322319572311
11.214840044125758,-0.9705548248405398,-0.4994546650261047,8.997855657855654
11.222839216767786,-0.8887175951462439,-0.07883121897430488,9.169321566464426
11.230838389409817,-0.71268670711531,0.4231621621620557,9.763071704357223
11.238837562051847,-0.6327093773104465,0.6244333830139168,9.805840801070284
11.246836734693876,-0.5558662613981931,0.8136904038210613,9.81996699956578
11.254835907335906,-0.4790231454859226,1.002947424628248,9.83409319806128
11.262835079977936,-0.40218002957365223,1.1922044454354344,9.848219396556782
11.270834252619967,-0.3253369136613818,1.3814614662426208,9.862345595052282
11.278833425261995,-0.2484937977491284,1.5707184870497655,9.876471793547779
11.286832597904025,-0.17165068183685794,1.759975507856952,9.89059799204328
11.294831770546056,-0.0948075659245875,1.9492325286641385,9.904724190538781
11.302830943188084,-0.017964450012334154,2.138489549471283,9.918850389034278
11.310830115830115,0.05887866589993629,2.327746570278469,9.932976587529778
11.318829288472145,0.13572178181220673,2.517003591085656,9.947102786025278
11.326828461114173,-0.13686569222249156,2.734309983452767,10.264267236624061
11.334827633756204,0.24143529564878763,2.5254581022204827,9.947386106583563
11.342826806398234,0.20871957832632604,2.7445815056055416,9.852294818322124
11.350825979040264,0.17600386100386448,2.9637049089906,9.757203530060682
11.358825151682293,0.14328814368141018,3.18282831237561,9.662112241799264
11.366824324324323,0.1105724263589486,3.4019517157606685,9.567020953537822
11.374823496966354,0.07785670903648703,3.6210751191457273,9.471929665276383
11.382822669608382,0.04514099171403274,3.840198522530737,9.376838377014963
11.390821842250412,0.01242527439157115,4.059321925915795,9.281747088753523
11.398821014892443,-0.020290442930890384,4.278445329300855,9.186655800492082
11.406820187534471,-0.0530061602533447,4.497568732685864,9.091564512230663
11.414819360176502,-0.0857218775758063,4.716692136070923,8.996473223969222
11.422818532818532,-0.29726640926628844,4.790204633204703,8.447972972973055
11.430817705460562,0.3075259209491742,6.232667977139101,8.010694740115714
11.43881687810259,0.18081562239619178,6.286449648519548,7.90738627641973
11.446816050744621,0.05410532384318123,6.340231319900006,7.8040778127237225
11.454815223386651,-0.0726049747098293,6.394012991280465,7.700769349027715
11.46281439602868,-0.19931527326281162,6.447794662660911,7.5974608853317305
11.47081356867071,-0.32602557181582215,6.50157633404137,7.494152421635723
11.47881274131274,-0.45273587036883267,6.555358005421828,7.390843957939716
11.486811913954769,-0.5794461689218151,6.609139676802275,7.287535494243732
11.4948110865968,-0.7061564674748256,6.662921348182733,7.184227030547724
11.50281025923883,-0.8328667660278363,6.716703019563192,7.080918566851717
11.51080943188086,-0.9595770645808467,6.7704846909436505,6.97761010315571
11.518808604522889,-1.0862873631338292,6.824266362324098,6.874301639459726
11.526807777164919,-1.8740115830114936,7.553870380584565,6.896146166574766
11.53480694980695,-2.408110187110137,8.164268785268728,6.730009504009519
11.542806122448978,-2.3614761904762767,8.675972789115663,6.522836734693871
11.550805295091008,-2.3585634001348277,8.788055831341536,6.177965250965282
11.558804467733038,-2.3704140262711686,8.905969561398129,5.823335263835277
11.566803640375067,-2.3822646524075073,9.023883291454696,5.468705276705351
11.574802813017097,-2.394115278543848,9.14179702151129,5.114075289575346
11.582801985659128,-2.405965904680189,9.259710751567882,4.759445302445341
11.590801158301158,-2.41781653081653,9.377624481624476,4.404815315315336
11.598800330943186,-2.4296671569528687,9.495538211681042,4.050185328185409
11.606799503585217,-2.4415177830892096,9.613451941737635,3.695555341055404
11.614798676227247,-2.4533684092255506,9.73136567179423,3.340925353925399
11.622797848869276,-2.4652190353618892,9.849279401850795,2.986295366795473
11.630797021511306,-1.5221097628242028,9.05020077220127,3.041415333700956
11.638796194153336,-1.4768317981246584,8.972991064533922,2.9786367898510853
11.646795366795365,-1.4520343629343697,8.963747576147577,2.9013114543114757
11.654794539437395,-1.4272369277440757,8.954504087761233,2.8239861187718494
11.662793712079425,-1.4024394925537818,8.945260599374887,2.746660783232223
11.670792884721456,-1.3776420573634878,8.93601711098854,2.6693354476925966
11.678792057363484,-1.3528446221731993,8.926773622602196,2.592010112152987
11.686791230005515,-1.3280471869829051,8.91753013421585,2.5146847766133607
11.694790402647545,-1.3032497517926112,8.908286645829504,2.4373594410737343
11.702789575289573,-1.2784523166023227,8.89904315744316,2.3600341055341247
11.710788747931604,-1.2536548814120287,8.889799669056814,2.2827087699944983
11.718787920573634,-1.2288574462217348,8.880556180670467,2.205383434454872
11.726787093215663,-1.5940860452289143,9.505913954771085,2.2981869829012123
11.734786265857693,-1.583266330470414,9.63251256796154,2.312845559845562
11.742785438499723,-1.57535506082445,9.666794736427384,2.304231066231068
11.750784611141754,-1.5674437911784858,9.70107690489323,2.2956165726165736
11.758783783783782,-1.5595325215325235,9.735359073359065,2.287002079002081
11.766782956425812,-1.5516212518865593,9.76964124182491,2.278387585387587
11.774782129067843,-1.5437099822405953,9.803923410290755,2.2697730917730925
11.782781301709871,-1.5357987125946329,9.838205578756591,2.2611585981586004
11.790780474351902,-1.5278874429486689,9.872487747222436,2.252544104544106
11.798779646993932,-1.5199761733027046,9.90676991568828,2.243929610929612
11.80677881963596,-1.5120649036567422,9.941052084154117,2.2353151173151193
11.81477799227799,-1.5041536340107782,9.975334252619962,2.2267006237006255
11.822777164920021,-1.1907697186983237,10.370372035300594,1.7924658025372855
11.830776337562051,0.07182454015682999,10.09891071728339,0.21486977205689478
11.83877551020408,0.13407897071870511,10.084999112688557,0.13322604259097193
11.84677468284611,0.19633340128059407,10.071087508093722,0.051582313125030976
11.85477385548814,0.2585878318424831,10.057175903498887,-0.030061416340910002
11.862773028130169,0.3208422624043582,10.043264298904054,-0.1117051458068328
11.8707722007722,0.38309669296624715,10.02935269430922,-0.19334887527277375
11.87877137341423,0.4453511235281361,10.015441089714383,-0.2749926047387148
11.886770546056258,0.5076055540900113,10.001529485119551,-0.3566363342046376
11.894769718698289,0.5698599846519002,9.987617880524715,-0.4382800636705786
11.902768891340319,0.6321144152137892,9.97370627592988,-0.5199237931365195
11.91076806398235,0.6943688457756781,9.959794671335045,-0.6015675226024605
11.918767236624378,0.7566232763375533,9.945883066740212,-0.6832112520683833
11.926766409266408,0.774,9.942,-0.706
11.934765581908438,0.5073971318258661,10.196243794815068,-0.44734225041383696
11.942764754550467,0.6716234659404533,9.484478368036413,-1.8290774441532875
11.950763927192497,0.5403370449531308,9.433783611417546,-2.109948393546577
11.958763099834528,0.40905062396580844,9.383088854798679,-2.390819342939866
11.966762272476556,0.2777642029785152,9.332394098179822,-2.6716902923330927
11.974761445118586,0.14647778199119277,9.281699341560955,-2.9525612417263822
11.982760617760617,0.015191361003870307,9.231004584942088,-3.2334321911196713
11.990759790402647,-0.11609505998345215,9.180309828323221,-3.5143031405129603
11.998758963044676,-0.24738148097074542,9.129615071704364,-3.7951740899061877
12.006758135686706,-0.378667901958068,9.078920315085497,-4.076045039299477
12.014757308328736,-0.5099543229453903,9.02822555846663,-4.356915988692766
12.022756480970765,-0.6210565361281506,9.749586045228678,-3.8245261996699886
12.030755653612795,-0.16203971318263172,9.438793160507535,-2.543235521235637
12.038754826254825,0.08746406123730766,9.320043234264167,-2.7126350004489233
12.046753998896854,0.13871457432751463,9.304975025333835,-2.8785713259533323
12.054753171538884,0.189965087417733,9.289906816403498,-3.044507651457778
12.062752344180915,0.24121560050795138,9.274838607473162,-3.2104439769622237
12.070751516822945,0.29246611359816976,9.259770398542825,-3.376380302466669
12.078750689464973,0.3437166266883767,9.244702189612491,-3.5423166279710783
12.086749862107004,0.3949671397785951,9.229633980682156,-3.7082529534755237
12.094749034749034,0.44621765286881343,9.214565771751818,-3.8741892789799692
12.102748207391063,0.49746816595902044,9.199497562821486,-4.040125604484379
12.110747380033093,0.5487186790492389,9.184429353891149,-4.206061929988824
12.118746552675123,0.5999691921394572,9.169361144960813,-4.37199825549327
12.126745725317152,0.6937501378932495,8.930178709321446,-5.3780419194703
12.134744897959182,0.47072524967435647,8.921859639600541,-5.555305471124604
12.142744070601212,0.3802665207543748,8.829188373566804,-5.635127002382311
12.150743243243243,0.2898077918343931,8.73651710753307,-5.714948533640019
12.158742415885271,0.19934906291443144,8.643845841499356,-5.794770064897708
12.166741588527302,0.10889033399444975,8.551174575465621,-5.874591596155415
12.174740761169332,0.01843160507446806,8.458503309431887,-5.9544131274131225
12.18273993381136,-0.07202712384549359,8.365832043398173,-6.034234658670812
12.19073910645339,-0.16248585276547534,8.273160777364438,-6.114056189928519
12.198738279095421,-0.25294458168545697,8.180489511330702,-6.193877721186227
12.20673745173745,-0.3434033106054186,8.087818245296988,-6.273699252443916
12.21473662437948,-0.43386203952540037,7.995146979263254,-6.353520783701623
12.22273579702151,-0.1672322118043449,7.825647545504861,-6.50767346938759
12.23073496966354,0.004409936598875104,7.692002609587866,-5.918934659478433
12.238734142305569,0.04948054374320797,7.627665178015421,-6.079606213191436
12.2467333149476,0.09455115088755085,7.563327746442962,-6.240277766904475
12.25473248758963,0.13962175803189372,7.498990314870503,-6.4009493206175145
12.262731660231658,0.18469236517622659,7.4346528832980585,-6.561620874330518
12.270730832873689,0.22976297232056947,7.3703154517256,-6.7222924280435565
12.278730005515719,0.2748335794649123,7.305978020153141,-6.882963981756596
12.28672917815775,0.31990418660925524,7.241640588580681,-7.043635535469635
12.294728350799778,0.3649747937535881,7.177303157008237,-7.204307089182638
12.302727523441808,0.41004540089793096,7.112965725435778,-7.364978642895678
12.310726696083838,0.4551160080422738,7.048628293863319,-7.525650196608717
12.318725868725867,0.5001866151866067,6.984290862290875,-7.686321750321721
12.326725041367897,1.5498086045225743,7.256127688913304,-8.012836293436429
12.334724214009928,2.837507037190822,6.666336471302768,-8.104237857669636
12.342723386651956,2.945990198751815,6.521003188581868,-8.182072503826902
12.350722559293986,3.0544733603128327,6.375669905860936,-8.259907149984185
12.358721731936017,3.16295652187385,6.230336623140004,-8.337741796141469
12.366720904578047,3.2714396834348674,6.085003340419072,-8.415576442298752
12.374720077220076,3.3799228449958605,5.939670057698172,-8.49341108845602
12.382719249862106,3.488406006556878,5.794336774977239,-8.571245734613303
12.390718422504136,3.5968891681178956,5.649003492256307,-8.649080380770586
12.398717595146165,3.7053723296788887,5.503670209535407,-8.726915026927852
12.406716767788195,3.8138554912399063,5.358336926814475,-8.804749673085135
12.414715940430225,3.9223386528009234,5.213003644093543,-8.882584319242419
12.422715113072254,3.8456314120246744,3.723231660231052,-8.560481384446845
12.430714285714284,2.7560577507598807,6.690130699088158,-5.207534954407281
12.438713458356315,2.7389531369189437,6.604267239558281,-5.309907344709008
12.446712630998345,2.7218485230780067,6.518403780028403,-5.412279735010736
12.454711803640373,2.7047439092370738,6.4325403204985445,-5.514652125312439
12.462710976282404,2.6876392953961368,6.346676860968667,-5.617024515614167
12.470710148924434,2.6705346815552,6.2608134014387895,-5.719396905915894
12.478709321566463,2.653430067714267,6.174949941908931,-5.821769296217599
12.486708494208493,2.63632545387333,6.089086482379053,-5.9241416865193255
12.494707666850523,2.619220840032393,6.003223022849176,-6.026514076821052
12.502706839492552,2.60211622619146,5.917359563319318,-6.128886467122757
12.510706012134582,2.585011612350523,5.83149610378944,-6.231258857424484
12.518705184776612,2.567906998509586,5.745632644259562,-6.3336312477262116
12.526704357418643,2.0363232211803948,5.029854936569099,-6.458584666298995
12.534703530060671,2.1601006824236206,4.812989734306608,-6.632881661405204
12.542702702702702,2.2411986774007993,4.777674238067858,-6.74801868890166
12.550701875344732,2.322296672377978,4.742358741829108,-6.863155716398116
12.55870104798676,2.4033946673551387,4.707043245590365,-6.978292743894547
12.56670022062879,2.4844926623323174,4.671727749351614,-7.093429771391003
12.574699393270821,2.565590657309496,4.636412253112864,-7.208566798887459
12.58269856591285,2.646688652286657,4.601096756874122,-7.323703826383889
12.59069773855488,2.7277866472638355,4.565781260635371,-7.438840853880346
12.59869691119691,2.808884642241014,4.530465764396621,-7.553977881376802
12.60669608383894,2.8899826372181927,4.49515026815787,-7.669114908873258
12.61469525648097,2.9710806321953536,4.459834771919128,-7.784251936369689
12.622694429123,3.5484120242689805,6.246733590732932,-8.371467733038982
12.63069360176503,2.08007555037292,4.258535369553239,-6.953534755030087
12.638692774407058,1.973390932636301,4.120549641478247,-7.06500148684618
12.646691947049089,1.866706314899658,3.982563913403225,-7.176468218662297
12.654691119691119,1.7600216971630154,3.844578185328203,-7.287934950478415
12.662690292333147,1.6533370794263962,3.7065924572532114,-7.399401682294507
12.670689464975178,1.5466524616897535,3.5686067291781893,-7.510868414110625
12.678688637617208,1.4399678439531105,3.4306210011031673,-7.622335145926742
12.686687810259238,1.3332832262164676,3.2926352730281447,-7.733801877742859
12.694686982901267,1.2265986084798484,3.1546495449531538,-7.8452686095589526
12.702686155543297,1.1199139907432056,3.0166638168781317,-7.9567353413750705
12.710685328185328,1.0132293730065627,2.878678088803109,-8.068202073191188
12.718684500827356,0.9065447552699435,2.7406923607281177,-8.17966880500728
