accel_time_list,vertical_Accel_x,vertical_Accel_y,vertical_Accel_z
0.0,1.031,-5.324,8.422
0.007999245852187028,-0.4408773041200286,-2.760350948638565,6.880769953163451
0.015998491704374056,-0.17917566087163622,-3.057333476224498,6.976171485274271
0.023997737556561084,0.08252598237675624,-3.354316003810431,7.0715730173850915
0.03199698340874811,0.34422762562514864,-3.651298531396364,7.166974549495912
0.03999622926093514,0.6059292688735413,-3.948281058982298,7.262376081606732
0.04799547511312217,0.8676309121219338,-4.245263586568231,7.357777613717552
0.05599472096530919,1.129332555370326,-4.542246114154164,7.453179145828371
0.06399396681749622,1.3910341986187187,-4.839228641740097,7.548580677939191
0.07199321266968325,1.652735841867111,-5.13621116932603,7.643982210050011
0.07999245852187029,1.9144374851155033,-5.433193696911963,7.739383742160832
0.0879917043740573,2.1761391283638956,-5.730176224497896,7.834785274271652
0.09599095022624433,2.4378407716122883,-6.027158752083829,7.930186806382472
0.10399019607843137,-0.6068235294117649,-4.805029411764705,7.821730392156862
0.11198944193061838,-0.4102395295336474,-4.805318219906455,8.261891311303076
0.11998868778280541,-0.2823323963618083,-4.809115841674665,8.321279651720829
0.12798793363499245,-0.1544252631899692,-4.812913463442875,8.380667992138582
0.13598717948717948,-0.02651813001813008,-4.816711085211085,8.440056332556333
0.1439864253393665,0.10138900315370902,-4.820508706979295,8.499444672974086
0.15198567119155354,0.22929613632554813,-4.824306328747505,8.558833013391837
0.15998491704374057,0.35720326949738723,-4.8281039505157155,8.61822135380959
0.16798416289592757,0.4851104026692259,-4.831901572283925,8.67760969422734
0.1759834087481146,0.613017535841065,-4.835699194052135,8.736998034645094
0.18398265460030164,0.7409246690129041,-4.839496815820345,8.796386375062847
0.19198190045248867,0.8688318021847432,-4.843294437588555,8.855774715480598
0.1999811463046757,0.9967389353565823,-4.847092059356766,8.91516305589835
0.20798039215686273,0.62356862745098,-5.119333333333333,8.000117647058824
0.21597963800904976,0.7329738202973497,-5.176395132017304,8.10298545572075
0.22397888386123677,0.7432585649644473,-5.17226365339035,8.108699202758027
0.2319781297134238,0.7535433096315449,-5.168132174763397,8.114412949795303
0.23997737556561083,0.7638280542986424,-5.164000696136442,8.12012669683258
0.24797662141779786,0.7741127989657401,-5.159869217509489,8.125840443869857
0.2559758672699849,0.7843975436328376,-5.155737738882535,8.131554190907133
0.2639751131221719,0.7946822882999354,-5.151606260255582,8.13726793794441
0.27197435897435895,0.8049670329670329,-5.1474747816286275,8.142981684981685
0.279973604826546,0.8152517776341306,-5.143343303001674,8.148695432018961
0.287972850678733,0.8255365223012281,-5.13921182437472,8.154409179056238
0.29597209653092005,0.8358212669683257,-5.135080345747767,8.160122926093514
0.3039713423831071,0.7175731523378582,-5.249573152337859,8.408146304675716
0.3119705882352941,0.6319822236586943,-5.174628636069812,8.253239495798319
0.31996983408748114,0.6218732865927437,-5.185968226343792,8.265809739280327
0.3279690799396681,0.611764349526793,-5.197307816617771,8.278379982762335
0.33596832579185515,0.6016554124608424,-5.2086474068917505,8.290950226244345
0.3439675716440422,0.5915464753948918,-5.21998699716573,8.303520469726353
0.3519668174962292,0.5814375383289412,-5.2313265874397095,8.31609071320836
0.35996606334841624,0.5713286012629905,-5.242666177713689,8.328660956690369
0.3679653092006033,0.5612196641970398,-5.254005767987668,8.341231200172377
0.3759645550527903,0.5511107271310892,-5.265345358261648,8.353801443654385
0.38396380090497734,0.5410017900651386,-5.276684948535627,8.366371687136393
0.39196304675716437,0.530892852999188,-5.288024538809607,8.378941930618401
0.3999622926093514,0.5239245852187028,-5.376907993966813,8.590156862745086
0.40796153846153843,0.5763793522267205,-4.7629631578947365,8.961563562753037
0.41596078431372546,0.5872414860681113,-4.775004127966976,8.91222084623323
0.4239600301659125,0.5981036199095021,-4.787045098039216,8.862878129713424
0.4319592760180995,0.608965753750893,-4.799086068111455,8.813535413193618
0.43995852187028656,0.6198278875922838,-4.811127038183694,8.764192696673812
0.44795776772247353,0.6306900214336745,-4.823168008255934,8.714849980154005
0.45595701357466056,0.6415521552750654,-4.835208978328173,8.665507263634199
0.4639562594268476,0.6524142891164562,-4.847249948400413,8.616164547114392
0.4719555052790346,0.663276422957847,-4.859290918472652,8.566821830594588
0.47995475113122166,0.6741385567992377,-4.8713318885448915,8.517479114074781
0.4879539969834087,0.6850006906406286,-4.883372858617132,8.468136397554975
0.4959532428355957,0.6958628244820194,-4.895413828689371,8.418793681035169
0.5039524886877828,-2.2098628959275985,-4.595338914027171,12.313048868778255
0.5119517345399698,-2.311356272686591,-3.051695887822584,14.182828584688313
0.5199509803921568,-2.0792902391725936,-3.123952811893988,14.251305645335057
0.5279502262443438,-1.8472242056585961,-3.196209735965392,14.3197827059818
0.5359494720965309,-1.6151581721445987,-3.2684666600367955,14.388259766628543
0.5439487179487179,-1.3830921386306014,-3.3407235841081993,14.456736827275288
0.5519479638009049,-1.1510261051166037,-3.412980508179603,14.525213887922032
0.559947209653092,-0.9189600716026063,-3.4852374322510067,14.593690948568776
0.567946455505279,-0.6868940380886088,-3.5574943563224104,14.66216800921552
0.575945701357466,-0.45482800457461137,-3.629751280393814,14.730645069862264
0.5839449472096531,-0.2227619710606139,-3.7020082044652183,14.799122130509009
0.5919441930618401,0.009304062453383555,-3.774265128536622,14.867599191155753
0.5999434389140271,0.14182692307692307,-4.350287330316743,15.067157239819005
0.6079426847662142,-1.8596857188219418,-7.844567166785743,9.558083242041755
0.6159419306184012,-1.9990410018258316,-7.916728784631261,8.919154004921806
0.6239411764705882,-2.1383962848297218,-7.98889040247678,8.280224767801856
0.6319404223227753,-2.2777515678336115,-8.061052020322299,7.641295530681907
0.6399396681749623,-2.4171068508375013,-8.133213638167819,7.002366293561957
0.6479389140271492,-2.5564621338413893,-8.205375256013337,6.363437056442017
0.6559381598793362,-2.695817416845279,-8.277536873858855,5.724507819322067
0.6639374057315233,-2.8351726998491693,-8.349698491704373,5.085578582202118
0.6719366515837103,-2.974527982853059,-8.421860109549893,4.446649345082168
0.6799358974358973,-3.1138832658569493,-8.494021727395412,3.8077201079622185
0.6879351432880844,-3.253238548860839,-8.56618334524093,3.168790870842269
0.6959343891402714,-3.392593831864729,-8.63834496308645,2.5298616337223194
0.7039336349924584,0.9539022959611057,-6.45054432713257,-1.0930821183173953
0.7119328808446455,2.8808317412434907,-5.367090916708571,-3.4670805262275666
0.7199321266968325,3.288818474583177,-5.1037431820961245,-3.320711181770007
0.7279313725490195,3.6839523935700376,-4.847334923158454,-3.1530152799858695
0.7359306184012065,4.079086312556898,-4.590926664220783,-2.985319378201732
0.7439298642533936,4.474220231543758,-4.334518405283113,-2.8176234764175954
0.7519291101055806,4.869354150530619,-4.078110146345441,-2.649927574633458
0.7599283559577676,5.26448806951748,-3.821701887407771,-2.482231672849321
0.7679276018099547,5.659621988504339,-3.5652936284701,-2.3145357710651835
0.7759268476621417,6.0547559074912005,-3.308885369532429,-2.1468398692810466
0.7839260935143287,6.44988982647806,-3.0524771105947583,-1.9791439674969094
0.7919253393665158,6.845023745464921,-2.7960688516570875,-1.8114480657127723
0.7999245852187028,7.240157664451781,-2.5396605927194167,-1.6437521639286352
0.8079238310708898,7.635291583438642,-2.283252333781746,-1.476056262144498
0.8159230769230769,8.030425502425501,-2.026844074844075,-1.3083603603603606
0.8239223227752639,9.67494117647057,-2.3626168929110025,-1.324173453996981
0.8319215686274509,10.626901960784314,-0.8988997821350762,1.7285708061002159
0.839920814479638,10.330929864253395,-0.9374517031171442,2.610932063851179
0.847920060331825,10.034957767722474,-0.9760036240992123,3.493293321602142
0.855919306184012,9.738985671191555,-1.0145555450812802,4.375654579353105
0.863918552036199,9.443013574660636,-1.0531074660633484,5.258015837104068
0.8719177978883861,9.147041478129715,-1.0916593870454163,6.140377094855031
0.8799170437405731,8.851069381598796,-1.1302113080274843,7.0227383526059945
0.8879162895927601,8.555097285067875,-1.1687632290095524,7.905099610356958
0.8959155354449471,8.25912518853696,-1.20731514999162,8.787460868107908
0.9039147812971341,7.924154725993028,-2.571666289592786,7.546274258421325
0.9119140271493211,5.785423636452106,-1.8235376830632977,7.388434535104361
0.9199132730015082,5.481882361050299,-1.9265817317828682,7.54609709044908
0.9279125188536952,5.178341085648492,-2.029625780502439,7.703759645793799
0.9359117647058822,4.874799810246685,-2.132669829222009,7.861422201138517
0.9439110105580693,4.571258534844878,-2.23571387794158,8.019084756483236
0.9519102564102563,4.267717259443071,-2.3387579266611507,8.176747311827954
0.9599095022624433,3.9641759840412645,-2.441801975380721,8.334409867172672
0.9679087481146303,3.6606347086394573,-2.5448460241002917,8.492072422517392
0.9759079939668174,3.3570934332376505,-2.6478900728198624,8.64973497786211
0.9839072398190044,3.0535521578358433,-2.7509341215394327,8.807397533206828
0.9919064856711914,2.7500108824340366,-2.853978170259004,8.965060088551548
0.9999057315233785,2.44646960703223,-2.957022218978574,9.122722643896266
1.0079049773755655,1.8105818472185249,-4.7288099547511315,8.042764439712537
1.0159042232277526,2.7173198917576196,-4.744808446455506,8.084878116404933
1.0239034690799396,3.624057936296689,-4.760806938159879,8.12699179309733
1.0319027149321265,4.530795980835759,-4.776805429864254,8.169105469789725
1.0399019607843136,5.437534025374854,-4.792803921568628,8.211219146482122
1.0479012066365005,6.344272069913924,-4.808802413273002,8.253332823174519
1.0559004524886877,7.251010114453018,-4.824800904977376,8.295446499866916
1.0638996983408746,8.157748158992087,-4.840799396681749,8.337560176559311
1.0718989441930618,9.064486203531182,-4.856797888386124,8.379673853251708
1.0798981900452487,2.1491984162896207,-5.022496832579276,9.029332579185583
1.0878974358974358,-0.21076923076908582,-4.0966410256409285,7.93151282051279
1.0958966817496227,-0.021603069174044698,-4.193774378346962,7.970995267549503
1.1038959276018099,0.2644617045124276,-4.229000415127236,7.991250238698161
1.1118951734539968,0.5505264781988921,-4.264226451907509,8.011505209846817
1.119894419306184,0.8365912518853642,-4.299452488687782,8.031760180995475
1.1278936651583709,1.1226560255718288,-4.334678525468055,8.052015152144131
1.135892911010558,1.408720799258301,-4.369904562248329,8.072270123292789
1.143892156862745,1.6947855729447654,-4.405130599028602,8.092525094441445
1.151891402714932,1.980850346631238,-4.440356635808875,8.112780065590103
1.159890648567119,2.2669151203177025,-4.475582672589148,8.13303503673876
1.1678898944193061,2.552979894004175,-4.510808709369421,8.153290007887417
1.175889140271493,2.839044667690639,-4.546034746149694,8.173544979036075
1.1838883861236802,3.1251094413771114,-4.581260782929967,8.193799950184731
1.1918876319758671,3.4111742150635758,-4.61648681971024,8.214054921333389
1.1998868778280543,4.2248597285067495,-5.298190045248867,8.013140271493251
1.2078861236802412,4.552982895927604,-5.415573348416286,7.655062466063348
1.2158853695324283,4.4867491402714945,-5.531242443438913,7.686499502262444
1.2238846153846152,4.420515384615387,-5.646911538461536,7.717936538461538
1.2318838612368024,4.354281628959277,-5.762580633484162,7.749373574660633
1.2398831070889893,4.288047873303169,-5.878249728506785,7.780810610859728
1.2478823529411764,4.221814117647059,-5.993918823529411,7.812247647058824
1.2558815987933634,4.1555803619909515,-6.109587918552034,7.843684683257918
1.2638808446455505,4.089346606334842,-6.2252570135746605,7.875121719457014
1.2718800904977374,4.023112850678734,-6.340926108597284,7.906558755656109
1.2798793363499246,3.9568790950226242,-6.4565952036199095,7.937995791855204
1.2878785822021115,3.8906453393665164,-6.572264298642533,7.969432828054299
1.2958778280542984,3.824411583710409,-6.687933393665156,8.000869864253394
1.3038770739064856,6.39246505781785,-9.900887631975689,6.557528406234372
1.3118763197586725,-1.4347589108517882,-0.8419084067635275,8.001995125823607
1.3198755656108596,-1.52864479638009,-0.2548479638009089,8.116005429864252
1.3278748114630465,-1.6225306819083891,0.3322124791616934,8.230015733904896
1.3358740573152337,-1.7164165674366907,0.9192729221243121,8.344026037945541
1.3438733031674206,-1.81030245296499,1.5063333650869146,8.458036341986185
1.3518725490196077,-1.9041883384932916,2.093393808049533,8.57204664602683
1.3598717948717947,-1.998074224021591,2.680454251012135,8.686056950067474
1.3678710407239818,-2.0919601095498925,3.2675146939747544,8.80006725410812
1.3758702865761687,-2.185845995078192,3.854575136937356,8.914077558148763
1.3838695324283559,-2.2797318806064935,4.441635579899975,9.028087862189409
1.3918687782805428,-2.3736177661347924,5.028696022862578,9.142098166230053
1.39986802413273,-2.4675036516630944,5.6157564658251955,9.256108470270698
1.4078672699849168,-2.269139265962803,6.314750628456499,10.121970336852666
1.415866515837104,-9.23620955882353,10.061164875565613,13.789871606334843
1.423865761689291,-8.889969474153304,9.834731677636094,13.527896304675721
1.431865007541478,-8.543729389483067,9.60829847970657,13.265921003016592
1.439864253393665,-8.19748930481284,9.381865281777051,13.003945701357472
1.4478634992458521,-7.851249220142604,9.155432083847526,12.741970399698342
1.455862745098039,-7.505009135472378,8.928998885918007,12.47999509803922
1.4638619909502262,-7.158769050802141,8.702565687988484,12.218019796380093
1.471861236802413,-6.812528966131914,8.476132490058966,11.95604449472097
1.4798604826546002,-6.4662888814616775,8.24969929212944,11.694069193061841
1.4878597285067872,-6.120048796791451,8.023266094199922,11.432093891402719
1.4958589743589743,-5.773808712121214,7.7968328962703985,11.170118589743591
1.5038582202111612,-4.029971644042366,6.738301357466144,10.934808748114634
1.5118574660633484,2.332628506787282,2.9298604072398486,10.787622624434391
1.5198567119155353,10.346538882458157,-4.369005086113177,14.512546371321333
1.5278559577677224,11.012336577922756,-3.472903521694911,14.700156590901116
1.5358552036199093,11.678134273387336,-2.57680195727667,14.887766810480896
1.5438544494720963,12.343931968851917,-1.6807003928584292,15.075377030060675
1.5518536953242834,13.009729664316517,-0.784598828440163,15.26298724964046
1.5598529411764703,13.675527359781096,0.11150273597807825,15.45059746922024
1.5678521870286575,14.341325055245697,1.007604300396344,15.638207688800023
1.5758514328808444,15.007122750710277,1.9037058648145848,15.825817908379802
1.5838506787330315,15.672920446174876,2.7998074292328505,16.013428127959585
1.5918499245852185,16.338718141639458,3.6959089936510914,16.201038347539367
1.5998491704374056,17.004515837104055,4.592010558069358,16.38864856711915
1.6078484162895925,6.865261312218703,-3.0573936651576252,11.589088235294849
1.6158476621417797,11.376835595776779,-7.17358421317245,6.5209198717948755
1.6238469079939666,10.912879336349938,-7.042263260432382,6.287191907051289
1.6318461538461537,10.448923076923084,-6.910942307692309,6.053463942307696
1.6398453996983406,9.984966817496243,-6.779621354952241,5.819735977564109
1.6478446455505278,9.521010558069388,-6.648300402212169,5.586008012820517
1.6558438914027147,9.057054298642548,-6.5169794494721005,5.35228004807693
1.6638431372549018,8.593098039215695,-6.385658496732028,5.118552083333338
1.6718423831070888,8.129141779788853,-6.25433754399196,4.884824118589751
1.679841628959276,7.665185520362,-6.123016591251888,4.651096153846158
1.6878408748114628,7.201229260935159,-5.991695638511819,4.417368189102572
1.69584012066365,6.7372730015083055,-5.860374685771747,4.183640224358979
1.703839366515837,6.273316742081464,-5.729053733031678,3.9499122596153926
1.711838612368024,-2.2697507997281745,-2.651063348416289,2.83309676296554
1.719837858220211,-2.3861354316874652,-2.747054298642532,3.038000522102328
1.727837104072398,-2.5025200636467595,-2.8430452488687776,3.2429042812391216
1.735836349924585,-2.6189046956060507,-2.9390361990950207,3.44780804037591
1.7438355957767722,-2.7352893275653454,-3.0350271493212664,3.6527117995127036
1.751834841628959,-2.851673959524636,-3.13101809954751,3.8576155586494916
1.7598340874811462,-2.9680585914839304,-3.2270090497737556,4.062519317786285
1.7678333333333331,-3.0844432234432215,-3.3229999999999986,4.267423076923073
1.7758325791855203,-3.200827855402516,-3.4189909502262443,4.472326836059867
1.7838318250377072,-3.317212487361807,-3.5149819004524874,4.677230595196655
1.7918310708898941,-3.433597119321098,-3.6109728506787304,4.882134354333443
1.7998303167420813,-3.5499817512803924,-3.706963800904976,5.087038113470237
1.8078295625942682,-2.7869985063480347,0.9514174317972071,4.9070552211922545
1.8158288084464553,-2.4503312173263723,1.1368756754382061,5.654945877081207
1.8238280542986423,-2.1136639283047187,1.3223339190791998,6.40283653297014
1.8318273001508294,-1.7769966392830558,1.507792162720199,7.1507271888590935
1.8398265460030163,-1.4403293502614023,1.6932504063611926,7.898617844748026
1.8478257918552035,-1.1036620612397396,1.8787086500021917,8.64650850063698
1.8558250377073904,-0.7669947722180863,2.0641668936431854,9.39439915652591
1.8638242835595775,-0.43032748319642344,2.249625137284185,10.142289812414866
1.8718235294117644,-0.0936601941747699,2.435083380925178,10.890180468303797
1.8798227752639516,0.24300709484689298,2.6205416245661777,11.63807112419275
1.8878220211161385,0.5796743838685465,2.8059998682071714,12.385961780081683
1.8958212669683256,0.916341672890209,2.9914581118481705,13.133852435970635
1.9038205128205126,1.2530089619118625,3.1769163554891646,13.881743091859569
1.9118197586726997,-0.23810256410254949,3.1663193815988517,13.45948793363511
1.9198190045248866,2.2131747869093976,3.158277175628746,12.510168894033463
1.9278182503770738,2.1859215423199694,3.2837537181241,12.569512136518293
1.9358174962292607,2.158668297730542,3.409230260619451,12.62885537900312
1.9438167420814478,2.131415053141114,3.534706803114805,12.68819862148795
1.9518159879336348,2.104161808551686,3.6601833456101556,12.74754186397278
1.959815233785822,2.0769085639622578,3.7856598881055095,12.80688510645761
1.9678144796380088,2.0496553193728304,3.91113643060086,12.866228348942439
1.975813725490196,2.022402074783402,4.036612973096214,12.925571591427268
1.9838129713423829,1.9951488301939746,4.162089515591564,12.984914833912097
1.99181221719457,1.9678955856045461,4.287566058086918,13.044258076396927
1.999811463046757,1.9406423410151188,4.413042600582269,13.103601318881756
2.007810708898944,-1.1657331259426393,4.2470934200603345,11.081050056561116
2.015809954751131,-0.01649117901266202,5.449364380497233,7.796068432558849
2.023809200603318,0.0727588336976932,5.3304542427169705,7.7752164658430365
2.0318084464555053,0.1620088464080534,5.211544104936703,7.754364499127222
2.039807692307692,0.2512588591184086,5.0926339671564405,7.733512532411409
2.047806938159879,0.3405088718287639,4.973723829376179,7.712660565695596
2.055806184012066,0.4297588845391191,4.854813691595917,7.691808598979783
2.063805429864253,0.5190088972494744,4.735903553815655,7.6709566322639695
2.0718046757164403,0.6082589099598346,4.6169934160353865,7.650104665548155
2.0798039215686273,0.6975089226701898,4.498083278255125,7.629252698832342
2.087803167420814,0.7867589353805449,4.3791731404748635,7.608400732116529
2.095802413273001,0.8760089480909001,4.260263002694601,7.587548765400716
2.1038016591251885,1.292791729512329,3.4206348667672244,6.604418300653612
2.1118009049773754,1.6924436255073008,1.8937432476559222,4.871352614638243
2.1198001508295623,1.6588797795089494,1.8659520533034788,4.744106879072012
2.1277993966817492,1.625315933510598,1.8381608589510356,4.616861143505782
2.1357986425339366,1.5917520875122448,1.810369664598591,4.489615407939543
2.1437978883861235,1.5581882415138935,1.7825784702461478,4.362369672373312
2.1517971342383104,1.5246243955155423,1.7547872758937044,4.2351239368070805
2.1597963800904973,1.491060549517191,1.7269960815412613,4.107878201240849
2.1677956259426847,1.4574967035188378,1.6992048871888166,3.9806324656746113
2.1757948717948716,1.4239328575204864,1.6714136928363732,3.8533867301083804
2.1837941176470586,1.390369011522135,1.64362249848393,3.726140994542149
2.1917933634992455,1.3568051655237838,1.6158313041314867,3.5988952589759178
2.199792609351433,1.3232413195254307,1.588040109779042,3.4716495234096794
2.2077918552036198,1.684968325791723,3.1593800904971987,3.863787330316571
2.2157911010558067,1.6108026897938703,5.669048005698011,5.904350988771575
2.2237903469079936,1.3566933132227335,5.350233618233629,6.080245517010217
2.231789592760181,1.1025839366515822,5.031419230769229,6.25614004524887
2.239788838612368,0.8484745600804453,4.712604843304847,6.432034573487512
2.247788084464555,0.5943651835093082,4.393790455840465,6.607929101726156
2.2557873303167417,0.34025580693817137,4.074976068376083,6.7838236299647985
2.263786576168929,0.0861464303670203,3.756161680911683,6.959718158203451
2.271785822021116,-0.16796294620411678,3.437347293447301,7.135612686442094
2.279785067873303,-0.42207232277525364,3.118532905982919,7.311507214680737
2.28778431372549,-0.6761816993463907,2.799718518518537,7.4874017429193795
2.295783559577677,-0.9302910759175416,2.480904131054137,7.663296271158032
2.303782805429864,0.29143438914026043,1.068645550527903,7.719506787330302
2.311782051282051,0.8878011456628468,1.194646753955276,9.21022135842881
2.319781297134238,0.9138412438625192,0.8608909855267959,9.027174785789938
2.327780542986425,0.9398813420621915,0.5271352170983156,8.844128213151064
2.3357797888386123,0.9659214402618654,0.19337944866981682,8.661081640512181
2.343779034690799,0.9919615384615377,-0.1403763197586636,8.478035067873307
2.351778280542986,1.0180016366612101,-0.4741320881871438,8.294988495234435
2.359777526395173,1.0440417348608824,-0.807887856615624,8.11194192259556
2.3677767722473604,1.0700818330605562,-1.141643625044123,7.928895349956678
2.3757760180995473,1.0961219312602286,-1.475399393472603,7.745848777317804
2.3837752639517342,1.1221620294599008,-1.8091551619010835,7.562802204678931
2.391774509803921,1.1482021276595733,-2.142910930329564,7.379755632040058
2.3997737556561085,1.174242225859247,-2.476666698758063,7.196709059401174
2.4077730015082954,1.208701357466123,-2.3346134992458523,7.157969457013579
2.4157722473604823,0.7588752705095404,-2.1975244934094063,7.0721345334120285
2.4237714932126693,0.84495411174503,-2.036322299822944,7.012053241196146
2.4317707390648566,0.9310329529805244,-1.8751201062364726,6.951971948980261
2.4397699849170436,1.017111794216014,-1.7139179126500101,6.891890656764378
2.4477692307692305,1.1031906354515035,-1.5527157190635479,6.831809364548496
2.4557684766214174,1.1892694766869931,-1.3915135254770856,6.771728072332614
2.4637677224736048,1.2753483179224876,-1.2303113318906143,6.7116467801167286
2.4717669683257917,1.361427159157977,-1.0691091383041518,6.651565487900847
2.4797662141779786,1.4475060003934668,-0.9079069447176895,6.591484195684965
2.4877654600301655,1.5335848416289561,-0.746704751131227,6.531402903469083
2.495764705882353,1.6196636828644506,-0.5855025575447557,6.471321611253197
2.50376395173454,-1.8754358974357916,-6.894728506787004,2.9923484162897465
2.5117631975867267,-2.3642530352582836,-11.139035586816597,3.919318907456354
2.5197624434389136,-2.057034474261916,-11.327136665023962,4.022596299448946
2.527761689291101,-1.7498159132655322,-11.515237743231339,4.1258736914415435
2.535760935143288,-1.442597352269165,-11.703338821438704,4.229151083434135
2.543760180995475,-1.1353787912727982,-11.89143989964607,4.332428475426727
2.5517594268476618,-0.828160230276431,-12.079540977853435,4.435705867419318
2.559758672699849,-0.520941669280047,-12.267642056060811,4.538983259411915
2.567757918552036,-0.21372310828368013,-12.455743134268177,4.642260651404507
2.575757164404223,0.09349545271268722,-12.643844212475543,4.745538043397098
2.58375641025641,0.40071401370905413,-12.83194529068291,4.84881543538969
2.591755656108597,0.707932574705421,-13.020046368890275,4.952092827382281
2.599754901960784,1.0151511357018053,-13.208147447097652,5.055370219374879
2.607754147812971,2.9050045248866034,-16.141052790346762,3.1775007541481086
2.615753393665158,5.0241425339365655,-16.000726244343937,1.6662748868778643
2.623752639517345,5.660108969922801,-15.415794215242698,1.2571350723094907
2.6317518853695323,5.776427415491079,-14.952590826013683,0.9712326146748411
2.6397511312217192,5.89274586105935,-14.489387436784694,0.6853301570402074
2.647750377073906,6.009064306627621,-14.026184047555706,0.39942769940557343
2.655749622926093,6.1253827521958915,-13.562980658326717,0.11352524177093981
2.6637488687782804,6.241701197764169,-13.099777269097704,-0.17237721586371002
2.6717481146304674,6.35801964333244,-12.636573879868713,-0.45827967349834386
2.6797473604826543,6.474338088900711,-12.173370490639725,-0.7441821311329777
2.687746606334841,6.590656534468982,-11.710167101410736,-1.0300845887676116
2.6957458521870286,6.706974980037259,-11.246963712181723,-1.315987046402261
2.7037450980392155,6.823293425605531,-10.783760322952734,-1.6018895040368948
2.7117443438914024,7.444505867435741,-10.73859014966934,-3.2253714882402664
2.7197435897435893,7.230284305438164,-10.638291913214996,-3.2206246830092984
2.7277428355957767,7.016062743440575,-10.537993676760646,-3.2158778777783303
2.7357420814479636,6.801841181442997,-10.437695440306301,-3.2111310725473623
2.7437413273001505,6.587619619445419,-10.337397203851959,-3.2063842673163943
2.7517405731523374,6.373398057447841,-10.237098967397614,-3.201637462085426
2.759739819004525,6.159176495450252,-10.136800730943264,-3.1968906568544577
2.7677390648567117,5.944954933452674,-10.036502494488921,-3.1921438516234897
2.7757383107088986,5.730733371455096,-9.936204258034577,-3.1873970463925216
2.7837375565610856,5.516511809457518,-9.835906021580232,-3.1826502411615536
2.791736802413273,5.302290247459929,-9.735607785125882,-3.177903435930585
2.79973604826546,5.088068685462352,-9.63530954867154,-3.173156630699617
2.8077352941176468,5.903483193277313,-9.947403361344549,1.4059495798319257
2.8157345399698337,5.85660746191968,-9.842364974392126,1.4255897270150664
2.8237337858220206,5.813798311040394,-9.755867634627819,1.4303365322460344
2.831733031674208,5.770989160161106,-9.669370294863509,1.4350833374770027
2.839732277526395,5.72818000928182,-9.582872955099202,1.4398301427079707
2.847731523378582,5.685370858402534,-9.496375615334895,1.4445769479389388
2.8557307692307687,5.642561707523248,-9.409878275570588,1.4493237531699068
2.863730015082956,5.59975255664396,-9.323380935806277,1.454070558400875
2.871729260935143,5.556943405764674,-9.23688359604197,1.4588173636318431
2.87972850678733,5.514134254885388,-9.150386256277663,1.4635641688628112
2.887727752639517,5.471325104006102,-9.063888916513356,1.4683109740937794
2.8957269984917042,5.428515953126813,-8.977391576749044,1.4730577793247477
2.903726244343891,4.534816742081465,-6.8744977375566565,-0.47552941176459784
2.911725490196078,4.104069787054609,-6.266274298966903,-0.7424060721062606
2.919724736048265,4.080416103083088,-6.206581001962411,-0.762533206831118
2.9277239819004524,4.056762419111567,-6.146887704957916,-0.7826603415559765
2.9357232277526393,4.033108735140046,-6.087194407953424,-0.8027874762808339
2.943722473604826,4.009455051168525,-6.027501110948933,-0.8229146110056914
2.951721719457013,3.9858013671970047,-5.967807813944441,-0.8430417457305488
2.9597209653092005,3.962147683225483,-5.908114516939946,-0.8631688804554073
2.9677202111613874,3.9384939992539625,-5.848421219935454,-0.8832960151802647
2.9757194570135743,3.914840315282442,-5.7887279229309625,-0.9034231499051222
2.9837187028657612,3.8911866313109216,-5.729034625926471,-0.9235502846299796
2.9917179487179486,3.8675329473393996,-5.669341328921976,-0.9436774193548381
2.9997171945701355,3.609325791855313,-5.6472737556560935,-1.0776476244343356
3.0077164404223224,2.2206904977375626,-6.019551131221715,-2.667011463046729
3.0157156862745094,2.0905259515570904,-6.124840253748558,-3.3815530565167222
3.0237149321266967,2.1955513441575736,-6.114770614852276,-3.449405483098217
3.0317141779788837,2.3005767367580505,-6.104700975955993,-3.5172579096797083
3.0397134238310706,2.405602129358528,-6.0946313370597105,-3.5851103362611996
3.0477126696832575,2.510627521959005,-6.084561698163428,-3.6529627628426904
3.055711915535445,2.615652914559488,-6.074492059267145,-3.720815189424185
3.0637111613876318,2.7206783071599654,-6.064422420370863,-3.7886676160056765
3.0717104072398187,2.8257036997604423,-6.054352781474581,-3.8565200425871673
3.0797096530920056,2.9307290923609193,-6.044283142578299,-3.9243724691686586
3.0877088989441925,3.0357544849613967,-6.034213503682016,-3.99222489575015
3.09570814479638,3.1407798775618794,-6.024143864785733,-4.060077322331645
3.103707390648567,1.7497013574663773,-7.548808446455345,-6.4800361990948145
3.1117066365007537,0.16402886401524394,-7.403405366357066,-8.019307565293325
3.1197058823529407,0.1023925696594459,-7.506300928792564,-8.004319504643963
3.127705128205128,0.04075627530364445,-7.609196491228069,-7.989331443994602
3.135704374057315,-0.020880019052153587,-7.712092053663568,-7.974343383345241
3.143703619909502,-0.0825163134079516,-7.814987616099066,-7.95935532269588
3.151702865761689,-0.14415260776374964,-7.917883178534566,-7.944367262046519
3.159702111613876,-0.20578890211955111,-8.02077874097007,-7.9293792013971585
3.167701357466063,-0.2674251964753491,-8.123674303405569,-7.914391140747798
3.17570060331825,-0.3290614908311472,-8.226569865841068,-7.899403080098437
3.183699849170437,-0.3906977851869452,-8.329465428276567,-7.884415019449076
3.1916990950226243,-0.45233407954274674,-8.432360990712072,-7.869426958799715
3.199698340874811,-0.5139703738985447,-8.53525655314757,-7.854438898150354
3.207697586726998,-2.0295597033685313,-12.301766465560513,-9.401559074912019
3.215696832579185,-1.8542831737346268,-13.655990844996339,-9.51317573397871
3.2236960784313724,-1.6148638850889254,-13.32671956224351,-10.012012425900581
3.2316953242835593,-1.3754445964432376,-12.9974482794907,-10.510849117822424
3.2396945701357462,-1.1360253077975497,-12.668176996737888,-11.009685809744267
3.247693815987933,-0.8966060191518617,-12.338905713985078,-11.50852250166611
3.2556930618401205,-0.6571867305061603,-12.009634431232248,-12.00735919358798
3.2636923076923074,-0.41776744186047243,-11.680363148479437,-12.506195885509825
3.2716915535444944,-0.17834815321478437,-11.351091865726627,-13.005032577431669
3.2796907993966813,0.06107113543090348,-11.021820582973815,-13.503869269353512
3.2876900452488687,0.30049042407660487,-10.692549300220985,-14.002705961275382
3.2956892911010556,0.5399097127222929,-10.363278017468176,-14.501542653197227
3.3036885369532425,1.9125384615385026,-5.387181749623706,-9.607656862745616
3.3116877828054294,1.7247819296453162,-0.19637031090351295,-8.08617063202452
3.319687028657617,1.582429758834885,-0.27283622017872333,-8.103287297880277
3.3276862745098037,1.4400775880244618,-0.3493021294539295,-8.120403963736031
3.3356855203619906,1.2977254172140387,-0.4257680387291357,-8.137520629591785
3.3436847662141775,1.1553732464036155,-0.5022339480043418,-8.154637295447541
3.3516840120663645,1.0130210755931923,-0.578699857279548,-8.171753961303295
3.359683257918552,0.8706689047827613,-0.6551657665547584,-8.188870627159051
3.3676825037707387,0.728316733972338,-0.7316316758299646,-8.205987293014806
3.3756817496229257,0.5859645631619148,-0.8080975851051708,-8.223103958870562
3.3836809954751126,0.44361239235149164,-0.884563494380377,-8.240220624726316
3.3916802413273,0.3012602215410607,-0.9610294036555873,-8.257337290582072
3.399679487179487,-0.1204999999998577,-1.7825128205124536,-8.594227564102408
3.407678733031674,-1.5064692573862157,-5.0476750066542815,-10.246565877029537
3.4156779788838607,-1.4405931150740878,-4.351270073640357,-10.387729039126954
3.423677224736048,-1.9781436977450104,-2.5733311919259836,-11.461080386570584
3.431676470588235,-1.8500570079883876,-2.0884386347131714,-11.44715577342048
3.439675716440422,-1.721970318231765,-1.6035460775003592,-11.433231160270378
3.447674962292609,-1.593883628475142,-1.1186535202875467,-11.419306547120275
3.455674208144796,-1.4657969387185124,-0.6337609630747076,-11.40538193397017
3.463673453996983,-1.3377102489618897,-0.14886840586189543,-11.391457320820066
3.47167269984917,-1.209623559205267,0.33602415135091723,-11.377532707669964
3.479671945701357,-1.0815368694486442,0.8209167085637294,-11.363608094519861
3.4876711915535443,-0.9534501796920143,1.3058092657765688,-11.349683481369757
3.4956704374057312,-0.8253634899353917,1.790701822989381,-11.335758868219653
3.503669683257918,-0.28364404223254747,2.387464555052693,-10.906457013574926
3.511668929110105,1.4728468577174456,3.118848776604657,-7.4470112116641545
3.5196681749622925,1.4813793866264453,3.160355974526562,-7.408081548516843
3.5276674208144794,1.4899119155354448,3.201863172448465,-7.369151885369534
3.5356666666666663,1.498444444444444,3.2433703703703687,-7.330222222222224
3.543665912518853,1.5069769733534435,3.2848775682922717,-7.291292559074915
3.5516651583710406,1.5155095022624432,3.326384766214177,-7.252362895927603
3.5596644042232275,1.5240420311714427,3.36789196413608,-7.213433232780293
3.5676636500754144,1.532574560080442,3.409399162057983,-7.174503569632984
3.5756628959276013,1.5411070889894414,3.450906359979886,-7.135573906485674
3.5836621417797883,1.5496396178984406,3.4924135579017896,-7.096644243338365
3.5916613876319756,1.5581721468074405,3.533920755823695,-7.057714580191053
3.5996606334841625,1.5120482654600693,3.676600301659049,-7.1114057315233135
3.6076598793363495,1.2425107088989706,4.958537254901839,-7.603576168929174
3.6156591251885364,1.2351703062495845,5.181800527903479,-7.506298101514846
3.6236583710407237,1.3158583513673003,5.039813914027153,-7.6051583464489445
3.6316576168929107,1.3965463964850118,4.897827300150835,-7.704018591383037
3.6396568627450976,1.4772344416027234,4.755840686274518,-7.80287883631713
3.6476561085972845,1.5579224867204349,4.6138540723982,-7.901739081251223
3.655655354449472,1.6386105318381508,4.471867458521874,-8.00059932618532
3.663654600301659,1.7192985769558624,4.329880844645556,-8.099459571119413
3.6716538461538457,1.7999866220735738,4.187894230769239,-8.198319816053505
3.6796530920060326,1.8806746671912853,4.045907616892921,-8.297180060987598
3.68765233785822,1.9613627123090014,3.903921003016596,-8.396040305921696
3.695651583710407,2.0420507574267126,3.7619343891402783,-8.494900550855789
3.703650829562594,2.377871543489127,3.2967674710910844,-10.645435646052823
3.7116500754147808,2.759035002295234,2.4588631385664628,-11.846502295232469
3.719649321266968,2.724690414125517,2.468949144206177,-11.974664125516426
3.727648567119155,2.690345825955801,2.4790351498458914,-12.102825955800379
3.735647812971342,2.6560012377860853,2.489121155485605,-12.230987786084329
3.743647058823529,2.62165664961637,2.499207161125319,-12.35914961636828
3.7516463046757162,2.5873120614466525,2.5092931667650338,-12.487311446652239
3.759645550527903,2.552967473276937,2.5193791724047476,-12.61547327693619
3.76764479638009,2.5186228851072214,2.5294651780444615,-12.743635107220141
3.775644042232277,2.484278296937506,2.5395511836841753,-12.871796937504092
3.7836432880844644,2.449933708767788,2.54963718932389,-12.999958767788051
3.7916425339366513,2.4155891205980726,2.559723194963604,-13.128120598072002
3.799641779788838,2.3263530742614082,2.5484252950048902,-13.297493390116202
3.807641025641025,1.6078325791855552,2.2919788838612494,-13.939315233785791
3.8156402714932125,0.8893120841096629,2.0355324727175943,-14.581137077455415
3.8236395173453994,1.3260798642533946,-0.4167033182503631,-11.128672021116143
3.8316387631975863,1.2951827771493227,-0.8920585030165704,-10.962587679110113
3.8396380090497733,1.2642856900452508,-1.3674136877827776,-10.796503337104081
3.84763725490196,1.2333886029411787,-1.842768872548985,-10.63041899509805
3.8556365007541475,1.202491515837105,-2.3181240573152184,-10.464334653092012
3.8636357466063345,1.171594428733033,-2.793479242081426,-10.29825031108598
3.8716349924585214,1.1406973416289612,-3.2688344268476333,-10.13216596907995
3.8796342383107083,1.109800254524889,-3.7441896116138405,-9.966081627073919
3.8876334841628957,1.0789031674208154,-4.219544796380074,-9.799997285067878
3.8956327300150826,1.0480060803167435,-4.694899981146281,-9.633912943061848
3.9036319758672695,1.4161221719450272,-3.0651417797892266,-8.135215686274647
3.9116312217194564,0.6620505680177137,-3.616651920670053,-8.486355299894102
3.919630467571644,0.6706455023908087,-3.788040017971174,-8.454188119765092
3.9276297134238307,0.6792404367639031,-3.9594281152722854,-8.422020939636086
3.9356289592760176,0.6878353711369976,-4.130816212573397,-8.389853759507078
3.9436282051282046,0.6964303055100921,-4.302204309874509,-8.357686579378072
3.951627450980392,0.705025239883187,-4.473592407175629,-8.325519399249062
3.959626696832579,0.7136201742562814,-4.644980504476741,-8.293352219120056
3.9676259426847658,0.722215108629376,-4.816368601777852,-8.261185038991048
3.9756251885369527,0.7308100430024704,-4.987756699078964,-8.229017858862042
3.98362443438914,0.7394049773755653,-5.159144796380085,-8.196850678733034
3.991623680241327,0.7479999117486598,-5.330532893681196,-8.164683498604026
3.999622926093514,0.7565948461217543,-5.501920990982308,-8.13251631847502
4.007622171945701,-1.5363846153844318,-6.07076018099553,-8.232443438914014
4.015621417797888,-1.6925060755503583,-5.752000779568526,-8.145680681952989
4.023620663650075,-1.710302150592301,-5.769077821275441,-8.06838459843748
4.031619909502262,-1.728098225634246,-5.786154862982357,-7.991088514921961
4.039619155354449,-1.745894300676191,-5.803231904689274,-7.913792431406443
4.047618401206636,-1.7636903757181337,-5.820308946396189,-7.836496347890933
4.055617647058823,-1.7814864507600785,-5.837385988103105,-7.759200264375416
4.063616892911011,-1.7992825258020233,-5.854463029810022,-7.681904180859898
4.071616138763197,-1.817078600843966,-5.871540071516938,-7.604608097344388
4.079615384615384,-1.8348746758859111,-5.888617113223854,-7.527312013828871
4.087614630467571,-1.852670750927854,-5.905694154930769,-7.450015930313361
4.095613876319758,-1.8704668259697987,-5.922771196637686,-7.372719846797843
4.103613122171946,-1.045517345399718,-5.205098039215695,-4.967910633484187
4.111612368024132,-0.7125900805494032,-5.144296620775976,-3.8435695420557714
4.1196116138763195,-0.7254399329289808,-5.091195244055073,-3.8761622139854284
4.127610859728506,-0.738289785308557,-5.038093867334175,-3.908754885915082
4.135610105580693,-0.7511396376881347,-4.984992490613271,-3.9413475578447392
4.143609351432881,-0.7639894900677123,-4.931891113892368,-3.973940229774396
4.151608597285067,-0.7768393424472886,-4.87878973717147,-4.00653290170405
4.1596078431372545,-0.7896891948268663,-4.825688360450566,-4.039125573633707
4.167607088989442,-0.8025390472064439,-4.772586983729662,-4.071718245563364
4.175606334841628,-0.8153888995860201,-4.719485607008764,-4.1043109174930175
4.183605580693816,-0.8282387519655978,-4.666384230287861,-4.136903589422675
4.191604826546002,-0.841088604345174,-4.613282853566963,-4.169496261352329
4.19960407239819,-0.8539384567247517,-4.560181476846059,-4.202088933281986
4.207603318250377,-1.351771945701354,-4.9083875314228225,-4.704045751633983
4.215602564102563,-2.4412692307691106,-5.746175213675121,-5.778611111110993
4.223601809954751,-3.85427375565599,-6.715421266968249,-7.410762443438767
4.231601055806938,-10.238591328393161,-10.534900157387385,-10.454952641703294
4.239600301659125,-9.492110979955063,-10.239623647452328,-10.24987052702912
4.247599547511312,-8.745630631516882,-9.944347137517239,-10.044788412354926
4.2555987933634984,-7.999150283078785,-9.64907062758218,-9.839706297680754
4.263598039215686,-7.252669934640604,-9.353794117647091,-9.634624183006558
4.271597285067873,-6.506189586202423,-9.058517607712,-9.429542068332363
4.27959653092006,-5.759709237764325,-8.763241097776943,-9.224459953658192
4.287595776772247,-5.013228889326144,-8.467964587841852,-9.019377838983996
4.295595022624434,-4.2667485408879635,-8.172688077906763,-8.814295724309801
4.303594268476621,-7.237073152334921,-17.061804675711425,-10.085828808443344
4.311593514328808,-7.419641974407657,-12.064823618612069,-10.745229155516647
4.319592760180995,-6.6039769376734165,-11.356675327202915,-10.300797937040867
4.327592006033182,-5.788311900939085,-10.648527035793682,-9.856366718565038
4.335591251885369,-4.972646864204754,-9.94037874438445,-9.411935500089209
4.343590497737556,-4.1569818274705135,-9.232230452975298,-8.96750428161343
4.351589743589743,-3.3413167907361823,-8.524082161566064,-8.523073063137598
4.35958898944193,-2.5256517540019416,-7.815933870156911,-8.078641844661819
4.367588235294117,-1.7099867172676104,-7.107785578747679,-7.63421062618599
4.3755874811463045,-0.8943216805332792,-6.399637287338447,-7.18977940771016
4.383586726998491,-0.0786566437990377,-5.691488995929293,-6.745348189234381
4.391585972850678,0.7370083929352926,-4.983340704520061,-6.300916970758552
4.399585218702866,1.2003906485671847,-4.600102061337294,-6.025551030668647
4.407584464555052,-2.5404932903025665,-7.864584531097522,-9.753506787330315
4.4155837104072395,-2.0684201490551013,-7.509088634548845,-9.801502262443439
4.423582956259426,-1.596347007807688,-7.153592738000207,-9.849497737556556
4.431582202111613,-1.1242738665602225,-6.798096841451531,-9.89749321266968
4.439581447963801,-0.6522007253127571,-6.442600944902853,-9.945488687782804
4.447580693815987,-0.1801275840653438,-6.087105048354216,-9.993484162895923
4.455579939668175,0.29194555718212145,-5.731609151805539,-10.041479638009047
4.463579185520362,0.7640186984295871,-5.376113255256863,-10.08947511312217
4.471578431372548,1.236091839677,-5.0206173587082255,-10.137470588235288
4.479577677224736,0.9454117964594748,-3.516912328332143,-8.683553052314043
4.487576923076922,0.881586234817819,-3.4759056680161975,-8.584951821862356
4.49557616892911,0.817760673176156,-3.4348990077002477,-8.486350591410657
4.503575414781297,0.753935111534493,-3.3938923473842983,-8.38774936095896
4.5115746606334834,0.6901095498928371,-3.352885687068353,-8.289148130507272
4.519573906485671,0.6262839882511742,-3.311879026752403,-8.190546900055574
4.527573152337858,0.5624584266095112,-3.270872366436454,-8.091945669603875
4.535572398190045,0.49863286496785536,-3.2298657061205085,-7.993344439152188
4.543571644042232,0.43480730332619244,-3.1888590458045587,-7.89474320870049
4.5515708898944185,0.37098174168453657,-3.147852385488614,-7.796141978248802
4.559570135746606,0.3071561800428736,-3.106845725172664,-7.697540747797104
4.567569381598793,0.24333061840121062,-3.065839064856714,-7.598939517345406
4.57556862745098,0.3427015250544142,-3.0320065359477146,-7.468355119825731
4.583567873303167,0.7427601809954689,-2.9951923076923106,-7.624855203619864
4.591567119155354,0.9609214315096674,-2.8839300699300696,-9.23633964075141
4.599566365007541,1.125733729959209,-2.737942005102147,-9.67343227566429
4.607565610859728,1.2789044746103515,-2.5843762359644766,-9.854254734372375
4.615564856711915,1.432075219261477,-2.4308104668268236,-10.035077193080442
4.623564102564102,1.5852459639126195,-2.277244697689153,-10.215899651788527
4.6315633484162895,1.7384167085637618,-2.1236789285514828,-10.396722110496613
4.639562594268476,1.8915874532148873,-1.9701131594138297,-10.57754456920468
4.647561840120663,2.04475819786603,-1.8165473902761595,-10.758367027912767
4.65556108597285,2.197928942517155,-1.6629816211385062,-10.939189486620833
4.663560331825037,2.351099687168298,-1.509415852000836,-11.120011945328919
4.6715595776772245,2.50427043181944,-1.3558500828631657,-11.300834404037005
4.679558823529411,2.386007352941495,0.7318897058823808,-13.056411764706203
4.687558069381598,1.7297137644139513,0.33456398903649964,-12.45923670510387
4.695557315233786,1.776935118960735,-0.0758059245203383,-12.585160317228626
4.703556561085972,1.824156473507513,-0.4861758380771306,-12.711083929353368
4.71155580693816,1.8713778280542965,-0.8965457516339685,-12.837007541478124
4.719555052790346,1.9185991826010749,-1.306915665190761,-12.962931153602867
4.727554298642533,1.9658205371478585,-1.717285578747599,-13.088854765727621
4.735553544494721,2.013041891694642,-2.127655492304437,-13.214778377852378
4.743552790346907,2.06026324624142,-2.5380254058612293,-13.34070198997712
4.751552036199095,2.1074846007882035,-2.9483953194180677,-13.466625602101876
4.759551282051282,2.154705955334987,-3.358765232974905,-13.592549214226633
4.7675505279034684,2.2019273098817655,-3.7691351465316973,-13.718472826351373
4.775549773755656,3.1148472850677913,-9.060825791854738,-14.646029411764628
4.783549019607842,3.9652745098039435,-6.342176470588926,-6.778176470589016
4.79154826546003,3.8158988185017706,-5.214540346907992,-5.418274509803927
4.799547511312217,3.6777364054933765,-5.240853655632292,-5.3416501547987645
4.8075467571644035,3.5395739924849976,-5.26716696435659,-5.26502579979361
4.815546003016591,3.4014115794766036,-5.29348027308089,-5.188401444788447
4.823545248868778,3.263249166468209,-5.3197935818051905,-5.111777089783283
4.831544494720965,3.1250867534598306,-5.346106890529488,-5.035152734778128
4.839543740573152,2.986924340451436,-5.372420199253789,-4.958528379772965
4.8475429864253385,2.848761927443057,-5.398733507978086,-4.8819040247678105
4.855542232277526,2.710599514434663,-5.4250468167023875,-4.805279669762648
4.863541478129713,2.572437101426269,-5.451360125426688,-4.728655314757484
4.8715407239819,2.43427468841789,-5.477673434150986,-4.652030959752329
4.879539969834087,2.296112275409496,-5.503986742875286,-4.575406604747166
4.887539215686274,2.157949862401117,-5.530300051599584,-4.498782249742011
4.895538461538461,2.019787449392723,-5.556613360323884,-4.4221578947368485
4.903537707390648,2.5816163273000843,-9.640812782805531,-9.103630656108713
4.911536953242835,3.103460248759502,-8.5545855028745,-7.7368527772313
4.919536199095022,2.7732884779329856,-8.642113482851332,-7.648513279559317
4.9275354449472095,2.443116707106469,-8.729641462828166,-7.560173781887334
4.935534690799396,2.1129449362799892,-8.817169442804989,-7.471834284215362
4.943533936651583,1.782773165453473,-8.904697422781823,-7.3834947865433795
4.95153318250377,1.4526013946269933,-8.992225402758645,-7.295155288871407
4.959532428355957,1.122429623800477,-9.079753382735477,-7.206815791199425
4.967531674208145,0.7922578529739606,-9.16728136271231,-7.118476293527443
4.975530920060331,0.4548476621418036,-9.220571644042256,-7.029435897435903
4.983530165912518,0.015616344439884078,-8.792248388866046,-6.930536130536133
4.991529411764706,-1.7668352941176764,-8.455435294117644,-5.432182352941142
4.999528657616892,-2.9731215686273154,-8.356244645550538,-3.999517420814641
5.00752790346908,-3.3211448388672786,-8.239713678754285,-3.804037303762235
5.015527149321266,-3.4757218150531926,-8.119274329233335,-3.8874097253202353
5.0235263951734535,-3.630298791239124,-7.998834979712373,-3.970782146878245
5.031525641025641,-3.784875767425055,-7.878395630191411,-4.054154568436254
5.039524886877827,-3.939452743610969,-7.757956280670462,-4.137526989994255
5.047524132730015,-4.0940297197969,-7.6375169311494995,-4.220899411552264
5.055523378582202,-4.248606695982831,-7.517077581628538,-4.304271833110273
5.0635226244343885,-4.403183672168745,-7.3966382321075885,-4.387644254668274
5.071521870286576,-4.557760648354677,-7.276198882586627,-4.471016676226283
5.079521116138762,-3.117814605329315,-5.518279681103211,-6.32539751969164
5.08752036199095,-3.0791515837104098,-5.5159941822883,-6.30762141779789
5.095519607843137,-3.0404885620915043,-5.513708683473389,-6.28984531590414
5.1035188536953235,-3.001825540472603,-5.511423184658479,-6.272069214010393
5.111518099547511,-2.9631625188536974,-5.5091376858435686,-6.254293112116643
5.119517345399698,-2.924499497234792,-5.506852187028658,-6.236517010222893
5.127516591251885,-2.8858364756158905,-5.504566688213747,-6.218740908329146
5.135515837104072,-2.847173453996985,-5.502281189398836,-6.200964806435396
5.143515082956259,-2.808510432378084,-5.499995690583926,-6.1831887045416485
5.151514328808446,-2.7698474107591786,-5.497710191769015,-6.165412602647899
5.159513574660633,-2.731184389140273,-5.495424692954105,-6.147636500754149
5.16751282051282,-2.6925213675213717,-5.493139194139194,-6.1298603988604015
5.175512066365007,-2.6538583459024663,-5.490853695324284,-6.112084296966652
5.183511312217194,-2.6151953242835653,-5.488568196509373,-6.0943081950729034
5.191510558069381,-2.57653230266466,-5.486282697694462,-6.076532093179154
5.199509803921568,-2.5378692810457544,-5.4839971988795515,-6.0587559912854045
5.207509049773755,-2.128716440422349,-5.415262443439074,-5.249667420814372
5.215508295625942,-2.065092579841301,-5.110677732966096,-5.450842792970031
5.22350754147813,-2.0443119302905104,-5.088158116925699,-5.461711333530068
5.231506787330316,-2.023531280739722,-5.065638500885305,-5.472579874090104
5.239506033182503,-2.0027506311889307,-5.043118884844908,-5.483448414650141
5.24750527903469,-1.9819699816381422,-5.020599268804514,-5.494316955210177
5.255504524886877,-1.961189332087351,-4.998079652764117,-5.505185495770214
5.263503770739065,-1.9404086825365603,-4.97556003672372,-5.516054036330251
5.271503016591251,-1.9196280329857716,-4.953040420683326,-5.526922576890287
5.2795022624434385,-1.8988473834349806,-4.930520804642929,-5.5377911174503245
5.287501508295626,-1.8780667338841897,-4.908001188602532,-5.5486596580103615
5.295500754147812,-1.857286084333401,-4.885481572562138,-5.559528198570397
5.3035,0.011249999999650484,-5.580249999999911,-4.92575000000013
5.311499245852186,3.4701897435897275,-7.135088084464536,-5.093321116138719
5.3194984917043735,3.518278326527617,-7.216058464849357,-5.308722758709487
5.327497737556561,3.432725416620686,-7.19703586800574,-5.323843284405695
5.335496983408747,3.3471725067137648,-7.178013271162126,-5.3389638101019
5.343496229260935,3.2616195968068338,-7.15899067431851,-5.354084335798108
5.351495475113122,3.176066686899903,-7.139968077474893,-5.369204861494316
5.3594947209653085,3.0905137769929816,-7.120945480631279,-5.384325387190522
5.367493966817496,3.0049608670860506,-7.101922883787663,-5.39944591288673
5.375493212669682,2.9194079571791294,-7.0829002869440485,-5.414566438582936
5.38349245852187,2.8338550472721984,-7.063877690100432,-5.429686964279144
5.391491704374057,2.748302137365268,-7.044855093256816,-5.444807489975352
5.399490950226244,3.2163914027138842,-6.895425339366768,-5.511040723981801
5.407490196078431,6.008651960784082,-5.719735294117755,-6.649205882352828
5.415489441930617,6.142771135575561,-5.425679533827812,-7.107461235247475
5.423488687782805,6.15604823436115,-5.359953771516541,-7.058723562065591
5.431487933634992,6.169325333146739,-5.29422800920527,-7.009985888883707
5.439487179487179,6.182602431932327,-5.228502246894006,-6.961248215701829
5.447486425339366,6.195879530717916,-5.162776484582735,-6.912510542519946
5.455485671191553,6.209156629503506,-5.097050722271464,-6.863772869338062
5.46348491704374,6.222433728289094,-5.0313249599602,-6.815035196156184
5.471484162895927,6.2357108270746835,-4.965599197648929,-6.7662975229743
5.479483408748114,6.248987925860271,-4.899873435337665,-6.717559849792422
5.487482654600301,6.262265024645861,-4.8341476730263935,-6.668822176610538
5.495481900452488,6.27554212343145,-4.768421910715123,-6.620084503428655
5.503481146304675,6.288819222217038,-4.702696148403859,-6.571346830246776
5.511480392156862,3.0120686274511113,-4.2716127450980785,-6.0704509803922555
5.51947963800905,2.6029984215510895,-4.1752673892455014,-5.795088814058718
5.527478883861236,2.5350978462941582,-4.186708171103861,-5.785322292960118
5.5354781297134235,2.4671972710372194,-4.198148952962222,-5.775555771861518
5.54347737556561,2.3992966957802877,-4.2095897348205815,-5.765789250762918
5.551476621417797,2.331396120523349,-4.221030516678943,-5.756022729664317
5.559475867269985,2.2634955452664096,-4.232471298537304,-5.7462562085657165
5.567475113122171,2.1955949700094783,-4.243912080395663,-5.736489687467117
5.5754743589743585,2.127694394752539,-4.255352862254024,-5.726723166368516
5.583473604826546,2.0597938194956003,-4.266793644112385,-5.716956645269915
5.591472850678732,1.9918932442386685,-4.278234425970744,-5.707190124171316
5.59947209653092,1.8386163901459098,-4.395693815987804,-5.6879286073403845
5.607471342383106,0.5671078431373181,-6.750513826042927,-5.244606586224324
5.6154705882352935,0.8981031064111095,-6.714563119629871,-4.8332412425644256
5.623469834087481,0.8456136729540595,-6.741706628027181,-4.975430084566229
5.631469079939667,0.7931242394970154,-6.768850136424488,-5.117618926568016
5.639468325791855,0.7406348060399655,-6.795993644821799,-5.25980776856982
5.647467571644041,0.6881453725829213,-6.823137153219106,-5.401996610571607
5.655466817496229,0.6356559391258714,-6.850280661616416,-5.5441854525734104
5.663466063348416,0.5831665056688213,-6.877424170013726,-5.686374294575213
5.671465309200602,0.5306770722117773,-6.904567678411033,-5.828563136577
5.67946455505279,0.4781876387547273,-6.931711186808343,-5.970751978578804
5.687463800904977,0.4256982052976773,-6.958854695205654,-6.112940820580606
5.695463046757164,0.37320877184063317,-6.985998203602961,-6.2551296625823944
5.703462292609351,1.8319898532839414,-6.384035376388334,-6.386369052516122
5.7114615384615375,4.765531468531204,-4.756552447552595,-5.257020979021081
5.719460784313725,5.2780775086505125,-3.743748327566318,-4.8249694348327585
5.727460030165912,5.3294608996539745,-3.763887605358884,-4.8132058379913065
5.735459276018099,5.380844290657431,-3.7840268831514474,-4.801442241149855
5.743458521870286,5.432227681660894,-3.804166160944013,-4.789678644308403
5.751457767722473,5.483611072664356,-3.824305438736579,-4.777915047466951
5.75945701357466,5.534994463667813,-3.844444716529143,-4.766151450625501
5.767456259426847,5.586377854671275,-3.8645839943217086,-4.754387853784049
5.775455505279034,5.6377612456747315,-3.884723272114272,-4.742624256942598
5.783454751131221,5.689144636678194,-3.904862549906838,-4.730860660101146
5.7914539969834085,5.740528027681656,-3.9250018276994036,-4.719097063259694
5.799453242835595,5.650534313725847,-3.840434012066632,-4.687150829562648
5.807452488687782,6.509322807355348,-1.2123325310484243,-2.668847694233173
5.81545173453997,6.536469184236707,-1.265604104489587,-2.7759865296364055
5.823450980392156,6.563615561118063,-1.3188756779307433,-2.8831253650396262
5.8314502262443435,6.590761937999422,-1.372147251371906,-2.990264200442859
5.83944947209653,6.617908314880778,-1.4254188248130626,-3.0974030358460793
5.847448717948717,6.645054691762137,-1.478690398254225,-3.204541871249312
5.855447963800905,6.6722010686434965,-1.5319619716953876,-3.3116807066525444
5.863447209653091,6.699347445524853,-1.585233545136544,-3.418819542055765
5.8714464555052785,6.726493822406212,-1.6385051185777066,-3.5259583774589975
5.879445701357466,6.753640199287571,-1.691776692018869,-3.6330972128622303
5.887444947209652,6.780786576168927,-1.7450482654600257,-3.7402360482654506
5.89544419306184,6.807932953050286,-1.7983198389011883,-3.8473748836686834
5.903443438914026,2.932952811895394,-8.782915319972872,-8.566634776987367
5.911442684766214,-21.276482318512716,-7.20679059282584,-14.821765484621986
5.919441930618401,-20.763921945701366,-5.61128883861239,-13.966280920060344
5.927441176470587,-20.251361572890072,-4.015787084399118,-13.110796355498797
5.935440422322775,-19.738801200078722,-2.4202853301856697,-12.255311790937157
5.943439668174961,-19.22624082726743,-0.8247835759723987,-11.39982722637561
5.951438914027149,-18.713680454456078,0.7707181782410499,-10.544342661813968
5.959438159879336,-18.201120081644728,2.3662199324544995,-9.688858097252325
5.9674374057315225,-17.688559708833434,3.9617216866677714,-8.833373532690779
5.97543665158371,-17.17599933602208,5.557223440881221,-7.977888968129138
5.983435897435897,-16.66343896321073,7.152725195094669,-7.122404403567496
5.991435143288084,-16.150878590399437,8.748226949307941,-6.266919839005949
5.999434389140271,-15.638318217588088,10.34372870352139,-5.411435274444308
6.0074336349924575,-9.068911764714308,-20.89544834089081,-8.691973981894725
6.015432880844645,-3.9634968093746945,-9.745594500522344,-11.017070077735303
6.023432126696832,-3.2946367908110292,-6.909378375018775,-10.237978693252485
6.031431372549019,-2.6257767722474386,-4.073162249515521,-9.458887308769752
6.039430618401206,-1.9569167536837733,-1.2369461240119524,-8.679795924286934
6.0474298642533935,-1.288056735120108,1.5992700014916164,-7.900704539804115
6.05542911010558,-0.6191967165565169,4.435486126994871,-7.121613155321384
6.063428355957767,0.04966330200714797,7.271702252498439,-6.342521770838566
6.071427601809954,0.7185233205707391,10.107918378001692,-5.563430386355835
6.079426847662141,1.387383339134404,12.94413450350526,-4.7843390018730165
6.0874260935143285,2.0562433576980697,15.78035062900883,-4.005247617390198
6.095425339366515,2.72510337626166,18.616566754512082,-3.226156232907467
6.103424585218702,19.62944237053863,-19.152632792862732,18.9188306938163
6.11142383107089,1.2545080442439378,35.438887129208894,10.371636500754425
6.119423076923076,12.734146895273534,-32.101018999073254,-26.655171455051104
6.1274223227752636,10.082155954133302,-31.23642581184467,-24.082691090152494
6.13542156862745,7.430165012993365,-30.37183262461618,-21.51021072525417
6.143420814479637,4.778174071853133,-29.507239437387593,-18.93773036035556
6.151420060331825,2.126183130712903,-28.642646250159007,-16.365249995456946
6.159419306184011,-0.5258078104270343,-27.778053062930518,-13.792769630558622
6.167418552036199,-3.1777987515672663,-26.913459875701932,-11.22028926566001
6.175417797888385,-5.829789692707205,-26.04886668847344,-8.647808900761685
6.183417043740572,-8.481780633847436,-25.184273501244853,-6.0753285358630755
6.19141628959276,-11.133771574987666,-24.319680314016267,-3.502848170964466
6.199415535444946,-11.658416289596248,-26.76195324282988,-2.171817496227319
6.207414781297134,-1.650136443990361,-22.321164955643237,-1.7931144845034985
6.215414027149321,-1.3259519534861224,-21.066229504208682,-1.5582979127134822
6.2234132730015075,-1.0017674629819198,-19.811294052774265,-1.323481340923492
6.231412518853695,-0.6775829724776812,-18.55635860133971,-1.0886647691334757
6.239411764705881,-0.3533984819734788,-17.301423149905293,-0.8538481973434857
6.247411010558069,-0.029213991469240197,-16.046487698470738,-0.6190316255534694
6.255410256410256,0.29497049903499817,-14.791552247036183,-0.3842150537634532
6.2634095022624425,0.619154989539201,-13.536616795601766,-0.14939848197346306
6.27140874811463,0.9433394800434394,-12.28168134416721,0.0854180898165533
6.279407993966817,1.2675239705476782,-11.026745892732654,0.32023466160656944
6.287407239819004,1.5917084610518806,-9.771810441298237,0.5550512333965598
6.295406485671191,1.915892951556119,-8.516874989863682,0.789867805186576
6.303405731523378,-0.6970693816005378,2.487052413274811,-3.1635573152322882
6.311404977375565,2.295801435959005,-0.8214014451934563,-5.522534629236327
6.319404223227752,2.166915627789578,-0.9417982577646439,-5.1485290731677305
6.327403469079939,2.038029819620165,-1.062195070335818,-4.774523517099174
6.335402714932126,1.9091440114507376,-1.1825918829070057,-4.400517961030577
6.3434019607843135,1.7802582032813106,-1.302988695478193,-4.026512404961979
6.3514012066365,1.6513723951118977,-1.4233855080493671,-3.6525068488934234
6.359400452488687,1.5224865869424704,-1.5437823206205548,-3.278501292824826
6.367399698340874,1.3936007787730575,-1.664179133191729,-2.90449573675627
6.375398944193061,1.2647149706036303,-1.7845759457629167,-2.5304901806876723
6.3833981900452486,1.135829162434203,-1.9049727583341043,-2.156484624619075
6.391397435897435,1.00694335426479,-2.025369570905278,-1.7824790685505194
6.399396681749622,0.878057546095363,-2.1457663834764658,-1.4084735124819217
6.407395927601809,1.7933469079943367,-10.847159879336289,-3.3360422322829066
6.415395173453996,1.2628792007727727,-10.649606589048785,6.599733099462817
6.423394419306184,1.492879988814878,-10.251352000610112,6.032775314793181
6.43139366515837,1.7228807768569578,-9.853097412171481,5.465817530123607
6.439392911010557,1.9528815648990632,-9.454842823732806,4.89885974545397
6.447392156862745,2.1828823529411685,-9.056588235294132,4.331901960784334
6.455391402714931,2.412883140983248,-8.658333646855501,3.76494417611476
6.463390648567119,2.642883929025354,-8.260079058416826,3.197986391445123
6.471389894419305,2.872884717067433,-7.861824469978195,2.6310286067755495
6.4793891402714925,3.1028855051095388,-7.463569881539521,2.064070822105913
6.48738838612368,3.3328862931516436,-7.065315293100847,1.4971130374362769
6.495387631975866,3.5628870811937237,-6.667060704662216,0.9301552527667027
6.503386877828054,0.43857616892960083,-0.4769140271501162,-3.1236809954755587
6.511386123680241,5.42641729512319,0.20590497737555769,-7.477311211664165
6.5193853695324275,7.429969816549174,-1.9961997264021427,-9.106681837314552
6.527384615384615,7.166738819320218,-2.8813255813953367,-8.710998211091239
6.535383861236801,6.903507822091292,-3.766451436388433,-8.31531458486797
6.543383107088989,6.640276824862337,-4.651577291381627,-7.919630958644657
6.551382352941176,6.377045827633381,-5.536703146374821,-7.5239473324213435
6.559381598793363,6.113814830404455,-6.421829001367917,-7.128263706198075
6.56738084464555,5.8505838331755,-7.306954856361111,-6.7325800799747615
6.575380090497737,5.587352835946545,-8.192080711354304,-6.336896453751448
6.583379336349924,5.324121838717618,-9.0772065663474,-5.9412128275281795
6.591378582202111,5.060890841488662,-9.962332421340594,-5.545529201304866
6.599377828054298,6.924898190044142,-15.423016968323278,-6.1583676470583235
6.607377073906485,5.799377073906485,-24.910831070889795,-5.117146304675528
6.615376319758672,5.929659309535779,-24.463913381933974,-5.271574032176975
6.623375565610859,6.070268275515322,-23.79579859225747,-5.088924585218718
6.631374811463046,6.210877241494881,-23.127683802580894,-4.906275138260442
6.639374057315234,6.35148620747444,-22.459569012904318,-4.723625691302165
6.64737330316742,6.492095173453984,-21.791454223227813,-4.540976244343909
6.655372549019607,6.632704139433542,-21.123339433551237,-4.358326797385632
6.663371794871794,6.773313105413085,-20.455224643874736,-4.175677350427375
6.671371040723981,6.913922071392644,-19.787109854198157,-3.993027903469099
6.679370286576169,7.054531037372204,-19.11899506452158,-3.810378456510822
6.687369532428355,7.195140003351747,-18.450880274845076,-3.6277290095525663
6.695368778280542,7.335748969331306,-17.7827654851685,-3.445079562594289
6.703368024132729,2.5219127702367965,-7.976187531424169,-1.8473863750627852
6.711367269984916,1.5559564966868353,-1.1500204382530899,-2.9994910942769475
6.719366515837104,1.525397579948142,-1.1230566881895372,-3.0552161777416234
6.72736576168929,1.4948386632094524,-1.0960929381259874,-3.110941261206293
6.7353650075414775,1.464279746470759,-1.0691291880624345,-3.1666663446709684
6.743364253393665,1.433720829732066,-1.0421654379988818,-3.2223914281356443
6.751363499245851,1.4031619129933763,-1.015201687935332,-3.278116511600314
6.759362745098039,1.372602996254683,-0.9882379378717792,-3.33384159506499
6.767361990950225,1.3420440795159934,-0.9612741878082294,-3.3895666785296594
6.7753612368024125,1.3114851627773003,-0.9343104377446766,-3.4452917619943353
6.7833604826546,1.280926246038607,-0.9073466876811238,-3.501016845459011
6.791359728506786,1.2503673292999173,-0.880382937617574,-3.5567419289236804
6.799358974358974,1.1759070512820753,-1.1664871794870288,-3.182737179487385
6.807358220211161,0.30239027149329845,-4.182303544494516,-2.6291542232275495
6.815357466063348,-1.2559087221095377,-7.166371040724005,-0.5136047745358137
6.823356711915535,-1.21168300653595,-6.921060834590259,-0.4651495726495751
6.831355957767721,-1.1674572909623673,-6.675750628456539,-0.416694370763342
6.839355203619909,-1.1232315753887794,-6.430440422322793,-0.36823916887710345
6.847354449472096,-1.0790058598151917,-6.185130216189046,-0.31978396699086487
6.855353695324283,-1.034780144241609,-5.9398200100553264,-0.2713287651046317
6.86335294117647,-0.9905544286680211,-5.69450980392158,-0.2228735632183932
6.871352187028657,-0.9463287130944333,-5.449199597787834,-0.17441836133215466
6.879351432880844,-0.9021029975208505,-5.203889391654114,-0.12596315944592146
6.887350678733031,-0.8578772819472629,-4.958579185520367,-0.07750795755968293
6.895349924585218,-0.81365156637368,-4.7132689793866485,-0.02905275567344978
6.903349170437405,0.6939534690797319,-4.640023755656108,-1.1288369532426805
6.911348416289592,4.271829185520217,-9.88629751131173,-1.897425339366713
6.919347662141779,4.696322915570545,-12.026687572345526,-1.3729110982496344
6.927346907993966,4.530385071380983,-12.371585288856119,-1.6651626153144354
6.935346153846153,4.364447227191439,-12.716483005366673,-1.9574141323792038
6.94334539969834,4.198509383001877,-13.061380721877265,-2.2496656494440046
6.9513446455505274,4.032571538812315,-13.406278438387858,-2.5419171665088056
6.959343891402714,3.8666336946227706,-13.751176154898413,-2.8341686835735738
6.967343137254901,3.7006958504332084,-14.096073871409004,-3.126420200638375
6.975342383107089,3.534758006243646,-14.440971587919599,-3.418671717703176
6.983341628959275,3.368820162054102,-14.785869304430152,-3.710923234767944
6.9913408748114625,3.20288231786454,-15.130767020940745,-4.003174751832745
6.999340120663649,2.7552375565618394,-15.948052790345638,-4.315991704373971
7.007339366515836,1.9087352941176507,-11.656013574660657,-2.183850678733032
7.015338612368024,1.863377868168546,-11.382507445203954,-2.183340088572254
7.02333785822021,1.8180204422194461,-11.109001315747282,-2.182829498411476
7.0313371040723975,1.7726630162703414,-10.835495186290578,-2.182318908250698
7.039336349924585,1.7273055903212367,-10.561989056833875,-2.1818083180899204
7.047335595776771,1.681948164372137,-10.288482927377201,-2.181297727929142
7.055334841628959,1.636590738423032,-10.014976797920498,-2.1807871377683643
7.063334087481145,1.5912333124739324,-9.741470668463826,-2.1802765476075865
7.071333333333333,1.5458758865248274,-9.467964539007122,-2.1797659574468087
7.07933257918552,1.5005184605757227,-9.19445840955042,-2.1792553672860304
7.087331825037706,1.455161034626623,-8.920952280093745,-2.1787447771252526
7.095331070889894,1.4098036086775183,-8.647446150637043,-2.178234186964475
7.103330316742081,1.8004705882353662,-5.210762443438929,-2.8045520361991283
7.111329562594268,1.3815090087874617,-5.149519591448617,-2.60416425667257
7.119328808446455,1.377770230834809,-5.184820611187617,-2.593904354383895
7.1273280542986415,1.3740314528821567,-5.220121630926614,-2.583644452095221
7.135327300150829,1.370292674929504,-5.255422650665614,-2.573384549806546
7.143326546003016,1.3665538969768511,-5.290723670404615,-2.5631246475178706
7.151325791855203,1.3628151190241988,-5.326024690143611,-2.5528647452291966
7.15932503770739,1.359076341071546,-5.361325709882612,-2.5426048429405217
7.1673242835595765,1.3553375631188935,-5.396626729621609,-2.5323449406518477
7.175323529411764,1.3515987851662408,-5.431927749360609,-2.5220850383631728
7.183322775263951,1.347860007213588,-5.467228769099609,-2.511825136074498
7.191322021116138,1.3441212292609357,-5.502529788838606,-2.501565233785824
7.199321266968325,1.4718054298641583,-6.08428959275978,-2.60795022624426
7.2073205128205124,2.720796703296691,-8.549822344322315,-2.849593406593401
7.215319758672699,3.01609629366007,-9.262885911840957,-2.9556625993526198
7.223319004524886,3.0719112562916244,-9.409568712186685,-2.9514382785093294
7.231318250377073,3.1277262189231725,-9.556251512532395,-2.9472139576660403
7.23931749622926,3.1835411815547268,-9.702934312878122,-2.9429896368227504
7.2473167420814475,3.239356144186281,-9.84961711322385,-2.93876531597946
7.255315987933634,3.295171106817829,-9.99629991356956,-2.934540995136171
7.263315233785821,3.3509860694493834,-10.142982713915288,-2.9303166742928806
7.271314479638009,3.4068010320809377,-10.289665514261015,-2.9260923534495906
7.279313725490195,3.4626159947124857,-10.436348314606725,-2.9218680326063016
7.2873129713423825,3.51843095734404,-10.583031114952453,-2.917643711763011
7.295312217194569,3.574245919975588,-10.729713915298163,-2.913419390919722
7.303311463046756,3.3952567334627672,-12.997368347338963,-3.051074337427255
7.311310708898944,1.6420008473570937,-12.66025978273765,-3.319237903977497
7.31930995475113,1.6350801515074491,-12.553842849153506,-3.2854433372311806
7.327309200603318,1.6281594556578038,-12.44742591556935,-3.251648770484861
7.335308446455505,1.6212387598081586,-12.341008981985194,-3.217854203738541
7.343307692307691,1.614318063958514,-12.23459204840105,-3.184059636992225
7.351306938159879,1.6073973681088687,-12.128175114816893,-3.150265070245905
7.359306184012065,1.6004766722592243,-12.021758181232748,-3.116470503499589
7.367305429864253,1.593555976409579,-11.915341247648593,-3.0826759367532692
7.37530467571644,1.5866352805599337,-11.808924314064436,-3.0488813700069493
7.3833039215686265,1.5797145847102891,-11.702507380480291,-3.0150868032606333
7.391303167420814,1.5727938888606439,-11.596090446896136,-2.9812922365143133
7.399302413273001,1.4869015837104338,-10.506746606335172,-2.898298642533955
7.407301659125188,2.261495677841031,-6.884965909275209,-2.4963712353427723
7.415300904977375,2.2458412397216967,-6.870945725684816,-2.4976614362866734
7.4233001508295615,2.230186801602364,-6.856925542094425,-2.4989516372305745
7.431299396681749,2.2145323634830296,-6.842905358504032,-2.5002418381744755
7.439298642533936,2.198877925363695,-6.828885174913639,-2.5015320391183766
7.447297888386123,2.1832234872443625,-6.8148649913232475,-2.5028222400622777
7.45529713423831,2.167569049125028,-6.8008448077328545,-2.5041124410061792
7.463296380090497,2.1519146110056955,-6.786824624142463,-2.5054026419500803
7.471295625942684,2.136260172886361,-6.77280444055207,-2.5066928428939814
7.479294871794871,2.1206057347670266,-6.758784256961677,-2.5079830438378825
7.487294117647058,2.1049512966476938,-6.744764073371286,-2.5092732447817836
7.495293363499245,2.0892968585283596,-6.730743889780893,-2.5105634457256847
7.5032926093514325,2.182858597285062,-7.034945512820499,-2.472585218702865
7.511291855203619,2.6497380246528293,-8.486683726010288,-2.4941341863005144
7.519291101055806,2.669966002669855,-8.560240009708563,-2.4978120004854283
7.527290346907993,2.690193980686878,-8.63379629340683,-2.5014898146703417
7.53528959276018,2.710421958703904,-8.707352577105105,-2.505167628855255
7.5432888386123675,2.7306499367209294,-8.780908860803379,-2.508845443040169
7.551288084464554,2.750877914737953,-8.854465144501646,-2.5125232572250824
7.559287330316741,2.7711058927549783,-8.928021428199921,-2.516201071409996
7.567286576168929,2.791333870772004,-9.001577711898197,-2.5198788855949097
7.575285822021115,2.8115618487890273,-9.075133995596463,-2.523556699779823
7.583285067873303,2.831789826806053,-9.148690279294739,-2.5272345139647365
7.591284313725489,2.852017804823076,-9.222246562993005,-2.53091232814965
7.599283559577676,2.886969834087474,-9.810901206636288,-2.4877918552036387
7.607282805429864,3.0915719868366893,-10.675248457424914,-2.412388523241468
7.61528205128205,3.062170437405766,-10.769811764705883,-2.4011619909502184
7.623281297134238,2.8734823440688757,-10.755130795847752,-2.4437932659036403
7.631280542986425,2.684794250731985,-10.74044982698962,-2.4864245408570627
7.6392797888386115,2.4961061573951158,-10.72576885813149,-2.52905581581048
7.647279034690799,2.3074180640582256,-10.711087889273358,-2.571687090763902
7.655278280542985,2.1187299707213563,-10.696406920415228,-2.6143183657173195
7.663277526395173,1.930041877384466,-10.681725951557095,-2.6569496406707414
7.67127677224736,1.741353784047576,-10.667044982698963,-2.6995809156241637
7.6792760180995465,1.5526656907107066,-10.652364013840833,-2.742212190577581
7.687275263951734,1.3639775973738164,-10.637683044982701,-2.784843465531003
7.69527450980392,1.175289504036947,-10.623002076124571,-2.8274747404844205
7.703273755656108,2.6570716440423006,-8.815872549019923,-2.4152797888385806
7.711273001508295,2.519591833826202,-8.180972185603498,-2.4812599850358072
7.719272247360482,2.51524578686714,-8.16308410826475,-2.4854170734314316
7.727271493212669,2.5108997399080777,-8.145196030926,-2.4895741618270564
7.735270739064856,2.5065536929490153,-8.12730795358725,-2.493731250222681
7.743269984917043,2.5022076459899534,-8.109419876248502,-2.497888338618306
7.75126923076923,2.497861599030891,-8.091531798909752,-2.5020454270139307
7.759268476621417,2.493515552071829,-8.073643721571006,-2.506202515409555
7.767267722473604,2.4891695051127667,-8.055755644232256,-2.5103596038051803
7.775266968325791,2.484823458153704,-8.037867566893505,-2.514516692200805
7.783266214177978,2.480477411194642,-8.019979489554759,-2.5186737805964294
7.791265460030165,2.4761313642355796,-8.002091412216009,-2.5228308689920547
7.7992647058823525,2.471785317276517,-7.984203334877258,-2.5269879573876795
7.807263951734539,2.4674392703174552,-7.96631525753851,-2.531145045783304
7.815263197586726,2.463093223358393,-7.948427180199761,-2.5353021341789286
7.823262443438913,2.458747176399331,-7.9305391028610135,-2.5394592225745534
7.8312616892911,2.4544011294402686,-7.912651025522264,-2.543616310970178
7.839260935143288,2.3461578682755286,-8.089866767219702,-2.71576701860231
7.847260180995474,2.156842383107114,-8.190523944193048,-2.758696304675711
7.855259426847661,1.9675268979386786,-8.291181121166407,-2.8016255907491168
7.863258672699849,1.778211412770243,-8.391838298139765,-2.8445548768225226
7.871257918552035,1.5888959276018286,-8.492495475113113,-2.8874841628959236
7.879257164404223,1.3995804424333929,-8.59315265208647,-2.9304134489693294
7.887256410256409,1.2102649572649786,-8.693809829059818,-2.9733427350427304
7.8952556561085965,1.020949472096543,-8.794467006033177,-3.0162720211161362
7.903254901960784,1.0692843137254968,-9.933915032679726,-3.1311830065359527
7.91125414781297,0.9990250911261943,-10.069926344896931,-3.0842541478129704
7.919253393665158,0.9971919306184014,-10.088591251885369,-3.0922533936651577
7.927252639517345,0.9953587701106085,-10.107256158873806,-3.100252639517345
7.9352518853695315,0.9935256096028157,-10.12592106586224,-3.1082518853695316
7.943251131221719,0.9916924490950227,-10.144585972850678,-3.116251131221719
7.951250377073905,0.98985928858723,-10.163250879839113,-3.1242503770739054
7.959249622926093,0.9880261280794371,-10.18191578682755,-3.1322496229260928
7.96724886877828,0.9861929675716441,-10.200580693815986,-3.14024886877828
7.975248114630467,0.9843598070638514,-10.219245600804422,-3.1482481146304666
7.983247360482654,0.9825266465560585,-10.23791050779286,-3.156247360482654
7.99124660633484,0.9806934860482658,-10.256575414781295,-3.1642466063348405
7.999245852187028,0.9788603255404729,-10.275240321769733,-3.172245852187028
8.007245098039215,0.9916960784313715,-9.724549019607853,-3.056235294117651
8.015244343891402,0.9982291603821016,-9.590416490698846,-3.0180681749622926
8.023243589743588,0.9962737891737894,-9.535666096866104,-3.015935042735043
8.031242835595776,0.9943184179654768,-9.48091570303335,-3.0138019105077927
8.039242081447963,0.9923630467571646,-9.426165309200607,-3.0116687782805434
8.04724132730015,0.9904076755488523,-9.371414915367867,-3.0095356460532936
8.055240573152338,0.9884523043405397,-9.316664521535111,-3.0074025138260434
8.063239819004524,0.9864969331322275,-9.261914127702369,-3.0052693815987936
8.07123906485671,0.9845415619239153,-9.207163733869628,-3.003136249371544
8.079238310708899,0.9825861907156026,-9.152413340036873,-3.0010031171442937
8.087237556561085,0.9806308195072904,-9.097662946204132,-2.998869984917044
8.095236802413272,0.9786754482989782,-9.042912552371389,-2.9967368526897946
8.10323604826546,0.8570658622423302,-8.774852689793864,-2.974360482654602
8.111235294117646,0.8126425339366511,-8.752583710407235,-2.999361990950227
8.119234539969833,0.8167036895231458,-8.788641849402476,-2.992839528947675
8.127233785822021,0.8207648451096413,-8.824699988397724,-2.986317066945121
8.135233031674208,0.824826000696136,-8.860758127392966,-2.9797946049425694
8.143232277526394,0.8288871562826308,-8.896816266388207,-2.9732721429400173
8.15123152337858,0.8329483118691254,-8.932874405383448,-2.966749680937465
8.159230769230769,0.837009467455621,-8.968932544378696,-2.9602272189349117
8.167230015082955,0.8410706230421157,-9.004990683373936,-2.9537047569323596
8.175229260935142,0.8297948717948012,-9.323173453996375,-3.031849170437516
8.18322850678733,0.9124622095252701,-9.670982648209215,-3.059651602883657
8.191227752639517,0.9146992867551189,-9.690845182401508,-3.056058721272082
8.199226998491703,0.9169363639849677,-9.710707716593802,-3.052465839660506
8.207226244343891,0.9191734412148169,-9.730570250786101,-3.04887295804893
8.215225490196078,0.9214105184446657,-9.750432784978395,-3.045280076437355
8.223224736048264,0.9236475956745145,-9.770295319170689,-3.0416871948257795
8.231223981900452,0.9258846729043637,-9.790157853362988,-3.0380943132142035
8.239223227752639,0.9281217501342125,-9.810020387555282,-3.034501431602628
8.247222473604825,0.9303588273640613,-9.829882921747576,-3.030908549991053
8.255221719457012,0.9325959045939101,-9.84974545593987,-3.0273156683794777
8.2632209653092,0.9348329818237594,-9.869607990132167,-3.0237227867679013
8.271220211161387,0.9370700590536082,-9.88947052432446,-3.020129905156326
8.279219457013573,0.939307136283457,-9.909333058516754,-3.0165370235447506
8.287218702865761,0.9415442135133062,-9.929195592709053,-3.0129441419331746
8.295217948717948,0.943781290743155,-9.949058126901347,-3.0093512603215995
8.303217194570134,0.9593716289592731,-9.670022443438913,-3.151925067873302
8.311216440422323,0.9815295399698346,-9.676741809954752,-3.158004494720965
8.319215686274509,1.0036874509803912,-9.683461176470589,-3.164083921568627
8.327214932126696,1.0258453619909478,-9.690180542986425,-3.1701633484162888
8.335214177978884,1.0480032730015094,-9.696899909502264,-3.176242775263952
8.34321342383107,1.0701611840120662,-9.7036192760181,-3.1823222021116138
8.351212669683257,1.0923190950226227,-9.710338642533937,-3.188401628959275
8.359211915535445,1.1144770060331841,-9.717058009049774,-3.1944810558069383
8.367211161387631,1.1366349170437409,-9.72377737556561,-3.2005604826546
8.375210407239818,1.1587928280542974,-9.730496742081447,-3.206639909502262
8.383209653092004,1.1809507390648541,-9.737216108597284,-3.212719336349924
8.391208898944193,1.2031086500754156,-9.743935475113123,-3.218798763197587
8.39920814479638,1.2252665610859723,-9.75065484162896,-3.2248781900452483
8.407207390648566,0.925789517345394,-9.61076184012068,-3.06067556561086
8.415206636500754,0.9786348470806319,-9.443823238655982,-3.056824056406624
8.42320588235294,1.0032108433734939,-9.4369805102764,-3.0887246633593195
8.431205128205127,1.0277868396663559,-9.43013778189682,-3.120625270312015
8.439204374057315,1.0523628359592234,-9.423295053517236,-3.1525258772647176
8.447203619909502,1.0769388322520854,-9.416452325137655,-3.184426484217413
8.455202865761688,1.1015148285449474,-9.409609596758074,-3.216327091170108
8.463202111613876,1.126090824837815,-9.40276686837849,-3.2482276981228106
8.471201357466063,1.150666821130677,-9.39592413999891,-3.280128305075506
8.47920060331825,1.175242817423539,-9.389081411619328,-3.3120289120282016
8.487199849170436,1.199818813716401,-9.382238683239747,-3.3439295189808966
8.495199095022624,1.2243948100092685,-9.375395954860164,-3.375830125933599
8.50319834087481,1.3480231880606257,-9.47276418988647,-2.867072961816317
8.511197586726997,1.5102815749781335,-9.54391537667697,-2.789353973168232
8.519196832579185,1.6725399618956773,-9.615066563467487,-2.71163498452013
8.527196078431372,1.834798348813185,-9.686217750257988,-2.633915995872045
8.535195324283558,1.9970567357306928,-9.757368937048488,-2.55619700722396
8.543194570135746,2.1593151226482368,-9.828520123839004,-2.4784780185758577
8.551193815987933,2.321573509565744,-9.899671310629504,-2.400759029927773
8.55919306184012,2.483831896483252,-9.970822497420004,-2.323040041279688
8.567192307692308,2.6460902834007958,-10.041973684210522,-2.245321052631586
8.575191553544494,2.8083486703183036,-10.113124871001022,-2.1676020639835007
8.58319079939668,2.970607057235811,-10.184276057791521,-2.0898830753354156
8.591190045248869,3.1328654441533548,-10.255427244582037,-2.0121640866873136
8.599189291101055,2.8971564856715712,-12.391768099546642,-0.09493099547556867
8.607188536953242,4.515625381085338,-16.100090305189276,-0.5128733352587722
8.615187782805428,4.451886709348235,-15.175922114181345,-0.9308764802155831
8.623187028657616,4.388148037611117,-14.251753923173208,-1.3488796251724868
8.631186274509803,4.324409365874014,-13.327585732165275,-1.7668827701292977
8.63918552036199,4.260670694136911,-12.403417541157342,-2.184885915086108
8.647184766214178,4.1969320223997935,-11.479249350149203,-2.602889060043012
8.655184012066364,4.13319335066269,-10.555081159141272,-3.020892204999823
8.66318325791855,4.069454678925586,-9.63091296813334,-3.438895349956634
8.671182503770739,4.005716007188469,-8.706744777125202,-3.8568984949135374
8.679181749622925,3.941977335451366,-7.782576586117269,-4.2749016398703485
8.687180995475112,3.8782386637142627,-6.858408395109336,-4.692904784827158
8.6951802413273,3.814499991977145,-5.934240204101199,-5.110907929784062
8.703179487179487,8.293572649572644,-8.655811965811981,4.209649572649537
8.711178733031673,8.632194588833615,-7.770317976141537,5.723030197075672
8.71917797888386,8.752976590254645,-7.43871287535999,5.508372748463693
8.727177224736048,8.873758591675703,-7.107107774578369,5.293715299851667
8.735176470588234,8.994540593096733,-6.775502673796821,5.079057851239688
8.74317571644042,9.115322594517762,-6.443897573015274,4.86440040262771
8.751174962292609,9.23610459593882,-6.112292472233653,4.649742954015684
8.759174208144795,9.35688659735985,-5.780687371452105,4.4350855054037055
8.767173453996982,9.47766859878088,-5.449082270670559,4.220428056791727
8.77517269984917,9.598450600201936,-5.117477169888938,4.0057706081797
8.783171945701357,9.719232601622966,-4.78587206910739,3.7911131595677223
8.791171191553543,9.840014603043997,-4.454266968325843,3.5764557109557438
8.799170437405731,9.960796604465054,-4.122661867544222,3.3617982623437177
8.807169683257918,10.081578605886083,-3.791056766762675,3.1471408137317396
8.815168929110104,10.202360607307114,-3.4594516659811276,2.932483365119761
8.823168174962293,10.32314260872817,-3.1278465651995067,2.717825916507735
8.831167420814479,9.596287653523051,-0.8942911010557869,1.373053867700798
8.839166666666666,8.859214285714407,-1.035611111111088,2.2811587301585816
8.847165912518852,8.12214091790576,-1.176931121166389,3.1892635926163653
8.85516515837104,5.284133101287704,0.8580552732335718,2.663616359206368
8.863164404223227,6.808420164752049,0.6737034226708727,3.039211718296727
8.871163650075413,8.332707228216394,0.48935157210817376,3.4148070773870853
8.879162895927601,9.85699429168108,0.30499972154543387,3.7904024364775273
8.887162141779788,11.381281355145424,0.12064787098273488,4.165997795567886
8.895161387631974,12.905568418609768,-0.0637039795799641,4.541593154658244
8.903160633484163,14.429855482074451,-0.24805583014270405,4.917188513748687
8.91115987933635,15.954142545538797,-0.4324076807054029,5.2927838728390455
8.919159125188536,10.011812217207643,-9.860153091987765,7.828026395170944
8.927158371040724,2.343256625727224,2.1436220250337676,-33.53529270729295
8.93515761689291,2.2335526826115237,2.3849499226263546,-30.817315184815616
8.943156862745097,2.1238487394958234,2.6262778202189416,-28.09933766233828
8.951156108597285,2.0141447963800987,2.8676057178115824,-25.38136013986034
8.959155354449472,1.9044408532643984,3.108933615404169,-22.663382617383004
8.967154600301658,1.794736910148698,3.350261512996756,-19.945405094905666
8.975153846153844,1.6850329670329978,3.591589410589343,-17.227427572428333
8.983153092006033,1.575329023917273,3.8329173081819836,-14.509450049950392
8.99115233785822,1.4656250808015727,4.07424520577457,-11.791472527473058
8.999151583710406,1.6399962292570076,4.0741504524919865,-8.723985294123233
9.007150829562594,5.092156862745314,1.9787631975857018,-0.3701960784310918
9.01515007541478,6.334177453522468,-8.97415443930381,1.942053103869035
9.023149321266967,5.253650109309149,-9.504621282220713,1.3178422898978572
9.031148567119155,4.17312276509559,-10.035088125137733,0.6936314759265407
9.039147812971342,3.0925954208822715,-10.565554968054636,0.069420661955363
9.047147058823528,2.0120680766689523,-11.09602181097154,-0.5547901520158147
9.055146304675716,0.9315407324553941,-11.62648865388856,-1.179000965987131
9.063145550527903,-0.14898661175792505,-12.156955496805463,-1.8032117799583087
9.07114479638009,-1.2295139559712434,-12.687422339722364,-2.427422593929487
9.079144042232276,-2.3100413001845626,-13.217889182639269,-3.051633407900664
9.087143288084464,-3.3905686443981216,-13.748356025556289,-3.675844221871981
9.09514253393665,-4.471095988611439,-14.278822868473192,-4.300055035843159
9.103141779788837,-8.823642502183088,-11.591936254663855,0.05164450265927619
9.111141025641025,-8.709042780027,-11.395323211875859,0.4134630229419428
9.119140271493212,-8.594443057870937,-11.198710169087903,0.7752815432245291
9.127139517345398,-8.479843335714875,-11.00209712629995,1.1371000635071153
9.135138763197586,-8.365243613558787,-10.805484083511951,1.498918583789782
9.143138009049773,-8.250643891402724,-10.608871040723997,1.8607371040723684
9.15113725490196,-8.136044169246661,-10.412257997936043,2.2225556243549547
9.159136500754148,-8.021444447090575,-10.215644955148045,2.5843741446376214
9.167135746606334,-7.906844724934512,-10.019031912360091,2.9461926649202077
9.17513499245852,-7.79224500277845,-9.822418869572138,3.308011185202794
9.183134238310709,-7.677645280622362,-9.62580582678414,3.6698297054854603
9.191133484162895,-7.5630455584663,-9.429192783996186,4.031648225768047
9.199132730015082,-7.864313222724914,-9.35502463549521,4.854531171442829
9.207131975867268,-9.30951030668655,-9.617666540975323,6.945667357968498
9.215131221719457,-7.784947963800899,-2.7678868778280314,6.279490950226241
9.223130467571643,-1.600167738350456,-17.40907424386767,9.796862536715157
9.23112971342383,-1.2103097562912652,-16.8198666349132,9.3382741922681
9.239128959276018,-0.8204517742319878,-16.2306590259586,8.879685847820943
9.247128205128204,-0.4305937921727969,-15.641451417004134,8.421097503373886
9.25512745098039,-0.04073581011360616,-15.052243808049667,7.9625091589268315
9.263126696832579,0.3491221719456712,-14.463036199095066,7.503920814479674
9.271125942684765,0.7389801540048622,-13.873828590140599,7.045332470032617
9.279125188536952,1.1288381360640531,-13.28462098118613,6.586744125585561
9.28712443438914,1.5186961181233303,-12.695413372231531,6.128155781138403
9.295123680241327,1.9085541001825213,-12.106205763277064,5.669567436691348
9.303122926093513,2.0906422825540543,-8.901744366744373,3.6732794517573835
9.3111221719457,2.0239819004525,-8.8358111888112,3.767876593994225
9.319121417797888,1.9573215183509312,-8.769878010878012,3.862473736231088
9.327120663650074,1.890661136249377,-8.703944832944838,3.95707087846793
9.33511990950226,1.824000754147823,-8.638011655011665,4.0516680207047715
9.343119155354449,1.757340372046254,-8.572078477078476,4.146265162941634
9.351118401206636,1.6906799899446998,-8.506145299145302,4.240862305178476
9.359117647058822,1.6240196078431457,-8.440212121212129,4.335459447415318
9.36711689291101,1.5573592257415767,-8.374278943278942,4.430056589652181
9.375116138763197,1.4906988436400226,-8.308345765345768,4.524653731889023
9.383115384615383,1.4240384615384682,-8.242412587412595,4.619250874125864
9.391114630467571,1.3573780794368995,-8.176479409479406,4.713848016362727
9.399113876319758,1.2907176973353454,-8.110546231546232,4.808445158599569
9.407113122171944,1.2240573152337912,-8.044613053613059,4.903042300836411
9.415112368024133,1.1573969331322222,-7.978679875679871,4.997639443073274
9.42311161387632,1.0907365510306681,-7.912746697746698,5.092236585310116
9.431110859728506,1.024076168929114,-7.846813519813524,5.186833727546958
9.439110105580692,1.315887380592643,-7.374733031674366,5.453608848666566
9.44710935143288,1.7910771579754252,-7.053298914521712,6.668621380708583
9.455108597285067,1.7715380164676255,-6.795749425116888,7.114612120762455
9.463107843137253,1.7519988749598256,-6.538199935712064,7.560602860816328
9.471107088989442,1.7324597334520215,-6.280650446307183,8.0065936008703
9.479106334841628,1.7129205919442219,-6.0231009569023595,8.452584340924172
9.487105580693814,1.693381450436422,-5.765551467497535,8.898575080978045
9.495104826546003,1.6738423089286179,-5.508001978092654,9.344565821032017
9.50310407239819,1.784520361990848,-5.244045248868812,9.13390497737604
9.511103318250376,1.8274308627026152,-5.627034956344393,7.709665657595667
9.519102564102564,1.7931805706031048,-5.687536294691226,7.572551823763088
9.52710180995475,1.758930278503602,-5.748037633038045,7.435437989930539
9.535101055806937,1.7246799864040994,-5.8085389713848645,7.29832415609799
9.543100301659123,1.6904296943045964,-5.869040309731683,7.161210322265441
9.551099547511312,1.656179402205086,-5.929541648078516,7.024096488432861
9.559098793363498,1.6219291101055833,-5.990042986425335,6.886982654600312
9.567098039215685,1.5876788180060806,-6.0505443247721535,6.749868820767763
9.575097285067873,1.55342852590657,-6.111045663118986,6.612754986935183
9.58309653092006,1.3986369029663321,-6.290992458521851,6.8779656108596905
9.591095776772246,1.1751913021619318,-6.538969079939623,7.372319004524796
9.599095022624434,1.1425165368288377,-6.082451369128166,7.764539301208158
9.60709426847662,1.2120357559359844,-5.910426350080114,8.009547130350901
9.615093514328807,1.2815549750431312,-5.738401331032062,8.254554959493644
9.623092760180995,1.3510741941502933,-5.566376311983971,8.499562788636442
9.631092006033182,1.42059341325744,-5.394351292935919,8.744570617779187
9.639091251885368,1.4901126323645868,-5.222326273887867,8.98957844692193
9.647090497737556,1.559631851471749,-5.050301254839776,9.234586276064729
9.655089743589743,1.6291510705788956,-4.8782762357917235,9.479594105207472
9.66308898944193,1.6986702896860424,-4.706251216743672,9.724601934350217
9.671088235294116,1.7681895087931891,-4.534226197695619,9.96960976349296
9.679087481146304,1.8377087279003512,-4.3622011786475285,10.214617592635758
9.68708672699849,1.907227947007498,-4.190176159599476,10.459625421778501
9.695085972850677,1.835348416292683,-4.146509049770976,10.457579185525733
9.703085218702865,1.4740180726136611,-7.571926719726353,5.408771782751563
9.711084464555052,1.4623048911872454,-7.548286091359623,5.390702057746178
9.719083710407238,1.4505917097608294,-7.524645462992893,5.372632332740792
9.727082956259427,1.438878528334411,-7.501004834626158,5.354562607735402
9.735082202111613,1.427165346907995,-7.477364206259429,5.336492882730017
9.7430814479638,1.4154521654815793,-7.453723577892699,5.318423157724632
9.751080693815988,1.4037389840551606,-7.430082949525964,5.300353432719242
9.759079939668174,1.3920258026287446,-7.4064423211592345,5.282283707713856
9.76707918552036,1.380312621202329,-7.382801692792505,5.264213982708471
9.775078431372547,1.368599439775913,-7.359161064425775,5.246144257703086
9.783077677224735,1.3568862583494945,-7.33552043605904,5.228074532697696
9.791076923076922,1.3451730769230785,-7.311879807692311,5.21000480769231
9.799076168929108,1.3334598954966626,-7.288239179325581,5.191935082686925
9.807075414781297,1.3217467140702441,-7.264598550958847,5.173865357681535
9.815074660633483,1.9676061463044912,-7.2988399321266835,5.59759313725478
9.82307390648567,3.199635746607276,-7.310915535446998,6.474881598792408
9.831073152337858,2.7382815950691795,-5.948179971323757,9.50408590767743
9.839072398190044,2.7150739064856753,-5.989460030165906,9.33392911010561
9.84707164404223,2.691866217902171,-6.030740089008053,9.16377231253379
9.855070889894419,2.668658529318662,-6.07202014785021,8.993615514961933
9.863070135746606,2.645450840735158,-6.113300206692357,8.823458717390114
9.871069381598792,2.6222431521516536,-6.154580265534506,8.653301919818293
9.87906862745098,2.599035463568144,-6.195860324376662,8.483145122246437
9.887067873303167,2.57582777498464,-6.23714038321881,8.312988324674617
9.895067119155353,2.552620086401136,-6.278420442060958,8.142831527102798
9.90306636500754,2.529412397817632,-6.319700500903106,7.972674729530978
9.911065610859728,0.6610509049756561,-7.240536199094207,6.441132352941858
9.919064856711914,2.285887280040268,-8.41328557063851,5.582162242332829
9.9270641025641,1.8608606837607633,-8.427950854700851,5.591894658119656
9.93506334841629,1.4358340874811644,-8.442616138763197,5.601627073906485
9.943062594268476,1.0108074912016598,-8.457281422825538,5.611359489693312
9.951061840120662,0.5857808949221552,-8.47194670688788,5.621091905480139
9.95906108597285,0.1607542986425563,-8.486611990950225,5.630824321266967
9.967060331825037,-0.26427229763694804,-8.501277275012567,5.640556737053795
9.975059577677223,-0.6861554801406896,-8.444685960281658,5.649353192559074
9.983058823529412,-1.0874509803921186,-7.9214019607843635,5.652019607843137
9.991058069381598,-0.8175150829547674,-8.429231146304982,6.203685897435338
9.999057315233784,-1.6948008672700343,-8.184976791101064,6.572887292609359
10.007056561085971,-1.5030189479638594,-8.152079892533948,6.546689762443447
10.01505580693816,-1.311237028657642,-8.119182993966822,6.52049223227753
10.023055052790346,-1.1194551093514673,-8.086286095399704,6.494294702111619
10.031054298642532,-0.9276731900452924,-8.053389196832587,6.468097171945707
10.03905354449472,-0.7358912707390748,-8.020492298265461,6.44189964177979
10.047052790346907,-0.5441093514329001,-7.987595399698344,6.415702111613879
10.055052036199093,-0.3523274321267251,-7.954698501131227,6.389504581447968
10.063051282051282,-0.16054551282050755,-7.921801602564101,6.36330705128205
10.071050527903468,0.031236406485667167,-7.8889047039969835,6.337109521116139
10.079049773755655,2.8315679405044674,-8.57926374266386,5.080282738228567
10.087049019607843,2.7398538147932405,-8.565958066394874,5.14799912638323
10.09504826546003,2.648139689082034,-8.55265239012589,5.215715514537877
10.103047511312216,2.5564255633708273,-8.539346713856908,5.283431902692524
10.111046757164404,2.4647114376596004,-8.526041037587921,5.351148290847187
10.11904600301659,2.372997311948394,-8.512735361318938,5.4188646790018336
10.127045248868777,2.2812831862371876,-8.499429685049954,5.4865810671564805
10.135044494720963,2.1895690605259808,-8.48612400878097,5.554297455311128
10.143043740573152,2.097854934814754,-8.472818332511984,5.6220138434657905
10.151042986425338,2.0061408091035475,-8.459512656243001,5.6897302316204375
10.159042232277525,1.914426683392341,-8.446206979974018,5.757446619775085
10.167041478129713,1.822712557681114,-8.432901303705032,5.825163007929747
10.1750407239819,1.7309984319699074,-8.419595627436047,5.892879396084394
10.183039969834086,0.8722313809284314,-7.851869875984587,2.9612466147142174
10.191039215686274,0.9185381263616547,-7.825827886710241,3.210734204793022
10.19903846153846,0.9648448717948676,-7.7997858974359,3.460221794871772
10.207037707390647,1.0111516172280806,-7.77374390816156,3.709709384950522
10.215036953242835,1.0574583626613037,-7.747701918887214,3.959196975029327
10.223036199095022,1.1037651080945166,-7.721659929612873,4.208684565108077
10.231035444947208,1.1500718535277294,-7.695617940338533,4.458172155186826
10.239034690799397,1.1963785989609526,-7.6695759510641865,4.707659745265632
10.247033936651583,1.2426853443941654,-7.643533961789846,4.957147335344382
10.25503318250377,1.2889920898273783,-7.617491972515506,5.206634925423131
10.263032428355956,1.3352988352605912,-7.591449983241165,5.456122515501881
10.271031674208144,1.3816055806938146,-7.565407993966819,5.705610105580686
10.27903092006033,1.7596799396681333,-7.820138838612339,6.212081900452438
10.287030165912517,1.5482780291605285,-7.699141277023725,6.257144796380171
10.295029411764705,1.1707072567344685,-7.298518691588786,6.13279081913139
10.303028657616892,1.180052170113191,-7.289622334052242,6.134360764579016
10.311027903469078,1.1893970834919136,-7.280725976515698,6.135930710026641
10.319027149321267,1.1987419968706383,-7.271829618979153,6.137500655474267
10.327026395173453,1.2080869102493608,-7.262933261442608,6.139070600921892
10.33502564102564,1.2174318236280834,-7.254036903906065,6.140640546369518
10.343024886877828,1.2267767370068081,-7.245140546369519,6.142210491817144
10.351024132730014,1.2361216503855306,-7.236244188832975,6.143780437264769
10.3590233785822,1.2454665637642532,-7.227347831296431,6.145350382712394
10.367022624434387,1.254811477142976,-7.218451473759887,6.14692032816002
10.375021870286576,1.2641563905217006,-7.209555116223341,6.148490273607646
10.383021116138762,1.273501303900423,-7.200658758686798,6.150060219055271
10.391020361990948,1.2828462172791457,-7.191762401150253,6.151630164502896
10.399019607843137,1.2026339869281266,-7.332862745098002,6.2213137254901785
10.407018853695323,1.3926333333333,-8.077056561085971,6.038165460030136
10.41501809954751,1.402914673561738,-8.046143453831242,6.082241708517726
10.423017345399698,1.3652039431157081,-8.007553685379477,6.087076417549269
10.431016591251884,1.3274932126696866,-7.968963916927721,6.0919111265808095
10.43901583710407,1.289782482223665,-7.930374148475965,6.096745835612351
10.44701508295626,1.2520717517776352,-7.8917843800242,6.101580544643893
10.455014328808446,1.2143610213316136,-7.853194611572444,6.106415253675435
10.463013574660632,1.176650290885592,-7.814604843120687,6.111249962706975
10.47101282051282,1.1389395604395622,-7.776015074668923,6.116084671738518
10.479012066365007,1.1012288299935407,-7.737425306217166,6.120919380770059
10.487011312217193,1.0635180995475193,-7.69883553776541,6.1257540898016005
10.49501055806938,1.0258073691014977,-7.660245769313654,6.130588798833141
10.503009803921568,1.0846899509803782,-7.693127450980383,5.970101715686304
10.511009049773754,0.9278914027147189,-7.762420814479507,5.866624434388916
10.519008295625941,1.1393335875404642,-7.9210216923415935,6.03890326571424
10.52700754147813,1.125132679173658,-7.887766400596541,6.021466707339807
10.535006787330316,1.1109317708068551,-7.854511108851496,6.004030148965379
10.543006033182502,1.0967308624400522,-7.821255817106452,5.98659359059095
10.55100527903469,1.0825299540732463,-7.788000525361399,5.9691570322165175
10.559004524886877,1.0683290457064434,-7.7547452336163545,5.951720473842088
10.567003770739063,1.0541281373396405,-7.72148994187131,5.93428391546766
10.575003016591252,1.0399272289728345,-7.688234650126257,5.916847357093227
10.583002262443438,1.0257263206060316,-7.654979358381213,5.899410798718798
10.591001508295625,1.0115254122392288,-7.621724066636168,5.881974240344369
10.599000754147811,0.9973245038724259,-7.5884687748911235,5.86453768196994
10.607,1.052,-7.929,6.062
