accel_time_list,vertical_Accel_x,vertical_Accel_y,vertical_Accel_z
0.0,-1.513,-0.253,10.521
0.007995286195286194,1.319050642013354,-2.147700108428922,9.857373623238031
0.01599057239057239,1.2044063687724706,-2.1388917422815727,9.812993009187926
0.023985858585858583,1.0897620955315872,-2.1300833761342233,9.768612395137819
0.03198114478114478,0.9751178222907038,-2.1212750099868742,9.724231781087713
0.03997643097643097,0.8604735490498203,-2.112466643839525,9.679851167037608
0.047971717171717165,0.7458292758089369,-2.1036582776921757,9.635470552987503
0.05596700336700336,0.6311850025680534,-2.0948499115448267,9.591089938937397
0.06396228956228955,0.51654072932717,-2.0860415453974777,9.54670932488729
0.07195757575757575,0.40189645608628677,-2.077233179250128,9.502328710837185
0.07995286195286194,0.2872521828454033,-2.068424813102779,9.45794809678708
0.08794814814814814,0.17260790960451988,-2.05961644695543,9.413567482736974
0.09594343434343433,0.05796363636363644,-2.0508080808080806,9.36918686868687
0.10393872053872052,-0.056680636877247004,-2.0419997146607316,9.324806254636762
0.11193400673400672,-0.17132491011813045,-2.033191348513382,9.280425640586657
0.11992929292929291,-0.2859691833590139,-2.024382982366033,9.236045026536551
0.1279245791245791,0.38504888888888605,-2.4090568350168335,9.473108282828282
0.1359198653198653,0.27766149072423574,-2.360825397768535,9.742263477916419
0.1439151515151515,0.3055666072489601,-2.3430319667260844,9.745320499108734
0.1519104377104377,0.3334717237736845,-2.325238535683634,9.74837752030105
0.15990572390572388,0.36137684029840883,-2.3074451046411832,9.751434541493365
0.16790101010101008,0.38928195682313316,-2.2896516735987325,9.754491562685681
0.17589629629629627,0.41718707334785754,-2.2718582425562817,9.757548583877997
0.18389158249158247,0.4450921898725819,-2.2540648115138313,9.76060560507031
0.19188686868686866,0.4729973063973063,-2.2362713804713805,9.763662626262626
0.19988215488215486,0.5009024229220307,-2.2184779494289297,9.766719647454941
0.20787744107744105,0.5288075394467551,-2.200684518386479,9.769776668647257
0.21587272727272724,0.5567126559714793,-2.1828910873440286,9.772833689839572
0.22386801346801344,0.5846177724962037,-2.165097656301578,9.775890711031888
0.23186329966329963,0.612522889020928,-2.147304225259127,9.778947732224204
0.23985858585858583,0.5634343434343434,-2.1021919191919207,9.538818181818181
0.24785387205387202,0.5526168649457538,-2.0743017134306023,9.507086150392816
0.2558491582491582,0.5346718892630004,-2.1283143135054243,9.506020112233445
0.26384444444444444,0.5167269135802469,-2.1823269135802468,9.504954074074073
0.2718397306397306,0.4987819378974935,-2.2363395136550692,9.503888035914702
0.27983501683501677,0.4808369622147401,-2.2903521137298912,9.502821997755332
0.287830303030303,0.4628919865319866,-2.3443647138047137,9.50175595959596
0.2958255892255892,0.44494701084923305,-2.398377313879536,9.500689921436589
0.3038208754208754,0.4270020351664797,-2.452389913954358,9.499623883277216
0.31181616161616155,0.4090570594837263,-2.50640251402918,9.498557845117846
0.31981144781144777,0.3911120838009728,-2.5604151141040026,9.497491806958474
0.327806734006734,0.3731671081182193,-2.614427714178825,9.496425768799103
0.33580202020202016,0.517258585858584,-1.9117717171717181,9.301333333333355
0.3437973063973063,0.5345645443196004,-1.9704147391518172,9.228640744523892
0.35179259259259255,0.5464227215980024,-2.03338884727424,9.221094631710363
0.35978787878787877,0.5582808988764044,-2.096362955396663,9.213548518896834
0.36778316498316493,0.5701390761548064,-2.1593370635190854,9.206002406083305
0.3757784511784511,0.5819972534332084,-2.222311171641508,9.198456293269777
0.3837737373737373,0.5938554307116104,-2.285285279763931,9.190910180456248
0.39176902356902354,0.6057136079900125,-2.348259387886354,9.183364067642719
0.3997643097643097,0.6175717852684144,-2.4112334960087765,9.17581795482919
0.4077595959595959,0.6294299625468164,-2.474207604131199,9.168271842015661
0.4157548821548821,0.6412881398252184,-2.5371817122536218,9.160725729202133
0.4237501683501683,0.6531463171036205,-2.600155820376045,9.153179616388604
0.4317454545454545,0.7952777881911904,-2.192355014058107,8.401344704779756
0.43974074074074065,0.7690664375715925,-2.148174875906835,8.361697976326843
0.4477360269360269,0.7428550869519944,-2.1039947377555626,8.32205124787393
0.4557313131313131,0.7166437363323963,-2.0598145996042905,8.282404519421014
0.46372659932659926,0.6904323857127983,-2.0156344614530184,8.242757790968101
0.47172188552188543,0.6642210350932004,-1.9714543233017465,8.203111062515188
0.47971717171717165,0.6380096844736023,-1.9272741851504742,8.163464334062272
0.4877124579124579,0.6117983338540042,-1.8830940469992017,8.123817605609359
0.49570774410774404,0.5855869832344062,-1.8389139088479298,8.084170877156446
0.5037030303030302,0.5593756326148083,-1.7947337706966577,8.04452414870353
0.5116983164983164,0.53316428199521,-1.7505536325453854,8.004877420250617
0.5196936026936027,0.506952931375612,-1.7063734943941131,7.965230691797703
0.5276888888888889,-0.7521777777777071,-0.7807777777778284,8.256911111111092
0.535684175084175,-0.7305468306250912,-0.0682996047430782,6.19588423364076
0.5436794612794612,-0.7486231298492165,-0.3639513833992057,5.984182960035137
0.5516747474747474,-0.766699429073342,-0.6596031620553333,5.772481686429515
0.5596700336700335,-0.7847757282974671,-0.9552549407114568,5.560780412823895
0.5676653198653198,-0.8028520275215925,-1.2509067193675842,5.349079139218273
0.575660606060606,-0.8209283267457178,-1.5465584980237117,5.137377865612651
0.5836558922558922,-0.8390046259698433,-1.8422102766798392,4.9256765920070285
0.5916511784511784,-0.8570809251939686,-2.137862055335967,4.713975318401406
0.5996464646464645,-0.8751572244180937,-2.4335138339920905,4.502274044795787
0.6076417508417508,-0.8932335236422191,-2.729165612648218,4.290572771190165
0.615637037037037,-0.9113098228663445,-3.0248173913043455,4.078871497584543
0.6236323232323231,-0.9293861220904697,-3.320469169960469,3.8671702239789236
0.6316276094276093,-1.9878047138046548,-7.497774410774331,2.3190168350169245
0.6396228956228955,-2.078834166223641,-7.812384370015948,2.0299016835016834
0.6476181818181818,-1.9790193301435415,-7.876767464114832,2.0235054545454547
0.655613468013468,-1.8792044940634418,-7.9411505582137165,2.0171092255892256
0.6636087542087541,-1.7793896579833435,-8.005533652312598,2.010712996632997
0.6716040404040403,-1.679574821903244,-8.069916746411483,2.0043167676767677
0.6795993265993265,-1.5797599858231444,-8.134299840510366,1.9979205387205388
0.6875946127946126,-1.4799451497430463,-8.19868293460925,1.9915243097643098
0.6955898989898989,-1.3801303136629466,-8.263066028708133,1.985128080808081
0.7035851851851851,-1.280315477582847,-8.327449122807018,1.978731851851852
0.7115804713804713,-1.1805006415027475,-8.3918322169059,1.9723356228956228
0.7195757575757575,-1.0806858054226478,-8.456215311004785,1.9659393939393939
0.7275710437710436,-1.6184323232322075,-8.817511111111056,2.06278787878786
0.7355663299663299,-2.8977389898989845,-10.28294734006733,1.634214141414145
0.7435616161616161,-3.3966448484848444,-11.21679676767676,1.298412121212124
0.7515569023569022,-3.1541189987732676,-11.304144253908595,1.0309151254143551
0.7595521885521884,-2.8685819173648675,-11.34238527392791,0.7673805757836808
0.7675474747474746,-2.5830448359564673,-11.380626293947223,0.5038460261530062
0.7755427609427609,-2.297507754548067,-11.418867313966539,0.24031147652233176
0.7835380471380471,-2.011970673139667,-11.457108333985854,-0.023223073108342707
0.7915333333333332,-1.7264335917312705,-11.495349354005167,-0.2867576227390136
0.7995286195286194,-1.4408965103228704,-11.533590374024483,-0.5502921723696881
0.8075239057239056,-1.1553594289144704,-11.571831394043796,-0.8138267220003625
0.8155191919191918,-0.8698223475060738,-11.610072414063112,-1.0773612716310332
0.823514478114478,-0.5842852660976736,-11.648313434082425,-1.340895821261708
0.8315097643097642,-0.29874818468927344,-11.68655445410174,-1.6044303708923826
0.8395050505050504,-0.013211103280873271,-11.724795474121056,-1.8679649205230568
0.8475003367003366,0.2723259781275269,-11.76303649414037,-2.1314994701537318
0.8554956228956228,0.5578630595359231,-11.801277514159684,-2.3950340197844024
0.863490909090909,0.8434001409443233,-11.839518534178998,-2.6585685694150767
0.8714861952861952,1.1289372223527239,-11.877759554198313,-2.922103119045751
0.8794814814814813,1.5559214814814868,-12.628174320987661,-2.6075195061728285
0.8874767676767675,1.3221393131313175,-12.282351542087547,-3.1143140471380377
0.8954720538720538,1.0883571447811482,-11.936528763187434,-3.6211085881032474
0.90346734006734,0.8545749764309788,-11.59070598428732,-4.127903129068457
0.9114626262626262,0.6207928080808095,-11.244883205387207,-4.634697670033667
0.9194579124579123,0.3870106397306434,-10.899060426487098,-5.141492210998869
0.9274531986531985,0.15322847138047413,-10.553237647586984,-5.648286751964079
0.9354484848484848,-0.08055369696969517,-10.207414868686872,-6.155081292929289
0.9434437710437709,-0.31433586531986113,-9.861592089786761,-6.6618758338944914
0.9514390572390571,-0.5481180336700302,-9.515769310886649,-7.168670374859701
0.9594343434343433,2.2015011883541313,-8.651806446821155,-9.62467275698158
0.9674296296296295,2.0634649237472775,-8.42735054466231,-9.692279956427015
0.9754249158249158,1.9254286591404244,-8.202894642503466,-9.75988715587245
0.9834202020202019,1.7873923945335728,-7.978438740344625,-9.827494355317883
0.9914154882154881,1.6493561299267194,-7.753982838185781,-9.895101554763318
0.9994107744107743,1.5113198653198658,-7.529526936026937,-9.962708754208753
1.0074060606060604,1.3732836007130145,-7.305071033868096,-10.030315953654188
1.0154013468013467,1.235247336106159,-7.080615131709249,-10.097923153099623
1.0233966329966329,1.0972110714993075,-6.856159229550407,-10.165530352545058
1.031391919191919,1.2142747474748297,-6.349951515151588,-9.10948888888899
1.0393872053872053,1.0500137869927337,-6.059159276980331,-8.859744958355485
1.0473824915824914,1.090074378876483,-5.935947708665607,-8.85730429204324
1.0553777777777777,1.1301349707602335,-5.812736140350878,-8.854863625730994
1.0633730639730639,1.170195562643983,-5.689524572036153,-8.85242295941875
1.07136835016835,1.2102561545277324,-5.566313003721428,-8.849982293106503
1.0793636363636363,1.2503167464114828,-5.4431014354066996,-8.847541626794259
1.0873589225589224,1.2903773382952322,-5.319889867091975,-8.845100960482013
1.0953542087542085,1.3304379301789817,-5.1966782987772495,-8.842660294169768
1.1033494949494949,1.3704985220627321,-5.073466730462521,-8.840219627857524
1.111344781144781,1.4105591139464815,-4.950255162147796,-8.837778961545277
1.119340067340067,1.4506197058302308,-4.827043593833071,-8.835338295233033
1.1273353535353534,1.633537373737336,-4.840123232323198,-8.86888282828282
1.1353306397306395,1.623842154882159,-5.126390303030303,-8.80145090909091
1.1433259259259259,1.7870873590982288,-4.339014331723027,-8.528501771336554
1.151321212121212,1.8257602108036888,-4.214044532279316,-8.628269038208169
1.159316498316498,1.8644330625091488,-4.089074732835605,-8.728036305079781
1.1673117845117844,1.9031059142146098,-3.9641049333918903,-8.827803571951398
1.1753070707070705,1.9417787659200698,-3.8391351339481794,-8.92757083882301
1.1833023569023569,1.9804516176255307,-3.7141653345044645,-9.027338105694628
1.191297643097643,2.0191244693309907,-3.5891955350607536,-9.127105372566241
1.199292929292929,2.0577973210364506,-3.4642257356170427,-9.226872639437854
1.2072882154882154,2.096470172741912,-3.339255936173328,-9.32663990630947
1.2152835016835015,2.135143024447372,-3.214286136729617,-9.426407173181085
1.2232787878787876,2.173815876152832,-3.089316337285906,-9.526174440052698
1.231274074074074,2.2124887278582928,-2.964346537842191,-9.625941706924314
1.23926936026936,1.8026968633705482,-3.0437693779904285,-9.493037923090553
1.2472646464646462,1.7840131419457745,-3.102850334928227,-9.584773312068045
1.2552599326599325,1.7653294205210002,-3.161931291866027,-9.676508701045542
1.2632552188552186,1.7466456990962262,-3.2210122488038255,-9.768244090023034
1.271250505050505,1.7279619776714519,-3.2800932057416254,-9.85997947900053
1.279245791245791,1.709278256246678,-3.339174162679424,-9.951714867978023
1.2872410774410772,1.690594534821904,-3.3982551196172226,-10.043450256955516
1.2952363636363635,1.6719108133971297,-3.4573360765550225,-10.135185645933012
1.3032316498316496,1.6532270919723557,-3.516417033492821,-10.226921034910506
1.311226936026936,1.6345433705475814,-3.575497990430621,-10.318656423888001
1.319222222222222,1.6158596491228077,-3.6345789473684196,-10.410391812865495
1.3272175084175082,1.5971759276980337,-3.6936599043062177,-10.502127201842988
1.3352127946127945,1.4528804713804861,-3.9155117845117777,-10.98869090909085
1.3432080808080806,1.2254115824915828,-4.638461526374858,-12.919840336700334
1.3512033670033667,1.2104870482603822,-4.727919895248782,-13.005922918069581
1.359198653198653,1.195562514029181,-4.817378264122707,-13.092005499438832
1.3671939393939392,1.1806379797979802,-4.90683663299663,-13.178088080808077
1.3751892255892253,1.1657134455667795,-4.996295001870554,-13.264170662177325
1.3831845117845116,1.1507889113355783,-5.08575337074448,-13.350253243546575
1.3911797979797977,1.1358643771043775,-5.175211739618403,-13.436335824915822
1.399175084175084,1.1209398428731765,-5.264670108492329,-13.522418406285071
1.4071703703703702,1.1060153086419757,-5.3541284773662525,-13.608500987654319
1.4151656565656563,1.091090774410775,-5.4435868462401755,-13.694583569023566
1.4231609427609426,1.0761662401795737,-5.533045215114102,-13.780666150392815
1.4311562289562287,1.3627164983164815,-4.954537710437641,-10.14955589225596
1.439151515151515,1.413854864433812,-5.325387559808613,-9.64835725677831
1.4471468013468012,1.3700911926280352,-5.329174800637959,-9.492238773701933
1.4551420875420873,1.3263275208222587,-5.3329620414673045,-9.336120290625557
1.4631373737373736,1.2825638490164808,-5.336749282296651,-9.180001807549177
1.4711326599326597,1.2388001772107042,-5.340536523125997,-9.0238833244728
1.4791279461279458,1.1950365054049277,-5.344323763955343,-8.867764841396424
1.4871232323232322,1.1512728335991498,-5.348111004784689,-8.711646358320044
1.4951185185185183,1.1075091617933732,-5.351898245614035,-8.555527875243667
1.5031138047138044,1.0637454899875967,-5.355685486443381,-8.399409392167291
1.5111090909090907,1.0199818181818188,-5.359472727272728,-8.243290909090911
1.5191043771043768,0.9762181463760421,-5.363259968102073,-8.087172426014535
1.5270996632996632,0.9267909764309785,-5.369710841750841,-7.94461077441077
1.5350949494949493,0.4286846464646543,-5.587182626262623,-8.876061616161602
1.5430902356902354,-0.1920094276094017,-6.324586531986497,-9.894080808080767
1.5510855218855217,-0.6654932331444536,-7.033280233226573,-10.187771487230027
1.5590808080808078,-0.5702323232323253,-7.203131313131309,-9.924707070707077
1.5670760942760942,-0.4749714133201944,-7.37298239303605,-9.661642654184119
1.5750713804713803,-0.37971050340806606,-7.542833472940787,-9.39857823766117
1.5830666666666664,-0.2844495934959377,-7.7126845528455235,-9.135513821138218
1.5910619528619527,-0.1891886835838067,-7.882535632750265,-8.872449404615262
1.5990572390572388,-0.09392777367167837,-8.052386712655002,-8.609384988092312
1.607052525252525,0.0013331362404499503,-8.222237792559739,-8.346320571569361
1.6150478114478113,0.09659404615258094,-8.39208887246448,-8.083256155046405
1.6230430976430974,0.19185495606470926,-8.561939952369215,-7.820191738523453
1.6310383838383835,0.3864868686868862,-7.326703030303117,-5.864618181818245
1.6390336700336698,0.25592786016190344,-6.887384304033241,-5.569028332975141
1.647028956228956,0.19332647037753564,-6.809387735511142,-5.5429160684862815
1.6550242424242423,0.13072508059316612,-6.73139116698904,-5.516803803997421
1.6630195286195284,0.06812369080879835,-6.6533945984669405,-5.490691539508561
1.6710148148148145,0.00552230102443052,-6.575398029944841,-5.464579275019701
1.6790101010101008,-0.057079088759939,-6.497401461422739,-5.43846701053084
1.687005387205387,-0.11968047854430675,-6.41940489290064,-5.412354746041981
1.6950006734006733,-0.18228186832867632,-6.341408324378538,-5.38624248155312
1.7029959595959594,-0.24488325811304407,-6.263411755856438,-5.36013021706426
1.7109912457912455,-0.30748464789741187,-6.185415187334339,-5.3340179525754
1.7189865319865318,-0.37008603768178144,-6.107418618812237,-5.30790568808654
1.726981818181818,-0.483745454545442,-6.062563636363631,-5.336872727272716
1.734977104377104,-0.6150989898990097,-5.635644444444492,-5.382888888888923
1.7429723905723904,-0.5601501254974,-5.702069892868073,-5.3492553902663005
1.7509676767676765,-0.5061456014692401,-5.771338145087233,-5.31741961432507
1.7589629629629626,-0.45214107744108023,-5.840606397306394,-5.2855838383838405
1.766958249158249,-0.39813655341291887,-5.909874649525556,-5.253748062442609
1.774953535353535,-0.344132029384759,-5.9791429017447175,-5.221912286501379
1.7829488215488214,-0.2901275053565976,-6.04841115396388,-5.190076510560147
1.7909441077441075,-0.23612298132843773,-6.11767940618304,-5.158240734618918
1.7989393939393936,-0.18211845730027781,-6.186947658402201,-5.126404958677687
1.80693468013468,-0.12811393327211645,-6.256215910621363,-5.094569182736456
1.814929966329966,-0.07410940924395659,-6.3254841628405245,-5.062733406795226
1.8229252525252524,-0.020104885215795232,-6.394752415059687,-5.030897630853994
1.8309205387205385,0.033899638812364685,-6.464020667278848,-4.999061854912765
1.8389158249158246,0.0879041628405246,-6.533288919498008,-4.967226078971534
1.846911111111111,0.3143444444444244,-6.503788888888859,-4.953533333333324
1.854906397306397,0.7006552188552211,-7.219672021805353,-5.070426406926404
1.8629016835016832,0.6446882154882183,-7.268024466891132,-5.134674242424239
1.8708969696969695,0.5887212121212139,-7.316376911976911,-5.1989220779220755
1.8788922558922556,0.532754208754211,-7.364729357062689,-5.263169913419911
1.8868875420875417,0.4767872053872081,-7.413081802148467,-5.327417748917746
1.894882828282828,0.4208202020202037,-7.461434247234246,-5.391665584415582
1.9028781144781142,0.3648531986532008,-7.5097866923200245,-5.455913419913418
1.9108734006734005,0.3088861952861964,-7.558139137405804,-5.520161255411255
1.9188686868686866,0.25291919191919354,-7.606491582491581,-5.584409090909089
1.9268639730639727,0.19695218855219065,-7.65484402757736,-5.648656926406924
1.934859259259259,0.06021481481482943,-8.370370370370257,-6.180311111111031
1.9428545454545452,1.2253941483803503,-10.99941337513063,-7.042847439916407
1.9508498316498315,1.3465181392468724,-10.69743049653625,-6.996897519253842
1.9588451178451176,1.467642130113391,-10.39544761794188,-6.950947598591278
1.9668404040404037,1.5887661209799098,-10.093464739347509,-6.904997677928715
1.97483569023569,1.7098901118464318,-9.79148186075313,-6.859047757266149
1.9828309764309762,1.8310141027129503,-9.489498982158759,-6.8130978366035855
1.9908262626262623,1.952138093579469,-9.18751610356439,-6.767147915941021
1.9988215488215486,2.0732620844459912,-8.88553322497001,-6.721197995278456
2.006816835016835,2.1943860753125133,-8.583550346375631,-6.675248074615891
2.014812121212121,2.315510066179028,-8.281567467781269,-6.629298153953328
2.022807407407407,2.4366340570455503,-7.97958458918689,-6.583348233290763
2.0308026936026935,1.8394744879349048,-5.947820103815937,-4.785632596801347
2.0387979797979794,1.8194029882154892,-6.0445963804713765,-4.863836489898986
2.0467932659932657,1.7993314884960725,-6.141372657126822,-4.94204038299663
2.054788552188552,1.7792599887766556,-6.238148933782266,-5.020244276094275
2.062783838383838,1.75918848905724,-6.334925210437706,-5.098448169191915
2.0707791245791243,1.7391169893378233,-6.431701487093151,-5.17665206228956
2.0787744107744106,1.7190454896184066,-6.528477763748596,-5.254855955387204
2.0867696969696965,1.698973989898991,-6.625254040404036,-5.333059848484844
2.094764983164983,1.6789024901795744,-6.72203031705948,-5.411263741582489
2.102760269360269,1.6588309904601575,-6.818806593714925,-5.489467634680133
2.1107555555555555,1.6387594907407408,-6.91558287037037,-5.567671527777777
2.1187508417508414,1.6186879910213252,-7.012359147025809,-5.645875420875417
2.1267461279461277,1.6606222222222125,-8.254413468013272,-6.559110437710294
2.134741414141414,1.9413956228956408,-7.483398653198698,-7.421474074074061
2.1427367003367,1.8325754541754522,-6.964626099826114,-7.549576652976651
2.1507319865319863,1.866489525289524,-6.751740622340631,-7.581118496318495
2.1587272727272726,1.9004035964035957,-6.53885514485515,-7.612660339660339
2.1667225589225585,1.9343176675176657,-6.32596966736968,-7.6442021830021805
2.174717845117845,1.9682317386317374,-6.113084189884198,-7.675744026344025
2.182713131313131,2.002145809745809,-5.9001987123987165,-7.707285869685869
2.190708417508417,2.036059880859879,-5.687313234913246,-7.738827713027711
2.1987037037037034,2.069973951973951,-5.474427757427764,-7.770369556369555
2.2066989898989897,2.1038880230880226,-5.261542279942283,-7.801911399711399
2.2146942760942756,2.1378020942020926,-5.048656802456813,-7.833453243053241
2.222689562289562,2.1717161653161643,-4.835771324971331,-7.864995086395085
2.2306848484848483,2.1222909090909106,-4.336393939393949,-7.646630303030308
2.238680134680134,2.076883838383826,-4.029569023568994,-8.204792929292822
2.2466754208754205,2.088971130661453,-3.931081865247461,-8.351253473806159
2.254670707070707,2.0920660801564024,-3.8061662647985246,-8.422351341370694
2.262665993265993,2.095161029651352,-3.681250664349589,-8.49344920893523
2.270661279461279,2.0982559791463014,-3.5563350639006597,-8.564547076499762
2.2786565656565654,2.101350928641251,-3.4314194634517237,-8.635644944064296
2.2866518518518517,2.1044458781362008,-3.3065038630027876,-8.706742811628832
2.2946471380471376,2.10754082763115,-3.1815882625538587,-8.777840679193364
2.302642424242424,2.1106357771260997,-3.0566726621049227,-8.8489385467579
2.3106377104377103,2.113730726621049,-2.9317570616559867,-8.920036414322436
2.318632996632996,2.1168256761159983,-2.806841461207058,-8.991134281886966
2.3266282828282825,2.119920625610948,-2.6819258607581213,-9.062232149451502
2.334623569023569,1.9965456994184305,-2.6073017447199263,-9.13528166513621
2.3426188552188547,1.614225650443855,-2.635648668503212,-9.21232715029078
2.350614141414141,1.257816336201522,-2.8276612794612777,-10.390088789125821
2.3586094276094274,1.2419244710479282,-2.862307519640852,-10.503108575466598
2.3666047138047137,1.2260326058943343,-2.896953759820426,-10.616128361807373
2.3745999999999996,1.2101407407407414,-2.931599999999998,-10.729148148148143
2.382595286195286,1.1942488755871477,-2.966246240179572,-10.84216793448892
2.3905905723905723,1.178357010433554,-3.0008924803591466,-10.955187720829695
2.398585858585858,1.1624651452799608,-3.0355387205387188,-11.068207507170465
2.4065811447811445,1.146573280126367,-3.0701849607182927,-11.18122729351124
2.414576430976431,1.1306814149727733,-3.104831200897867,-11.294247079852017
2.4225717171717167,1.1147895498191804,-3.1394774410774393,-11.407266866192787
2.430567003367003,1.0115878787878918,-3.3970251402917744,-12.067993265993184
2.4385622895622894,0.40718602693605077,-4.127488215488196,-13.6590791245791
2.4465575757575753,0.18615845198977582,-4.3215924059875865,-13.906620956553486
2.4545528619528616,0.20397927061782373,-4.32438593971847,-13.92174457019999
2.462548148148148,0.22180008924587163,-4.327179473449353,-13.936868183846496
2.470543434343434,0.23962090787391854,-4.329973007180236,-13.951991797493001
2.47853872053872,0.25744172650196645,-4.332766540911119,-13.967115411139506
2.4865340067340065,0.27526254513001436,-4.335560074642003,-13.982239024786011
2.4945292929292924,0.29308336375806127,-4.338353608372885,-13.997362638432516
2.5025245791245787,0.3109041823861092,-4.341147142103769,-14.012486252079022
2.510519865319865,0.32872500101415714,-4.343940675834652,-14.027609865725527
2.5185151515151514,0.346545819642205,-4.346734209565535,-14.042733479372034
2.5265104377104373,0.8911636363634902,-3.6552056116724696,-12.337128843995984
2.5345057239057236,0.8918802063185003,-2.7126128805788174,-9.62016653055377
2.54250101010101,0.9623067698259161,-3.0857545884375535,-9.540724006017625
2.550496296296296,1.0327333333333282,-3.458896296296269,-9.461281481481487
2.558491582491582,1.1031598968407441,-3.832038004155005,-9.381838956945344
2.5664868686868685,1.1735864603481598,-4.2051797120137415,-9.302396432409202
2.5744821548821544,1.244013023855572,-4.578321419872457,-9.222953907873062
2.5824774410774407,1.3144395873629877,-4.951463127731193,-9.14351138333692
2.590472727272727,1.3848661508704037,-5.324604835589929,-9.064068858800777
2.598468013468013,1.4552927143778156,-5.697746543448645,-8.984626334264638
2.6064632996632993,1.5257192778852315,-6.07088825130738,-8.905183809728495
2.6144585858585856,1.5961458413926475,-6.444029959166117,-8.825741285192352
2.622453872053872,1.6665724049000632,-6.817171667024853,-8.74629876065621
2.630449158249158,1.9532808080807522,-8.31503097643112,-6.538901683501932
2.638444444444444,1.8110472813238807,-8.083210401891252,-5.881479905437354
2.6464397306397305,1.5393776631563862,-8.137136055591375,-5.7037123719464145
2.6544350168350164,1.267708044988907,-8.191061709291494,-5.525944838455484
2.6624303030303027,0.9960384268214129,-8.244987362991617,-5.348177304964543
2.670425589225589,0.7243688086539186,-8.298913016691738,-5.1704097714736035
2.678420875420875,0.4526991904864395,-8.352838670391858,-4.992642237982673
2.6864161616161613,0.18102957231894523,-8.40676432409198,-4.814874704491733
2.6944114478114476,-0.09064004584854901,-8.460689977792104,-4.6371071710007925
2.7024067340067335,-0.36230966401602815,-8.514615631492223,-4.459339637509862
2.71040202020202,-0.6339792821835224,-8.568541285192346,-4.281572104018922
2.718397306397306,-0.9056489003510166,-8.622466938892469,-4.1038045705279815
2.726392592592592,-1.2130913580246496,-8.30167654321006,-4.059123456790072
2.7343878787878784,-1.4804869696969716,-7.250150969696967,-4.6370244242424254
2.7423831649831647,-1.4297169023569034,-7.326026235690234,-4.606402478114479
2.7503784511784506,-1.3789468350168381,-7.401901501683497,-4.575780531986534
2.758373737373737,-1.32817676767677,-7.477776767676764,-4.545158585858587
2.7663690235690233,-1.2774067003367018,-7.553652033670032,-4.514536639730641
2.7743643097643096,-1.2266366329966336,-7.629527299663299,-4.483914693602694
2.7823595959595955,-1.1758665656565683,-7.705402565656562,-4.453292747474749
2.790354882154882,-1.1250964983165002,-7.781277831649829,-4.422670801346802
2.798350168350168,-1.074326430976432,-7.8571530976430966,-4.392048855218857
2.806345454545454,-1.0235563636363665,-7.933028363636359,-4.361426909090911
2.8143407407407404,-0.9727862962962983,-8.008903629629627,-4.330804962962965
2.8223360269360267,-0.9220162289562301,-8.084778895622893,-4.3001830168350175
2.8303313131313126,-0.8712461616161649,-8.160654161616156,-4.2695610707070735
2.838326599326599,-1.6994531522117633,-8.438218081195085,-3.8114458376872196
2.8463218855218853,-1.8574289794496628,-8.565958860637016,-3.7733993033786155
2.854317171717171,-2.0154048066875534,-8.693699640078941,-3.7353527690700137
2.8623124579124575,-2.173380633925453,-8.821440419520872,-3.6973062347614096
2.870307744107744,-2.331356461163352,-8.949181198962803,-3.6592597004528056
2.87830303030303,-2.4893322884012514,-9.076921978404735,-3.6212131661442015
2.886298316498316,-2.647308115639142,-9.204662757846659,-3.5831666318355992
2.8942936026936024,-2.8052839428770415,-9.332403537288592,-3.545120097526995
2.9022888888888887,-2.9632597701149406,-9.460144316730522,-3.507073563218391
2.9102841750841746,-3.1212355973528316,-9.587885096172448,-3.4690270289097893
2.918279461279461,-3.2792114245907307,-9.715625875614379,-3.4309804946011853
2.9262747474747473,-3.5322511784511694,-10.446351515151468,-3.785673400673372
2.934270033670033,-0.7744660729155346,-8.934991405090338,-4.668251764961441
2.9422653198653195,-0.7866739292567245,-8.783510821476419,-4.704359509069185
2.950260606060606,-0.7988817855979143,-8.6320302378625,-4.74046725317693
2.9582558922558917,-0.8110896419391036,-8.480549654248588,-4.776574997284673
2.966251178451178,-0.8232974982802934,-8.329069070634668,-4.812682741392417
2.9742464646464644,-0.8355053546214833,-8.17758848702075,-4.848790485500162
2.9822417508417502,-0.8477132109626726,-8.026107903406839,-4.884898229607905
2.9902370370370366,-0.8599210673038624,-7.874627319792918,-4.9210059737156495
2.998232323232323,-0.8721289236450523,-7.7231467361789985,-4.957113717823394
3.006227609427609,-0.8843367799862416,-7.571666152565087,-4.993221461931137
3.014222895622895,-0.8965446363274314,-7.420185568951168,-5.029329206038882
3.0222181818181815,-0.9087524926686213,-7.268704985337248,-5.065436950146626
3.030213468013468,-0.7531203142536496,-6.818617882528999,-4.733911111111115
3.0382087542087537,-1.0544021698466035,-8.220984661429096,-4.596503179947643
3.04620404040404,-1.1590376767676858,-8.323491111111117,-4.359309595959593
3.0541993265993264,-0.9268745538720591,-8.16738314814815,-4.427769234006733
3.0621946127946122,-0.6947114309764453,-8.011275185185195,-4.496228872053868
3.0701898989898986,-0.4625483080808186,-7.855167222222229,-4.564688510101007
3.078185185185185,-0.2303851851851919,-7.699059259259264,-4.6331481481481465
3.086180471380471,0.0017779377104218952,-7.542951296296307,-4.701607786195281
3.094175757575757,0.23394106060604858,-7.386843333333341,-4.770067424242421
3.1021710437710435,0.46610418350167526,-7.230735370370375,-4.83852706228956
3.1101663299663294,0.6982673063972891,-7.074627407407419,-4.906986700336695
3.1181616161616157,0.9304304292929158,-6.9185194444444535,-4.9754463383838345
3.126156902356902,1.3445694725027355,-6.346534006734149,-4.855837037037095
3.1341521885521884,2.2633043771043773,-5.377749130190797,-4.676193883277216
3.1421474747474742,2.279294949494949,-5.3974042087542085,-4.699513468013467
3.1501427609427606,2.2952855218855217,-5.41705928731762,-4.722833052749719
3.158138047138047,2.3112760942760944,-5.436714365881032,-4.74615263748597
3.166133333333333,2.327266666666666,-5.4563694444444435,-4.7694722222222214
3.174128619528619,2.343257239057239,-5.4760245230078555,-4.792791806958473
3.1821239057239055,2.359247811447811,-5.495679601571268,-4.816111391694725
3.1901191919191914,2.375238383838383,-5.515334680134679,-4.839430976430975
3.1981144781144777,2.3912289562289555,-5.534989758698091,-4.862750561167227
3.206109764309764,2.407219528619528,-5.554644837261503,-4.886070145903479
3.21410505050505,2.4232101010101,-5.5742999158249145,-4.909389730639729
3.2221003367003362,2.4392006734006726,-5.593954994388326,-4.932709315375981
3.2300956228956226,2.487375757575684,-6.869121212121114,-6.686615488215375
3.2380909090909085,2.3859291754756877,-5.371197674418604,-9.54373255813953
3.246086195286195,2.379700289718895,-5.388582773471145,-9.608159689922477
3.254081481481481,2.373471403962102,-5.405967872523686,-9.672586821705423
3.262076767676767,2.3672425182053094,-5.423352971576226,-9.737013953488367
3.2700720538720534,2.3610136324485165,-5.440738070628767,-9.801441085271314
3.2780673400673397,2.3547847466917236,-5.458123169681309,-9.865868217054262
3.286062626262626,2.3485558609349306,-5.47550826873385,-9.930295348837209
3.294057912457912,2.342326975178138,-5.49289336778639,-9.994722480620151
3.3020531986531982,2.3360980894213457,-5.5102784668389315,-10.059149612403099
3.3100484848484846,2.3298692036645527,-5.527663565891473,-10.123576744186046
3.3180437710437705,2.3236403179077603,-5.545048664944012,-10.18800387596899
3.326039057239057,2.187990572390591,-5.612035016835009,-10.915006060605965
3.334034343434343,1.2919410448571746,-5.938954795264476,-14.762287303138907
3.342029629629629,1.2707062524890498,-5.8308035045798565,-15.084505933890858
3.3500249158249154,1.2494714601209236,-5.7226522138952305,-15.406724564642827
3.3580202020202017,1.2282366677527976,-5.614500923210605,-15.728943195394798
3.3660154882154876,1.2070018753846727,-5.5063496325259855,-16.05116182614675
3.374010774410774,1.1857670830165465,-5.3981983418413595,-16.37338045689872
3.3820060606060602,1.1645322906484206,-5.2900470511567335,-16.695599087650688
3.3900013468013466,1.1432974982802944,-5.181895760472107,-17.01781771840266
3.3979966329966325,1.1220627059121695,-5.073744469787488,-17.340036349154612
3.405991919191919,1.1008279135440433,-4.965593179102862,-17.66225497990658
3.413987205387205,1.0795931211759173,-4.8574418884182355,-17.98447361065855
3.421982491582491,1.0583583288077925,-4.749290597733616,-18.306692241410502
3.4299777777777773,2.52005185185183,-1.3696933333333865,-13.387677037037152
3.4379730639730637,2.9811133557800042,-0.25674949494953814,-11.009345903479328
3.4459683501683496,3.1084950644658043,0.5014705264022509,-7.814347162683738
3.453963636363636,2.955707095343687,0.1916044345898134,-7.982345676274937
3.4619589225589222,2.8029191262215694,-0.11826165722262405,-8.150344189866136
3.469954208754208,2.6501311570994606,-0.42812774903504436,-8.318342703457326
3.4779494949494945,2.497343187977343,-0.7379938408474819,-8.486341217048524
3.485944781144781,2.344555218855225,-1.0478599326599194,-8.654339730639723
3.4939400673400667,2.1917672497331164,-1.3577260244723397,-8.822338244230913
3.501935353535353,2.0389792806109988,-1.6675921162847769,-8.990336757822112
3.5099306397306393,1.886191311488881,-1.9774582080972145,-9.15833527141331
3.5179259259259252,1.733403342366772,-2.287324299909635,-9.326333785004499
3.5259212121212116,1.5806153732446546,-2.5971903917220724,-9.494332298595697
3.533916498316498,-0.6730408850408112,-4.774221837421766,-11.179923809523753
3.5419117845117842,-0.13987594123049074,-5.040752464034277,-9.777298668503219
3.54990707070707,0.01984807162533403,-5.225916023875103,-9.590590564738303
3.5579023569023565,0.17957208448116763,-5.411079583715938,-9.403882460973378
3.565897643097643,0.3392960973370013,-5.596243143556774,-9.217174357208453
3.5738929292929287,0.4990201101928261,-5.781406703397599,-9.030466253443539
3.581888215488215,0.6587441230486597,-5.9665702632384345,-8.843758149678614
3.5898835016835013,0.8184681359044934,-6.151733823079271,-8.657050045913689
3.5978787878787872,0.978192148760318,-6.336897382920096,-8.470341942148774
3.6058740740740736,1.1379161616161517,-6.522060942760931,-8.28363383838385
3.61386936026936,1.2976401744719854,-6.7072245026017665,-8.096925734618925
3.621864646464646,1.4573641873278103,-6.892388062442592,-7.91021763085401
3.629859932659932,1.7970814814814915,-7.7577521885521366,-6.071707070707118
3.6378552188552185,-0.858876602280111,-9.044219918483076,-4.657152696556205
3.645850505050505,-0.8613312954102428,-9.036435034556089,-4.699583820662768
3.6538457912457907,-0.8637859885403744,-9.0286501506291,-4.742014944769329
3.661841077441077,-0.8662406816705062,-9.02086526670211,-4.7844460688758925
3.6698363636363633,-0.8686953748006379,-9.01308038277512,-4.826877192982455
3.6778316498316492,-0.8711500679307695,-9.005295498848131,-4.869308317089017
3.6858269360269356,-0.8736047610609012,-8.997510614921142,-4.9117394411955795
3.693822222222222,-0.876059454191033,-8.989725730994152,-4.954170565302143
3.701817508417508,-0.8785141473211647,-8.981940847067163,-4.9966016894087035
3.709812794612794,-0.8809688404512964,-8.974155963140173,-5.039032813515267
3.7178080808080805,-0.8834235335814282,-8.966371079213184,-5.08146393762183
3.7258033670033663,-0.8858782267115598,-8.958586195286196,-5.123895061728391
3.7337986531986527,-0.8883329198416916,-8.950801311359207,-5.166326185834954
3.741793939393939,-0.8907876129718234,-8.943016427432218,-5.208757309941518
3.749789225589225,-1.08688641975291,-9.26510707070677,-5.016809203142746
3.7577845117845112,-1.4498959970071144,-9.942233819678268,-4.6080091657313895
3.7657797979797976,-1.3630583052749767,-9.904700392817062,-4.593240095398429
3.7737750841750834,-1.276220613542844,-9.867166965955859,-4.578471025065471
3.78177037037037,-1.1893829218107064,-9.829633539094653,-4.563701954732512
3.789765656565656,-1.1025452300785687,-9.792100112233449,-4.5489328843995525
3.7977609427609424,-1.0157075383464311,-9.754566685372243,-4.534163814066592
3.8057562289562283,-0.9288698466142983,-9.717033258511039,-4.519394743733634
3.8137515151515147,-0.8420321548821607,-9.679499831649835,-4.504625673400675
3.821746801346801,-0.755194463150023,-9.64196640478863,-4.489856603067715
3.829742087542087,0.2539095538720728,-9.541966708754225,-3.4228311868687777
3.8377373737373732,-0.04941161616160217,-9.27562373737375,-1.967189393939461
3.8457326599326596,0.4008659932658228,-8.431113804713963,0.571256565656219
3.8537279461279454,1.0523564085297357,-8.039948624017924,0.8725536430976233
3.861723232323232,1.1104554882154831,-8.351018558922531,1.0561254141413983
3.869718518518518,1.1685545679012308,-8.66208849382714,1.239697185185173
3.877713804713804,1.226653647586975,-8.97315842873173,1.4232689562289376
3.8857090909090903,1.2847527272727226,-9.284228363636338,1.6068407272727125
3.8937043771043767,1.34285180695847,-9.595298298540946,1.7904124983164875
3.901699663299663,1.4009508866442177,-9.906368233445555,1.9739842693602623
3.909694949494949,1.459049966329962,-10.217438168350144,2.1575560404040273
3.9176902356902352,1.5171490460157095,-10.528508103254753,2.3411278114478016
3.9256855218855216,2.0863545454544057,-13.855976767675942,2.9764868686867376
3.9336808080808074,2.0821901051329728,-14.44126720263863,2.990094660894669
3.941676094276094,1.9762117707689222,-14.45195477908335,2.9089996151996216
3.94967138047138,1.8702334364048716,-14.462642355528068,2.8279045695045744
3.957666666666666,1.7642551020408268,-14.473329931972787,2.7468095238095316
3.9656619528619523,1.6582767676767762,-14.484017508417507,2.6657144781144844
3.9736572390572387,1.5522984333127254,-14.494705084862227,2.584619432419437
3.9816525252525246,1.4463200989486809,-14.505392661306946,2.5035243867243944
3.989647811447811,1.34034176458463,-14.516080237751664,2.422429341029347
3.997643097643097,1.2343634302205795,-14.526767814196385,2.3413342953343
4.0056383838383836,1.128385095856529,-14.537455390641103,2.2602392496392527
4.01363367003367,1.0224067614924781,-14.548142967085823,2.1791442039442055
4.021628956228955,0.9164284271284393,-14.558830543530542,2.0980491582491676
4.029624242424242,2.5538565656565297,-7.813240404041105,3.06283434343421
4.037619528619528,3.3665877291432937,-1.9117472876917638,-0.4451118593340427
4.045614814814814,3.1977983539094708,-1.3169868312757407,-1.1787237860082054
4.053610101010101,3.0290089786756482,-0.7222263748597173,-1.9123357126823683
4.061605387205387,2.8602196034418252,-0.12746591844369393,-2.6459476393565313
4.069600673400672,2.691430228208021,0.46729453797226306,-3.3795595660306126
4.077595959595959,2.522640852974198,1.0620549943882862,-4.113171492704776
4.085591245791245,2.353851477740375,1.6568154508043094,-4.846783419378938
4.093586531986531,2.1850621025065524,2.2515759072203325,-5.580395346053101
4.101581818181818,2.0162727272727294,2.8463363636363557,-6.314007272727264
4.109577104377104,1.8474833520389067,3.441096820052379,-7.047619199401427
4.11757239057239,1.6786939768050837,4.035857276468402,-7.78123112607559
4.125567676767676,3.1569232323221277,9.485103030299628,-7.986919191919455
4.133562962962962,0.19725909996015048,8.872775388291512,-2.693985185185216
4.1415582491582486,0.40083800007238746,8.92822656674269,-2.4381360269360535
4.149553535353535,0.6044169001846245,8.98367774519387,-2.182286868686891
4.157548821548821,0.8079958002968615,9.039128923645048,-1.926437710437728
4.1655441077441075,1.0115747004090985,9.094580102096229,-1.6705885521885653
4.173539393939393,1.215153600521313,9.150031280547402,-1.414739393939431
4.181534680134679,1.41873250063355,9.205482458998581,-1.1588902356902682
4.189529966329966,1.622311400745787,9.26093363744976,-0.9030410774411055
4.197525252525252,1.825890300858024,9.316384815900939,-0.6471919191919429
4.205520538720538,2.0294692009702606,9.37183599435212,-0.3913427609427802
4.213515824915825,2.233048101082498,9.427287172803299,-0.13549360269361754
4.221511111111111,2.436627001194735,9.482738351254477,0.12035555555554511
4.229506397306396,-0.9037231098863813,5.1244909090916035,0.5890945821858622
4.237501683501683,-3.93357070707079,-2.6604343434313775,-2.008188552189387
4.245496969696969,-4.1244586328400015,-8.48211261451726,-0.4655780126849841
4.253492255892255,-4.555739245164806,-8.599159885678485,-0.5512019497298526
4.261487542087542,-4.98701985748961,-8.716207156839712,-0.636825886774721
4.269482828282828,-5.418300469814414,-8.833254428000938,-0.7224498238195894
4.2774781144781135,-5.849581082139171,-8.950301699162152,-0.8080737608644484
4.2854734006734,-6.280861694463975,-9.067348970323378,-0.8936976979093169
4.293468686868686,-6.712142306788779,-9.184396241484604,-0.9793216349541852
4.3014639730639725,-7.143422919113584,-9.30144351264583,-1.0649455719990537
4.309459259259259,-7.574703531438388,-9.418490783807057,-1.150569509043922
4.317454545454545,-8.005984143763193,-9.535538054968283,-1.2361934460887904
4.325449831649831,-9.848412794609853,-7.9325912457947565,-2.4744168350144635
4.333445117845117,-36.828439238261375,-15.344641186053593,-28.833505818037356
4.341440404040403,-32.83732992288532,-18.489109872922334,-26.569120408385242
4.34943569023569,-28.846220607509267,-21.63357855979108,-24.304734998733124
4.357430976430976,-24.855111292133216,-24.77804724665982,-22.04034958908101
4.365426262626262,-20.864001976757162,-27.922515933528565,-19.775964179428893
4.373421548821549,-16.872892661381112,-31.066984620397307,-17.511578769776776
4.381416835016834,-12.881783346005502,-34.2114533072657,-15.247193360124912
4.38941212121212,-8.890674030629452,-37.35592199413444,-12.982807950472797
4.397407407407407,-4.899564715253398,-40.50039068100318,-10.71842254082068
4.405402693602693,-0.9084553998773472,-43.64485936787193,-8.454037131168565
4.413397979797979,3.082653915498703,-46.789328054740665,-6.189651721516448
4.421393265993266,7.073763230874761,-49.93379674160941,-3.925266311864334
4.429388552188551,12.001998922561514,3.9546424242302436,-7.7422521212195505
4.4373838383838375,-1.897136752136749,20.801953379953595,-11.906201243201405
4.445379124579124,-1.93386235246235,18.306896925297103,-10.000687320087454
4.45337441077441,-1.9705879527879508,15.811840470640607,-8.0951733969735
4.4613696969696965,-2.0073135531135518,13.316784015984116,-6.18965947385955
4.469364983164983,-2.0440391534391527,10.821727561327624,-4.284145550745597
4.477360269360268,-2.080764753764749,8.326671106671407,-2.378631627631856
4.485355555555555,-2.11749035409035,5.831614652014913,-0.4731177045179056
4.493350841750841,-2.154215954415951,3.3365581973584213,1.4323962185960468
4.501346127946127,-2.190941554741552,0.8415017427019293,3.337910141710001
4.509341414141414,-2.2276671550671527,-1.6535547119545626,5.243424064823952
4.5173367003367,-2.2643927553927536,-4.148611166611055,7.148937987937902
4.525331986531986,-7.985880471381679,-30.788319865321448,-3.4960695286197874
4.533327272727272,-1.2296578336557937,-0.19870309477752673,-2.8841249516442393
4.541322558922558,-0.6425146357189649,-0.44068808653911995,-1.9520787162405353
4.549317845117844,-0.05537143778213616,-0.6826730783007131,-1.0200324808368313
4.557313131313131,0.5317717601546923,-0.9246580700623063,-0.08798624543312705
4.565308417508417,1.1189149580915212,-1.1666430618238994,0.8440599899705767
4.573303703703703,1.70605815602835,-1.4086280535854927,1.776106225374281
4.581298989898989,2.293201353965113,-1.650613045347059,2.7081524607778813
4.589294276094275,2.880344551901942,-1.8925980371086522,3.6401986961815855
4.5972895622895615,3.467487749838771,-2.134583028870245,4.57224493158529
4.605284848484848,4.0546309477756,-2.3765680206318383,5.504291166988994
4.613280134680134,4.641774145712428,-2.6185530123934315,6.436337402392697
4.6212754208754205,5.228917343649257,-2.860538004155025,7.368383637796402
4.629270707070707,4.352194545454591,-1.9341866666667094,2.7689573737375817
4.637265993265992,1.7958707070705664,-11.792288888888363,-1.974061279461153
4.645261279461279,2.9907328323889284,-16.175029802085916,-2.912031789439153
4.653256565656565,3.002335747721112,-16.042717565902947,-2.5909527962552756
4.661251851851851,3.0139386630532963,-15.910405329719977,-2.2698738030713983
4.669247138047138,3.02554157838548,-15.778093093537008,-1.948794809887521
4.677242424242424,3.0371444937176637,-15.645780857354037,-1.6277158167036436
4.685237710437709,3.048747409049846,-15.51346862117108,-1.3066368235198018
4.693232996632996,3.0603503243820303,-15.38115638498811,-0.9855578303359245
4.701228282828282,3.071953239714214,-15.24884414880514,-0.6644788371520471
4.709223569023568,3.0835561550463977,-15.11653191262217,-0.3433998439681698
4.717218855218855,3.0951590703785814,-14.9842196764392,-0.022320850784292467
4.725214141414141,3.96643030303029,-8.781347186147165,5.813252525252535
4.733209427609427,-5.393358249157698,-0.5957151515145358,11.418745454545308
4.741204713804713,-7.012964646464654,-2.8497304077814705,10.83888734006747
4.749199999999999,-6.953000000000006,-3.2744577777777373,9.69796000000011
4.7571952861952855,-6.893035353535359,-3.6991851477740045,8.557032659932748
4.765190572390572,-6.833070707070711,-4.123912517770272,7.416105319865387
4.773185858585858,-6.773106060606064,-4.548639887766538,6.275177979798025
4.7811811447811445,-6.713141414141416,-4.9733672577628045,5.134250639730664
4.78917643097643,-6.653176767676775,-5.398094627759025,3.9933232996634294
4.797171717171716,-6.593212121212127,-5.822821997755292,2.852395959596068
4.805167003367003,-6.53324747474748,-6.247549367751558,1.7114686195287057
4.813162289562289,-6.473282828282832,-6.672276737747826,0.5705412794613451
4.821157575757575,-6.413318181818184,-7.097004107744093,-0.5703860606060172
4.829152861952862,2.1552417508418915,-10.40268686868714,-8.271321212121423
4.837148148148147,-0.3073492500765596,-5.417721456994171,-4.528277930823343
4.845143434343433,-0.10363464396029631,-5.492784639786281,-4.762718223557855
4.85313872053872,0.10007996215596698,-5.567847822578391,-4.997158516292368
4.861134006734006,0.3037945682722302,-5.642911005370501,-5.23159880902688
4.869129292929292,0.5075091743884934,-5.717974188162611,-5.4660391017613925
4.877124579124579,0.7112237805047568,-5.793037370954721,-5.700479394495906
4.885119865319865,0.9149383866210201,-5.868100553746831,-5.934919687230418
4.8931151515151505,1.1186529927372608,-5.943163736538933,-6.169359979964905
4.901110437710437,1.3223675988535242,-6.018226919331043,-6.403800272699417
4.909105723905723,1.5260822049697873,-6.093290102123152,-6.63824056543393
4.9171010101010095,1.7297968110860507,-6.168353284915263,-6.872680858168442
4.925096296296296,1.9335114172023138,-6.243416467707373,-7.107121150902955
4.933091582491582,2.1372260233185774,-6.318479650499483,-7.341561443637467
4.941086868686868,2.340940629434818,-6.393542833291584,-7.576001736371953
4.949082154882154,2.544655235551081,-6.468606016083694,-7.810442029106467
4.95707744107744,7.059144781147986,1.0507474747462229,-14.093191919191234
4.965072727272727,-3.038640579710142,4.89183899868248,-15.993083267457191
4.973068013468013,-3.1329617820719258,4.79288284780169,-15.677211525886893
4.981063299663299,-3.2272829844337094,4.693926696920899,-15.361339784316595
4.989058585858585,-3.321604186795483,4.59497054604012,-15.045468042746332
4.997053872053871,-3.4159253891572665,4.49601439515933,-14.729596301176034
5.005049158249157,-3.51024659151905,4.39705824427854,-14.413724559605736
5.013044444444444,-3.6045677938808343,4.298102093397749,-14.097852818035438
5.02103973063973,-3.698888996242618,4.199145942516959,-13.78198107646514
5.029035016835016,0.17328181818049027,-2.0567353535332824,-11.994840404040913
5.037030303030303,3.063516853932597,0.03749063670412036,-5.910720463057548
5.045025589225588,2.8174596754057775,0.027608822305452904,-5.783604396020144
5.0530208754208745,2.5714024968789304,0.01772700790678435,-5.656488328982726
5.061016161616161,2.3253453183520834,0.007845193508115793,-5.529372261945308
5.069011447811447,2.0792881398252363,-0.0020366208905527594,-5.402256194907889
5.0770067340067335,1.8332309612983892,-0.011918435289221319,-5.275140127870471
5.08500202020202,1.5871737827715424,-0.02180024968788987,-5.148024060833053
5.092997306397305,1.3411166042447227,-0.031682064086557334,-5.020907993795649
5.100992592592592,1.0950594257178756,-0.04156387848522589,-4.89379192675823
5.108987878787878,0.8490022471910286,-0.05144569288389444,-4.766675859720812
5.116983164983164,0.602945068664182,-0.061327507282563,-4.639559792683394
5.124978451178451,0.839044444444196,-1.4951141414133584,-5.809281818181114
5.132973737373737,1.926432323232257,-4.240016161616027,-10.698375757575377
5.140969023569023,2.8453906631861696,-4.1467413082132225,-12.203708568834411
5.148964309764309,2.738756902356914,-3.790097643097682,-12.183226262626265
5.156959595959595,2.632123141527646,-3.4334539779821025,-12.162743956418115
5.164954882154881,2.525489380698378,-3.076810312866523,-12.142261650209965
5.172950168350168,2.4188556198691105,-2.720166647750943,-12.121779344001817
5.180945454545454,2.312221859039843,-2.3635229826353634,-12.101297037793667
5.18894074074074,2.205588098210575,-2.0068793175197834,-12.08081473158552
5.196936026936026,2.098954337381319,-1.6502356524042434,-12.060332425377371
5.204931313131312,1.9923205765520513,-1.2935919872886639,-12.039850119169223
5.2129265993265985,1.8856868157227835,-0.9369483221730839,-12.019367812961073
5.220921885521885,1.7790530548935157,-0.5803046570575043,-11.998885506752924
5.228917171717171,1.4088333333334073,2.240503030303154,-8.66920101010105
5.2369124579124575,0.32926905065985507,-2.526018421765545,-9.267685359340533
5.244907744107744,0.3403889314601957,-2.6839023491621177,-9.26492836410078
5.252903030303029,0.35150881226053515,-2.8417862765586728,-9.262171368861026
5.260898316498316,0.36262869306087586,-2.999670203955245,-9.25941437362127
5.268893602693602,0.3737485738612165,-3.157554131351818,-9.256657378381517
5.276888888888888,0.3848684546615572,-3.3154380587483905,-9.253900383141763
5.284884175084175,0.3959883354618979,-3.4733219861449633,-9.251143387902008
5.292879461279461,0.4071082162622386,-3.6312059135415358,-9.248386392662255
5.300874747474746,0.418228097062578,-3.789089840938091,-9.245629397422501
5.308870033670033,0.4293479778629187,-3.9469737683346633,-9.242872402182748
5.316865319865319,0.4404678586632594,-4.104857695731236,-9.240115406942992
5.324860606060605,0.9495030303028023,-5.662387878787224,-9.786878787878537
5.332855892255892,0.19877586980921222,-5.884782105780046,-9.474100505050524
5.340851178451178,0.10949517396184824,-5.6604976711560235,-9.288210101010117
5.3488464646464635,0.020214478114494172,-5.436213236532026,-9.10231969696973
5.35684175084175,-0.0690662177328698,-5.211928801908005,-8.916429292929323
5.364837037037036,-0.15834691358023378,-4.987644367283984,-8.730538888888915
5.3728323232323225,-0.24762760942759776,-4.763359932659962,-8.544648484848508
5.380827609427609,-0.33690830527496174,-4.53907549803594,-8.358758080808101
5.388822895622895,-0.4261890011223257,-4.314791063411919,-8.172867676767694
5.3968181818181815,-0.5154696969696897,-4.090506628787898,-7.986977272727288
5.404813468013467,-0.6047503928170437,-3.8662221941639006,-7.801086868686902
5.412808754208753,-0.6940310886644077,-3.641937759539879,-7.615196464646495
5.42080404040404,-0.7833117845117717,-3.4176533249158574,-7.429306060606088
5.428799326599326,1.8937730639728665,-0.16925679012348302,-9.780990572390383
5.436794612794612,2.5159995701697877,-0.09647954724550369,-10.51136141557418
5.444789898989899,2.3524364281108987,-0.12999170427681012,-10.51178669675478
5.452785185185184,2.188873286052028,-0.16350386130811284,-10.512211977935381
5.46078047138047,2.025310143993139,-0.19701601833941929,-10.512637259115982
5.468775757575757,1.86174700193425,-0.23052817537072573,-10.513062540296582
5.476771043771043,1.6981838598753607,-0.2640403324020322,-10.513487821477183
5.484766329966329,1.5346207178164717,-0.29755248943333856,-10.513913102657783
5.492761616161616,1.3710575757575827,-0.331064646464645,-10.514338383838384
5.500756902356901,1.207494433698712,-0.36457680349594773,-10.514763665018984
5.5087521885521875,1.043931291639823,-0.3980889605272542,-10.515188946199585
5.516747474747474,0.8803681495809339,-0.4316011175585606,-10.515614227380185
5.52474276094276,0.6844632996633447,-0.6688589225587265,-10.213696296296582
5.5327380471380465,0.8388690716690379,-1.614835882635797,-9.434403270803308
5.540733333333333,3.9334061302682,-2.391038314176246,-8.884531034482757
5.548728619528619,3.905376678664035,-2.365765857811835,-8.88204973876698
5.556723905723905,3.877347227059874,-2.3404934014474272,-8.879568443051202
5.564719191919191,3.849317775455709,-2.3152209450830163,-8.877087147335423
5.572714478114477,3.8212883238515447,-2.289948488718606,-8.874605851619645
5.580709764309764,3.7932588722473803,-2.264676032354195,-8.872124555903866
5.58870505050505,3.7652294206432155,-2.2394035759897846,-8.869643260188088
5.596700336700336,3.737199969039051,-2.2141311196253737,-8.86716196447231
5.604695622895622,3.70917051743489,-2.188858663260966,-8.864680668756531
5.612690909090908,3.681141065830725,-2.1635862068965555,-8.862199373040752
5.620686195286194,3.6531116142265607,-2.1383137505321446,-8.859718077324974
5.628681481481481,3.785427160493755,-2.469775308641982,-8.851809876543188
5.636676767676767,4.166149245261605,-2.8714695267279535,-8.578244921121325
5.644672053872053,4.171629160519048,-2.8784766314833727,-8.579412771913894
5.65266734006734,4.1771090757764915,-2.8854837362387924,-8.580580622706465
5.660662626262625,4.182588991033934,-2.892490840994211,-8.581748473499035
5.6686579124579115,4.188068906291377,-2.8994979457496304,-8.582916324291604
5.676653198653198,4.193548821548821,-2.90650505050505,-8.584084175084174
5.684648484848484,4.199028736806264,-2.9135121552604692,-8.585252025876745
5.6926437710437705,4.204508652063708,-2.920519260015889,-8.586419876669314
5.700639057239057,4.209988567321151,-2.927526364771308,-8.587587727461884
5.708634343434342,4.215468482578594,-2.934533469526727,-8.588755578254453
5.716629629629629,4.220948397836038,-2.941540574282146,-8.589923429047024
5.724624915824915,4.205169472502843,-2.9375847362514214,-8.591
5.732620202020201,4.116337557392131,-2.5826955004592094,-8.646977226813553
5.740615488215488,3.8757521273339726,-1.9728732170187402,-8.968969207223717
5.748610774410774,3.7959178130511475,-1.7805799903799917,-9.063263331729997
5.75660606060606,3.784400793650794,-1.7657316017316027,-9.0607886002886
5.764601346801346,3.7728837742504426,-1.7508832130832155,-9.058313868847202
5.772596632996632,3.7613667548500898,-1.7360348244348265,-9.055839137405805
5.780591919191918,3.749849735449737,-1.7211864357864375,-9.053364405964405
5.788587205387205,3.7383327160493836,-1.7063380471380485,-9.050889674523008
5.796582491582491,3.7268156966490307,-1.6914896584896597,-9.04841494308161
5.804577777777777,3.715298677248678,-1.6766412698412707,-9.045940211640211
5.812573063973063,3.703781657848326,-1.6617928811928833,-9.043465480198813
5.820568350168349,3.692264638447973,-1.6469444925444945,-9.040990748757416
5.8285636363636355,3.458618181818274,-1.2237636363638063,-8.957690909090942
5.836558922558922,2.4326693602693608,-1.1858835016835008,-9.306842424242424
5.844554208754208,2.428511811447812,-1.207390821548821,-9.31259903030303
5.8525494949494945,2.424354262626263,-1.2288981414141409,-9.318355636363636
5.86054478114478,2.4201967138047147,-1.2504054612794586,-9.324112242424242
5.868540067340066,2.4160391649831654,-1.2719127811447788,-9.329868848484848
5.876535353535353,2.4118816161616166,-1.293420101010099,-9.335625454545454
5.884530639730639,2.4077240673400677,-1.314927420875419,-9.34138206060606
5.892525925925925,2.403566518518519,-1.336434740740739,-9.347138666666666
5.900521212121212,2.39940896969697,-1.3579420606060593,-9.352895272727272
5.908516498316498,2.395251420875421,-1.3794493804713794,-9.358651878787878
5.916511784511783,2.391093872053873,-1.4009567003366972,-9.364408484848484
5.92450707070707,2.386936323232324,-1.4224640202020171,-9.37016509090909
5.932502356902356,2.382778774410775,-1.4439713400673373,-9.375921696969696
5.940497643097642,3.034818855218792,-2.255976430976423,-9.07994276094274
5.948492929292929,3.307706666666666,-2.2893151515151517,-9.158148282828282
5.956488215488215,3.3143027777777774,-2.2863169191919193,-9.145955471380471
5.9644835016835005,3.320898888888888,-2.283318686868687,-9.13376265993266
5.972478787878787,3.327494999999999,-2.2803204545454547,-9.12156984848485
5.980474074074073,3.3340911111111105,-2.2773222222222227,-9.109377037037037
5.9884693602693595,3.3406872222222215,-2.27432398989899,-9.097184225589226
5.996464646464646,3.347283333333333,-2.2713257575757577,-9.084991414141415
6.004459932659932,3.353879444444444,-2.2683275252525257,-9.072798602693602
6.012455218855218,3.3604755555555545,-2.2653292929292936,-9.060605791245793
6.020450505050504,3.367071666666666,-2.262331060606061,-9.04841297979798
6.02844579124579,3.507349270482622,-1.9888792368126105,-8.896518294051596
6.036441077441077,3.4800782741504395,-1.920856190773719,-8.935547051268701
6.044436363636363,3.476451546391753,-1.9032995313964405,-8.93126091846298
6.052431649831649,3.4728248186330664,-1.8857428720191622,-8.92697478565726
6.060426936026936,3.46919809087438,-1.868186212641884,-8.92268865285154
6.068422222222221,3.4655713631156937,-1.8506295532646075,-8.91840252004582
6.076417508417507,3.461944635357007,-1.8330728938873293,-8.9141163872401
6.084412794612794,3.4583179075983206,-1.8155162345100508,-8.909830254434379
6.09240808080808,3.454691179839634,-1.7979595751327726,-8.905544121628658
6.100403367003366,3.451064452080947,-1.7804029157554941,-8.901257988822938
6.108398653198653,3.4474377243222607,-1.762846256378216,-8.896971856017217
6.116393939393938,3.4438109965635744,-1.7452895970009394,-8.892685723211498
6.1243892255892245,3.440184268804888,-1.7277329376236612,-8.888399590405777
6.132384511784511,3.5120013468013593,-1.635454152637477,-9.062332884399547
6.140379797979797,3.4080626262626406,-1.7107430976430873,-9.09697912457912
6.1483750841750835,3.3718397388519366,-1.76953716022008,-9.1005014781966
6.15637037037037,3.3528265582655847,-1.8241391147244745,-9.09611382113821
6.164365656565656,3.333813377679233,-1.8787410692288693,-9.091726164079823
6.172360942760942,3.3148001970928833,-1.9333430237332578,-9.087338507021434
6.180356228956228,3.295787016506532,-1.9879449782376524,-9.082950849963044
6.188351515151514,3.27677383592018,-2.042546932742047,-9.078563192904657
6.196346801346801,3.2577606553338283,-2.0971488872464414,-9.074175535846267
6.204342087542087,3.238747474747477,-2.151750841750836,-9.069787878787878
6.212337373737373,3.219734294161125,-2.2063527962552305,-9.06540022172949
6.220332659932659,3.2007211135747755,-2.2609547507596193,-9.0610125646711
6.228327946127945,3.135736700336719,-2.5139384960717535,-8.972441077441106
6.236323232323231,3.1178075377430208,-2.607575323123709,-8.939815900944932
6.244318518518518,3.1226219036240535,-2.6146249303066496,-8.940847550776583
6.252313804713804,3.127436269505086,-2.6216745374895902,-8.941879200608232
6.26030909090909,3.1322506353861184,-2.628724144672531,-8.942910850439883
6.268304377104377,3.137065001267151,-2.6357737518554716,-8.943942500271532
6.276299663299662,3.1418793671481833,-2.6428233590384114,-8.944974150103182
6.2842949494949485,3.146693733029216,-2.649872966221352,-8.946005799934833
6.292290235690235,3.1515080989102486,-2.6569225734042927,-8.947037449766482
6.300285521885521,3.1563224647912813,-2.6639721805872334,-8.948069099598133
6.3082808080808075,3.161136830672314,-2.671021787770174,-8.949100749429782
6.316276094276094,3.1659511965533467,-2.6780713949531147,-8.950132399261431
6.324271380471379,3.099438383838465,-2.5797468013469214,-8.935107744107762
6.332266666666666,3.053284210526316,-2.2518463157894764,-9.068854736842106
6.340261952861952,3.050759383306752,-2.2336675598086146,-9.064815013290804
6.348257239057238,3.0482345560871877,-2.215488803827753,-9.060775289739501
6.356252525252525,3.0457097288676236,-2.1973100478468917,-9.056735566188198
6.364247811447811,3.0431849016480594,-2.17913129186603,-9.052695842636895
6.372243097643096,3.0406600744284957,-2.1609525358851704,-9.048656119085594
6.380238383838383,3.0381352472089316,-2.1427737799043087,-9.044616395534291
6.388233670033669,3.0356104199893674,-2.124595023923447,-9.040576671982988
6.396228956228955,3.0330855927698037,-2.1064162679425853,-9.036536948431685
6.404224242424242,3.0305607655502396,-2.088237511961724,-9.032497224880384
6.412219528619528,3.0280359383306754,-2.0700587559808623,-9.02845750132908
6.420214814814814,3.0255111111111113,-2.0518800000000006,-9.024417777777778
6.4282101010101,3.0318656565656488,-2.026478787878802,-9.080084848484791
6.436205387205386,3.08,-2.123,-9.034
6.4442006734006725,3.08,-2.123,-9.034
6.452195959595959,3.08,-2.123,-9.034
6.460191245791245,3.08,-2.123,-9.034
6.4681865319865315,3.08,-2.123,-9.034
6.476181818181817,3.08,-2.123,-9.034
6.484177104377103,3.08,-2.123,-9.034
6.49217239057239,3.08,-2.123,-9.034
6.500167676767676,3.08,-2.123,-9.034
6.508162962962962,3.08,-2.123,-9.034
6.516158249158249,3.08,-2.123,-9.034
6.524153535353534,3.093204040403921,-2.168753535353122,-9.043365656565573
6.53214882154882,3.1567065319865337,-2.4374422895622865,-9.026371313131326
6.540144107744107,3.209,-2.526,-9.012
6.548139393939393,3.209,-2.526,-9.012
6.556134680134679,3.209,-2.526,-9.012
6.564129966329966,3.209,-2.526,-9.012
6.572125252525252,3.209,-2.526,-9.012
6.5801205387205375,3.209,-2.526,-9.012
6.588115824915824,3.209,-2.526,-9.012
6.59611111111111,3.209,-2.526,-9.012
6.6041063973063965,3.209,-2.526,-9.012
6.612101683501683,3.209,-2.526,-9.012
6.620096969696969,3.209,-2.526,-9.012
6.628092255892255,3.112222446689155,-2.384290011223406,-8.989897867564544
6.636087542087541,3.042767350928641,-2.2712287027985965,-8.971643532095145
6.644082828282827,3.045088563049853,-2.25970861301184,-8.968548582600196
6.652078114478114,3.047409775171065,-2.248188523225083,-8.965453633105247
6.6600734006734,3.0497309872922775,-2.236668433438327,-8.962358683610297
6.668068686868686,3.0520521994134895,-2.22514834365157,-8.959263734115348
6.676063973063973,3.054373411534702,-2.2136282538648135,-8.956168784620399
6.684059259259258,3.056694623655914,-2.202108164078058,-8.95307383512545
6.692054545454544,3.0590158357771258,-2.1905880742913015,-8.9499788856305
6.700049831649831,3.061337047898338,-2.179067984504545,-8.94688393613555
6.708045117845117,3.06365826001955,-2.167547894717788,-8.9437889866406
6.716040404040403,3.0659794721407625,-2.1560278049310315,-8.94069403714565
6.72403569023569,3.0964814814814736,-2.188463299663288,-8.94421414141414
6.732030976430975,3.063649326599332,-2.2072688552188287,-9.056639393939387
6.7400262626262615,3.055750720690046,-2.2642852570650303,-9.05983452502554
6.748021548821548,3.0585355956569433,-2.2758739303143782,-9.043664283282263
6.756016835016834,3.061320470623841,-2.2874626035637258,-9.027494041538988
6.7640121212121205,3.0641053455907383,-2.2990512768130733,-9.011323799795711
6.772007407407407,3.066890220557636,-2.310639950062421,-8.995153558052436
6.780002693602693,3.0696750955245333,-2.322228623311769,-8.97898331630916
6.787997979797979,3.0724599704914306,-2.333817296561115,-8.962813074565886
6.795993265993265,3.0752448454583283,-2.3454059698104626,-8.946642832822612
6.803988552188551,3.0780297204252256,-2.3569946430598105,-8.930472591079335
6.811983838383838,3.0808145953921233,-2.368583316309158,-8.91430234933606
6.819979124579124,3.0835994703590206,-2.3801719895585056,-8.898132107592783
6.82797441077441,3.086155555555538,-2.317738271604906,-9.046938945005625
6.835969696969696,3.1486350602802227,-2.4402769631801897,-8.992003258390357
6.843964983164982,3.14278904456754,-2.4352906556605487,-8.982632439086204
6.851960269360268,3.1369430288548577,-2.430304348140908,-8.973261619782052
6.859955555555555,3.131097013142175,-2.425318040621267,-8.963890800477898
6.867950841750841,3.1252509974294926,-2.420331733101626,-8.954519981173746
6.875946127946127,3.1194049817168104,-2.415345425581985,-8.945149161869594
6.883941414141413,3.1135589660041285,-2.410359118062345,-8.935778342565442
6.891936700336699,3.107712950291446,-2.405372810542704,-8.92640752326129
6.8999319865319855,3.1018669345787635,-2.400386503023063,-8.917036703957136
6.907927272727272,3.0960209188660808,-2.395400195503422,-8.907665884652983
6.915922558922558,3.0901749031533985,-2.3904138879837813,-8.89829506534883
6.9239178451178445,3.0818385334829803,-2.372844219977564,-8.90835690235689
6.931913131313131,3.054299214365884,-2.2582451178451306,-9.068262626262609
6.939908417508416,3.1072117580297363,-2.326187364279502,-9.073373926531232
6.947903703703703,3.103438701622972,-2.3088492717436564,-9.060347898460261
6.955898989898989,3.0996656452162075,-2.2915111792078107,-9.047321870389288
6.963894276094275,3.095892588809443,-2.274173086671965,-9.034295842318317
6.971889562289562,3.0921195324026787,-2.256834994136119,-9.021269814247344
6.979884848484848,3.0883464759959143,-2.2394969016002735,-9.008243786176372
6.987880134680133,3.0845734195891503,-2.2221588090644295,-8.995217758105401
6.99587542087542,3.080800363182386,-2.204820716528584,-8.98219173003443
7.003870707070706,3.077027306775622,-2.187482623992738,-8.969165701963457
7.011865993265992,3.0732542503688576,-2.1701445314568923,-8.956139673892485
7.019861279461279,3.069481193962093,-2.1528064389210466,-8.943113645821512
7.027856565656565,3.0777131313131303,-2.127383164983167,-9.015705050505042
7.0358518518518505,3.1225925925925933,-2.2314786324786304,-8.954168091168087
7.043847138047137,3.1214504088504094,-2.2412311244311227,-8.965853509453506
7.051842424242423,3.1203082251082255,-2.250983616383615,-8.977538927738925
7.0598377104377095,3.1191660413660416,-2.2607361083361073,-8.989224346024344
7.067832996632996,3.1180238576238577,-2.270488600288599,-9.000909764309762
7.075828282828282,3.1168816738816743,-2.2802410922410914,-9.01259518259518
7.0838235690235685,3.1157394901394904,-2.2899935841935837,-9.0242806008806
7.091818855218854,3.1145973063973065,-2.2997460761460746,-9.035966019166016
7.09981414141414,3.1134551226551226,-2.309498568098567,-9.047651437451435
7.107809427609427,3.112312938912939,-2.319251060051059,-9.059336855736854
7.115804713804713,3.1111707551707553,-2.329003552003551,-9.071022274022273
7.123799999999999,3.1100285714285714,-2.3387560439560433,-9.082707692307691
7.131795286195286,3.042647747651958,-2.28241277334751,-8.974353088782562
7.139790572390571,3.0473607584618105,-2.289313967747651,-8.975363019670388
7.147785858585857,3.0520737692716633,-2.2962151621477926,-8.976372950558213
7.155781144781144,3.0567867800815165,-2.3031163565479345,-8.97738288144604
7.16377643097643,3.0614997908913693,-2.3100175509480767,-8.978392812333865
7.171771717171716,3.0662128017012225,-2.3169187453482185,-8.97940274322169
7.179767003367003,3.070925812511075,-2.3238199397483603,-8.980412674109516
7.187762289562289,3.0756388233209284,-2.330721134148502,-8.981422604997343
7.1957575757575745,3.0803518341307807,-2.337622328548643,-8.982432535885168
7.203752861952861,3.0850648449406335,-2.3445235229487853,-8.983442466772994
7.211748148148147,3.0897778557504867,-2.351424717348927,-8.984452397660819
7.2197434343434335,3.0944908665603394,-2.358325911749069,-8.985462328548644
7.22773872053872,3.0850282828283273,-2.225684175084157,-9.135646464646387
7.235734006734006,3.0715589934432037,-2.2325929470139996,-9.149333900407585
7.243729292929292,3.0762720042530565,-2.2321721424774057,-9.131070983519407
7.251724579124578,3.0809850150629092,-2.231751337940812,-9.112808066631226
7.259719865319864,3.0856980258727624,-2.231330533404218,-9.094545149743047
7.267715151515151,3.090411036682615,-2.2309097288676236,-9.076282232854867
7.275710437710437,3.0951240474924684,-2.2304889243310297,-9.058019315966686
7.283705723905723,3.099837058302321,-2.230068119794436,-9.039756399078506
7.29170101010101,3.1045500691121743,-2.229647315257842,-9.021493482190325
7.299696296296295,3.1092630799220267,-2.2292265107212477,-9.003230565302147
7.307691582491581,3.1139760907318794,-2.228805706184654,-8.984967648413967
7.315686868686868,3.1186891015417326,-2.22838490164806,-8.966704731525786
7.323682154882154,3.1174063299663404,-2.231547205387199,-8.951637171717168
7.33167744107744,3.0518449831649908,-2.2731226936026885,-8.970825858585856
7.339672727272727,3.0946313479623893,-2.2426064785788893,-8.963171159874605
7.347668013468012,3.0328746545919087,-2.2744038236773805,-8.991843910368042
7.3556632996632985,2.9711179612214207,-2.3062011687758757,-9.020516660861484
7.363658585858585,2.909361267850933,-2.337998513874371,-9.049189411354924
7.371653872053871,2.8476045744804455,-2.369795858972866,-9.077862161848364
7.3796491582491575,2.785847881109958,-2.4015932040713612,-9.106534912341806
7.387644444444444,2.72409118773947,-2.4333905491698564,-9.135207662835246
7.395639730639729,2.662334494368989,-2.465187894268348,-9.163880413328684
7.403635016835016,2.600577800998501,-2.4969852393668432,-9.192553163822124
7.411630303030302,2.5388211076280136,-2.528782584465338,-9.221225914315566
7.419625589225588,2.477064414257526,-2.560579929563833,-9.249898664809006
7.427620875420875,3.0675387205387667,-2.2690053872053677,-8.92850505050497
7.435616161616161,2.9985098351940493,-2.3042915470494396,-8.979852418926104
7.443611447811447,2.9539045543150833,-2.329792301967037,-8.985996165160376
7.451606734006733,2.909299273436122,-2.3552930568846318,-8.992139911394647
7.459602020202019,2.8646939925571564,-2.3807938118022296,-8.998283657628921
7.467597306397305,2.8200887116781903,-2.406294566719827,-9.004427403863193
7.475592592592592,2.775483430799224,-2.4317953216374244,-9.010571150097466
7.483587878787878,2.730878149920258,-2.4572960765550222,-9.016714896331738
7.491583164983164,2.6862728690412925,-2.4827968314726196,-9.02285864256601
7.49957845117845,2.6416675881623313,-2.5082975863902144,-9.029002388800283
7.507573737373736,2.5970623072833656,-2.533798341307812,-9.035146135034555
7.5155690235690225,2.5524570264043995,-2.5592990962254096,-9.04128988126883
7.523564309764309,2.504228282828293,-2.5511164983165466,-9.069854545454511
7.531559595959595,2.4258710260499727,-2.6210608187134503,-9.069700244550772
7.5395548821548815,2.436811944001417,-2.6256896686159843,-9.069026957292222
7.547550168350167,2.44775286195286,-2.630318518518518,-9.06835367003367
7.555545454545453,2.4586937799043045,-2.6349473684210523,-9.06768038277512
7.56354074074074,2.469634697855749,-2.6395762183235862,-9.06700709551657
7.571536026936026,2.4805756158071937,-2.6442050682261202,-9.066333808258019
7.579531313131312,2.491516533758638,-2.6488339181286547,-9.065660520999469
7.587526599326599,2.5024574517100824,-2.6534627680311886,-9.064987233740919
7.595521885521885,2.5133983696615267,-2.6580916179337226,-9.064313946482367
7.60351717171717,2.5243392876129698,-2.6627204678362566,-9.063640659223816
7.611512457912457,2.535280205564414,-2.6673493177387906,-9.062967371965266
7.619507744107743,2.546221123515859,-2.6719781676413246,-9.062294084706716
7.627503030303029,2.1353393939394536,-2.6213393939393606,-9.141139393939435
7.635498316498316,2.2091902715094074,-2.641743391360412,-9.091172039544384
7.643493602693602,2.316020904076212,-2.6478674403610567,-9.057234601332476
7.6514888888888875,2.4228515366430043,-2.653991489361701,-9.023297163120574
7.659484175084174,2.5296821692098086,-2.660115538362346,-8.989359724908667
7.66747946127946,2.636512801776613,-2.6662395873629907,-8.955422286696761
7.6754747474747465,2.743343434343417,-2.6723636363636354,-8.921484848484853
7.683470033670033,2.8501740669102213,-2.6784876853642805,-8.887547410272948
7.691465319865319,2.957004699477026,-2.684611734364925,-8.85360997206104
7.6994606060606054,3.06383533204383,-2.69073578336557,-8.819672533849134
7.707455892255891,3.1706659646106226,-2.696859832366214,-8.78573509563723
7.715451178451177,3.277496597177427,-2.702983881366859,-8.751797657425325
7.723446464646464,3.4387696969696284,-2.509111111111296,-9.116715151514786
7.73144175084175,3.9158471380471664,-4.250085521885543,-9.238263299663295
7.739437037037036,3.7337689194349233,-4.115237189767105,-9.269337762504769
7.747432323232323,3.55169070082268,-3.9803888576486663,-9.300412225346243
7.755427609427608,3.369612482210457,-3.8455405255302435,-9.331486688187713
7.763422895622894,3.187534263598214,-3.710692193411805,-9.362561151029187
7.771418181818181,3.00545604498597,-3.575843861293367,-9.39363561387066
7.779413468013467,2.823377826373727,-3.440995529174929,-9.424710076712135
7.787408754208753,2.641299607761484,-3.3061471970564904,-9.455784539553608
7.79540404040404,2.4592213891492403,-3.1712988649380525,-9.486859002395082
7.803399326599326,2.2771431705369976,-3.0364505328196145,-9.517933465236556
7.8113946127946114,2.0950649519247744,-2.9016022007011912,-9.549007928078026
7.819389898989898,1.9129867333125308,-2.766753868582753,-9.5800823909195
7.827385185185184,1.5871185185185797,0.4846888888892279,-8.78185925925917
7.8353804713804704,1.4839455190199875,-0.23752131241491128,-9.010267354395006
7.843375757575757,1.4801179883945845,-0.4474401031592369,-9.113355512572527
7.851371043771043,1.4762904577691816,-0.6573588939035624,-9.21644367075005
7.859366329966329,1.4724629271437788,-0.8672776846478647,-9.319531828927559
7.867361616161615,1.4686353965183758,-1.0771964753921903,-9.42261998710508
7.875356902356901,1.4648078658929728,-1.287115266136516,-9.5257081452826
7.883352188552188,1.4609803352675697,-1.4970340568808416,-9.628796303460122
7.891347474747474,1.4571528046421667,-1.7069528476251672,-9.731884461637643
7.89934276094276,1.4533252740167637,-1.9168716383694928,-9.834972619815165
7.907338047138046,1.4494977433913612,-2.126790429113795,-9.938060777992675
7.915333333333332,1.445670212765958,-2.3367092198581205,-10.041148936170195
7.923328619528618,1.5262909090906007,-2.657946127945689,-10.06951111111137
7.931323905723905,0.9991843995511455,-2.175977104377219,-10.020331649831665
7.939319191919191,0.8623639955106593,-1.878403815937157,-9.942763501683507
7.947314478114477,0.8931902656191523,-1.7966742237186741,-9.881732817059488
7.955309764309764,0.9240165357276451,-1.7149446315001915,-9.82070213243547
7.963305050505049,0.9548428058361347,-1.633215039281718,-9.759671447811456
7.971300336700335,0.9856690759446276,-1.5514854470632353,-9.698640763187438
7.979295622895622,1.0164953460531205,-1.4697558548447527,-9.63761007856342
7.987290909090908,1.0473216161616135,-1.38802626262627,-9.576579393939399
7.995286195286194,1.0781478862701064,-1.3062966704077874,-9.51554870931538
8.00328148148148,1.1089741563785958,-1.2245670781893139,-9.454518024691367
8.011276767676767,1.139800426487092,-1.1428374859708221,-9.393487340067342
8.019272053872053,1.1706266965955816,-1.0611078937523484,-9.33245665544333
8.02726734006734,1.3364905723905673,-1.2577037037036958,-9.85235319865318
8.035262626262625,0.5559611499611531,0.5425464535464557,-9.764202575202573
8.04325791245791,0.5313602693602747,0.5267316017316052,-9.7794024050024
8.051253198653198,0.5067593887593907,0.5109167499167513,-9.794602234802232
8.059248484848483,0.48215850815851224,0.49510189810190075,-9.809802064602062
8.06724377104377,0.4575576275576283,0.4792870462870468,-9.825001894401893
8.075239057239056,0.4329567469567498,0.46347219447219634,-9.840201724201721
8.083234343434343,0.40835586635586585,0.44765734265734236,-9.855401554001553
8.091229629629629,0.3837549857549874,0.43184249084249193,-9.870601383801382
8.099224915824914,0.35915410515410895,0.4160276390276415,-9.88580121360121
8.107220202020201,0.334553224553225,0.4002127872127875,-9.901001043401042
8.115215488215487,0.3099523439523465,0.38439793539793704,-9.916200873200872
8.123210774410774,0.2647117845117663,0.46479696969705153,-9.761431986531841
8.13120606060606,0.014539393939427889,-0.9810000000001057,-9.445848484847566
8.139201346801345,-0.023131190036568217,-0.544070583976014,-10.594036486731136
8.147196632996632,-0.010407508779552231,-0.1715590239310798,-10.414873299301263
8.155191919191918,0.00231617247746093,0.20095253611377162,-10.235710111871429
8.163187205387205,0.015039853734476916,0.5734640961587059,-10.056546924441555
8.17118249158249,0.027763534991490077,0.9459756562035573,-9.877383737011721
8.179177777777777,0.040487216248506055,1.3184872162484915,-9.698220549581848
8.187173063973063,0.05321089750551922,1.6909987762933427,-9.519057362152013
8.195168350168348,0.06593457876253238,2.0635103363381946,-9.339894174722179
8.203163636363636,0.07865826001954837,2.436021896383129,-9.160730987292306
8.211158922558921,0.09138194127656152,2.8085334564279796,-8.981567799862471
8.219154208754208,0.10410562253357752,3.181045016472914,-8.802404612432598
8.227149494949494,-1.5312383838389514,-0.3074747474746714,-10.878707070706565
8.23514478114478,-0.9609703557312259,-0.4585675596545139,-11.285652686283122
8.243140067340066,-0.9281201581027707,-0.5715444298052859,-11.223254691846003
8.251135353535352,-0.8952699604743155,-0.6845212999560577,-11.160856697408885
8.259130639730639,-0.862419762845853,-0.7974981701068549,-11.098458702971753
8.267125925925924,-0.8295695652173978,-0.9104750402576267,-11.036060708534633
8.275121212121212,-0.7967193675889352,-1.0234519104084239,-10.9736627140975
8.283116498316497,-0.7638691699604799,-1.1364287805591957,-10.911264719660382
8.291111784511783,-0.7310189723320247,-1.2494056507099676,-10.848866725223264
8.29910707070707,-0.6981687747035622,-1.3623825208607647,-10.786468730786131
8.307102356902355,-0.665318577075107,-1.4753593910115366,-10.724070736349013
8.315097643097642,-0.6324683794466445,-1.5883362611623335,-10.66167274191188
8.323092929292928,-0.621791919191506,-1.543460606063574,-10.554185858586727
8.331088215488215,-1.0812141688998842,0.8879689685975356,-9.608199354085071
8.3390835016835,-1.1283700405414654,0.693716147873306,-9.699329299800722
8.347078787878786,-1.1755259121830466,0.49946332714907643,-9.790459245516372
8.355074074074073,-1.2226817838246382,0.30521050642480374,-9.881589191232043
8.363069360269359,-1.2698376554662192,0.11095768570057418,-9.972719136947694
8.371064646464646,-1.3169935271078108,-0.08329513502369867,-10.063849082663365
8.379059932659931,-1.364149398749392,-0.27754795574792823,-10.154979028379016
8.387055218855219,-1.4113052703909836,-0.47180077647220087,-10.246108974094685
8.395050505050504,-1.4584611420325648,-0.6660535971964304,-10.337238919810337
8.40304579124579,-1.505617013674146,-0.86030641792066,-10.428368865525988
8.411041077441077,-1.5527728853157376,-1.0545592386449325,-10.51949881124166
8.419036363636362,-1.5999287569573188,-1.248812059369162,-10.61062875695731
8.42703164983165,-1.5280343434344545,-1.3860188552188866,-10.73694006734002
8.435026936026935,-0.9832895622895577,-1.6821590909091162,-10.220474747474723
8.443022222222222,-1.0692388888888953,-1.209937499999965,-10.658216666666698
8.451017508417507,-1.047244107744111,-1.1654616161616072,-10.752461616161622
8.459012794612793,-0.9183727184122082,-1.5445013024986238,-10.506606565656595
8.46700808080808,-0.7895013290802768,-1.9235409888357247,-10.260751515151515
8.475003367003366,-0.6606299397483741,-2.302580675172741,-10.01489646464649
8.482998653198653,-0.5317585504164428,-2.681620361509842,-9.769041414141409
8.490993939393938,-0.40288716108454015,-3.060660047846859,-9.523186363636384
8.498989225589224,-0.27401577175263747,-3.4396997341838755,-9.277331313131358
8.50698451178451,-0.14514438242070615,-3.8187394205209766,-9.031476262626278
8.514979797979796,-0.016272993088803478,-4.197779106857993,-8.785621212121251
8.522975084175084,0.11259839624312784,-4.576818793195094,-8.539766161616171
8.530970370370369,-0.5417506172837347,-6.149681481481128,-6.540953086420082
8.538965656565656,-0.8005797081930425,-6.541481257014584,-6.018958024691368
8.546960942760942,-0.7794366180321765,-6.675180209502413,-5.8088596707819224
8.554956228956227,-0.7582935278713105,-6.808879161990242,-5.598761316872476
8.562951515151514,-0.7371504377104399,-6.942578114478101,-5.388662962962984
8.5709468013468,-0.7160073475495738,-7.07627706696593,-5.178564609053539
8.578942087542087,-0.6948642573887032,-7.209976019453788,-4.968466255144047
8.586937373737372,-0.6737211672278371,-7.343674971941617,-4.758367901234601
8.59493265993266,-0.6525780770669665,-7.477373924429476,-4.548269547325109
8.602927946127945,-0.6314349869061004,-7.611072876917305,-4.338171193415663
8.61092323232323,-0.6102918967452345,-7.744771829405134,-4.128072839506217
8.618918518518518,-0.5891488065843639,-7.878470781892993,-3.917974485596725
8.626913804713803,-0.6301062850729549,-7.8967928170590165,-2.694341189675325
8.63490909090909,-0.6209442815249263,-10.267916911045944,1.387877810361683
8.642904377104376,-0.6400298034104464,-10.20997257883495,1.3078389775895243
8.650899663299661,-0.6591153252959665,-10.152028246623958,1.2278001448173657
8.658894949494949,-0.6782008471814909,-10.094083914412952,1.1477613120451893
8.666890235690234,-0.6972863690670109,-10.036139582201958,1.0677224792730307
8.674885521885521,-0.7163718909525353,-9.978195249990952,0.9876836465008543
8.682880808080807,-0.7354574128380553,-9.920250917779958,0.9076448137286957
8.690876094276094,-0.7545429347235797,-9.862306585568952,0.8276059809565192
8.69887138047138,-0.7736284566090998,-9.804362253357958,0.7475671481843605
8.706866666666665,-0.7927139784946199,-9.746417921146964,0.6675283154122019
8.714861952861952,-0.8117995003801443,-9.688473588935958,0.5874894826400255
8.722857239057237,-0.8308850222656643,-9.630529256724966,0.5074506498678669
8.730852525252525,-1.1072727272727312,-10.149929292929315,-1.425925252525245
8.73884781144781,-0.9964807626830179,-9.56208845760981,-1.4891528619529546
8.746843097643097,-0.9641402791964623,-9.542684167517878,-1.1133744107744494
8.754838383838383,-0.9317997957099139,-9.52327987742595,-0.7375959595960278
8.762833670033668,-0.8994593122233656,-9.50387558733402,-0.36181750841760607
8.770828956228955,-0.86711882873681,-9.484471297242086,0.013960942760899098
8.77882424242424,-0.8347783452502616,-9.465067007150157,0.38973939393932056
8.786819528619528,-0.8024378617637061,-9.445662717058223,0.7655178451178257
8.794814814814814,-0.7700973782771577,-9.426258426966294,1.1412962962962474
8.802810101010099,-0.7377568947906094,-9.406854136874365,1.517074747474669
8.810805387205386,-0.7054164113040537,-9.387449846782433,1.8928531986531743
8.818800673400672,-0.6730759278175055,-9.368045556690504,2.2686316498315957
8.826795959595959,-0.8327876543210301,-8.87756924803588,1.7850657687990688
8.834791245791244,-0.5493991769547842,-9.114318555929623,2.006712869435051
8.842786531986532,-0.26601069958847545,-9.35106786382342,2.2283599700710823
8.850781818181817,-0.24758392344496363,-10.356564019138764,2.6152315789473444
8.858777104377102,-0.3777808470671373,-10.26684849193693,2.865189473684161
8.86677239057239,-0.50797777068934,-10.177132964735076,3.1151473684210336
8.874767676767675,-0.6381746943115136,-10.087417437533242,3.365105263157851
8.882762962962962,-0.7683716179337163,-9.997701910331388,3.615063157894723
8.890758249158248,-0.8985685415558899,-9.907986383129554,3.86502105263154
8.898753535353535,-1.0287654651780926,-9.8182708559277,4.114978947368413
8.90674882154882,-1.1589623888002663,-9.728555328725866,4.364936842105229
8.914744107744106,-1.28915931242244,-9.638839801524034,4.6148947368420465
8.922739393939393,-1.4193562360446426,-9.549124274322178,4.864852631578919
8.930734680134679,-1.5495531596668164,-9.459408747120346,5.114810526315736
8.938729966329966,-1.6797500832890189,-9.369693219918492,5.3647684210526085
8.946725252525251,-0.4355329292928459,-8.492339797980218,7.906833131313143
8.954720538720537,-1.587479797979777,-7.085237373737393,7.284209876543339
8.962715824915824,-1.6529796425796304,-7.0234276612276725,6.8828055080722494
8.97071111111111,-1.7184794871794695,-6.961617948717965,6.481401139601249
8.978706397306397,-1.7839793317793229,-6.899808236208244,6.079996771130158
8.986701683501682,-1.849479176379162,-6.837998523698538,5.6785924026591585
8.99469696969697,-1.9149790209790154,-6.776188811188817,5.277188034188068
9.002692255892255,-1.9804788655788543,-6.714379098679109,4.8757836657170674
9.01068754208754,-2.0459787101786935,-6.652569386169402,4.474379297246068
9.018682828282827,-2.1114785547785466,-6.590759673659681,4.072974928774977
9.026678114478113,-2.176978399378386,-6.528949961149975,3.6715705603039774
9.0346734006734,1.0113793983794017,-6.505833573833628,8.93691797091803
9.042668686868685,0.9921379953380003,-6.1951595959596775,8.591627039627129
9.050663973063973,0.9728965922965946,-5.884485618085657,8.24633610833615
9.058659259259258,0.9536551892551932,-5.573811640211706,7.9010451770452494
9.066654545454544,0.9344137862137919,-5.263137662337755,7.555754245754348
9.07464983164983,0.9151723831723863,-4.952463684463734,7.21046331446337
9.082645117845116,0.8959309801309849,-4.641789706589783,6.865172383172467
9.090640404040403,0.8766895770895793,-4.331115728715764,6.51988145188149
9.098635690235689,0.8574481740481779,-4.020441750841813,6.174590520590588
9.106630976430976,0.8382067710067722,-3.7097677729677923,5.829299589299611
9.114626262626262,0.8189653679653708,-3.399093795093841,5.484008658008708
9.122621548821547,0.7997239649239695,-3.08841981721989,5.1387177267178075
9.130616835016834,1.551927946127805,-4.767475757575803,9.474528282828512
9.13861212121212,1.7737828608667463,-4.508114304333691,9.086044248941004
9.146607407407407,1.681622142572683,-4.3111551573078515,9.204598008761446
9.154602693602692,1.5894614242786398,-4.114196010282056,9.323151768581862
9.162597979797978,1.4973007059845969,-3.9172368632562606,9.441705528402277
9.170593265993265,1.4051399876905333,-3.7202777162304215,9.560259288222719
9.17858855218855,1.3129792693964903,-3.5233185692046263,9.678813048043134
9.186583838383838,1.2208185511024268,-3.326359422178787,9.797366807863577
9.194579124579123,1.1286578328083838,-3.1294002751529915,9.915920567683992
9.20257441077441,1.0364971145143205,-2.9324411281271527,10.034474327504434
9.210569696969696,0.9443363962202773,-2.7354819811013575,10.153028087324849
9.218564983164981,0.8521756779262344,-2.538522834075562,10.271581847145265
9.226560269360268,1.0998835690234525,-2.4088649831649724,10.51257313131308
9.234555555555554,2.7493111111108752,-2.5567777777777567,11.258533333333228
9.242550841750841,2.1308537758538235,-2.0030294372295057,10.356548725348778
9.250546127946127,2.0886499794694964,-1.946036396485183,10.087658815800333
9.258541414141414,2.0660291697462445,-1.9174678738605588,9.82771451096331
9.2665367003367,2.0434083600229975,-1.8888993512359409,9.567770206126342
9.274531986531985,2.0207875502997505,-1.860330828611323,9.307825901289375
9.282527272727272,1.9981667405764985,-1.8317623059866988,9.047881596452351
9.290522558922557,1.9755459308532517,-1.8031937833620808,8.787937291615384
9.298517845117845,1.9529251211299996,-1.7746252607374566,8.52799298677836
9.30651313131313,1.9303043114067528,-1.7460567381128387,8.268048681941394
9.314508417508415,1.9076835016835059,-1.717488215488221,8.008104377104427
9.322503703703703,1.885062691960254,-1.6889196928635966,7.748160072267402
9.330498989898988,2.852209047926072,-3.0090113690092526,10.482657446808577
9.338494276094275,2.839535668744181,-2.9611247080736494,10.204778723404283
9.34648956228956,2.826862289562292,-2.9132380471380563,9.926900000000053
9.354484848484848,2.8141889103804005,-2.8653513862024527,9.64902127659576
9.362480134680133,2.801515531198512,-2.8174647252668596,9.371142553191529
9.370475420875419,2.788842152016623,-2.7695780643312666,9.093263829787299
9.378470707070706,2.7761687728347315,-2.7216914033956634,8.815385106383005
9.386465993265992,2.763495393652843,-2.6738047424600704,8.537506382978775
9.394461279461279,2.7508220144709514,-2.6259180815244667,8.259627659574482
9.402456565656564,2.738148635289063,-2.5780314205888737,7.98174893617025
9.410451851851851,2.7254752561071713,-2.5301447596532705,7.703870212765958
9.418447138047137,2.7128018769252824,-2.4822580987176774,7.425991489361728
9.426442424242422,0.8224606060606209,-6.795127272723856,8.211739393938949
9.43443771043771,-0.03664326599326521,-8.000942592592603,7.646330976430992
9.442432996632995,-0.04200010774410647,-7.933222518518535,7.540953104377129
9.450428282828282,-0.04735694949494893,-7.865502444444452,7.435575232323243
9.458423569023568,-0.0527137912457902,-7.797782370370384,7.330197360269381
9.466418855218855,-0.058070632996632655,-7.7300622962963015,7.224819488215495
9.47441414141414,-0.06342747474747393,-7.662342222222233,7.119441616161633
9.482409427609426,-0.06878431649831518,-7.594622148148165,7.01406374410777
9.490404713804713,-0.07414115824915765,-7.526902074074082,6.908685872053884
9.498399999999998,-0.0794979999999989,-7.459182000000014,6.803308000000022
9.506395286195286,-0.08485484175084138,-7.391461925925931,6.697930127946136
9.514390572390571,-0.09021168350168264,-7.323741851851863,6.592552255892273
9.522385858585857,-0.0955685252525239,-7.256021777777795,6.487174383838411
9.530381144781144,1.297718518517076,-6.332641077441973,7.027730303029656
9.53837643097643,2.1412390164269266,-6.6526952351800865,8.33098657960073
9.546371717171716,2.037542577288048,-6.643003979185799,8.305385511682486
9.554367003367002,1.933846138149193,-6.633312723191514,8.279784443764248
9.562362289562289,1.8301496990103148,-6.623621467197226,8.254183375846004
9.570357575757575,1.7264532598714595,-6.61393021120294,8.228582307927768
9.57835286195286,1.622756820732604,-6.604238955208655,8.20298124000953
9.586348148148147,1.5190603815937258,-6.594547699214367,8.177380172091286
9.594343434343433,1.4153639424548705,-6.584856443220081,8.151779104173048
9.60233872053872,1.3116675033159921,-6.575165187225794,8.126178036254805
9.610334006734005,1.2079710641771368,-6.565473931231509,8.100576968336568
9.618329292929293,1.1042746250382585,-6.555782675237221,8.074975900418325
9.626324579124578,1.0005781858994032,-6.546091419242935,8.049374832500087
9.634319865319863,0.9232390572390481,-6.3828215488217035,7.971245791245848
9.64231515151515,1.2467575757575082,-4.574696969697443,8.053818181817574
9.650310437710436,1.3058193872885153,-4.367581086586014,8.465880417342113
9.658305723905723,1.3329638774577004,-4.403214399135381,8.579492447104776
9.666301010101009,1.3601083676268795,-4.4388477116847405,8.693104476867413
9.674296296296294,1.3872528577960588,-4.474481024234099,8.80671650663005
9.682291582491581,1.4143973479652439,-4.510114336783466,8.920328536392711
9.690286868686867,1.4415418381344232,-4.545747649332824,9.03394056615535
9.698282154882154,1.4686863283036082,-4.581380961882191,9.147552595918011
9.70627744107744,1.4958308184727875,-4.61701427443155,9.261164625680648
9.714272727272727,1.5229753086419726,-4.652647586980916,9.374776655443311
9.722268013468012,1.5501197988111517,-4.688280899530275,9.488388685205948
9.730263299663298,0.7787021300726548,-5.8450319050150705,6.973361729576447
9.738258585858585,0.7894747262094627,-5.800931589580013,7.095900010632637
9.74625387205387,0.8002473223462683,-5.7568312741449645,7.218438291688801
9.754249158249158,0.8110199184830762,-5.712730958709907,7.340976572744992
9.762244444444443,0.8217925146198818,-5.668630643274859,7.463514853801155
9.77023973063973,0.8325651107566898,-5.624530327839802,7.586053134857346
9.778235016835016,0.8433377068934954,-5.5804300124047534,7.70859141591351
9.786230303030301,0.854110303030301,-5.536329696969706,7.831129696969673
9.794225589225588,0.8648828991671089,-5.492229381534648,7.953667978025864
9.802220875420874,0.8756554953039145,-5.4481290660996,8.076206259082028
9.810216161616161,0.8864280914407224,-5.404028750664542,8.198744540138218
9.818211447811446,0.897200687577528,-5.359928435229495,8.321282821194382
9.826206734006732,1.6035653198649897,-5.362026599326475,7.93467037037061
9.834202020202019,1.2029115109427544,-5.85105892255893,7.532862689393917
9.842197306397305,1.231977707631865,-5.8204103254770025,7.632553914141383
9.850192592592592,1.261043904320982,-5.789761728395068,7.73224513888887
9.858187878787877,1.2901101010100926,-5.75911313131314,7.831936363636335
9.866183164983164,1.3191762976992099,-5.728464534231206,7.931627588383822
9.87417845117845,1.3482424943883204,-5.6978159371492785,8.031318813131287
9.882173737373735,1.377308691077431,-5.667167340067351,8.131010037878752
9.890169023569022,1.406374887766548,-5.636518742985417,8.23070126262624
9.898164309764308,1.4354410844556587,-5.605870145903489,8.330392487373706
9.906159595959595,1.4645072811447757,-5.575221548821554,8.430083712121192
9.91415488215488,1.4935734778338863,-5.544572951739627,8.529774936868659
9.922150168350168,1.5226396745230033,-5.513924354657693,8.629466161616145
9.930145454545453,0.8927241779497049,-5.835136557059967,7.585295164410049
9.938140740740739,0.9325304964538923,-5.787675177304974,7.656487234042538
9.946136026936026,0.9723368149580885,-5.740213797549972,7.727679303675043
9.954131313131311,1.012143133462276,-5.692752417794979,7.798871373307532
9.962126599326599,1.051949451966472,-5.645291038039976,7.870063442940036
9.970121885521884,1.0917557704706595,-5.597829658284983,7.941255512572525
9.97811717171717,1.1315620889748468,-5.55036827852999,8.012447582205015
9.986112457912457,1.1713684074790431,-5.502906898774987,8.083639651837519
9.994107744107742,1.2111747259832304,-5.455445519019994,8.154831721470007
10.00210303030303,1.2509810444874265,-5.407984139264991,8.226023791102513
10.010098316498315,1.290787362991614,-5.3605227595099985,8.297215860735001
10.018093602693602,1.3305936814958101,-5.313061379754995,8.368407930367505
10.026088888888887,1.4654000000000496,-5.373111111111316,8.040644444444421
10.034084175084173,1.196912721991155,-5.041962566844922,7.663608239255273
10.04207946127946,1.1904851389714144,-5.035613368983959,7.760492295504047
10.050074747474746,1.184057555951675,-5.029264171122996,7.8573763517528
10.058070033670033,1.1776299729319344,-5.022914973262033,7.954260408001574
10.066065319865318,1.1712023899121953,-5.016565775401071,8.051144464250326
10.074060606060605,1.1647748068924544,-5.010216577540108,8.148028520499102
10.082055892255891,1.1583472238727153,-5.0038673796791455,8.244912576747854
10.090051178451176,1.151919640852976,-4.997518181818184,8.341796632996607
10.098046464646464,1.1454920578332353,-4.99116898395722,8.43868068924538
10.106041750841749,1.139064474813496,-4.984819786096258,8.535564745494133
10.114037037037036,1.1326368917937553,-4.978470588235295,8.632448801742907
10.122032323232322,1.126209308774016,-4.972121390374332,8.72933285799166
10.130027609427609,1.1197817257542753,-4.965772192513369,8.826216914240433
10.138022895622894,0.7294788729399223,-5.05668172957646,8.505191309587106
10.14601818181818,0.7827527272727186,-5.166090909090891,8.399232727272745
10.154013468013467,0.8360265816055268,-5.275500088605347,8.29327414495836
10.162008754208752,0.8893004359383232,-5.384909268119779,8.187315562643999
10.17000404040404,0.9425742902711314,-5.494318447634235,8.081356980329614
10.177999326599325,0.9958481446039277,-5.6037276271486665,7.975398398015253
10.18599461279461,1.049121998936724,-5.7131368066630985,7.869439815700892
10.193989898989898,1.1023958532695322,-5.822545986177554,7.763481233386507
10.201985185185183,1.1556697076023286,-5.931955165691986,7.657522651072146
10.20998047138047,1.2089435619351367,-6.041364345206442,7.551564068757761
10.217975757575756,1.2622174162679332,-6.150773524720874,7.4456054864434
10.225971043771043,1.3154912706007411,-6.260182704235329,7.339646904129015
10.233966329966329,0.02367508417505062,-6.207277777777485,7.7285370370367135
10.241961616161614,0.11284118457298786,-6.442211248852155,7.974423966942148
10.249956902356901,0.18616159320476872,-6.457384121518212,7.976059366391184
10.257952188552187,0.2594820018365333,-6.472556994184265,7.97769476584022
10.265947474747474,0.33280241046831416,-6.48772986685032,7.979330165289256
10.27394276094276,0.4061228191000787,-6.502902739516373,7.980965564738291
10.281938047138047,0.4794432277318596,-6.51807561218243,7.982600964187328
10.289933333333332,0.5527636363636242,-6.533248484848483,7.984236363636363
10.297928619528617,0.6260840449953888,-6.548421357514536,7.985871763085399
10.305923905723905,0.6994044536271696,-6.563594230180591,7.987507162534435
10.31391919191919,0.7727248622589342,-6.578767102846644,7.989142561983471
10.321914478114477,0.8460452708907151,-6.593939975512701,7.9907779614325065
10.329909764309763,1.2004258471237184,-7.088424700909834,6.81052035962459
10.337905050505048,1.204168321513001,-6.986697442510244,6.902976488287094
10.345900336700335,1.2079107959022843,-6.884970184110632,6.995432616949618
10.353895622895621,1.211653270291567,-6.783242925711042,7.087888745612122
10.361890909090908,1.2153957446808503,-6.681515667311429,7.180344874274645
10.369886195286194,1.219138219070133,-6.579788408911839,7.272801002937149
10.37788148148148,1.2228806934594163,-6.478061150512227,7.365257131599673
10.385876767676766,1.226623167848699,-6.376333892112637,7.457713260262176
10.393872053872052,1.2303656422379816,-6.274606633713047,7.55016938892468
10.401867340067339,1.234108116627265,-6.172879375313435,7.642625517587204
10.409862626262624,1.2378505910165476,-6.0711521169138445,7.735081646249707
10.417857912457912,1.241593065405831,-5.969424858514232,7.827537774912232
10.425853198653197,1.4827176206508066,-5.778459259259337,7.794746576879967
10.433848484848484,0.9472541743970254,-5.563707482993196,8.321632653061224
10.44184377104377,1.0086873428159029,-5.5780663643235044,8.324324943310657
10.449839057239055,1.0701205112347805,-5.592425245653813,8.32701723356009
10.457834343434342,1.1315536796536718,-5.606784126984125,8.329709523809523
10.465829629629628,1.1929868480725494,-5.621143008314434,8.332401814058956
10.473824915824915,1.2544200164914405,-5.635501889644745,8.33509410430839
10.4818202020202,1.315853184910318,-5.649860770975054,8.337786394557822
10.489815488215488,1.3772863533292092,-5.664219652305366,8.340478684807255
10.497810774410773,1.4387195217480868,-5.678578533635675,8.343170975056688
10.505806060606059,1.5001526901669644,-5.692937414965984,8.345863265306122
10.513801346801346,1.5615858585858557,-5.707296296296295,8.348555555555555
10.521796632996631,1.6230190270047333,-5.721655177626604,8.351247845804988
10.529791919191918,1.1865124579124688,-5.554178451178456,7.93514276094277
10.537787205387204,1.3953509839132034,-5.856542603815939,7.737850998877664
10.54578249158249,1.4176489487467219,-5.842417598204268,7.755973647586978
10.553777777777777,1.4399469135802452,-5.828292592592594,7.774096296296295
10.561773063973062,1.4622448784137634,-5.814167586980923,7.792218945005609
10.56976835016835,1.4845428432472867,-5.800042581369249,7.810341593714926
10.577763636363635,1.5068408080808051,-5.785917575757578,7.82846424242424
10.585758922558922,1.5291387729143284,-5.771792570145903,7.846586891133558
10.593754208754207,1.5514367377478466,-5.757667564534233,7.864709539842871
10.601749494949493,1.573734702581365,-5.743542558922562,7.882832188552185
10.60974478114478,1.5960326674148884,-5.7294175533108875,7.900954837261503
10.617740067340065,1.6183306322484068,-5.7152925476992165,7.919077485970817
10.625735353535353,0.8981016835017561,-5.3914343434343746,8.455276094276043
10.633730639730638,0.406633641378317,-5.829402607636649,7.945063364137831
10.641725925925925,0.44150669818754806,-5.83008305752561,7.948550669818754
10.64972121212121,0.4763797549967713,-5.830763507414571,7.952037975499676
10.657716498316496,0.5112528118059947,-5.831443957303532,7.955525281180599
10.665711784511783,0.5461258686152257,-5.832124407192492,7.9590125868615225
10.673707070707069,0.580998925424449,-5.832804857081452,7.962499892542445
10.681702356902356,0.6158719822336801,-5.833485306970413,7.965987198223368
10.689697643097642,0.6507450390429035,-5.834165756859374,7.96947450390429
10.697692929292927,0.6856180958521267,-5.834846206748334,7.972961809585213
10.705688215488214,0.7204911526613578,-5.8355266566372945,7.976449115266136
10.7136835016835,0.755364209470581,-5.836207106526255,7.979936420947058
10.721678787878787,0.7902372662798121,-5.836887556415215,7.983423726627981
10.729674074074072,1.0911533333333459,-5.39893259259254,8.092086666666697
10.73766936026936,1.0423918030883579,-5.5959446046673635,7.98248355741321
10.745664646464645,1.011237756879142,-5.595282925809823,8.01214882619296
10.75365993265993,0.9800837106699262,-5.594621246952282,8.041814094972707
10.761655218855218,0.9489296644607035,-5.593959568094741,8.071479363752463
10.769650505050503,0.9177756182514877,-5.5932978892372,8.101144632532213
10.77764579124579,0.886621572042265,-5.592636210379658,8.130809901311968
10.785641077441076,0.8554675258330492,-5.591974531522117,8.160475170091717
10.793636363636363,0.8243134796238265,-5.591312852664577,8.190140438871472
10.801631649831648,0.7931594334146107,-5.590651173807036,8.21980570765122
10.809626936026934,0.7620053872053949,-5.589989494949495,8.24947097643097
10.817622222222221,0.7308513409961722,-5.589327816091954,8.279136245210726
10.825617508417507,0.6996972947869564,-5.588666137234413,8.308801513990474
10.833612794612794,0.6685432485777337,-5.588004458376872,8.33846678277023
10.84160808080808,0.6373892023685179,-5.587342779519331,8.368132051549978
10.849603367003365,0.6062351561593021,-5.5866811006617905,8.397797320329728
10.857598653198652,0.5750811099500794,-5.58601942180425,8.427462589109483
10.865593939393937,0.5439270637408636,-5.585357742946709,8.457127857889231
10.873589225589225,0.512773017531641,-5.584696064089167,8.486793126668987
10.88158451178451,0.48161897132242515,-5.584034385231626,8.516458395448735
10.889579797979797,0.03569427609436682,-5.3996262626264295,8.38884309764299
10.897575084175083,0.08104383389448097,-5.30601356677891,8.370671407407421
10.905570370370368,0.1602504691357762,-5.264864493827174,8.31438459259261
10.913565656565655,0.239457104377089,-5.223715420875428,8.258097777777788
10.92156094276094,0.31866373961838423,-5.182566347923692,8.201810962962979
10.929556228956228,0.39787037485969706,-5.141417274971947,8.145524148148155
10.937551515151513,0.4770770101009923,-5.100268202020211,8.089237333333346
10.9455468013468,0.5562836453423051,-5.059119129068466,8.032950518518524
10.953542087542086,0.6354902805836004,-5.017970056116729,7.976663703703713
10.961537373737372,0.7146969158248956,-4.976820983164993,7.920376888888903
10.969532659932659,0.6509812289562613,-5.276852777777672,8.126032491582416
10.977527946127944,-0.006574874672650063,-5.254307803965585,8.081912996632973
10.985523232323231,-0.015280852974185051,-5.24382509539843,8.171460202020189
10.993518518518517,-0.0239868312757181,-5.233342386831278,8.261007407407387
11.001513804713802,-0.03269280957725116,-5.222859678264126,8.350554612794584
11.00950909090909,-0.04139878787878614,-5.2123769696969715,8.4401018181818
11.017504377104375,-0.0501047661803192,-5.201894261129819,8.529649023568998
11.025499663299662,0.5040712121210666,-5.415603872053815,8.278154040404118
11.033494949494948,2.657961768219836,-5.261182578472876,8.152035190615843
11.041490235690235,2.6418852250099576,-5.380682017305663,8.12185943304008
11.04948552188552,2.6258086818000823,-5.5001814561384235,8.091683675464326
11.057480808080806,2.6097321385902075,-5.619680894971185,8.061507917888571
11.065476094276093,2.5936555953803286,-5.739180333803972,8.03133216031281
11.073471380471378,2.577579052170454,-5.858679772636734,8.001156402737054
11.081466666666666,2.561502508960575,-5.978179211469521,7.970980645161293
11.089461952861951,2.5454259657507,-6.0976786503022815,7.940804887585539
11.097457239057238,2.5293494225408217,-6.21717808913507,7.910629130009777
11.105452525252524,2.5132728793309465,-6.33667752796783,7.880453372434022
11.11344781144781,2.4971963361210716,-6.456176966800591,7.850277614858268
11.121443097643096,2.481119792911193,-6.575676405633379,7.820101857282506
11.129438383838382,1.086741965105617,-5.460032139577533,8.17922589531685
11.13743367003367,1.0197601901366553,-5.7359999920776366,7.9713673598732475
11.145428956228955,1.0522116458704613,-5.75443618142206,7.94126745890276
11.153424242424242,1.0846631016042745,-5.772872370766486,7.911167557932267
11.161419528619527,1.1171145573380805,-5.7913085601109096,7.88106765696178
11.169414814814813,1.1495660130718863,-5.809744749455333,7.850967755991293
11.1774101010101,1.1820174688056997,-5.82818093879976,7.8208678550208
11.185405387205385,1.2144689245395055,-5.846617128144183,7.790767954050313
11.193400673400673,1.2469203802733189,-5.86505331748861,7.7606680530798196
11.201395959595958,1.2793718360071247,-5.883489506833033,7.730568152109333
11.209391245791243,1.3118232917409307,-5.901925696177456,7.7004682511388465
11.21738653198653,1.3442747474747438,-5.920361885521883,7.670368350168353
11.225381818181816,1.2101818181818453,-5.6137090909084355,7.934072727273246
11.233377104377103,1.4058091553836236,-5.80371602550326,7.938252668529264
11.241372390572389,1.3981540941328185,-5.795890851780214,7.933234350598181
11.249367676767676,1.3904990328820117,-5.788065678057167,7.9282160326670965
11.257362962962961,1.3828439716312066,-5.780240504334122,7.923197714736013
11.265358249158247,1.3751889103804016,-5.772415330611077,7.91817939680493
11.273353535353534,1.3675338491295947,-5.76459015688803,7.913161078873845
11.28134882154882,1.3598787878787897,-5.756764983164985,7.908142760942762
11.289344107744107,1.3522237266279828,-5.748939809441938,7.903124443011677
11.297339393939392,1.3445686653771778,-5.741114635718893,7.898106125080594
11.30533468013468,1.336913604126371,-5.733289461995846,7.893087807149509
11.313329966329965,1.3292585428755659,-5.725464288272801,7.888069489218426
11.32132525252525,1.3216034816247608,-5.717639114549756,7.883051171287343
11.329320538720538,1.247965909090931,-5.61743627946118,8.017213973064012
11.337315824915823,1.1746896541169243,-5.966203244566885,7.878150719314355
11.34531111111111,1.1884088383838374,-5.94258080808081,7.878514141414142
11.353306397306396,1.2021280226507474,-5.91895837159474,7.878877563513927
11.361301683501681,1.2158472069176576,-5.895335935108669,7.879240985613713
11.369296969696968,1.2295663911845707,-5.871713498622594,7.879604407713498
11.377292255892254,1.2432855754514809,-5.848091062136524,7.8799678298132845
11.385287542087541,1.257004759718394,-5.824468625650447,7.88033125191307
11.393282828282826,1.270723943985304,-5.800846189164377,7.880694674012855
11.401278114478114,1.2844431282522173,-5.777223752678302,7.881058096112641
11.4092734006734,1.2981623125191273,-5.753601316192231,7.881421518212427
11.417268686868685,1.3118814967860375,-5.729978879706161,7.881784940312213
11.425263973063972,1.1756181818182778,-5.660628619528471,8.018361952862039
11.433259259259257,1.2848420015760404,-5.512920015760435,8.105650118203311
11.441254545454544,1.2976854932301722,-5.533418568665374,8.097484719535784
11.44924983164983,1.310528984884301,-5.553917121570308,8.089319320868258
11.457245117845117,1.3233724765384327,-5.574415674475246,8.08115392220073
11.465240404040403,1.3362159681925616,-5.594914227380181,8.072988523533205
11.473235690235688,1.3490594598466903,-5.615412780285115,8.06482312486568
11.481230976430975,1.361902951500822,-5.635911333190053,8.056657726198152
11.48922626262626,1.374746443154951,-5.656409886094988,8.048492327530626
11.497221548821548,1.3875899348090825,-5.676908438999926,8.040326928863099
11.505216835016833,1.4004334264632115,-5.69740699190486,8.032161530195573
11.51321212121212,1.413276918117343,-5.717905544809799,8.023996131528046
11.521207407407406,1.426120409771472,-5.738404097714733,8.01583073286052
11.529202693602691,1.2243540591095283,-5.7978588851477815,7.6421969322858905
11.537197979797979,1.3012636363636714,-5.812128282828134,7.86335454545463
11.545193265993264,1.2868303105965995,-5.910947800098365,7.813234426663636
11.553188552188551,1.298868157227706,-5.900886316346992,7.825721446676501
11.561183838383837,1.3109060038588098,-5.890824832595621,7.8382084666893626
11.569179124579122,1.3229438504899138,-5.880763348844251,7.850695486702223
11.57717441077441,1.3349816971210202,-5.870701865092879,7.863182506715088
11.585169696969695,1.3470195437521242,-5.860640381341508,7.8756695267279495
11.593164983164982,1.3590573903832306,-5.850578897590135,7.888156546740814
11.601160269360268,1.3710952370143346,-5.840517413838765,7.900643566753676
11.609155555555555,1.3831330836454412,-5.830455930087393,7.913130586766539
11.61715084175084,1.395170930276545,-5.820394446336022,7.925617606779401
11.625146127946126,1.407208776907649,-5.810332962584652,7.938104626792263
11.633141414141413,1.197997474747473,-5.833885924462014,7.885798967940271
11.641136700336698,1.2119892255892226,-5.8120726979944415,7.898400234226319
11.649131986531986,1.225980976430975,-5.7902594715268645,7.911001500512369
11.657127272727271,1.2399727272727246,-5.768446245059293,7.923602766798417
11.665122558922558,1.2539644781144772,-5.746633018591716,7.936204033084467
11.673117845117844,1.2679562289562265,-5.724819792124143,7.948805299370515
11.68111313131313,1.281947979797976,-5.703006565656572,7.961406565656563
11.689108417508416,1.2959397306397287,-5.681193339188995,7.974007831942613
11.697103703703702,1.309931481481478,-5.659380112721423,7.98660909822866
11.705098989898989,1.3239232323232306,-5.637566886253846,7.999210364514711
11.713094276094274,1.3379149831649801,-5.615753659786273,8.011811630800759
11.72108956228956,1.3519067340067294,-5.593940433318702,8.024412897086806
11.729084848484847,1.1470812121213214,-5.646519999999925,7.914396363636314
11.737080134680133,1.4273361367296225,-5.7540601010101,8.130474842629205
11.74507542087542,1.4044800468452685,-5.760056565656565,8.08241622017275
11.753070707070705,1.3816239569609197,-5.766053030303029,8.034357597716305
11.761065993265992,1.3587678670765655,-5.772049494949495,7.98629897525985
11.769061279461278,1.3359117771922167,-5.778045959595959,7.938240352803406
11.777056565656563,1.3130556873078678,-5.784042424242423,7.890181730346961
11.78505185185185,1.2901995974235136,-5.790038888888889,7.842123107890506
11.793047138047136,1.2673435075391648,-5.796035353535353,7.7940644854340615
11.801042424242423,1.2444874176548106,-5.802031818181818,7.746005862977606
11.809037710437709,1.2216313277704618,-5.808028282828282,7.697947240521161
11.817032996632996,1.1987752378861078,-5.814024747474748,7.649888618064706
11.825028282828281,1.17752727272723,-5.820381818181808,7.603880808080755
11.833023569023567,1.2915294612794586,-5.820167737985931,7.765117845117834
11.841018855218854,1.3015235690235674,-5.784552372206924,7.80509427609427
11.84901414141414,1.3115176767676742,-5.7489370064279255,7.845070707070697
11.857009427609427,1.321511784511783,-5.7133216406489185,7.885047138047132
11.865004713804712,1.3315058922558896,-5.67770627486992,7.925023569023558
11.873,1.286,-5.429,8.043
