accel_time_list,accel_x_list,accel_y_list,accel_z_list
0.0,0.8,4.6,8.9
0.007998982706002035,1.8156536113936927,5.45626483553747,8.896876059681249
0.01599796541200407,1.5906822227873856,5.339613004408274,8.888543786029162
0.023996948118006102,1.3657108341810784,5.222961173279078,8.880211512377077
0.03199593082400814,1.140739445574771,5.106309342149881,8.871879238724992
0.039994913530010175,0.9157680569684636,4.989657511020685,8.863546965072906
0.047993896236012204,0.6907966683621567,4.873005679891488,8.855214691420821
0.05599287894201424,0.4658252797558493,4.756353848762292,8.846882417768736
0.06399186164801628,0.24085389114954214,4.639702017633096,8.83855014411665
0.07199084435401831,0.015882502543234978,4.523050186503899,8.830217870464566
0.07998982706002035,-0.2090888860630722,4.406398355374703,8.82188559681248
0.08798880976602239,-0.43406027466937935,4.289746524245507,8.813553323160393
0.09598779247202441,-0.6590316632756865,4.17309469311631,8.805221049508308
0.10398677517802644,1.6842319430315362,4.380264496439471,9.361851475076298
0.11198575788402848,0.7153905045568478,4.193843798177261,8.509234302734109
0.11998474059003052,0.756622374175415,4.177351050329834,8.533973424505248
0.12798372329603255,0.7978542437939822,4.160858302482407,8.55871254627639
0.13598270600203458,0.8390861134125494,4.14436555463498,8.58345166804753
0.14398168870803663,0.8803179830311166,4.127872806787553,8.60819078981867
0.15198067141403865,0.9215498526496837,4.111380058940126,8.63292991158981
0.1599796541200407,0.962781722268251,4.0948873110927,8.657669033360952
0.16797863682604272,1.004013591886818,4.078394563245273,8.68240815513209
0.17597761953204477,1.0452454615053854,4.061901815397846,8.707147276903232
0.1839766022380468,1.0864773311239526,4.045409067550419,8.731886398674373
0.19197558494404882,1.1277092007425198,4.028916319702992,8.756625520445512
0.19997456765005087,1.168941070361087,4.012423571855566,8.781364642216653
0.2079735503560529,0.9052899287894204,4.048677517802645,8.553967446592065
0.21597253306205494,0.609208394559361,4.490791605440639,8.40920839455936
0.22397151576805696,0.6240213254964018,4.475978674503598,8.424021325496403
0.231970498474059,0.6388342564334426,4.461165743566557,8.438834256433443
0.23996948118006103,0.6536471873704834,4.446352812629517,8.453647187370484
0.24796846388606308,0.6684601183075243,4.431539881692475,8.468460118307524
0.2559674465920651,0.683273049244565,4.416726950755435,8.483273049244564
0.26396642929806713,0.6980859801816058,4.401914019818394,8.498085980181607
0.27196541200406915,0.7128989111186466,4.387101088881353,8.512898911118647
0.27996439471007123,0.7277118420556875,4.372288157944312,8.527711842055687
0.28796337741607325,0.7425247729927282,4.357475227007272,8.542524772992728
0.2959623601220753,0.7573377039297691,4.342662296070231,8.557337703929768
0.3039613428280773,0.7721506348668099,4.32784936513319,8.57215063486681
0.3119603255340794,0.7869635658038507,4.31303643419615,8.58696356580385
0.3199593082400814,0.7520345879959305,4.25203458799593,8.6
0.3279582909460834,-0.17943744963073555,4.32570318796158,8.205140637592315
0.33595727365208544,-0.13788429271643934,4.377644634104451,8.21552892682089
0.34395625635808746,-0.09633113580214313,4.429586080247321,8.225917216049464
0.35195523906408954,-0.054777978887846634,4.481527526390192,8.236305505278038
0.35995422177009156,-0.013224821973550405,4.533468972533062,8.246693794506612
0.3679532044760936,0.028328334940745797,4.585410418675932,8.257082083735186
0.3759521871820956,0.069881491855042,4.637351864818802,8.26747037296376
0.38395116988809763,0.11143464876933823,4.689293310961673,8.277858662192335
0.3919501525940997,0.15298780568363474,4.741234757104543,8.28824695142091
0.39994913530010173,0.19454096259793097,4.7931762032474134,8.298635240649483
0.40794811800610375,-0.10820260213096307,4.0061519515982225,7.577442844139851
0.4159471007121058,-0.14188252931412948,4.031411896985597,7.484823044386143
0.42394608341810786,-0.17556245649729615,4.056671842372972,7.3922032446324355
0.4319450661241099,-0.20924238368046258,4.081931787760347,7.299583444878728
0.4399440488301119,-0.242922310863629,4.1071917331477215,7.20696364512502
0.4479430315361139,-0.2766022380467954,4.132451678535096,7.114343845371312
0.45594201424211594,-0.3102821652299619,4.157711623922471,7.021724045617605
0.463940996948118,-0.3439620924131285,4.182971569309847,6.929104245863897
0.47193997965412005,-0.37764201959629495,4.208231514697221,6.836484446110189
0.47993896236012207,-0.4113219467794613,4.233491460084596,6.7438646463564815
0.4879379450661241,-0.4450018739626278,4.258751405471971,6.651244846602774
0.49593692777212617,-0.4786818011457944,4.284011350859346,6.558625046849065
0.5039359104781281,-1.0807731434384396,3.038453713123121,4.570498474059056
0.5119348931841302,-1.3249890239331799,2.3562692081169354,3.8312801841837554
0.5199338758901323,-1.3586689511163466,2.2973293355463937,3.7386603844300472
0.5279328585961343,-1.3923488782995128,2.238389462975853,3.64604058467634
0.5359318413021363,-1.4260288054826793,2.1794495904053113,3.553420784922632
0.5439308240081383,-1.4597087326658456,2.1205097178347705,3.460800985168925
0.5519298067141404,-1.4933886598490123,2.061569845264229,3.3681811854152164
0.5599287894201425,-1.5270685870321787,2.002629972693687,3.2755613856615082
0.5679277721261444,-1.560748514215345,1.9436901001231461,3.182941585907801
0.5759267548321465,-1.5944284413985117,1.8847502275526047,3.090321786154093
0.5839257375381485,-1.6281083685816777,1.8258103549820637,2.9977019864003855
0.5919247202441505,-1.6617882957648444,1.7668704824115222,2.9050821866466774
0.5999237029501526,-1.6954682229480111,1.7079306098409806,2.8124623868929692
0.6079226856561546,-4.42428655565669,-2.4344059538469773,4.026310435294747
0.6159216683621567,-4.52532633720619,-2.5775456443754354,4.135770198640039
0.6239206510681587,-4.62636611875569,-2.7206853349038935,4.245229961985331
0.6319196337741607,-4.727405900305189,-2.86382502543235,4.354689725330621
0.6399186164801628,-4.828445681854689,-3.006964715960808,4.464149488675912
0.6479175991861648,-4.929485463404187,-3.1501044064892643,4.573609252021202
0.6559165818921668,-5.030525244953687,-3.2932440970177224,4.683069015366494
0.6639155645981689,-5.1315650265031865,-3.436383787546181,4.792528778711786
0.6719145473041709,-5.2326048080526855,-3.579523478074637,4.901988542057076
0.679913530010173,-5.333644589602185,-3.7226631686030953,5.011448305402367
0.6879125127161749,-5.4346843711516835,-3.8658028591315516,5.120908068747657
0.695911495422177,-5.535724152701183,-4.00894254966001,5.2303678320929485
0.7039104781281791,-7.391810783316432,-4.4276195320447815,5.1
0.711909460834181,-8.318193500026771,-4.5545376666488195,5.24546233335118
0.7199084435401831,-8.57079295390052,-4.386138030732986,5.413861969267014
0.7279074262461851,-8.918206920241506,-4.239105045513998,5.464477943216499
0.7359064089521872,-9.364903357070194,-4.114445574771109,5.39175991861648
0.7439053916581893,-9.81159979389888,-3.9897861040282194,5.319041894016461
0.7519043743641912,-10.258296230727561,-3.865126633285332,5.246323869416443
0.7599033570701933,-10.704992667556247,-3.7404671625424424,5.173605844816425
0.7679023397761953,-11.151689104384928,-3.6158076917995547,5.100887820216407
0.7759013224821973,-11.598385541213617,-3.4911482210566653,5.028169795616388
0.7839003051881994,-12.045081978042305,-3.366488750313776,4.955451771016369
0.7918992878942014,-12.491778414870986,-3.2418292795708883,4.882733746416351
0.7998982706002035,-12.938474851699672,-3.117169808827999,4.810015721816333
0.8078972533062055,-23.47889872513582,-7.84348607173005,10.631375944243631
0.8158962360122075,-22.96832536092293,-7.605218501764034,10.342051037856326
0.8238952187182096,-22.45775199671003,-7.366950931798014,10.052726131469015
0.8318942014242116,-21.94717863249714,-7.128683361831998,9.763401225081711
0.8398931841302136,-21.43660526828424,-6.890415791865978,9.4740763186944
0.8478921668362157,-20.92603190407134,-6.652148221899958,9.184751412307092
0.8558911495422177,-20.41545853985845,-6.413880651933942,8.895426505919787
0.8638901322482198,-19.90488517564555,-6.1756130819679225,8.606101599532478
0.8718891149542217,-19.394311811432658,-5.937345512001906,8.316776693145172
0.8798880976602238,-18.883738447219763,-5.6990779420358875,8.027451786757863
0.8878870803662259,-18.37316508300686,-5.460810372069868,7.7381268803705545
0.8958860630722278,-17.862591718793972,-5.222542802103852,7.448801973983249
0.9038850457782299,-13.103458799593092,-4.040233977619536,6.034486266531031
0.9118840284842319,-10.447711088504578,-2.761444557477114,5.4613428280773135
0.919883011190234,-10.503149582506571,-2.4842520874671408,5.532620891794164
0.927881993896236,-10.558588076508567,-2.2070596174571673,5.603898955511014
0.935880976602238,-10.61402657051056,-1.9298671474471982,5.675177019227863
0.9438799593082401,-10.669465064512554,-1.6526746774372252,5.746455082944713
0.9518789420142422,-10.72490355851455,-1.3754822074272521,5.817733146661564
0.9598779247202441,-10.780342052516543,-1.098289737417283,5.889011210378413
0.9678769074262462,-10.835780546518539,-0.82109726740731,5.960289274095263
0.9758758901322482,-10.891219040520532,-0.543904797397341,6.031567337812112
0.9838748728382503,-10.946657534522526,-0.26671232738736794,6.102845401528962
0.9918738555442523,-11.002096028524521,0.010480142622605104,6.174123465245813
0.9998728382502543,-11.057534522526515,0.2876726126325746,6.245401528962662
1.0078718209562563,-11.456408952187182,-1.6944472702611073,3.4709393014581207
1.0158708036622583,-11.056459816887077,-2.5610037300779984,3.204306544591385
1.0238697863682604,-9.929211224970846,-4.242473265017493,2.6528074833138975
1.0318687690742625,-9.78288837059276,-4.330266977644344,2.5552589137285064
1.0398677517802646,-9.636565516214674,-4.418060690271196,2.4577103441431154
1.0478667344862664,-9.490242661836591,-4.505854402898046,2.360161774557727
1.0558657171922685,-9.343919807458503,-4.593648115524898,2.262613204972336
1.0638646998982706,-9.197596953080417,-4.681441828151749,2.165064635386945
1.0718636826042727,-9.051274098702331,-4.769235540778602,2.067516065801554
1.0798626653102747,-8.904951244324243,-4.857029253405454,1.9699674962161624
1.0878616480162766,-8.75862838994616,-4.944822966032303,1.872418926630774
1.0958606307222787,-8.612305535568074,-5.032616678659155,1.774870357045383
1.1038596134282808,-7.477212614445632,-4.635096642929833,3.7455747711087364
1.1118585961342828,-7.661953204476093,-4.128484231943032,3.8476093591047813
1.119857578840285,-7.471210579857587,-3.442726347914552,3.9715157680569653
1.1278565615462868,-7.41893147360551,-3.371602789591735,3.9242741055779597
1.1358555442522889,-7.438206130728407,-3.34269080390739,3.8471754770863735
1.143854526958291,-7.457480787851304,-3.313778818223045,3.7700768485947873
1.151853509664293,-7.4767554449741995,-3.2848668325387003,3.6929782201032006
1.159852492370295,-7.496030102097096,-3.2559548468543555,3.6158795916116144
1.167851475076297,-7.515304759219992,-3.2270428611700113,3.5387809631200304
1.175850457782299,-7.534579416342889,-3.1981308754856665,3.461682334628444
1.183849440488301,-7.553854073465786,-3.169218889801322,3.3845837061368576
1.1918484231943032,-7.573128730588682,-3.1403069041169767,3.3074850776452713
1.1998474059003053,-7.592403387711578,-3.111394918432632,3.230386449153685
1.2078463886063073,-8.684638860630729,-2.7769277721261454,2.6461444557477085
1.2158453713123092,-9.110600866911403,-2.894733292051838,2.2947332920518377
1.2238443540183113,-9.29318634172232,-2.8860387456322703,2.28603874563227
1.2318433367243133,-9.475771816533237,-2.8773441992127027,2.277344199212703
1.2398423194303154,-9.658357291344155,-2.8686496527931356,2.2686496527931355
1.2478413021363175,-9.840942766155072,-2.859955106373568,2.259955106373568
1.2558402848423194,-10.023528240965986,-2.8512605599540004,2.2512605599540008
1.2638392675483214,-10.206113715776903,-2.8425660135344333,2.242566013534433
1.2718382502543235,-10.38869919058782,-2.8338714671148657,2.2338714671148656
1.2798372329603256,-10.571284665398737,-2.825176920695298,2.2251769206952985
1.2878362156663277,-10.753870140209655,-2.8164823742757306,2.216482374275731
1.2958351983723295,-10.936455615020567,-2.8077878278561634,2.207787827856164
1.3038341810783316,-11.391963377416083,-2.6748728382502502,2.2
1.3118331637843337,-10.376768704337373,-3.176768704337372,2.5464625913252563
1.3198321464903358,-10.328290021270693,-3.128290021270693,2.643419957458615
1.3278311291963378,-10.279811338204015,-3.0798113382040135,2.7403773235919733
1.3358301119023397,-10.231332655137336,-3.0313326551373354,2.837334689725329
1.3438290946083418,-10.182853972070657,-2.9828539720706564,2.9342920558586876
1.3518280773143438,-10.134375289003977,-2.934375289003977,3.031249421992046
1.359827060020346,-10.085896605937299,-2.885896605937298,3.1282067881254045
1.367826042726348,-10.037417922870619,-2.8374179228706184,3.2251641542587635
1.3758250254323499,-9.98893923980394,-2.7889392398039408,3.3221215203921193
1.383824008138352,-9.940460556737262,-2.7404605567372613,3.4190788865254778
1.391822990844354,-9.891981873670582,-2.6919818736705823,3.5160362526588362
1.399821973550356,-9.843503190603903,-2.643503190603903,3.6129936187921947
1.4078209562563582,-9.594760935910466,-2.394760935910465,3.9052390640895354
1.41581993896236,-8.7,-1.3473945970385504,4.312733129874533
1.423818921668362,-8.7,0.8567695263931308,4.339396405561207
1.4318179043743642,-8.7,3.0609336498248125,4.36605968124788
1.4398168870803663,-8.7,5.265097773256494,4.392722956934554
1.4478158697863683,-8.7,7.469261896688174,4.419386232621227
1.4558148524923702,-8.7,9.673426020119795,4.4460495083079
1.4638138351983723,-8.7,11.877590143551476,4.472712783994574
1.4718128179043743,-8.7,14.081754266983156,4.499376059681247
1.4798118006103764,-8.7,16.28591839041484,4.526039335367921
1.4878107833163785,-8.7,18.49008251384652,4.5527026110545945
1.4958097660223804,-8.7,20.69424663727814,4.579365886741267
1.5038087487283824,-8.501037639877932,19.560264496439576,4.654262461851473
1.5118077314343845,-7.6211495422177045,7.001861648016325,4.894231943031535
1.5198067141403866,-9.949724629038483,-4.729277019679371,5.128175535833303
1.5278056968463887,-10.032472725997126,-4.278759602904542,5.008650506893042
1.5358046795523905,-10.115220822955765,-3.8282421861297258,4.889125477952785
1.5438036622583926,-10.197968919914407,-3.377724769354897,4.769600449012524
1.5518026449643947,-10.28071701687305,-2.9272073525800684,4.650075420072263
1.5598016276703968,-10.36346511383169,-2.4766899358052394,4.530550391132002
1.5678006103763988,-10.446213210790333,-2.026172519030411,4.411025362191742
1.575799593082401,-10.528961307748975,-1.575655102255582,4.291500333251481
1.5837985757884028,-10.611709404707614,-1.125137685480766,4.171975304311223
1.5917975584944049,-10.694457501666257,-0.6746202687059375,4.052450275370963
1.599796541200407,-10.7772055986249,-0.22410285193110813,3.9329252464307025
1.607795523906409,-9.489951276971675,-3.191626064143063,2.612560903785406
1.615794506612411,-9.388911495422176,-3.1074262461851463,2.7388606307222805
1.623793489318413,-9.28787171387268,-3.023226428227232,2.865160357659152
1.631792472024415,-9.186831932323178,-2.9390266102693157,2.991460084596027
1.639791454730417,-9.08579215077368,-2.854826792311399,3.1177598115329017
1.6477904374364192,-8.984752369224179,-2.7706269743534824,3.244059538469777
1.6557894201424213,-8.88371258767468,-2.6864271563955655,3.370359265406652
1.663788402848423,-8.782672806125182,-2.6022273384376513,3.496658992343523
1.6717873855544252,-8.681633024575682,-2.518027520479735,3.622958719280398
1.6797863682604273,-8.580593243026183,-2.433827702521818,3.749258446217273
1.6877853509664293,-8.479553461476682,-2.3496278845639016,3.8755581731541477
1.6957843336724314,-8.378513679927183,-2.2654280666059847,4.001857900091023
1.7037833163784333,-8.389165818921667,-2.2,4.189165818921666
1.7117822990844354,-8.725169995181238,-2.815101997108743,3.9748300048187617
1.7197812817904374,-8.767269904160196,-2.8403619424961177,3.9327300958398035
1.7277802644964395,-8.809369813139154,-2.865621887883493,3.890630186860845
1.7357792472024416,-8.851469722118113,-2.8908818332708677,3.8485302778818866
1.7437782299084434,-8.893569631097069,-2.916141778658242,3.8064303689029297
1.7517772126144455,-8.935669540076027,-2.941401724045617,3.764330459923971
1.7597761953204476,-8.977769449054986,-2.9666616694329924,3.722230550945013
1.7677751780264497,-9.019869358033946,-2.991921614820367,3.6801306419660547
1.7757741607324518,-9.061969267012904,-3.0171815602077423,3.6380307329870964
1.7837731434384536,-9.10406917599186,-3.0424415055951166,3.595930824008139
1.7917721261444557,-9.146169084970818,-3.0677014509824914,3.553830915029181
1.7997711088504578,-9.188268993949777,-3.0929613963698666,3.5117310060502227
1.8077700915564598,-9.098504676589398,-2.7962616914734952,2.9985046765893983
1.815769074262462,-9.082972671335025,-2.757431678337563,2.982972671335025
1.8237680569684638,-9.067440666080653,-2.7186016652016316,2.9674406660806527
1.8317670396744659,-9.05190866082628,-2.6797716520656993,2.95190866082628
1.839766022380468,-9.036376655571907,-2.6409416389297666,2.9363766555719066
1.84776500508647,-9.020844650317533,-2.6021116257938344,2.920844650317534
1.855763987792472,-9.00531264506316,-2.563281612657902,2.9053126450631606
1.863762970498474,-8.989780639808789,-2.5244515995219707,2.889780639808788
1.871761953204476,-8.974248634554415,-2.485621586386038,2.8742486345544154
1.879760935910478,-8.958716629300042,-2.4467915732501058,2.858716629300042
1.8877599186164802,-8.943184624045669,-2.4079615601141735,2.8431846240456693
1.8957589013224823,-8.927652618791297,-2.369131546978241,2.8276526187912965
1.9037578840284843,-8.912120613536924,-2.3303015338423085,2.812120613536923
1.9117568667344862,-9.16353001017294,-2.124313326551373,2.8878433367243135
1.9197558494404883,-9.489067012780486,-2.5218659744390264,3.2218659744390266
1.9277548321464903,-9.470678546789678,-2.558642906420645,3.2586429064206452
1.9357538148524924,-9.452290080798868,-2.595419838402264,3.2954198384022644
1.9437527975584945,-9.43390161480806,-2.632196770383883,3.332196770383883
1.9517517802644964,-9.41551314881725,-2.6689737023655007,3.368973702365501
1.9597507629704984,-9.39712468282644,-2.70575063434712,3.40575063434712
1.9677497456765005,-9.37873621683563,-2.7425275663287385,3.4425275663287387
1.9757487283825026,-9.360347750844822,-2.779304498310357,3.4793044983103574
1.9837477110885047,-9.341959284854012,-2.8160814302919763,3.5160814302919765
1.9917466937945065,-9.323570818863203,-2.852858362273594,3.5528583622735943
1.9997456765005086,-9.305182352872395,-2.889635294255213,3.589635294255213
2.0077446592065105,-9.508622369759593,-2.3960807410183667,4.100783851796327
2.0157436419125125,-9.601242169513302,-2.353980832039408,4.109203833592118
2.0237426246185146,-9.69386196926701,-2.31188092306045,4.11762381538791
2.0317416073245167,-9.78648176902072,-2.269781014081491,4.126043797183701
2.0397405900305188,-9.879101568774427,-2.227681105102533,4.134463778979494
2.047739572736521,-9.971721368528137,-2.1855811961235743,4.142883760775285
2.055738555442523,-10.064341168281844,-2.143481287144616,4.151303742571077
2.063737538148525,-10.156960968035554,-2.101381378165658,4.159723724366868
2.071736520854527,-10.249580767789261,-2.059281469186699,4.1681437061626605
2.079735503560529,-10.34220056754297,-2.0171815602077405,4.176563687958452
2.0877344862665312,-10.434820367296679,-1.9750816512287823,4.184983669754244
2.095733468972533,-10.527440167050381,-1.9329817422498263,4.193403651550035
2.103732451678535,-11.061987114276006,-1.6690064428619973,4.257748389284501
2.111731434384537,-10.571452998852836,-1.0357264994264175,3.5079392220947594
2.119730417090539,-10.724625008116705,-1.1123125040583524,3.5249583342351896
2.127729399796541,-10.877797017380574,-1.1888985086902872,3.5419774463756193
2.1357283825025433,-11.030969026644446,-1.2654845133222223,3.5589965585160495
2.1437273652085453,-11.184141035908315,-1.342070517954157,3.5760156706564796
2.1517263479145474,-11.337313045172184,-1.418656522586092,3.5930347827969094
2.1597253306205495,-11.490485054436054,-1.4952425272180268,3.6100538949373395
2.1677243133265516,-11.643657063699925,-1.5718285318499619,3.6270730070777693
2.175723296032553,-11.796829072963785,-1.6484145364818925,3.6440921192181985
2.1837222787385553,-11.950001082227656,-1.7250005411138272,3.6611112313586283
2.1917212614445574,-12.103173091491525,-1.8015865457457623,3.6781303434990584
2.1997202441505594,-12.256345100755395,-1.8781725503776971,3.6951494556394886
2.2077192268565615,-7.28751755042331,-0.6005944023607948,5.197027988196027
2.2157182095625636,-7.148692230732364,-0.6072051318698873,5.163974340650563
2.2237171922685657,-7.009866911041419,-0.61381586137898,5.1309206931051
2.2317161749745678,-6.871041591350474,-0.6204265908880726,5.097867045559637
2.23971515768057,-6.732216271659529,-0.6270373203971652,5.064813398014174
2.247714140386572,-6.593390951968584,-0.6336480499062579,5.03175975046871
2.2557131230925735,-6.454565632277647,-0.6402587794153501,4.998706102923249
2.2637121057985756,-6.315740312586701,-0.6468695089244427,4.9656524553777865
2.2717110885045777,-6.176914992895757,-0.6534802384335354,4.932598807832323
2.27971007121058,-6.038089673204811,-0.660090967942628,4.89954516028686
2.287709053916582,-5.899264353513866,-0.6667016974517206,4.866491512741397
2.295708036622584,-5.760439033822921,-0.6733124269608133,4.8334378651959335
2.303707019328586,-5.621613714131976,-0.6799231564699059,4.80038421765047
2.311706002034588,-5.48278839444103,-0.6865338859789984,4.767330570105007
2.31970498474059,-5.343963074750086,-0.6931446154880911,4.734276922559545
2.3277039674465922,-5.20513775505914,-0.6997553449971837,4.701223275014081
2.335702950152594,-7.43318884809882,-0.09608268093827001,4.64515753313578
2.343701932858596,-7.8273416191192124,-0.0844899523788467,4.482859333303854
2.351700915564598,-8.221494390139604,-0.07289722381942339,4.320561133471927
2.3596998982706,-8.615647161159997,-0.06130449526000008,4.158262933640001
2.367698880976602,-9.009799932180389,-0.04971176670057677,3.9959647338080746
2.3756978636826043,-9.403952703200781,-0.03811903814115346,3.833666533976148
2.3836968463886063,-9.798105474221174,-0.026526309581730148,3.671368334144222
2.3916958290946084,-10.192258245241566,-0.014933581022306838,3.509070134312296
2.3996948118006105,-10.586411016261959,-0.0033408524628835284,3.346771934480369
2.4076937945066126,-9.530620549338726,-2.1865106815870594,2.75224821973549
2.4156927772126147,-9.327001243359328,-2.868714818582569,3.2
2.4236917599186163,-9.20257262348819,-2.8153882672092245,3.2
2.4316907426246184,-9.078144003617048,-2.7620617158358773,3.2
2.4396897253306205,-8.953715383745903,-2.70873516446253,3.2
2.4476887080366225,-8.82928676387476,-2.655408613089183,3.2
2.4556876907426246,-8.704858144003616,-2.6020820617158353,3.2
2.4636866734486267,-8.580429524132473,-2.548755510342488,3.2
2.4716856561546288,-8.45600090426133,-2.495428958969141,3.2
2.479684638860631,-8.331572284390186,-2.442102407595794,3.2
2.487683621566633,-8.207143664519043,-2.3887758562224466,3.2
2.495682604272635,-8.082715044647898,-2.3354493048490994,3.2
2.5036815869786366,-6.929603255340852,-2.2022380467954887,2.9636826042726816
2.5116805696846387,-6.613917853509664,-2.4208767802644964,2.706958926754832
2.519679552390641,-6.630582400813835,-2.445873601220753,2.715291200406918
2.527678535096643,-6.647246948118005,-2.470870422177009,2.723623474059003
2.535677517802645,-6.663911495422177,-2.4958672431332656,2.7319557477110887
2.543676500508647,-6.680576042726348,-2.520864064089522,2.740288021363174
2.551675483214649,-6.6972405900305185,-2.5458608850457787,2.7486202950152596
2.559674465920651,-6.71390513733469,-2.5708577060020352,2.756952568667345
2.5676734486266533,-6.730569684638861,-2.5958545269582918,2.7652848423194305
2.5756724313326553,-6.747234231943032,-2.6208513479145483,2.7736171159715157
2.583671414038657,-6.763898779247202,-2.645848168870803,2.781949389623601
2.591670396744659,-6.7805633265513725,-2.6708449898270596,2.7902816632756866
2.599669379450661,-6.797227873855544,-2.695841810783316,2.798613936927772
2.607668362156663,-8.217026958290933,-2.4499364191251294,3.133418107833161
2.6156673448626653,-8.604120612205241,-2.295879387794758,3.795879387794758
2.6236663275686674,-8.61310823322322,-2.2868917667767783,3.7868917667767783
2.6316653102746694,-8.6220958542412,-2.2779041457587983,3.7779041457587983
2.6396642929806715,-8.631083475259182,-2.2689165247408187,3.7689165247408187
2.6476632756866736,-8.640071096277161,-2.2599289037228387,3.7599289037228387
2.6556622583926757,-8.64905871729514,-2.2509412827048587,3.7509412827048587
2.6636612410986773,-8.65804633831312,-2.2419536616868796,3.7419536616868796
2.6716602238046794,-8.6670339593311,-2.2329660406688996,3.7329660406688996
2.6796592065106815,-8.67602158034908,-2.22397841965092,3.72397841965092
2.6876581892166835,-8.685009201367059,-2.21499079863294,3.71499079863294
2.6956571719226856,-8.693996822385039,-2.20600317761496,3.70600317761496
2.7036561546286877,-8.7,-2.275890132248217,3.7
2.7116551373346898,-8.168972533062076,-2.7827568667344806,3.982756866734481
2.719654120040692,-8.217755692933718,-2.816822241847674,4.042055604619185
2.727653102746694,-8.340816965333751,-2.834402423619107,4.086006059047768
2.735652085452696,-8.463878237733782,-2.8519826053905404,4.129956513476351
2.743651068158698,-8.586939510133815,-2.8695627871619735,4.173906967904934
2.7516500508646997,-8.71000078253384,-2.887142968933406,4.217857422333514
2.759649033570702,-8.833062054933873,-2.904723150704839,4.261807876762098
2.767648016276704,-8.956123327333906,-2.922303332476272,4.30575833119068
2.775646998982706,-9.079184599733937,-2.9398835142477053,4.3497087856192636
2.783645981688708,-9.20224587213397,-2.9574636960191385,4.393659240047846
2.79164496439471,-9.325307144534001,-2.9750438777905717,4.437609694476429
2.799643947100712,-9.448368416934034,-2.992624059562005,4.481560148905013
2.8076429298067143,-10.903509664292766,-3.671414038657122,6.324974567649964
2.8156419125127163,-10.650150333446367,-3.3749248332768165,4.949849666553633
2.8236408952187184,-10.721252401944163,-3.339373799027918,4.878747598055837
2.83163987792472,-10.792354470441955,-3.303822764779022,4.8076455295580445
2.839638860630722,-10.863456538939753,-3.268271730530124,4.736543461060248
2.847637843336724,-10.934558607437548,-3.2327206962812256,4.665441392562451
2.8556368260427263,-11.005660675935346,-3.1971696620323273,4.594339324064655
2.8636358087487284,-11.076762744433141,-3.1616186277834295,4.523237255566859
2.8716347914547304,-11.147864812930937,-3.1260675935345312,4.452135187069063
2.8796337741607325,-11.218966881428734,-3.090516559285633,4.381033118571266
2.8876327568667346,-11.29006894992653,-3.0549655250367347,4.3099310500734695
2.8956317395727367,-11.361171018424328,-3.0194144907878364,4.238828981575673
2.9036307222787388,-11.490768056968472,-1.1846388606305813,4.018463886063058
2.9116297049847404,-10.775109112985268,-0.3149345322088399,4.290043645194107
2.9196286876907425,-10.732103829619666,-0.3407377022282014,4.272841531847866
2.9276276703967445,-10.689098546254062,-0.36654087224756293,4.255639418501625
2.9356266531027466,-10.64609326288846,-0.3923440422669245,4.238437305155384
2.9436256358087487,-10.603087979522858,-0.41814721228628604,4.221235191809142
2.9516246185147508,-10.560082696157254,-0.4439503823056476,4.204033078462901
2.959623601220753,-10.517077412791652,-0.46975355232500915,4.18683096511666
2.967622583926755,-10.47407212942605,-0.49555672234437065,4.169628851770419
2.975621566632757,-10.431066846060446,-0.5213598923637323,4.152426738424178
2.983620549338759,-10.388061562694844,-0.5471630623830938,4.135224625077937
2.9916195320447607,-10.345056279329244,-0.5729662324024538,4.118022511731697
2.999618514750763,-10.302050995963642,-0.5987694024218154,4.100820398385456
3.007617497456765,-9.538250254323497,-1.1332248219735526,3.338250254323496
3.015616480162767,-9.610681586978638,-1.5616480162767021,2.738351983723298
3.023615462868769,-9.102071106242011,-2.1937866812739646,2.1
3.031614445574771,-9.112326212275347,-2.1630213631739568,2.1
3.039613428280773,-9.122581318308683,-2.132256045073949,2.1
3.0476124109867753,-9.132836424342019,-2.101490726973941,2.1
3.0556113936927773,-9.143091530375354,-2.070725408873933,2.1
3.0636103763987794,-9.153346636408692,-2.039960090773925,2.1
3.071609359104781,-9.163601742442026,-2.009194772673919,2.1
3.079608341810783,-9.173856848475362,-1.9784294545739112,2.1
3.087607324516785,-9.184111954508698,-1.9476641364739031,2.1
3.0956063072227873,-9.194367060542033,-1.9168988183738953,2.1
3.1036052899287894,-9.019735503560536,-0.8184130213632173,3.5421159715157104
3.1116042726347914,-8.995049169209901,-1.6900983384198038,3.460393353679215
3.1196032553407935,-8.986448112536781,-1.6728962250735626,3.391584900294251
3.1276022380467956,-8.977847055863661,-1.6556941117273216,3.322776446909287
3.1356012207527977,-8.96924599919054,-1.6384919983810806,3.2539679935243226
3.1436002034587998,-8.96064494251742,-1.6212898850348396,3.1851595401393586
3.151599186164802,-8.952043885844299,-1.6040877716885986,3.1163510867543947
3.1595981688708035,-8.943442829171179,-1.5868856583423585,3.047542633369434
3.1675971515768055,-8.934841772498059,-1.5696835449961175,2.97873417998447
3.1755961342828076,-8.926240715824939,-1.5524814316498765,2.909925726599506
3.1835951169888097,-8.917639659151819,-1.5352793183036355,2.8411172732145418
3.191594099694812,-8.909038602478697,-1.5180772049573945,2.7723088198295778
3.199593082400814,-8.900437545805577,-1.5008750916111533,2.703500366444614
3.207592065106816,-8.605729662324027,-1.400636629147114,2.597453483411544
3.215591047812818,-8.683139172382111,-1.4092376858202345,2.563049256719062
3.22359003051882,-8.760548682440195,-1.417838742493355,2.5286450300265795
3.231589013224822,-8.83795819249828,-1.4264397991664755,2.4942408033340975
3.239587995930824,-8.915367702556361,-1.4350408558395955,2.4598365766416173
3.247586978636826,-8.992777212614445,-1.4436419125127162,2.4254323499491353
3.255585961342828,-9.07018672267253,-1.4522429691858367,2.3910281232566533
3.26358494404883,-9.147596232730615,-1.4608440258589572,2.3566238965641713
3.271583926754832,-9.2250057427887,-1.4694450825320777,2.3222196698716893
3.279582909460834,-9.302415252846783,-1.4780461392051982,2.2878154431792073
3.2875818921668363,-9.37982476290487,-1.4866471958783187,2.2534112164867253
3.2955808748728384,-9.457234272962953,-1.4952482525514392,2.2190069897942433
3.3035798575788404,-12.352085452695743,-2.3449643947101073,2.7029501525941497
3.3115788402848425,-9.890723746997931,-2.513729273945735,4.128756908684754
3.319577822990844,-9.734042642447383,-2.39003366509004,4.16998877830332
3.327576805696846,-9.577361537896827,-2.2663380562343374,4.211220647921887
3.3355757884028483,-9.420680433346272,-2.1426424473786354,4.252452517540455
3.3435747711088504,-9.263999328795714,-2.018946838522933,4.293684387159022
3.3515737538148525,-9.107318224245159,-1.8952512296672308,4.334916256777589
3.3595727365208545,-8.950637119694603,-1.7715556208115286,4.376148126396156
3.3675717192268566,-8.793956015144046,-1.6478600119558262,4.417379996014724
3.3755707019328587,-8.63727491059349,-1.524164403100124,4.458611865633292
3.3835696846388608,-8.480593806042934,-1.4004687942444218,4.499843735251859
3.391568667344863,-8.323912701492377,-1.2767731853887194,4.541075604870427
3.3995676500508645,-8.16723159694183,-1.1530775765330241,4.582307474488991
3.4075666327568666,-6.55258279642808,-0.9218492144229449,0.5870351531592463
3.4155656154628686,-8.756561546286866,-1.471719226856567,1.5656154628686583
3.4235645981688707,-9.037398566325205,-1.4076332536847336,3.091599044216803
3.431563580874873,-9.204819134590364,-1.4169343963661312,3.2032127563935755
3.439562563580875,-9.372239702855524,-1.426235539047529,3.3148264685703484
3.447561546286877,-9.539660271120681,-1.4355366817289268,3.426440180747121
3.455560528992879,-9.70708083938584,-1.4448378244103244,3.538053892923894
3.463559511698881,-9.874501407651,-1.4541389670917222,3.649667605100667
3.471558494404883,-10.041921975916159,-1.46344010977312,3.7612813172774398
3.4795574771108853,-10.209342544181318,-1.4727412524545176,3.8728950294542126
3.487556459816887,-10.376763112446469,-1.482042395135915,3.9845087416309792
3.495555442522889,-10.544183680711628,-1.4913435378173125,4.096122453807752
3.503554425228891,-10.478229908443602,-1.2043065445914707,4.292404204815165
3.511553407934893,-8.839613428280774,-0.7289318413021362,5.9
3.519552390640895,-8.964433297084925,-1.1217630757357884,5.907531483495283
3.5275513733468973,-8.79893710316764,-1.63664012347845,5.916725716490687
3.5355503560528994,-8.633440909250357,-2.151517171221111,5.925919949486092
3.5435493387589014,-8.467944715333072,-2.666394218963773,5.935114182481496
3.5515483214649035,-8.302448521415789,-3.1812712667064336,5.9443084154769
3.5595473041709056,-8.136952327498506,-3.696148314449095,5.9535026484723055
3.5675462868769072,-7.9714561335812295,-4.211025362191728,5.96269688146771
3.5755452695829093,-7.805959939663946,-4.72590240993439,5.971891114463114
3.5835442522889114,-7.640463745746662,-5.240779457677051,5.981085347458519
3.5915432349949135,-7.474967551829378,-5.755656505419712,5.990279580453923
3.5995422177009155,-7.309471357912094,-6.270533553162374,5.999473813449328
3.6075412004069176,-5.211638718428332,-1.321531629092413,3.197672256314334
3.6155401831129197,-5.383659851890742,-1.6397707259978722,3.1632680296218516
3.6235391658189218,-5.555680985353153,-1.9580098229033314,3.1288638029293696
3.631538148524924,-5.727702118815563,-2.2762489198087903,3.0944595762368876
3.639537131230926,-5.899723252277973,-2.5944880167142497,3.0600553495444056
3.6475361139369276,-6.071744385740374,-2.912727113619691,3.0256511228519254
3.6555350966429296,-6.243765519202784,-3.2309662105251498,2.9912468961594434
3.6635340793489317,-6.4157866526651945,-3.5492053074306087,2.956842669466961
3.671533062054934,-6.5878077861276045,-3.8674444043360685,2.922438442774479
3.679532044760936,-6.759828919590015,-4.185683501241527,2.888034216081997
3.687531027466938,-6.931850053052425,-4.503922598146986,2.853629989389515
3.69553001017294,-7.103871186514835,-4.822161695052445,2.819225762697033
3.703528992878942,-5.223763987792479,-11.211027466937926,3.858697863682601
3.711527975584944,-5.092016919205439,-10.523949242383681,7.3866948653424
3.7195269582909463,-5.066756973818064,-10.599729078545806,7.344594956363442
3.727525940996948,-5.04149702843069,-10.675508914707928,7.302495047384485
3.73552492370295,-5.016237083043316,-10.751288750870053,7.260395138405527
3.743523906408952,-4.990977137655941,-10.827068587032178,7.218295229426569
3.751522889114954,-4.965717192268565,-10.902848423194303,7.17619532044761
3.759521871820956,-4.9404572468811905,-10.978628259356428,7.1340954114686514
3.7675208545269583,-4.915197301493816,-11.054408095518554,7.091995502489693
3.7755198372329604,-4.88993735610644,-11.130187931680679,7.049895593510735
3.7835188199389624,-4.864677410719065,-11.205967767842804,7.007795684531777
3.7915178026449645,-4.839417465331691,-11.281747604004929,6.965695775552818
3.7995167853509666,-4.814157519944315,-11.357527440167054,6.9235958665738595
3.8075157680569687,-3.4229908443538686,-12.366836215666433,7.544557477110955
3.8155147507629703,-0.29005595116989813,-14.56655645981688,9.01103763987792
3.8235137334689724,-7.342901831129197,-14.542901831129196,3.2395295015259413
3.8315127161749745,-7.212918362156663,-14.412918362156663,3.3295180569684644
3.8395116988809765,-7.082934893184129,-14.282934893184128,3.419506612410988
3.8475106815869786,-6.952951424211595,-14.152951424211595,3.509495167853511
3.8555096642929807,-6.822967955239061,-14.022967955239062,3.5994837232960344
3.8635086469989828,-6.692984486266528,-13.892984486266528,3.6894722787385574
3.871507629704985,-6.5630010172939945,-13.763001017293995,3.779460834181081
3.879506612410987,-6.433017548321461,-13.633017548321462,3.869449389623604
3.887505595116989,-6.303034079348927,-13.503034079348927,3.959437945066127
3.8955045778229906,-6.1730506103764,-13.373050610376401,4.049426500508646
3.9035035605289927,-7.174109867751811,-12.871973550356161,6.6223296032554355
3.911502543234995,-6.2147711088504645,-11.079796541200412,3.7443133265513913
3.919501525940997,-5.910003390979993,-10.729976263140049,2.649949135300105
3.927500508646999,-5.927778908104442,-10.605547643268906,2.3833163784333684
3.935499491353001,-5.945554425228892,-10.481119023397762,2.116683621566632
3.943498474059003,-5.96332994235334,-10.356690403526619,1.8500508646998957
3.951497456765005,-5.9811054594777895,-10.232261783655474,1.5834181078331595
3.9594964394710073,-5.998880976602239,-10.107833163784331,1.3167853509664231
3.9674954221770093,-6.016656493726687,-9.983404543913188,1.0501525940996868
3.975494404883011,-6.034432010851136,-9.858975924042051,0.7835198372329653
3.983493387589013,-6.052207527975584,-9.734547304170908,0.5168870803662289
3.991492370295015,-6.069983045100034,-9.610118684299763,0.2502543234994925
3.999491353001017,-6.087758562224483,-9.48569006442862,-0.016378433367243872
4.007490335707019,-5.85096642929807,-7.324720244150581,-4.0185147507629315
4.015489318413021,-0.335828626886964,-3.9072181101717733,-13.563903602623917
4.0234883011190234,-0.18872089896048191,-3.236039101507199,-13.48115550566527
4.031487283825025,-0.04161317103401613,-2.564860092842699,-13.398407408706634
4.039486266531028,0.10549455689246601,-1.893681084178124,-13.315659311747988
4.047485249237029,0.25260228481893177,-1.2225020755136242,-13.23291121478935
4.055484231943032,0.39971001274541385,-0.5513230668490494,-13.150163117830704
4.063483214649033,0.5468177406718796,0.11985594181545078,-13.067415020872067
4.071482197355036,0.6939254685983617,0.7910349504800251,-12.984666923913421
4.0794811800610375,0.8410331965248276,1.462213959144525,-12.901918826954784
4.08748016276704,0.9881409244513096,2.1333929678090993,-12.819170729996138
4.095479145473042,1.1352486523777752,2.8045719764736,-12.7364226330375
4.103478128179043,-13.11251271617368,-0.12095625635617901,-2.7524923702957915
4.111477110885046,-15.534912258392675,-2.452288911495424,-1.476634028484232
4.1194760935910475,-15.89320002543233,-1.652390640895261,-1.4516372075279769
4.12747507629705,-16.251487792472027,-0.8524923702950096,-1.426640386571719
4.135474059003052,-16.609775559511682,-0.05259409969484663,-1.401643565615464
4.143473041709054,-16.96806332655138,0.7473041709054051,-1.3766467446592061
4.151472024415056,-17.326351093591036,1.5472024415055676,-1.3516499237029511
4.159471007121058,-17.68463886063073,2.34710071210582,-1.3266531027466932
4.16746998982706,-18.042926627670386,3.1469989827059823,-1.301656281790438
4.1754689725330625,-18.401214394710085,3.9468972533062336,-1.2766594608341801
4.183467955239064,-18.75950216174974,4.746795523906397,-1.2516626398779251
4.191466937945066,-19.117789928789396,5.54669379450656,-1.22666581892167
4.199465920651068,-19.47607769582909,6.346592065106811,-1.2016689979654123
4.20746490335707,-7.6841394617592895,5.415314898733139,-2.0853232220474087
4.215463886063072,1.391214279108474,5.196837140479051,-4.5
4.223462868769074,1.2397183945251102,5.14229862202904,-4.5
4.231461851475077,1.0882225099417298,5.087760103579023,-4.5
4.239460834181078,0.9367266253583663,5.033221585129012,-4.5
4.247459816887081,0.7852307407749858,4.978683066678995,-4.5
4.255458799593082,0.6337348561916222,4.924144548228984,-4.5
4.263457782299084,0.48223897160825846,4.869606029778973,-4.5
4.2714567650050865,0.330743087024878,4.815067511328956,-4.5
4.279455747711088,0.17924720244151437,4.760528992878945,-4.5
4.287454730417091,0.027751317858133895,4.705990474428928,-4.5
4.295453713123092,-0.12374456672522971,4.651451955978917,-4.5
4.303452695829095,-0.2752404513086102,4.5969134375289,-4.5
4.3114516785350965,-0.4267363358919738,4.542374919078889,-4.5
4.319450661241099,-0.5782322204753543,4.487836400628872,-4.5
4.327449643947101,-0.7297281050587179,4.433297882178861,-4.5
4.335448626653103,-0.8812239896420984,4.378759363728845,-4.5
4.343447609359105,-1.032719874225462,4.324220845278834,-4.5
4.351446592065106,-3.2349367824437016,3.662156663276691,-6.751446010753752
4.359445574771109,-19.059661615891173,4.116581892166844,-33.09307169245595
4.367444557477111,-21.217281951062677,3.5166581892167184,-33.7245703271403
4.375443540183113,-23.374902286234423,2.916734486266526,-34.35606896182471
4.383442522889115,-25.532522621405924,2.316810783316401,-34.98756759650905
4.391441505595117,-27.69014295657767,1.7168870803662086,-35.619066231193464
4.399440488301119,-29.847763291749175,1.1169633774160834,-36.250564865877806
4.407439471007121,-32.00538362692092,0.5170396744658916,-36.88206350056222
4.415438453713123,-34.16300396209242,-0.0828840284842336,-37.51356213524656
4.423437436419125,-36.320624297263926,-0.6828077314343597,-38.14506076993091
4.431436419125127,-38.47824463243567,-1.2827314343845515,-38.77655940461532
4.439435401831129,-38.10986775178027,13.901627670396676,36.03977619532043
4.447434384537131,-30.54899747317281,-18.564145308961983,33.45161618481923
4.455433367243133,-22.511310012142175,-16.151548912151824,27.74911561054067
4.4634323499491355,-14.473622551110644,-13.738952515341397,22.04661503626148
4.471431332655137,-6.4359350900800045,-11.326356118531237,16.34411446198292
4.47943031536114,1.6017523709515231,-8.91375972172081,10.641613887703727
4.487429298067141,9.639439831982166,-6.5011633249106495,4.9391133134251675
4.495428280773144,17.677127293013697,-4.088566928100223,-0.7633872608540244
4.5034272634791455,25.714814754044333,-1.6759705312900621,-6.465887835132584
4.511426246185147,-10.575584944048366,-15.175991861647557,4.355035605289618
4.51942522889115,-35.085773708601785,3.2141742963716573,13.978582570362834
4.527424211597151,-34.9435695716062,3.480807053238379,13.951919294676163
4.535423194303154,-34.8013654346106,3.74743981010513,13.925256018989487
4.543422177009155,-34.659161297615015,4.014072566971851,13.898592743302814
4.551421159715158,-34.51695716061941,4.280705323838603,13.87192946761614
4.55942014242116,-34.37475302362383,4.547338080705325,13.845266191929467
4.567419125127162,-34.23254888662823,4.813970837572075,13.818602916242792
4.575418107833164,-34.09034474963264,5.080603594438797,13.79193964055612
4.583417090539166,-33.94814061263704,5.347236351305549,13.765276364869445
4.591416073245168,-33.80593647564146,5.6138691081722705,13.738613089182772
4.5994150559511695,-33.66373233864587,5.880501865038991,13.7119498134961
4.607414038657172,-32.53661795986306,-0.019143623416666422,11.733746416350556
4.615413021363174,-30.609590307962684,-10.926847313418776,8.170563210949867
4.623412004069176,-28.682562656062096,-21.834551003422096,4.607380005548784
4.631410986775178,-24.220281143068707,12.367779524644675,1.1024784981042557
4.63940996948118,30.275788402856502,33.54079348931765,-4.821464903357684
4.647408952187182,38.859588683291626,27.90086790758195,-6.2942930723195385
4.6554079348931845,38.492067856259084,22.71954487549566,-7.151841668728813
4.663406917599186,38.12454702922658,17.53822184340995,-8.009390265137991
4.671405900305188,37.75702620219407,12.356898811324236,-8.86693886154717
4.67940488301119,37.38950537516153,7.1755757792379455,-9.724487457956446
4.687403865717192,37.02198454812902,1.9942527471522347,-10.582036054365624
4.695402848423194,36.65446372109648,-3.187070284934059,-11.439584650774897
4.703401831129196,36.28694289406397,-8.368393317019766,-12.297133247184078
4.711400813835199,35.91942206703142,-13.549716349106056,-13.154681843593352
4.7193997965412,35.55190123999892,-18.73103938119177,-14.012230440002531
4.727398779247203,35.18438041296637,-23.91236241327806,-14.869779036411805
4.735397761953204,34.81685958593386,-29.093685445363775,-15.727327632820984
4.743396744659207,34.44933875890132,-34.27500847745006,-16.584876229230257
4.7513957273652085,29.462075279759688,-36.88103763987985,-13.276520854530368
4.75939471007121,-10.766854711923536,-7.184231943032071,19.608970683439573
4.767393692777213,16.318972533064112,-2.661648016275831,-12.658036622584788
4.775392675483214,-35.04840435552542,-24.43623450510531,9.373848008741193
4.783391658189217,-31.532802079800874,-22.88581440036162,9.62073019102522
4.7913906408952185,-28.017199804076718,-21.3353942956181,9.86761237330922
4.799389623601221,-24.501597528352168,-19.78497419087441,10.114494555593247
4.807388606307223,-20.98599525262801,-18.234554086130892,10.361376737877247
4.815387589013225,-17.47039297690346,-16.6841339813872,10.608258920161274
4.823386571719227,-13.954790701179306,-15.133713876643682,10.855141102445273
4.831385554425229,-10.439188425454756,-13.58329377189999,11.102023284729302
4.839384537131231,-6.9235861497306,-12.032873667156473,11.348905467013301
4.847383519837233,-3.4079838740064403,-10.482453562412953,11.5957876492973
4.855382502543235,-5.084740590031505,0.7978636826054588,0.900305188200156
4.863381485249237,-1.6813260206112288,-5.823574682648534,-6.285297890220711
4.871380467955239,-2.1102569773099153,-5.406236454509272,-6.250519704542439
4.879379450661241,-2.539187934008554,-4.988898226370056,-6.215741518864172
4.887378433367243,-2.96811889070724,-4.571559998230794,-6.1809633331858995
4.895377416073245,-3.397049847405879,-4.154221770091578,-6.146185147507631
4.903376398779248,-3.825980804104565,-3.736883541952315,-6.11140696182936
4.911375381485249,-4.254911760803203,-3.3195453138130993,-6.076628776151091
4.919374364191251,-4.683842717501843,-2.9022070856738833,-6.041850590472824
4.927373346897253,-5.112773674200529,-2.4848688575346207,-6.007072404794552
4.935372329603255,-4.878738555442622,-3.160630722278689,-4.5116988809765814
4.9433713123092575,-3.7181557058225025,-3.773442642570768,-4.721680330321346
4.951370295015259,-3.412312249416556,-3.9616540003590424,-4.745206750044881
4.959369277721262,-3.1064687930105754,-4.149865358147339,-4.768733169768417
4.967368260427263,-2.8006253366046288,-4.338076715935613,-4.792259589491952
4.975367243133266,-2.4947818801986483,-4.526288073723909,-4.815786009215489
4.9833662258392675,-2.1889384237927016,-4.714499431512183,-4.8393124289390235
4.99136520854527,-1.8830949673867212,-4.902710789300479,-4.862838848662561
4.999364191251272,-1.5772515109807745,-5.0909221470887545,-4.886365268386094
5.007363173957273,-0.9445913869095666,-8.336317395727297,-6.818582570363415
5.015362156663276,-6.729773720821528,-6.046817519452315,-5.257457864782387
5.023361139369277,-6.4919661268593165,-6.2053559154271225,-5.452027714387832
5.03136012207528,-6.254158532897079,-6.363894311401947,-5.646597563993299
5.039359104781282,-6.016350938934868,-6.522432707376755,-5.841167413598745
5.047358087487284,-5.77854334497263,-6.68097110335158,-6.035737263204212
5.055357070193286,-5.540735751010418,-6.839509499326387,-6.230307112809657
5.063356052899288,-5.302928157048181,-6.998047895301212,-6.424876962415125
5.07135503560529,-5.065120563085969,-7.15658629127602,-6.61944681202057
5.0793540183112915,-4.827312969123758,-7.315124687250828,-6.814016661626016
5.087353001017294,-4.5895053751615205,-7.473663083225652,-7.008586511231483
5.095351983723296,-4.351697781199309,-7.63220147920046,-7.203156360836928
5.103350966429298,-4.113890187237072,-7.7907398751752845,-7.397726210442396
5.1113499491353,-3.8760825932748606,-7.949278271150092,-7.5922960600478415
5.119348931841302,-3.6382749993126233,-8.107816667124917,-7.786865909653308
5.127347914547304,-0.15208545269560814,-5.521668362156486,-11.047039674466127
5.1353468972533065,4.49605466849485,-7.1351364500862475,-8.782431774956876
5.143345879959308,3.8787418727055902,-7.343805564155856,-8.678097217922073
5.151344862665311,3.261429076916263,-7.552474678225488,-8.573762660887256
5.159343845371312,2.644116281127004,-7.761143792295097,-8.469428103852453
5.167342828077314,2.0268034853377452,-7.969812906364705,-8.365093546817647
5.1753418107833165,1.4094906895484174,-8.178482020434338,-8.26075898978283
5.183340793489318,0.7921778937591584,-8.387151134503945,-8.156424432748027
5.191339776195321,0.17486509796983096,-8.595820248573578,-8.05208987571321
5.199338758901322,-0.4424476978194276,-8.804489362643187,-7.947755318678406
5.207337741607325,-1.0597604936087555,-9.013158476712817,-7.843420761643591
5.215336724313326,-1.677073289398014,-9.221827590782427,-7.739086204608786
5.223335707019329,-2.294386085187342,-9.43049670485206,-7.63475164757397
5.2313346897253306,-0.10203458799608056,-0.34776195320431136,-9.68570701932876
5.239333672431333,-2.0571137916000355,-0.2239500072664944,-14.862025868333184
5.247332655137335,-1.8952477837523638,-0.7095044324952723,-14.84684881073488
5.255331637843336,-1.7809766022380542,-0.9380467955238914,-14.57069345540863
5.263330620549339,-1.6667054207237322,-1.1665891585525359,-14.294538100082352
5.2713296032553405,-1.5524342392094224,-1.395131521581155,-14.018382744756103
5.279328585961343,-1.4381630576951001,-1.6236738846097996,-13.742227389429825
5.287327568667345,-1.3238918761807907,-1.8522162476384187,-13.466072034103577
5.295326551373347,-1.2096206946664685,-2.080758610667063,-13.189916678777298
5.303325534079349,-1.095349513152159,-2.309300973695682,-12.91376132345105
5.311324516785351,-0.9810783316378366,-2.5378433367243267,-12.63760596812477
5.319323499491353,-0.866807150123527,-2.766385699752946,-12.361450612798523
5.327322482197355,-1.1322482197354387,-2.2355035605291227,-8.213021363174736
5.335321464903357,-1.2457591556459802,-1.8712042217700993,-7.857591556459802
5.343320447609359,-1.2957527975584904,-1.6212360122075484,-8.357527975584905
5.351319430315361,-1.231380340793491,-1.8516054170905334,-8.69735185656154
5.359318413021363,-1.1563898779247257,-2.1265704476093394,-9.022310528992856
5.367317395727365,-1.081399415055952,-2.4015354781281757,-9.347269201424208
5.375316378433367,-1.0064089521871868,-2.6765005086469817,-9.672227873855523
5.38331536113937,-0.9587866978063702,-2.720606651096815,-9.761819953290445
5.391314343845371,-0.9137220065049524,-2.7431389967475237,-9.82941699024257
5.399313326551374,-0.8686573152035295,-2.7656713423982353,-9.897014027194706
5.407312309257375,-0.8235926239021117,-2.7882036880489443,-9.964611064146832
5.415311291963377,-0.7785279326006939,-2.810736033699653,-10.03220810109896
5.4233102746693795,-0.733463241299271,-2.8332683793503644,-10.099805138051094
5.431309257375381,-0.6883985499978532,-2.8558007250010733,-10.16740217500322
5.439308240081384,-0.6433338586964303,-2.878333070651785,-10.234999211955355
5.447307222787385,-0.6068271730530056,-2.8385554425229493,-10.252209788628962
5.455306205493388,-0.7845823442974994,-1.2387589013225058,-9.007923589917505
5.4633051881993895,-0.1252129959308192,0.0,-9.996398143438455
5.471304170905392,-0.21270186927772172,0.0,-9.983899732960326
5.479303153611394,-0.30019074262461454,0.0,-9.971401322482198
5.487302136317396,-0.387679615971517,0.0,-9.958902912004069
5.495301119023398,-0.4751684893184098,0.0,-9.946404501525942
5.503300101729399,-0.5626573626653026,0.0,-9.933906091047815
5.511299084435402,-0.6501462360122051,0.0,-9.921407680569684
5.519298067141404,-0.7376351093590979,0.0,-9.908909270091558
5.527297049847406,-1.1533922842162723,0.19436575631894976,-10.059026527897323
5.535296032553408,-2.384005008216533,0.8712027545190932,-10.61280225369744
5.54329501525941,-2.5945113440109746,0.8931391800137183,-10.497255672005487
5.551293997965412,-2.4456930611086176,0.707116326385772,-10.422846530554308
5.559292980671414,-2.296874778206244,0.5210934727578052,-10.348437389103122
5.567291963377416,-2.148056495303887,0.3350706191298589,-10.274028247651943
5.575290946083418,-1.9992382124015302,0.14904776550191268,-10.199619106200764
5.58328992878942,-1.8504199294991566,-0.03697508812605421,-10.125209964749578
5.591288911495422,-1.7016016465967996,-0.22299794175400056,-10.050800823298399
5.599287894201424,-1.552783363694426,-0.40902079538196745,-9.976391681847213
5.607286876907426,-1.403965080792069,-0.5950436490099137,-9.901982540396034
5.6152858596134285,-1.2551467978896955,-0.7810665026378806,-9.827573398944848
5.62328484231943,-1.1063285149873385,-0.9670893562658268,-9.753164257493669
5.631283825025433,-0.8287131230925353,-1.4425737538149292,-9.471617497456714
5.639282807731434,-0.4962695366688248,-2.6074609266623505,-9.4
5.647281790437437,-0.4871797835938219,-2.6256404328123564,-9.4
5.6552807731434385,-0.4780900305188201,-2.64381993896236,-9.4
5.66327975584944,-0.4690002774438182,-2.6619994451123636,-9.4
5.671278738555443,-0.4599105243688154,-2.680178951262369,-9.4
5.679277721261444,-0.45082077129381354,-2.6983584574123727,-9.4
5.687276703967447,-0.44173101821881067,-2.7165379635623785,-9.4
5.695275686673448,-0.43264126514380885,-2.734717469712382,-9.4
5.703274669379451,-0.423551512068806,-2.752896975862388,-9.4
5.711273652085453,-0.4144617589938041,-2.7710764820123917,-9.4
5.719272634791455,-0.4053720059188013,-2.7892559881623975,-9.4
5.727271617497457,-0.427263479145472,-2.745473041709056,-9.318209562563585
5.735270600203458,-0.49392166836215473,-2.6121566632756905,-9.118234994913536
5.743269582909461,-0.7253916581892184,-1.7238250254323453,-9.288087487283828
5.7512685656154625,-0.8110871834167861,-1.4556512663328558,-9.405543591708394
5.759267548321465,-0.8318637618739355,-1.3725449525042581,-9.415931880936968
5.767266531027467,-0.8526403403310826,-1.2894386386756698,-9.42632017016554
5.775265513733469,-0.873416918788232,-1.206332324847072,-9.436708459394117
5.783264496439471,-0.8941934972453791,-1.1232260110184835,-9.44709674862269
5.791263479145473,-0.9149700757025285,-1.0401196971898858,-9.457485037851264
5.799262461851475,-0.9357466541596757,-0.9570133833612974,-9.467873327079838
5.8072614445574775,-0.956523232616825,-0.8739070695326997,-9.478261616308412
5.815260427263479,-0.9772998110739721,-0.7908007557041112,-9.488649905536986
5.823259409969481,-0.9980763895311193,-0.7076944418755228,-9.499038194765559
5.831258392675483,-1.798888633653837,0.49833295048075554,-10.999444316826919
5.839257375381485,-1.764484406961357,0.4467266104420353,-10.982242203480679
5.8472563580874874,-1.730080180268873,0.3951202704033094,-10.965040090134437
5.855255340793489,-1.6956759535763928,0.3435139303645891,-10.947837976788197
5.863254323499492,-1.6612717268839088,0.2919075903258632,-10.930635863441955
5.871253306205493,-1.6268675001914286,0.24030125028714294,-10.913433750095715
5.879252288911496,-1.5924632734989446,0.188694910248417,-10.896231636749473
5.887251271617497,-1.5580590468064646,0.13708857020969678,-10.879029523403233
5.8952502543235,-1.5236548201139806,0.08548223017097079,-10.861827410056991
5.9032492370295016,-1.4892505934215003,0.03387589013225056,-10.84462529671075
5.911248219735503,-1.4548463667290201,-0.01773044990646966,-10.82742318336451
5.919247202441506,-1.4204421400365361,-0.06933678994519565,-10.810221070018269
5.927246185147507,-0.8876907426246172,-1.1492370295015313,-9.224618514750764
5.93524516785351,-0.6955314022594633,-1.91340579322161,-9.4
5.9432441505595115,-0.6871114204636721,-1.9386657386089836,-9.4
5.951243133265514,-0.67869143866788,-1.9639256839963601,-9.4
5.959242115971516,-0.6702714568720887,-1.9891856293837338,-9.4
5.967241098677518,-0.6618514750762966,-2.01444557477111,-9.4
5.97524008138352,-0.6534314932805053,-2.039705520158484,-9.4
5.983239064089521,-0.6450115114847141,-2.0649654655458574,-9.4
5.991238046795524,-0.636591529688922,-2.090225410933234,-9.4
5.999237029501526,-0.6281715478931308,-2.1154853563206077,-9.4
6.007236012207528,-0.6197515660973386,-2.1407453017079843,-9.4
6.01523499491353,-0.6113315843015474,-2.1660052470953577,-9.4
6.023233977619532,-0.6029116025057553,-2.191265192482734,-9.4
6.031232960325534,-0.6,-2.0691759918616475,-9.4
6.039231943031536,-0.8035427667167246,-1.189371699849826,-9.507085533433449
6.047230925737538,-0.816239564662759,-1.1512813060117228,-9.532479129325518
6.055229908443541,-0.8289363626087949,-1.1131909121736154,-9.557872725217589
6.063228891149542,-0.8416331605548293,-1.0751005183355122,-9.583266321109658
6.071227873855544,-0.8543299585008637,-1.037010124497409,-9.608659917001727
6.079226856561546,-0.8670267564468994,-0.9989197306593017,-9.634053512893798
6.087225839267548,-0.8797235543929338,-0.9608293368211985,-9.659447108785868
6.0952248219735505,-0.8924203523389697,-0.9227389429830912,-9.684840704677939
6.103223804679552,-0.958614630537318,-0.7241561083880461,-9.846536576343293
6.111222787385555,-1.1222787385554849,-0.2777212614445151,-10.2
6.119221770091556,-1.2802418899061772,-0.2802418899061772,-10.280241889906177
6.127220752797559,-1.2929309627300472,-0.3141380745399056,-10.3
6.1352197355035605,-1.2838412096550453,-0.33231758068990946,-10.3
6.143218718209562,-1.2747514565800433,-0.3504970868399133,-10.3
6.151217700915565,-1.2656617035050404,-0.3686765929899193,-10.3
6.159216683621566,-1.2565719504300383,-0.38685609913992314,-10.3
6.167215666327569,-1.2474821973550354,-0.40503560528992905,-10.3
6.17521464903357,-1.2383924442800336,-0.4232151114399329,-10.3
6.183213631739573,-1.2293026912050307,-0.4413946175899388,-10.3
6.191212614445575,-1.2202129381300286,-0.45957412373994266,-10.3
6.199211597151577,-1.2111231850550257,-0.47775362988994863,-10.3
6.207210579857579,-1.2020334319800237,-0.4959331360399525,-10.3
6.215209562563581,-0.9989003976694719,-1.0021992046610562,-9.6
6.223208545269583,-0.9916285952094704,-1.0167428095810591,-9.6
6.2312075279755845,-0.9843567927494689,-1.0312864145010623,-9.6
6.239206510681587,-0.9770849902894666,-1.0458300194210668,-9.6
6.247205493387589,-0.969813187829465,-1.06037362434107,-9.6
6.255204476093591,-0.9625413853694628,-1.0749172292610745,-9.6
6.263203458799593,-0.9552695829094612,-1.0894608341810776,-9.6
6.271202441505595,-0.9479977804494589,-1.1040044391010821,-9.6
6.279201424211597,-0.9407259779894573,-1.1185480440210853,-9.6
6.2872004069175995,-0.933454175529455,-1.13309164894109,-9.6
6.295199389623601,-0.9261823730694535,-1.147635253861093,-9.6
6.303198372329604,-0.9189105706094511,-1.1621788587810977,-9.6
6.311197355035605,-0.9116387681494497,-1.1767224637011007,-9.6
6.319196337741607,-0.9043669656894482,-1.1912660686211036,-9.6
6.3271953204476095,-0.8,-1.4597660223804718,-9.5
6.335194303153611,-0.704236669852132,-1.295763330147868,-9.5
6.343193285859614,-0.7123164503632458,-1.2876835496367542,-9.5
6.351192268565615,-0.7203962308743586,-1.2796037691256414,-9.5
6.359191251271618,-0.7284760113854722,-1.2715239886145278,-9.5
6.367190233977619,-0.736555791896585,-1.263444208103415,-9.5
6.375189216683622,-0.7446355724076988,-1.2553644275923013,-9.5
6.383188199389624,-0.7527153529188116,-1.2472846470811885,-9.5
6.391187182095625,-0.7607951334299244,-1.2392048665700754,-9.5
6.399186164801628,-0.7688749139410382,-1.2311250860589618,-9.5
6.407185147507629,-0.776954694452151,-1.223045305547849,-9.5
6.415184130213632,-0.7850344749632647,-1.2149655250367353,-9.5
6.4231831129196335,-0.7931142554743775,-1.2068857445256225,-9.5
6.431182095625636,-0.859104781281796,-1.140895218718204,-9.559104781281796
6.439181078331638,-0.983621566632748,-0.916378433367252,-9.883621566632748
6.44718006103764,-1.1,-0.7,-9.9
6.455179043743642,-1.1,-0.7,-9.9
6.463178026449644,-1.1,-0.7,-9.9
6.471177009155646,-1.1,-0.7,-9.9
6.479175991861648,-1.1,-0.7,-9.9
6.48717497456765,-1.1,-0.7,-9.9
6.495173957273652,-1.1,-0.7,-9.9
6.503172939979654,-1.1,-0.7208646998982726,-9.920864699898273
6.511171922685656,-1.1,-0.7608596134282799,-9.96085961342828
6.519170905391658,-1.0943031536113899,-0.8056968463886104,-9.98860630722278
6.52716988809766,-0.9,-1.0032345796914899,-9.6
6.535168870803663,-0.9,-1.0113968069425128,-9.6
6.543167853509664,-0.9,-1.019559034193535,-9.6
6.551166836215667,-0.9,-1.0277212614445579,-9.6
6.559165818921668,-0.9,-1.0358834886955801,-9.6
6.56716480162767,-0.9,-1.0440457159466021,-9.6
6.5751637843336725,-0.9,-1.0522079431976252,-9.6
6.583162767039674,-0.9,-1.0603701704486472,-9.6
6.591161749745677,-0.9,-1.0685323976996703,-9.6
6.599160732451678,-0.9,-1.0766946249506923,-9.6
6.607159715157681,-0.9,-1.0848568522017152,-9.6
6.6151586978636825,-0.9,-1.0930190794527375,-9.6
6.623157680569685,-0.9,-1.080705323838582,-9.619294676161418
6.631156663275687,-0.821083418107828,-1.157833163784344,-9.7
6.639155645981688,-0.8,-1.1924677410719067,-9.7
6.647154628687691,-0.8,-1.1840477592761147,-9.7
6.655153611393692,-0.8,-1.1756277774803237,-9.7
6.663152594099695,-0.8,-1.1672077956845315,-9.7
6.671151576805697,-0.8,-1.1587878138887404,-9.7
6.679150559511699,-0.8,-1.1503678320929482,-9.7
6.687149542217701,-0.8,-1.1419478502971572,-9.7
6.695148524923703,-0.8,-1.1335278685013652,-9.7
6.703147507629705,-0.8,-1.125107886705574,-9.7
6.711146490335707,-0.8,-1.116687904909782,-9.7
6.719145473041709,-0.8,-1.108267923113991,-9.7
6.727144455747711,-0.8144455747710462,-1.085554425228954,-9.685554425228954
6.735143438453713,-1.0,-0.8,-9.9
6.743142421159715,-1.0,-0.8,-9.9
6.751141403865717,-1.0,-0.8,-9.9
6.759140386571719,-1.0,-0.8,-9.9
6.7671393692777215,-1.0,-0.8,-9.9
6.775138351983723,-1.0,-0.8,-9.9
6.783137334689726,-1.0,-0.8,-9.9
6.791136317395727,-1.0,-0.8,-9.9
6.799135300101729,-1.0,-0.8,-9.9
6.8071342828077315,-1.0,-0.9012207527975554,-9.798779247202445
6.815133265513733,-1.0,-0.9739387773975754,-9.726061222602425
6.823132248219736,-0.9951582563964755,-1.0,-9.7
6.831131230925737,-0.987612046296474,-1.0,-9.7
6.83913021363174,-0.9800658361964717,-1.0,-9.7
6.847129196337741,-0.9725196260964702,-1.0,-9.7
6.855128179043744,-0.9649734159964679,-1.0,-9.7
6.863127161749746,-0.9574272058964663,-1.0,-9.7
6.871126144455748,-0.949880995796464,-1.0,-9.7
6.87912512716175,-0.9423347856964626,-1.0,-9.7
6.887124109867751,-0.9347885755964611,-1.0,-9.7
6.895123092573754,-0.9272423654964588,-1.0,-9.7
6.9031220752797555,-0.9196961553964573,-1.0,-9.7
6.911121057985758,-0.912149945296455,-1.0,-9.7
6.91912004069176,-0.9046037351964535,-1.0,-9.7
6.927119023397762,-0.9,-1.1,-9.686012207527973
6.935118006103764,-0.9,-1.1,-9.6
6.943116988809766,-0.9,-1.1,-9.6
6.951115971515768,-0.9,-1.1,-9.6
6.9591149542217705,-0.9,-1.1,-9.6
6.967113936927772,-0.9,-1.1,-9.6
6.975112919633774,-0.9,-1.1,-9.6
6.983111902339776,-0.9,-1.1,-9.6
6.991110885045778,-0.9,-1.1,-9.6
6.9991098677517805,-0.9,-1.1,-9.6
7.007108850457782,-0.9444121493968898,-0.9555878506031102,-9.8
7.015107833163785,-1.0,-0.9,-9.802799849697104
7.023106815869786,-1.0,-0.9,-9.810006140423232
7.031105798575789,-1.0,-0.9,-9.81721243114936
7.03910478128179,-1.0,-0.9,-9.824418721875487
7.047103763987792,-1.0,-0.9,-9.831625012601615
7.055102746693795,-1.0,-0.9,-9.838831303327744
7.063101729399796,-1.0,-0.9,-9.846037594053872
7.071100712105799,-1.0,-0.9,-9.85324388478
7.0790996948118,-1.0,-0.9,-9.860450175506127
7.087098677517803,-1.0,-0.9,-9.867656466232255
7.0950976602238045,-1.0,-0.9,-9.874862756958382
7.103096642929807,-1.0,-0.9,-9.882069047684512
7.111095625635809,-1.0,-0.9,-9.88927533841064
7.119094608341811,-1.0,-0.9,-9.896481629136767
7.127093591047813,-0.9302136317395755,-0.9697863682604245,-9.760427263479151
7.1350925737538144,-0.90971585445728,-1.0,-9.69028414554272
7.143091556459817,-0.9206733650134479,-1.0,-9.679326634986552
7.151090539165819,-0.9316308755696145,-1.0,-9.668369124430384
7.159089521871821,-0.9425883861257826,-1.0,-9.657411613874217
7.167088504577823,-0.9535458966819492,-1.0,-9.64645410331805
7.175087487283825,-0.9645034072381171,-1.0,-9.635496592761882
7.183086469989827,-0.9754609177942838,-1.0,-9.624539082205716
7.191085452695829,-0.9864184283504517,-1.0,-9.613581571649547
7.199084435401831,-0.9973759389066184,-1.0,-9.602624061093382
7.207083418107834,-0.9,-1.0,-9.600834181078337
7.215082400813835,-0.9,-1.0,-9.680824008138355
7.223081383519837,-0.9,-1.0,-9.7
7.231080366225839,-0.9,-1.0,-9.7
7.239079348931841,-0.9,-1.0,-9.7
7.2470783316378435,-0.9,-1.0,-9.7
7.255077314343845,-0.9,-1.0,-9.7
7.263076297049848,-0.9,-1.0,-9.7
7.271075279755849,-0.9,-1.0,-9.7
7.279074262461852,-0.9,-1.0,-9.7
7.2870732451678535,-0.9,-1.0,-9.7
7.295072227873855,-0.9,-1.0,-9.7
7.303071210579858,-0.9,-1.0,-9.7
7.311070193285859,-0.9,-1.0,-9.7
7.319069175991862,-0.9,-1.0,-9.7
7.327068158697863,-0.9,-1.0,-9.7
7.335067141403866,-0.9,-1.0,-9.7
7.343066124109868,-0.9,-1.0,-9.7
7.35106510681587,-0.9,-1.0,-9.7
7.359064089521872,-1.0,-0.9,-9.8
7.367063072227874,-0.9892983754123121,-0.9,-9.8
7.375062054933876,-0.977178704645643,-0.9,-9.8
7.3830610376398775,-0.9650590338789738,-0.9,-9.8
7.39106002034588,-0.9529393631123033,-0.9,-9.8
7.399059003051882,-0.9408196923456341,-0.9,-9.8
7.407057985757884,-0.9287000215789636,-0.9,-9.8
7.415056968463886,-0.9165803508122945,-0.9,-9.8
7.423055951169888,-0.904460680045624,-0.9,-9.8
7.43105493387589,-0.9589013224822045,-1.0,-9.758901322482204
7.4390539165818925,-0.9,-1.0,-9.7
7.447052899287894,-0.9,-1.0,-9.7
7.455051881993896,-0.9,-1.0,-9.7
7.463050864699898,-0.9,-1.0,-9.7
7.4710498474059,-0.9,-1.0,-9.7
7.4790488301119025,-0.9,-1.0,-9.7
7.487047812817904,-0.9,-1.0,-9.7
7.495046795523907,-0.9,-1.0,-9.7
7.503045778229908,-0.9,-1.0,-9.7
7.511044760935911,-0.9,-1.0,-9.7
7.519043743641912,-0.9,-1.0,-9.7
7.527042726347915,-0.9,-1.0,-9.7
7.535041709053917,-0.9,-1.0,-9.717361817565278
7.543040691759918,-0.9011961974251935,-0.9988038025748065,-9.7
7.551039674465921,-0.9103904304205988,-0.9896095695794013,-9.7
7.559038657171922,-0.919584663416003,-0.980415336583997,-9.7
7.567037639877925,-0.9287788964114082,-0.9712211035885918,-9.7
7.5750366225839265,-0.9379731294068124,-0.9620268705931876,-9.7
7.583035605289929,-0.9471673624022177,-0.9528326375977824,-9.7
7.591034587995931,-0.9563615953976219,-0.9436384046023781,-9.7
7.599033570701933,-0.965555828393027,-0.9344441716069729,-9.7
7.607032553407935,-0.9747500613884312,-0.9252499386115688,-9.7
7.615031536113937,-0.9839442943838365,-0.9160557056161636,-9.7
7.623030518819939,-0.9931385273792407,-0.9068614726207593,-9.7
7.631029501525941,-1.0,-1.0,-9.80857917938284
7.639028484231943,-1.0,-1.0,-9.875237368599525
7.647027466937945,-0.9962156663275692,-0.9,-9.603784333672431
7.655026449643947,-0.986216937945066,-0.9,-9.613783062054933
7.663025432349949,-0.976218209562564,-0.9,-9.623781790437436
7.6710244150559515,-0.9662194811800608,-0.9,-9.633780518819938
7.679023397761953,-0.9562207527975588,-0.9,-9.64377924720244
7.687022380467956,-0.9462220244150557,-0.9,-9.653777975584944
7.695021363173957,-0.9362232960325537,-0.9,-9.663776703967446
7.703020345879959,-0.9262245676500517,-0.9,-9.673775432349947
7.711019328585961,-0.9162258392675485,-0.9,-9.683774160732451
7.719018311291963,-0.9062271108850465,-0.9,-9.693772889114953
7.7270172939979656,-0.9127161749745697,-1.0,-9.787283825025431
7.735016276703967,-0.9491861648016344,-1.0,-9.649186164801634
7.74301525940997,-0.9077947326777445,-1.0,-9.607794732677744
7.751014242115971,-0.9166824912399685,-1.0,-9.616682491239969
7.759013224821974,-0.9255702498021935,-1.0,-9.625570249802193
7.7670122075279755,-0.9344580083644175,-1.0,-9.634458008364417
7.775011190233978,-0.9433457669266426,-1.0,-9.643345766926641
7.78301017293998,-0.9522335254888666,-1.0,-9.652233525488866
7.791009155645981,-0.9611212840510907,-1.0,-9.66112128405109
7.799008138351984,-0.9700090426133158,-1.0,-9.670009042613316
7.807007121057985,-0.9788968011755398,-1.0,-9.678896801175538
7.815006103763988,-0.9877845597377648,-1.0,-9.687784559737764
7.82300508646999,-0.9966723182999888,-1.0,-9.696672318299989
7.831004069175992,-1.0751017293998042,-0.975101729399804,-9.950203458799608
7.839003051881994,-1.1,-0.9924698366860281,-9.977409510058084
7.847002034587996,-1.1,-0.9838687800129071,-9.95160634003872
7.855001017293998,-1.1,-0.9752677233397871,-9.92580317001936
7.863,-1.1,-0.966666666666666,-9.899999999999999
7.870998982706002,-1.1,-0.958065609993546,-9.874196829980638
7.878997965412004,-1.1,-0.949464553320426,-9.848393659961278
7.886996948118006,-1.1,-0.940863496647305,-9.822590489941915
7.894995930824008,-1.1,-0.9322624399741849,-9.796787319922554
7.90299491353001,-1.1,-0.923661383301064,-9.77098414990319
7.910993896236012,-1.1,-0.9150603266279439,-9.74518097988383
7.9189928789420145,-1.1,-0.906459269954823,-9.719377809864469
7.926991861648016,-1.0004069175991717,-0.7008138351983434,-9.500813835198343
7.934990844354019,-1.0,-0.9,-9.993636501374429
7.94298982706002,-1.0,-0.9,-9.976617389234
7.950988809766022,-1.0,-0.9,-9.959598277093571
7.9589877924720245,-1.0,-0.9,-9.94257916495314
7.966986775178026,-1.0,-0.9,-9.925560052812711
7.974985757884029,-1.0,-0.9,-9.90854094067228
7.98298474059003,-1.0,-0.9,-9.89152182853185
7.990983723296033,-1.0,-0.9,-9.87450271639142
7.998982706002034,-1.0,-0.9,-9.85748360425099
8.006981688708036,-1.0,-0.9,-9.840464492110563
8.014980671414039,-1.0,-0.9,-9.823445379970131
8.022979654120041,-1.0,-0.9,-9.8064262678297
8.030978636826042,-1.0,-0.9,-9.6
8.038977619532044,-0.9580125287787172,-0.9419874712212828,-9.683974942442566
8.046976602238047,-0.9159126197997568,-0.9840873802002432,-9.768174760400488
8.05497558494405,-0.9,-1.0,-9.793276236562097
8.06297456765005,-0.9,-1.0,-9.782466800472907
8.070973550356053,-0.9,-1.0,-9.771657364383714
8.078972533062055,-0.9,-1.0,-9.76084792829452
8.086971515768058,-0.9,-1.0,-9.750038492205329
8.094970498474058,-0.9,-1.0,-9.739229056116137
8.102969481180061,-0.9,-1.0,-9.728419620026946
8.110968463886064,-0.9,-1.0,-9.717610183937753
8.118967446592064,-0.9,-1.0,-9.706800747848561
8.126966429298067,-0.9483214649033509,-0.9,-9.64832146490335
8.13496541200407,-1.0,-0.9,-9.8
8.142964394710072,-1.0,-0.9,-9.8
8.150963377416073,-1.0,-0.9,-9.8
8.158962360122075,-1.0,-0.9,-9.8
8.166961342828078,-1.0,-0.9,-9.8
8.17496032553408,-1.0,-0.9,-9.8
8.18295930824008,-1.0,-0.9,-9.8
8.190958290946083,-1.0,-0.9,-9.8
8.198957273652086,-1.0,-0.9,-9.8
8.206956256358087,-1.0,-0.9,-9.8
8.21495523906409,-1.0,-0.9,-9.8
8.222954221770092,-1.0,-0.9,-9.8
8.230953204476094,-1.0,-0.9,-9.8
8.238952187182095,-1.0,-0.9,-9.8
8.246951169888098,-1.0,-0.9,-9.8
8.2549501525941,-1.0,-0.9,-9.8
8.262949135300103,-1.0,-0.9987673567531141,-9.698767356753114
8.270948118006103,-1.0,-0.9883790675245417,-9.688379067524542
8.278947100712106,-1.0,-0.977990778295967,-9.677990778295966
8.286946083418108,-1.0,-0.9676024890673923,-9.667602489067392
8.294945066124109,-1.0,-0.95721419983882,-9.657214199838819
8.302944048830112,-1.0,-0.9468259106102452,-9.646825910610245
8.310943031536114,-1.0,-0.9364376213816705,-9.63643762138167
8.318942014242117,-1.0,-0.9260493321530958,-9.626049332153096
8.326940996948117,-1.0,-0.9156610429245234,-9.615661042924524
8.33493997965412,-1.0,-0.9052727536959487,-9.605272753695948
8.342938962360122,-1.0,-0.9,-9.696948118006125
8.350937945066125,-1.0,-0.8951976279681397,-9.59039525593628
8.358936927772126,-1.0,-0.8854427710096023,-9.570885542019205
8.366935910478128,-1.0,-0.8756879140510628,-9.551375828102126
8.37493489318413,-1.0,-0.8659330570925232,-9.531866114185046
8.382933875890132,-1.0,-0.8561782001339858,-9.512356400267972
8.390932858596134,-1.0,-0.8464233431754462,-9.492846686350893
8.398931841302137,-1.0,-0.8366684862169067,-9.473336972433813
8.406930824008139,-1.0,-0.8269136292583671,-9.453827258516734
8.41492980671414,-1.0,-0.8171587722998297,-9.43431754459966
8.422928789420142,-1.0,-0.8074039153412902,-9.41480783068258
8.430927772126145,-1.0,-0.8,-9.435050402293541
8.438926754832146,-1.0,-0.8,-9.580486451493563
8.446925737538148,-1.1,-0.9,-9.989425045042841
8.45492472024415,-1.1,-0.9,-9.960513059358494
8.462923702950153,-1.1,-0.9,-9.931601073674146
8.470922685656154,-1.1,-0.9,-9.902689087989806
8.478921668362156,-1.1,-0.9,-9.873777102305459
8.486920651068159,-1.1,-0.9,-9.844865116621111
8.494919633774161,-1.1,-0.9,-9.815953130936764
8.502918616480162,-1.1,-0.9,-9.787041145252424
8.510917599186165,-1.1,-0.9,-9.758129159568076
8.518916581892167,-1.1,-0.9,-9.72921717388373
8.526915564598168,-1.1,-0.9,-9.700305188199389
8.53491454730417,-1.0819091217361834,-0.7819091217361832,-9.927636486944733
8.542913530010173,-1.1,-0.8,-9.98428743179506
8.550912512716176,-1.1,-0.8,-9.966107925645055
8.558911495422176,-1.1,-0.8,-9.947928419495053
8.566910478128179,-1.1,-0.8,-9.929748913345048
8.574909460834181,-1.1,-0.8,-9.911569407195042
8.582908443540184,-1.1,-0.8,-9.893389901045037
8.590907426246185,-1.1,-0.8,-9.875210394895035
8.598906408952187,-1.1,-0.8,-9.85703088874503
8.60690539165819,-1.1,-0.8,-9.838851382595024
8.61490437436419,-1.1,-0.8,-9.820671876445024
8.622903357070193,-1.1,-0.8,-9.802492370295019
8.630902339776195,-1.0487792472024404,-0.8,-9.65122075279756
8.638901322482198,-1.1,-0.795665197242002,-9.604334802757998
8.646900305188199,-1.1,-0.7867774386797789,-9.613222561320221
8.654899287894201,-1.1,-0.7778896801175539,-9.622110319882445
8.662898270600204,-1.1,-0.7690019215553289,-9.630998078444671
8.670897253306206,-1.1,-0.7601141629931039,-9.639885837006895
8.678896236012207,-1.1,-0.7512264044308807,-9.648773595569118
8.68689521871821,-1.1,-0.7423386458686557,-9.657661354131344
8.694894201424212,-1.1,-0.7334508873064306,-9.666549112693568
8.702893184130213,-1.1,-0.7245631287442076,-9.675436871255792
8.710892166836215,-1.1,-0.7156753701819826,-9.684324629818017
8.718891149542218,-1.1,-0.7067876116197574,-9.693212388380243
8.72689013224822,-1.1,-0.7,-9.889013224822014
8.734889114954221,-1.1,-0.8,-9.85277212614448
8.742888097660224,-1.1,-0.8067679283450846,-9.8
8.750887080366226,-1.1,-0.8159621613404898,-9.8
8.758886063072229,-1.1,-0.825156394335895,-9.8
8.76688504577823,-1.1,-0.8343506273312983,-9.8
8.774884028484232,-1.1,-0.8435448603267035,-9.8
8.782883011190235,-1.1,-0.8527390933221087,-9.8
8.790881993896235,-1.1,-0.8619333263175118,-9.8
8.798880976602238,-1.1,-0.8711275593129171,-9.8
8.80687995930824,-1.1,-0.8803217923083223,-9.8
8.814878942014243,-1.1,-0.8895160253037275,-9.8
8.822877924720244,-1.1,-0.8987102582991308,-9.8
8.830876907426246,-1.1,-0.9,-9.8
8.838875890132249,-1.1,-0.9,-9.8
8.84687487283825,-1.1,-0.9,-9.702502543235003
8.854873855544252,-1.1,-0.8934137087239835,-9.706586291276016
8.862872838250254,-1.1,-0.8826042726347909,-9.717395727365208
8.870871820956257,-1.1,-0.8717948365455982,-9.728205163454401
8.878870803662258,-1.1,-0.860985400456408,-9.739014599543593
8.88686978636826,-1.1,-0.8501759643672154,-9.749824035632784
8.894868769074263,-1.1,-0.8393665282780228,-9.760633471721977
8.902867751780265,-1.1,-0.8285570921888301,-9.77144290781117
8.910866734486266,-1.1,-0.81774765609964,-9.78225234390036
8.918865717192269,-1.1,-0.8069382200104473,-9.793061779989554
8.926864699898271,-1.0,-0.8,-9.72706002034573
8.934863682604272,-1.0,-0.8,-9.7
8.942862665310274,-1.0,-0.8,-9.708736294789192
8.950861648016277,-1.0,-0.8,-9.717624053351418
8.95886063072228,-1.0,-0.8,-9.726511811913642
8.96685961342828,-1.0,-0.8,-9.735399570475867
8.974858596134283,-1.0,-0.8,-9.744287329038091
8.982857578840285,-1.0,-0.8,-9.753175087600317
8.990856561546288,-1.0,-0.8,-9.762062846162541
8.998855544252288,-1.0,-0.8,-9.770950604724765
9.006854526958291,-1.0,-0.8,-9.77983836328699
9.014853509664293,-1.0,-0.8,-9.788726121849216
9.022852492370294,-1.0,-0.8,-9.797613880411438
9.030851475076297,-1.1,-0.8,-9.8
9.0388504577823,-1.0925538502366314,-0.8,-9.8
9.046849440488302,-1.0838593038170634,-0.8,-9.8
9.054848423194302,-1.0751647573974976,-0.8,-9.8
9.062847405900305,-1.0664702109779296,-0.8,-9.8
9.070846388606308,-1.0577756645583616,-0.8,-9.8
9.07884537131231,-1.0490811181387938,-0.8,-9.8
9.08684435401831,-1.0403865717192278,-0.8,-9.8
9.094843336724313,-1.0316920252996598,-0.8,-9.8
9.102842319430316,-1.022997478880092,-0.8,-9.8
9.110841302136317,-1.014302932460526,-0.8,-9.8
9.11884028484232,-1.0056083860409581,-0.8,-9.8
9.126839267548322,-1.0,-0.9,-9.616073245167883
9.134838250254324,-1.0,-0.8948529252613581,-9.8
9.142837232960325,-1.0,-0.8863433691911445,-9.8
9.150836215666327,-1.0,-0.877833813120929,-9.8
9.15883519837233,-1.0,-0.8693242570507135,-9.8
9.166834181078332,-1.0,-0.860814700980498,-9.8
9.174833163784333,-1.0,-0.8523051449102844,-9.8
9.182832146490336,-1.0,-0.8437955888400689,-9.8
9.190831129196338,-1.0,-0.8352860327698534,-9.8
9.198830111902339,-1.0,-0.8267764766996397,-9.8
9.206829094608342,-1.0,-0.8182669206294243,-9.8
9.214828077314344,-1.0,-0.8097573645592088,-9.8
9.222827060020347,-1.0,-0.8012478084889932,-9.8
9.230826042726347,-1.0,-0.9,-9.747825534079343
9.23882502543235,-1.0,-0.9,-9.8
9.246824008138352,-1.0,-0.9,-9.8
9.254822990844355,-1.0,-0.9,-9.8
9.262821973550356,-1.0,-0.9,-9.8
9.270820956256358,-1.0,-0.9,-9.8
9.27881993896236,-1.0,-0.9,-9.8
9.286818921668361,-1.0,-0.9,-9.8
9.294817904374364,-1.0,-0.9,-9.8
9.302816887080366,-1.0,-0.9,-9.8
9.310815869786369,-1.0,-0.9,-9.8
9.31881485249237,-1.0,-0.9,-9.8
9.326813835198372,-1.0,-0.9,-9.8
9.334812817904375,-1.0,-0.9,-9.8
9.342811800610376,-1.0,-0.9,-9.8
9.350810783316378,-1.0,-0.9,-9.8
9.35880976602238,-1.0,-0.9,-9.8
9.366808748728383,-1.0,-0.9,-9.8
9.374807731434384,-1.0,-0.9,-9.8
9.382806714140386,-1.0,-0.9,-9.8
9.390805696846389,-1.0,-0.9,-9.8
9.398804679552391,-1.0,-0.9,-9.8
9.406803662258392,-1.0,-0.9,-9.8
9.414802644964395,-1.0,-0.9,-9.8
9.422801627670397,-1.0,-0.9,-9.8
9.430800610376398,-1.0,-0.8017217427449425,-9.8
9.4387995930824,-1.0,-0.8189238560911845,-9.8
9.446798575788403,-1.0,-0.8361259694374265,-9.8
9.454797558494406,-1.0,-0.8533280827836685,-9.8
9.462796541200406,-1.0,-0.8705301961299066,-9.8
9.470795523906409,-1.0,-0.8877323094761486,-9.8
9.478794506612411,-1.0,-0.9049344228223906,-9.8
9.486793489318414,-1.0,-0.9221365361686326,-9.8
9.494792472024415,-1.0,-0.9393386495148707,-9.8
9.502791454730417,-1.0,-0.9565407628611127,-9.8
9.51079043743642,-1.0,-0.9737428762073547,-9.8
9.51878942014242,-1.0,-0.9909449895535929,-9.8
9.526788402848423,-1.098423194303154,-0.9,-9.700788402848422
9.534787385554425,-1.082425228891149,-0.9,-9.708787385554425
9.542786368260428,-1.0664272634791436,-0.9,-9.716786368260427
9.550785350966429,-1.0504292980671421,-0.9,-9.724785350966428
9.558784333672431,-1.034431332655137,-0.9,-9.73278433367243
9.566783316378434,-1.018433367243132,-0.9,-9.740783316378433
9.574782299084436,-1.0024354018311268,-0.9,-9.748782299084436
9.582781281790437,-0.9864374364191253,-0.9,-9.756781281790438
9.59078026449644,-0.9704394710071201,-0.9,-9.76478026449644
9.598779247202442,-0.9544415055951151,-0.9,-9.772779247202443
9.606778229908443,-0.9384435401831135,-0.9,-9.780778229908444
9.614777212614445,-0.9224455747711084,-0.9,-9.788777212614447
9.622776195320448,-0.9064476093591033,-0.9,-9.796776195320449
9.63077517802645,-1.0,-0.811241098677491,-9.78875890132251
9.638774160732451,-1.0,-0.8930875910893353,-9.793087591089336
9.646773143438454,-1.0,-0.8849253638383124,-9.784925363838314
9.654772126144456,-1.0,-0.8767631365872895,-9.77676313658729
9.662771108850459,-1.0,-0.8686009093362667,-9.768600909336266
9.67077009155646,-1.0,-0.8604386820852455,-9.760438682085246
9.678769074262462,-1.0,-0.8522764548342225,-9.752276454834222
9.686768056968464,-1.0,-0.8441142275831996,-9.7441142275832
9.694767039674465,-1.0,-0.8359520003321785,-9.735952000332178
9.702766022380468,-1.0,-0.8277897730811556,-9.727789773081156
9.71076500508647,-1.0,-0.8196275458301328,-9.719627545830132
9.718763987792473,-1.0,-0.8114653185791099,-9.711465318579108
9.726762970498473,-1.0,-0.8033030913280887,-9.703303091328088
9.734761953204476,-0.9119023397761774,-0.9,-9.8
9.742760935910479,-0.9,-0.9,-9.791279847291596
9.75075991861648,-0.9,-0.9,-9.782292226273618
9.758758901322482,-0.9,-0.9,-9.773304605255639
9.766757884028484,-0.9,-0.9,-9.764316984237658
9.774756866734487,-0.9,-0.9,-9.755329363219678
9.782755849440488,-0.9,-0.9,-9.746341742201698
9.79075483214649,-0.9,-0.9,-9.737354121183719
9.798753814852493,-0.9,-0.9,-9.728366500165738
9.806752797558495,-0.9,-0.9,-9.719378879147758
9.814751780264496,-0.9,-0.9,-9.710391258129778
9.822750762970498,-0.9,-0.9,-9.701403637111799
9.830749745676501,-1.0,-0.8,-9.79815816244579
9.838748728382502,-1.0,-0.8,-9.78973818065
9.846747711088504,-1.0,-0.8,-9.781318198854207
9.854746693794507,-1.0,-0.8,-9.772898217058415
9.86274567650051,-1.0,-0.8,-9.764478235262622
9.87074465920651,-1.0,-0.8,-9.756058253466831
9.878743641912513,-1.0,-0.8,-9.74763827167104
9.886742624618515,-1.0,-0.8,-9.739218289875247
9.894741607324518,-1.0,-0.8,-9.730798308079455
9.902740590030518,-1.0,-0.8,-9.722378326283664
9.91073957273652,-1.0,-0.8,-9.713958344487873
9.918738555442523,-1.0,-0.8,-9.70553836269208
9.926737538148524,-1.0,-0.8868769074262182,-9.8
9.934736520854527,-1.0,-0.9,-9.793961556995235
9.94273550356053,-1.0,-0.9,-9.785541575199444
9.950734486266532,-1.0,-0.9,-9.77712159340365
9.958733468972532,-1.0,-0.9,-9.768701611607861
9.966732451678535,-1.0,-0.9,-9.760281629812068
9.974731434384537,-1.0,-0.9,-9.751861648016277
9.98273041709054,-1.0,-0.9,-9.743441666220484
9.99072939979654,-1.0,-0.9,-9.735021684424693
9.998728382502543,-1.0,-0.9,-9.726601702628901
10.006727365208546,-1.0,-0.9,-9.718181720833108
10.014726347914547,-1.0,-0.9,-9.709761739037319
10.022725330620549,-1.0,-0.9,-9.701341757241526
10.030724313326552,-0.9744862665310348,-0.8255137334689653,-9.774486266531035
10.038723296032554,-1.0,-0.8,-9.8
10.046722278738555,-1.0,-0.8,-9.8
10.054721261444557,-1.0,-0.8,-9.8
10.06272024415056,-1.0,-0.8,-9.8
10.070719226856562,-1.0,-0.8,-9.8
10.078718209562563,-1.0,-0.8,-9.8
10.086717192268566,-1.0,-0.8,-9.8
10.094716174974568,-1.0,-0.8,-9.8
10.102715157680569,-1.0,-0.8,-9.8
10.110714140386571,-1.0,-0.8,-9.8
10.118713123092574,-1.0,-0.8,-9.8
10.126712105798577,-0.9143947100712035,-0.9,-9.8
10.134711088504577,-0.9066446420837398,-0.8933553579162602,-9.8
10.14271007121058,-0.9145644269411681,-0.8854355730588319,-9.8
10.150709053916582,-0.9224842117985964,-0.8775157882014036,-9.8
10.158708036622583,-0.930403996656023,-0.869596003343977,-9.8
10.166707019328586,-0.9383237815134513,-0.8616762184865487,-9.8
10.174706002034588,-0.9462435663708796,-0.8537564336291205,-9.8
10.18270498474059,-0.9541633512283079,-0.8458366487716922,-9.8
10.190703967446591,-0.9620831360857345,-0.8379168639142656,-9.8
10.198702950152594,-0.9700029209431628,-0.8299970790568373,-9.8
10.206701932858596,-0.977922705800591,-0.822077294199409,-9.8
10.214700915564599,-0.9858424906580194,-0.8141575093419806,-9.8
10.2226998982706,-0.9937622755154459,-0.8062377244845541,-9.8
10.230698880976602,-1.0,-0.8849440488301206,-9.715055951169878
10.238697863682605,-1.0,-0.8052784985197806,-9.8
10.246696846388605,-1.0,-0.814266119537759,-9.8
10.254695829094608,-1.0,-0.8232537405557392,-9.8
10.26269481180061,-1.0,-0.8322413615737195,-9.8
10.270693794506613,-1.0,-0.8412289825916999,-9.8
10.278692777212614,-1.0,-0.8502166036096782,-9.8
10.286691759918616,-1.0,-0.8592042246276586,-9.8
10.294690742624619,-1.0,-0.8681918456456388,-9.8
10.302689725330621,-1.0,-0.8771794666636191,-9.8
10.310688708036622,-1.0,-0.8861670876815975,-9.8
10.318687690742625,-1.0,-0.8951547086995778,-9.8
10.326686673448627,-1.0,-0.9,-9.72626653102745
10.334685656154628,-0.9,-0.8,-9.663956491118247
10.34268463886063,-0.9,-0.8,-9.602425854918227
10.350683621566633,-0.9094859525513987,-0.8,-9.628457857654196
10.358682604272635,-0.91936123984276,-0.8,-9.65808371952828
10.366681586978636,-0.929236527134119,-0.8,-9.687709581402357
10.374680569684639,-0.9391118144254802,-0.8,-9.71733544327644
10.382679552390641,-0.9489871017168413,-0.8,-9.746961305150524
10.390678535096644,-0.9588623890082025,-0.8,-9.776587167024609
10.398677517802644,-0.9687376762995615,-0.8,-9.806213028898684
10.406676500508647,-0.9786129635909228,-0.8,-9.835838890772768
10.41467548321465,-0.988488250882284,-0.8,-9.865464752646853
10.42267446592065,-0.998363538173643,-0.8,-9.89509061452093
10.430673448626653,-1.0017615248701606,-0.8035230497403212,-9.60176152487016
10.438672431332655,-1.0101815066659527,-0.8203630133319056,-9.610181506665953
10.446671414038658,-1.0186014884617451,-0.8372029769234901,-9.618601488461744
10.454670396744659,-1.0270214702575353,-0.8540429405150708,-9.627021470257535
10.462669379450661,-1.0354414520533277,-0.8708829041066553,-9.635441452053326
10.470668362156664,-1.04386143384912,-0.8877228676982397,-9.64386143384912
10.478667344862666,-1.052281415644912,-0.9045628312898242,-9.65228141564491
10.486666327568667,-1.0607013974407025,-0.9214027948814049,-9.660701397440702
10.49466531027467,-1.0691213792364946,-0.9382427584729893,-9.669121379236493
10.502664292980672,-1.077541361032287,-0.9550827220645738,-9.677541361032286
10.510663275686673,-1.0859613428280774,-0.9719226856561545,-9.685961342828076
10.518662258392675,-1.0943813246238696,-0.988762649247739,-9.694381324623869
10.526661241098678,-1.0830620549339152,-1.016937945066085,-9.750813835198255
10.53466022380468,-1.0118071735634828,-0.8881928264365172,-9.376385652873035
10.542659206510681,-1.03761034358284,-0.8623896564171599,-9.32477931283432
10.550658189216684,-1.0634135136022032,-0.836586486397797,-9.273172972795594
10.558657171922686,-1.089216683621566,-0.8107833163784339,-9.221566632756868
10.566656154628687,-1.1150198536409233,-0.7849801463590766,-9.169960292718153
10.57465513733469,-1.1408230236602863,-0.7591769763397137,-9.118353952679428
10.582654120040692,-1.1666261936796494,-0.7333738063203508,-9.066747612640702
10.590653102746694,-1.1924293636990122,-0.7075706363009877,-9.015141272601976
10.598652085452695,-1.2182325337183695,-0.6817674662816304,-8.963534932563261
10.606651068158698,-1.2440357037377325,-0.6559642962622675,-8.911928592524536
10.6146500508647,-1.2698388737570956,-0.6301611262429045,-8.86032225248581
10.622649033570703,-1.2956420437764584,-0.6043579562235415,-8.808715912447084
10.630648016276703,-0.5082750508646978,-1.041375254323489,-10.953108045100045
10.638646998982706,-0.5332718718209557,-1.1663593591047783,-10.811459393014585
10.646645981688708,-0.5582686927772136,-1.2913434638860677,-10.669810740929124
10.65464496439471,-0.5832655137334659,-1.4163275686673291,-10.528162088843693
10.662643947100712,-0.6082623346897237,-1.5413116734486185,-10.386513436758232
10.670642929806714,-0.6332591556459816,-1.666295778229908,-10.244864784672771
10.678641912512717,-0.6582559766022394,-1.7912798830111971,-10.10321613258731
10.686640895218718,-0.6832527975584918,-1.9162639877924585,-9.96156748050188
10.69463987792472,-0.7082496185147497,-2.041248092573748,-9.81991882841642
10.702638860630723,-0.7332464394710074,-2.166232197355037,-9.678270176330958
10.710637843336725,-0.7582432604272653,-2.2912163021363265,-9.536621524245497
10.718636826042726,-0.7832400813835176,-2.416200406917588,-9.394972872160068
10.726635808748728,-0.5701060892312246,-2.1584217410260207,-8.60136608051153
10.73463479145473,-0.9129196337741625,-2.4440996948118023,-7.630061037639873
10.742633774160732,-1.1216524286362068,-3.8137788182230405,-8.635431246859246
10.750632756866734,-1.2276630428121436,-3.881240118153182,-8.808903160965325
10.758631739572737,-1.3336736569880803,-3.9487014180833238,-8.982375075071404
10.76663072227874,-1.4396842711640172,-4.016162718013465,-9.155846989177482
10.77462970498474,-1.5456948853399304,-4.083624017943592,-9.329318903283522
10.782628687690742,-1.651705499515867,-4.151085317873734,-9.5027908173896
10.790627670396745,-1.757716113691804,-4.2185466178038755,-9.67626273149568
10.798626653102747,-1.863726727867741,-4.2860079177340165,-9.849734645601758
10.806625635808748,-1.9697373420436541,-4.353469217664143,-10.023206559707798
10.81462461851475,-2.075747956219591,-4.420930517594285,-10.196678473813876
10.822623601220753,-2.1817585703955276,-4.488391817524427,-10.370150387919955
10.830622583926754,-3.9408570701932284,-2.9304806714139957,-9.977301627670428
10.838621566632757,-4.4657903102746435,-3.3220975330620357,-9.68567204984742
10.846620549338759,-4.9907235503560585,-3.7137143947100757,-9.394042472024411
10.854619532044762,-5.515656790437474,-4.105331256358115,-9.102412894201404
10.862618514750762,-6.040590030518771,-4.496948118006068,-8.81078331637846
10.870617497456765,-6.5655232706001865,-4.888564979654108,-8.51915373855545
10.878616480162767,-7.0904565106816015,-5.280181841302147,-8.227524160732443
10.88661546286877,-7.615389750763017,-5.671798702950188,-7.935894582909435
10.89461444557477,-8.140322990844314,-6.06341556459814,-7.644265005086491
10.902613428280773,-8.66525623092573,-6.45503242624618,-7.352635427263483
10.910612410986776,-9.190189471007145,-6.84664928789422,-7.061005849440475
10.918611393692776,-9.715122711088442,-7.238266149542172,-6.769376271617531
10.926610376398779,-10.26103763987786,-7.6,-5.859104781282462
10.934609359104781,-24.10223389457501,-6.622098116968054,-5.728015031037742
10.942608341810784,-23.220713351464536,-6.671071480474192,-4.903630078684428
10.950607324516785,-22.339192808354255,-6.720044843980319,-4.079245126331296
10.958606307222787,-21.457672265243783,-6.769018207486456,-3.2548601739779808
10.96660528992879,-20.576151722133307,-6.817991570992594,-2.430475221624666
10.974604272634792,-19.69463117902283,-6.866964934498731,-1.606090269271351
10.982603255340793,-18.81311063591255,-6.915938298004858,-0.7817053169182193
10.990602238046796,-17.931590092802075,-6.964911661510996,0.04267963543509534
10.998601220752798,-17.0500695496916,-7.013885025017133,0.86706458778841
11.006600203458799,-16.168549006581323,-7.06285838852326,1.6914495401415417
11.014599186164801,-15.287028463470847,-7.111831752029397,2.5158344924948572
11.022598168870804,-14.405507920360371,-7.160805115535535,3.340219444848172
11.030597151576806,-12.823702950151075,-11.634587995933044,0.3237029501510754
11.038596134282807,-10.8347457336519,-8.751165315989713,-0.4370763656313267
11.04659511698881,-10.547141861076524,-9.362323545212387,-1.3717889515012986
11.054594099694812,-10.259537988501148,-9.973481774435061,-2.3065015373712705
11.062593082400813,-9.971934115925835,-10.5846400036576,-3.241214123241035
11.070592065106815,-9.684330243350459,-11.195798232880273,-4.175926709111008
11.078591047812818,-9.396726370775083,-11.806956462102947,-5.110639294980979
11.08659003051882,-9.109122498199707,-12.41811469132562,-6.045351880850951
11.094589013224821,-8.821518625624396,-13.02927292054816,-6.980064466720716
11.102587995930824,-8.53391475304902,-13.640431149770833,-7.914777052590688
11.110586978636826,-8.246310880473644,-14.251589378993508,-8.84948963846066
11.118585961342829,-7.958707007898267,-14.862747608216182,-9.784202224330633
11.12658494404883,-7.33907862229329,-15.686528120912637,-11.733977619531986
11.134583926754832,-6.310637988664477,-16.772104345298608,-14.933570701932737
11.142582909460835,-5.042439655969649,-15.390275594192145,-16.47661611023767
11.150581892166835,-4.7515675575696195,-14.835800656617089,-16.358449320262658
11.158580874872838,-4.460695459169525,-14.28132571904191,-16.24028253028762
11.16657985757884,-4.169823360769431,-13.726850781466728,-16.12211574031258
11.174578840284843,-3.8789512623693367,-13.17237584389155,-16.00394895033754
11.182577822990844,-3.588079163969307,-12.617900906316493,-15.885782160362531
11.190576805696846,-3.2972070655692125,-12.063425968741312,-15.767615370387492
11.198575788402849,-3.0063349671691184,-11.508951031166132,-15.649448580412454
11.206574771108851,-2.715462868769024,-10.954476093590952,-15.531281790437415
11.214573753814852,-2.424590770368994,-10.400001156015897,-15.413115000462403
11.222572736520855,-2.1337186719688996,-9.845526218440716,-15.294948210487364
11.230571719226857,0.3857578840285398,0.029501525942182028,-11.427466937943658
11.238570701932858,-1.3967972007645815,7.102747811700081,1.2401819950141348
11.24656968463886,-2.0912143807362344,6.232528814014086,1.3105027220998717
11.254568667344863,-2.785631560707887,5.362309816328091,1.3808234491856088
11.262567650050865,-3.48004874067954,4.492090818642096,1.4511441762713457
11.270566632756866,-4.174465920651039,3.6218718209562937,1.5214649033570673
11.278565615462869,-4.868883100622692,2.751652823270298,1.5917856304428042
11.286564598168871,-5.563300280594345,1.8814338255843035,1.662106357528541
11.294563580874874,-6.257717460565997,1.011214827898308,1.7324270846142782
11.302562563580874,-6.952134640537496,0.14099583021250606,1.8027478116999995
11.310561546286877,-7.646551820509149,-0.7292231674734886,1.8730685387857364
11.31856052899288,-8.340969000480802,-1.5994421651594841,1.9433892658714735
11.32655951169888,-7.964292980671766,-1.8321464903358828,3.2476093591043123
11.334558494404883,-5.872075279755867,-3.6863205747711256,0.4860376398779338
11.342557477110885,-5.472126144455742,-3.311368260427258,0.286063072227871
11.350556459816888,-5.072177009155616,-2.93641594608339,0.08608850457780814
11.358555442522889,-4.672227873855579,-2.5614636317396053,-0.11388606307221039
11.366554425228891,-4.272278738555453,-2.1865113173957376,-0.3138606307222732
11.374553407934894,-3.8723296032553276,-1.8115590030518698,-0.513835198372336
11.382552390640896,-3.472380467955202,-1.436606688708002,-0.7138097660223989
11.390551373346897,-3.072431332655165,-1.0616543743642173,-0.9137843336724173
11.3985503560529,-2.6724821973550394,-0.6867020600203495,-1.11375890132248
11.406549338758902,-2.272533062054914,-0.3117497456764813,-1.313733468972543
11.414548321464903,-1.872583926754877,0.063202568667303,-1.5137080366225613
11.422547304170905,-1.4726347914547508,0.4381548830111712,-1.7136826042726243
11.430546286876908,-6.255544252289893,5.198067141410905,38.48982706001928
11.43854526958291,-6.011485340884979,8.216319778577994,34.64397826106815
11.446544252288911,-5.175555616654275,7.279501984181516,31.19216500325343
11.454543234994913,-4.339625892423387,6.34268418978483,27.74035174543795
11.462542217700916,-3.503696168192497,5.405866395388143,24.288538487622468
11.470541200406917,-2.667766443961794,4.469048600991665,20.83672522980775
11.47854018311292,-1.8318367197309042,3.5322308065949786,17.384911971992267
11.486539165818922,-0.9959069955000146,2.595413012198293,13.933098714176786
11.494538148524924,-0.15997727126912586,1.6585952178016061,10.481285456361302
11.502537131230925,0.6759524529615781,0.7217774234051291,7.029472198546589
11.510536113936928,1.5118821771924678,-0.2150403709915576,3.577658940731105
11.51853509664293,2.3478119014233565,-1.1518581653882443,0.12584568291562448
11.526534079348933,3.1837416256542452,-2.088675959784931,-3.325967574899856
11.534533062054933,4.019671349884949,-3.025493754181408,-6.777780832714576
11.542532044760936,4.977348253645341,-3.1019328585959616,-7.49938962360068
11.550531027466938,6.729492156127814,-0.2677678428012866,12.223448626653056
11.55853001017294,6.361117952561993,-0.09936820688548259,11.823499491353022
11.566528992878942,5.99274374899609,0.06903142903035886,11.423550356052898
11.574527975584944,5.624369545430187,0.2374310649462003,11.023601220752775
11.582526958290947,5.255995341864284,0.4058307008620417,10.623652085452651
11.590525940996947,4.887621138298462,0.5742303367778459,10.223702950152617
11.59852492370295,4.519246934732559,0.7426299726936871,9.823753814852493
11.606523906408952,4.150872731166656,0.9110296086095286,9.423804679552369
11.614522889114955,3.782498527600753,1.0794292445253701,9.023855544252246
11.622521871820956,3.4141243240349315,1.2478288804411741,8.623906408952212
11.630520854526958,0.8026574210559057,-3.563859073639684,3.6255112421366937
11.63851983723296,0.843468557311021,-3.0088276205701154,4.017298150185801
11.646518819938962,0.8842796935661272,-2.45379616750067,4.4090850582348216
11.654517802644964,0.9250908298212426,-1.8987647144311013,4.800871966283928
11.662516785350967,0.9659019660763579,-1.3437332613615327,5.192658874333036
11.670515768056969,1.0067131023314733,-0.7887018082919641,5.584445782382144
11.67851475076297,1.0475242385865795,-0.23367035522251856,5.976232690431163
11.686513733468972,1.0883353748416948,0.32136109784705,6.36801959848027
11.694512716174975,1.1291465110968102,0.8763925509166186,6.759806506529378
11.702511698880977,1.1699576473519255,1.4314240039861876,7.151593414578485
11.710510681586978,1.2107687836070318,1.9864554570556323,7.543380322627506
11.71850966429298,1.2515799198621471,2.5414869101252013,7.935167230676612
11.726508646998983,1.2923910561172625,3.0965183631947704,8.32695413872572
11.734507629704984,0.937690742624586,6.180335264717607,11.436089610332225
11.742506612410986,1.1376653102746517,6.07600070768279,11.097002299969068
11.750505595116989,1.3376398779247176,5.971666150647974,10.757914989605913
11.758504577822992,1.5376144455747833,5.867331593613157,10.418827679242758
11.766503560528992,1.7375890132248046,5.762997036578363,10.07974036887968
11.774502543234995,1.9375635808748704,5.658662479543546,9.740653058516525
11.782501525940997,2.137538148524936,5.554327922508729,9.401565748153368
11.790500508647,2.337512716175002,5.449993365473912,9.062478437790213
11.798499491353,2.5374872838250235,5.345658808439119,8.723391127427135
11.806498474059003,2.7374618514750892,5.2413242514043015,8.38430381706398
11.814497456765006,2.937436419125155,5.136989694369484,8.045216506700823
11.822496439471006,3.1374109867751763,5.032655137334691,7.706129196337745
11.830495422177009,3.3013037425710756,3.3073878745694296,8.485658831718165
11.838494404883011,3.322353697060556,3.426670950009817,8.254109332333885
11.846493387589014,3.343403651550036,3.545954025450205,8.022559832949602
11.854492370295015,3.3644536060395116,3.665237100890566,7.791010333565372
11.862491353001017,3.3855035605289916,3.784520176330954,7.559460834181089
11.87049033570702,3.406553515018472,3.9038032517713415,7.3279113347968075
11.87848931841302,3.4276034695079476,4.023086327211702,7.096361835412577
11.886488301119023,3.4486534239974276,4.142369402652091,6.864812336028295
11.894487283825026,3.469703378486908,4.261652478092478,6.633262836644013
11.902486266531028,3.490753332976388,4.380935553532866,6.401713337259731
11.910485249237029,3.5118032874658636,4.5002186289732276,6.170163837875501
11.918484231943031,3.532853241955344,4.619501704413615,5.9386143384912184
11.926483214649034,3.553903196444824,4.738784779854003,5.707064839106937
11.934482197355036,3.574953150934304,4.85806785529439,5.475515339722655
11.942481180061037,3.5960031054237795,4.977350930734751,5.243965840338424
11.95048016276704,4.8960325534078155,2.9633774160734316,3.996541200407028
11.958479145473042,5.709118787503504,4.6,5.655796364279707
11.966478128179043,5.546820587671603,4.6,5.9340218497058235
11.974477110885045,5.384522387839666,4.6,6.212247335132002
11.982476093591048,5.222224188007728,4.6,6.490472820558181
11.99047507629705,5.059925988175791,4.6,6.768698305984359
11.998474059003051,4.89762778834389,4.6,7.046923791410476
12.006473041709054,4.735329588511952,4.6,7.325149276836655
12.014472024415056,4.573031388680015,4.6,7.603374762262833
12.022471007121059,4.410733188848077,4.6,7.881600247689011
12.03046998982706,4.119875381485288,4.506625127161763,8.740373855544137
12.038468972533062,1.7819704202206732,8.819704202206731,12.481970420220673
12.046467955239065,1.7556001475635223,8.556001475635222,12.455600147563523
12.054466937945065,1.7292298749063773,8.292298749063772,12.429229874906378
12.062465920651068,1.7028596022492264,8.028596022492264,12.402859602249226
12.07046490335707,1.6764893295920755,7.764893295920755,12.376489329592076
12.078463886063073,1.6501190569349247,7.501190569349247,12.350119056934924
12.086462868769074,1.6237487842777796,7.237487842777797,12.323748784277779
12.094461851475076,1.597378511620629,6.9737851162062885,12.297378511620629
12.102460834181079,1.5710082389634779,6.710082389634779,12.271008238963477
12.110459816887081,1.5446379663063272,6.446379663063271,12.244637966306327
12.118458799593082,1.5182676936491821,6.182676936491822,12.218267693649182
12.126457782299084,1.438555442522896,4.15666327568688,9.987995930824257
12.134456765005087,2.5761186064739703,4.2083584877341105,8.220299184497124
12.142455747711088,2.444987742441173,4.25425429014559,8.331760418925002
12.15045473041709,2.3138568784083464,4.300150092557079,8.443221653352905
12.158453713123093,2.18272601437552,4.346045894968568,8.554682887780807
12.166452695829095,2.0515951503426937,4.391941697380058,8.66614412220871
12.174451678535096,1.9204642863098962,4.437837499791536,8.777605356636588
12.182450661241099,1.7893334222770698,4.483733302203026,8.889066591064491
12.190449643947101,1.6582025582442435,4.529629104614515,9.000527825492393
12.198448626653104,1.5270716942114169,4.575524907026004,9.111989059920296
12.206447609359104,1.3959408301786196,4.6214207094374835,9.223450294348174
12.214446592065107,1.2648099661457932,4.667316511848973,9.334911528776075
12.22244557477111,1.1336791021129669,4.713212314260462,9.446372763203978
12.23044455747711,1.0025482380801696,4.759108116671941,9.557833997631857
12.238443540183113,0.871417374047343,4.805003919083431,9.66929523205976
12.246442522889115,0.7402865100145166,4.85089972149492,9.780756466487661
12.254441505595118,0.6091556459816903,4.896795523906409,9.892217700915564
12.262440488301118,0.7750703129674797,5.5346298845071145,10.07507031296748
12.270439471007121,0.9632816707557803,6.216896056489704,10.26328167075578
12.278438453713123,1.1514930285440808,6.899162228472294,10.45149302854408
12.286437436419124,1.3397043863323397,7.581428400454731,10.639704386332339
12.294436419125127,2.4856681227933706,2.2162707198850673,8.542995631619888
12.30243540183113,2.4386152833462953,4.239542816109299,8.684154149961115
12.310434384537132,2.4063281670755843,5.826171384118181,8.762030997546495
12.318433367243133,2.441617796660881,5.4144590389563865,8.550293220034714
12.326432349949135,2.4769074262461857,5.0027466937945,8.338555442522885
12.334431332655138,2.51219705583149,4.591034348632614,8.126817665011059
12.34243031536114,2.5474866854167946,4.179322003470729,7.915079887499232
12.35042929806714,2.5827763150020915,3.7676096583089334,7.703342109987451
12.358428280773143,2.618065944587396,3.355897313147047,7.4916043324756245
12.366427263479146,2.6533555741727004,2.944184967985161,7.279866554963798
12.374426246185147,2.6886452037579973,2.5324726228233665,7.068128777452017
12.38242522889115,1.9571846388606347,6.1695066124108005,9.341353001017147
12.390424211597152,4.279284194950512,2.705178951262372,7.846610561361348
12.398423194303154,4.162935355590478,2.7342661611023806,8.108395449921423
12.406422177009155,4.04658651623047,2.7633533709423825,8.37018033848144
12.414421159715157,3.930237676870437,2.7924405807823907,8.631965227041515
12.42242014242116,3.8138888375104036,2.8215277906223992,8.893750115601591
12.430419125127163,3.6975399981503703,2.8506150004624073,9.155535004161667
12.438418107833163,3.5811911587903626,2.8797022103024092,9.417319892721684
12.446417090539166,3.289318413021357,1.701525940996949,7.397456765005085
12.454416073245168,3.084466416892026,1.7307905118725677,7.348682480212387
12.462415055951169,2.8796144207627403,1.7600550827481798,7.2999081954197
12.470414038657172,2.6747624246334096,1.7893196536237985,7.2511339106270025
12.478413021363174,2.4699104285040785,1.8185842244994173,7.202359625834305
12.486412004069177,2.2650584323747474,1.847848795375036,7.153585341041607
12.494410986775177,2.060206436245462,1.8771133662506483,7.10481105624892
12.50240996948118,1.855354440116131,1.906377937126267,7.056036771456222
12.510408952187182,1.6505024439868001,1.9356425080018858,7.0072624866635245
12.518407934893185,1.445650447857469,1.9649070788775045,6.958488201870827
12.526406917599186,1.2407984517281836,1.9941716497531168,6.90971391707814
12.534405900305188,1.5906699607615327,3.327990117715401,8.678070047958126
12.54240488301119,0.5622293271326761,6.413312018601971,9.935053044615618
12.550403865717191,-0.4662113064959521,9.498633919487856,11.19203604127283
12.558402848423194,2.0172533062053084,4.741037639878362,9.435259409969591
12.566401831129197,3.865265444764432,3.8850164663689704,8.2
12.574400813835199,3.1738279566184424,3.5867493146197202,8.2
12.5823997965412,2.482390468472607,3.2884821628705363,8.2
12.590398779247202,1.7909529803266175,2.9902150111212857,8.2
12.598397761953205,1.0995154921806285,2.6919478593720356,8.2
12.606396744659207,0.40807800403463945,2.393680707622785,8.2
12.614395727365208,-0.28335948411119594,2.095413555873601,8.2
12.62239471007121,-0.9747969722571859,1.797146404124351,8.2
12.630393692777213,2.2860708975660646,2.92683308553083,10.467595273495595
12.638392675483214,0.44015181156587824,2.065404178730743,10.590656545895607
12.646391658189216,1.3394511574820709,3.268496141726431,10.622469791330682
12.654390640895219,1.3979802992333081,3.0733990025556395,10.359088653450113
12.662389623601221,1.4565094409845456,2.8783018633848476,10.095707515569545
12.670388606307222,1.51503858273577,2.6832047242140997,9.832326377689036
12.678387589013225,1.5735677244870074,2.4881075850433083,9.568945239808466
12.686386571719227,1.632096866238245,2.2930104458725165,9.305564101927898
12.69438555442523,1.6906260079894824,2.0979133067017255,9.04218296404733
12.70238453713123,1.7491551497407067,1.9028161675309772,8.77880182616682
12.710383519837233,1.8076842914919442,1.7077190283601857,8.51542068828625
12.718382502543236,1.8662134332431817,1.512621889189394,8.252039550405682
12.726381485249236,1.7904740590030557,2.4880925737538195,9.607144455747708
12.734380467955239,1.7584781281790454,2.448097660223807,9.631141403865715
12.742379450661241,1.7264821973550353,2.408102746693794,9.655138351983723
12.750378433367244,1.694486266531025,2.3681078331637813,9.67913530010173
12.758377416073245,1.6624903357070218,2.3281129196337775,9.703132248219733
12.766376398779247,1.6304944048830117,2.2881180061037645,9.72712919633774
12.77437538148525,1.5984984740590014,2.248123092573752,9.75112614445575
12.78237436419125,1.5665025432349984,2.208128179043748,9.775123092573752
12.790373346897253,1.534506612410988,2.168133265513735,9.79912004069176
12.798372329603255,1.502510681586978,2.1281383519837225,9.823116988809767
12.806371312309258,1.4705147507629677,2.08814343845371,9.847113936927775
12.814370295015259,1.4385188199389645,2.0481485249237057,9.871110885045777
12.822369277721261,1.4065228891149544,2.008153611393693,9.895107833163785
12.830368260427264,1.7052390640895823,2.4736520854527764,8.978891149542358
12.838367243133266,1.53498485238058,2.606996970476116,9.593003029523883
12.846366225839267,1.578935306809156,2.6157870613618313,9.584212938638169
12.85436520854527,1.6228857612377416,2.6245771522475483,9.575422847752451
12.862364191251272,1.6668362156663272,2.6333672431332658,9.566632756866735
12.870363173957273,1.710786670094903,2.6421573340189806,9.557842665981019
12.878362156663275,1.7547371245234886,2.650947424904698,9.549052575095303
12.886361139369278,1.7986875789520744,2.659737515790415,9.540262484209585
12.89436012207528,1.84263803338066,2.668527606676132,9.531472393323869
12.902359104781281,1.8865884878092358,2.6773176975618473,9.522682302438152
12.910358087487284,1.9305389422378214,2.6861077884475644,9.513892211552436
12.918357070193286,1.974489396666407,2.6948978793332814,9.505102120666718
12.926356052899289,2.868565615462534,2.4712105798576816,9.682197355035578
12.93435503560529,1.0455747711088441,2.5715157680569725,9.394303153611395
12.942354018311292,1.1136512196705681,2.528967987705895,9.385793597541179
12.950353001017294,1.1817276682322921,2.4864202073548176,9.377284041470963
12.958351983723295,1.249804116794001,2.4438724270037495,9.36877448540075
12.966350966429298,1.317880565355725,2.401324646652672,9.360264929330535
12.9743499491353,1.3859570139174493,2.358776866301594,9.35175537326032
12.982348931841303,1.454033462479173,2.316229085950517,9.343245817190104
12.990347914547304,1.5221099110408822,2.2736813055994487,9.33473626111989
12.998346897253306,1.590186359602606,2.2311335252483713,9.326226705049676
13.006345879959309,1.6582628081643302,2.188585744897294,9.31771714897946
13.014344862665311,1.726339256726054,2.1460379645462164,9.309207592909244
13.022343845371312,1.7944157052877632,2.1034901841951483,9.30069803683903
13.030342828077314,1.2184407657449319,2.397401276241553,9.72103948950338
13.038341810783317,1.3105459477788786,3.013089182773925,9.510545947778878
13.046340793489318,1.2305580409123782,3.3847209795438107,9.361802448859528
13.05433977619532,1.2691073551581733,3.3654463224209135,9.313615806052283
13.062338758901323,1.3076566694039686,3.346171665298016,9.26542916324504
13.070337741607325,1.3462059836497637,3.326897008175118,9.217242520437795
13.078336724313326,1.3847552978955504,3.307622351052225,9.169055877630562
13.086335707019328,1.4233046121413457,3.2883476939293272,9.120869234823319
13.094334689725331,1.4618539263871408,3.2690730368064296,9.072682592016074
13.102333672431334,1.5004032406329362,3.249798379683532,9.02449594920883
13.110332655137334,1.5389525548787226,3.2305237225606387,8.976309306401596
13.118331637843337,1.577501869124518,3.211249065437741,8.928122663594353
13.12633062054934,1.183672431332643,3.2832655137334714,8.983265513733471
13.13432960325534,1.4139664621139976,3.309310974742665,8.918621949485331
13.142328585961343,1.4397696321333606,3.326513088088907,8.953026176177815
13.150327568667345,1.4655728021527235,3.343715201435149,8.987430402870299
13.158326551373348,1.4913759721720865,3.360917314781391,9.021834629562782
13.166325534079348,1.5171791421914438,3.378119428127629,9.05623885625526
13.17432451678535,1.5429823122108068,3.395321541473871,9.090643082947743
13.182323499491353,1.5687854822301697,3.412523654820113,9.125047309640227
13.190322482197354,1.594588652249527,3.4297257681663513,9.159451536332703
13.198321464903357,1.62039182226889,3.446927881512593,9.193855763025187
13.20632044760936,1.646194992288253,3.464129994858835,9.228259989717671
13.214319430315362,1.6719981623076159,3.4813321082050774,9.262664216410155
13.222318413021362,1.6978013323269732,3.4985342215513153,9.297068443102631
13.230317395727365,1.498431671753136,3.004704984740592,9.101568328246863
13.238316378433368,1.4889090732936094,3.033272780119172,9.11109092670639
13.24631536113937,1.4793864748340826,3.061840575497752,9.120613525165917
13.25431434384537,1.4698638763745582,3.0904083708763253,9.13013612362544
13.262313326551373,1.4603412779150315,3.1189761662549054,9.139658722084969
13.270312309257376,1.450818679455505,3.1475439616334855,9.149181320544495
13.278311291963377,1.4412960809959803,3.176111757012059,9.158703919004019
13.286310274669379,1.4317734825364536,3.204679552390639,9.168226517463546
13.294309257375382,1.422250884076927,3.2332473477692187,9.177749115923072
13.302308240081384,1.4127282856174004,3.261815143147799,9.187271714382598
13.310307222787385,1.4032056871578757,3.2903829385263723,9.196794312842124
13.318306205493387,1.8127048717079268,4.302283259862108,9.258957838815418
13.32630518819939,0.9050851488287947,3.4050851488287948,9.201695049609597
13.334304170905392,0.9362500165145188,3.436250016514519,9.212083338838172
13.342303153611393,0.967414884200236,3.467414884200236,9.222471628066746
13.350302136317396,0.9985797518859602,3.49857975188596,9.23285991729532
13.358301119023398,1.0297446195716842,3.529744619571684,9.243248206523894
13.366300101729399,1.0609094872574014,3.5609094872574016,9.253636495752467
13.374299084435401,1.0920743549431255,3.5920743549431258,9.264024784981043
13.382298067141404,1.1232392226288497,3.62323922262885,9.274413074209617
13.390297049847407,1.1544040903145738,3.654404090314574,9.284801363438191
13.398296032553407,1.185568958000291,3.685568958000291,9.295189652666764
13.40629501525941,1.1813260206112588,3.6813260206112592,9.253315051528148
13.414293997965412,1.1465478349329878,3.646547834932988,9.16636958733247
13.422292980671415,1.1117696492547169,3.611769649254717,9.079424123136793
13.430291963377416,1.0769914635764537,3.5769914635764537,8.992478658941135
13.438290946083418,1.0422132778981827,3.542213277898183,8.905533194745457
13.44628992878942,1.0074350922199118,3.507435092219912,8.81858773054978
13.454288911495421,1.1489837882296738,3.886004631934379,9.01399536806562
13.462287894201424,1.2681175732126932,3.8519664076535163,9.048033592346483
13.470286876907426,1.3872513581957124,3.8179281833726537,9.082071816627346
13.478285859613429,1.5063851431787318,3.783889959091791,9.11611004090821
13.48628484231943,1.6255189281617246,3.749851734810936,9.150148265189063
13.494283825025432,1.7446527131447438,3.715813510530073,9.184186489469926
13.502282807731435,1.484130213631746,3.546897253306205,9.059308240081386
13.510281790437437,1.1019841655977725,3.4039683311955446,8.805952496793317
13.518280773143438,1.1089398027334252,3.41787960546685,8.826819408200276
13.52627975584944,1.1158954398690795,3.4317908797381587,8.84768631960724
13.534278738555443,1.122851077004734,3.4457021540094677,8.868553231014202
13.542277721261444,1.1298067141403867,3.459613428280773,8.88942014242116
13.550276703967446,1.136762351276041,3.473524702552082,8.910287053828123
13.558275686673449,1.1437179884116953,3.4874359768233907,8.931153965235087
13.566274669379451,1.1506736255473498,3.5013472510946992,8.952020876642049
13.574273652085452,1.1576292626830025,3.515258525366005,8.972887788049007
13.582272634791455,1.1645848998186568,3.5291697996373137,8.993754699455971
13.590271617497457,1.1715405369543113,3.5430810739086223,9.014621610862934
13.598270600203458,1.178496174089964,3.556992348179928,9.035488522269892
13.60626958290946,1.1854518112256183,3.5709036224512367,9.056355433676854
13.614268565615463,1.1924074483612728,3.5848148967225457,9.077222345083818
13.622267548321465,1.199363085496927,3.5987261709938543,9.09808925649078
13.630266531027466,1.0997164563537603,3.6,9.00085063093872
13.638265513733469,1.0912069002835447,3.6,9.026379299149365
13.646264496439471,1.0826973442133292,3.6,9.051907967360012
13.654263479145474,1.0741877881431137,3.6,9.07743663557066
13.662262461851475,1.0656782320729001,3.6,9.1029653037813
13.670261444557477,1.0571686760026846,3.6,9.128493971991947
13.67826042726348,1.048659119932469,3.6,9.154022640202593
13.68625940996948,1.0401495638622555,3.6,9.179551308413235
13.694258392675483,1.03164000779204,3.6,9.20507997662388
13.702257375381485,1.0231304517218245,3.6,9.230608644834527
13.710256358087488,1.014620895651609,3.6,9.256137313045175
13.718255340793489,1.0061113395813954,3.6,9.281665981255815
13.726254323499491,1.0593421498810989,3.8745676500509574,9.0
13.734253306205494,2.0902520628461647,3.1083553747032875,9.205570249802191
13.742252288911496,2.0280377529105893,3.161681926076638,9.241121284051092
13.750251271617497,1.9658234429750279,3.215008477449976,9.276672318299983
13.7582502543235,1.9036091330394527,3.2683350288233264,9.312223352548884
13.766249237029502,1.8413948231038773,3.3216615801966767,9.347774386797784
13.774248219735503,1.7791805131683158,3.374988131570015,9.383325421046676
13.782247202441505,1.7169662032327406,3.4283146829433653,9.418876455295576
13.790246185147508,1.6547518932971652,3.4816412343167156,9.454427489544477
13.79824516785351,1.5925375833615898,3.534967785690066,9.489978523793377
13.806244150559511,1.5303232734260286,3.588294337063404,9.525529558042269
13.814243133265514,1.4681089634904532,3.6416208884367545,9.56108059229117
13.822242115971516,1.405894653554878,3.6949474398101048,9.59663162654007
13.830241098677519,1.4689628445477956,3.734481422273898,9.289667199534918
13.83824008138352,1.5451436322239969,3.7725718161119985,8.946853654992013
13.846239064089522,1.6159376059681188,4.088436758223169,9.01593760596812
13.854238046795524,1.82123532484672,2.7929215583844265,9.207078441615572
13.862237029501525,1.8536636331142904,2.7821121222952363,9.217887877704763
13.870236012207528,1.8860919413818684,2.771302686206044,9.228697313793957
13.87823499491353,1.9185202496494462,2.760493250116851,9.239506749883148
13.886233977619533,1.950948557917024,2.7496838140276587,9.250316185972341
13.894232960325533,1.9833768661845947,2.7388743779384686,9.261125622061531
13.902231943031536,2.0158051744521726,2.7280649418492757,9.271935058150724
13.910230925737538,2.0482334827197506,2.7172555057600833,9.282744494239918
13.918229908443541,2.080661790987328,2.706446069670891,9.29355393032911
13.926228891149542,1.7771108850457922,3.345778229908416,8.815666327568687
13.934227873855544,2.3866488194035433,4.5,8.957855115917978
13.942226856561547,2.3613888740161673,4.5,9.067314879263275
13.950225839267548,2.3361289286287965,4.5,9.176774642608548
13.95822482197355,2.3108689832414204,4.5,9.286234405953845
13.966223804679553,2.2856090378540443,4.5,9.39569416929914
13.974222787385555,2.2603490924666683,4.5,9.505153932644438
13.982221770091556,2.2350891470792975,4.5,9.61461369598971
13.990220752797558,2.2098292016919214,4.5,9.724073459335008
13.998219735503561,2.184569256304545,4.5,9.833533222680304
14.006218718209563,2.159309310917169,4.5,9.942992986025601
14.014217700915564,2.1340493655297985,4.5,10.052452749370874
14.022216683621567,2.108789420142422,4.5,10.161912512716171
14.03021566632757,2.247711088504578,2.5107833163784337,9.536927772126145
14.03821464903357,1.8101822944072201,2.7974544263981946,9.19490885279639
14.046213631739572,1.846959226388841,2.7882601934027895,9.17652038680558
14.054212614445575,1.883736158370462,2.7790659604073844,9.158131920814768
14.062211597151578,1.9205130903520828,2.7698717274119793,9.139743454823957
14.070210579857578,1.9572900223336958,2.760677494416576,9.121354988833152
14.07820956256358,1.9940669543153167,2.751483261421171,9.102966522842342
14.086208545269583,2.0308438862969376,2.7422890284257657,9.08457805685153
14.094207527975584,2.0676208182785505,2.7330947954303624,9.066189590860725
14.102206510681587,2.104397750260171,2.7239005624349573,9.047801124869915
14.11020549338759,2.1411746822417923,2.714706329439552,9.029412658879103
14.118204476093592,2.1779516142234128,2.705512096444147,9.011024192888293
14.126203458799592,2.4402594099693986,2.7800864699897994,8.8398270600204
14.134202441505595,3.1686717678800522,1.717404573399971,9.203480914679993
14.142201424211597,3.0904208501039414,1.7608773054978104,9.212175461099562
14.1502004069176,3.01216993232783,1.80435003759565,9.22087000751913
14.1581993896236,2.933919014551736,1.84782276969348,9.229564553938696
14.166198372329603,2.855668096775625,1.8912955017913196,9.238259100358263
14.174197355035606,2.7774171789995137,1.9347682338891592,9.246953646777833
14.182196337741606,2.6991662612234197,1.978240965986989,9.255648193197398
14.190195320447609,2.620915343447309,2.0217136980848287,9.264342739616966
14.198194303153612,2.542664425671197,2.0651864301826683,9.273037286036534
14.206193285859614,2.4644135078950864,2.1086591622805075,9.281731832456101
14.214192268565615,2.3861625901189925,2.1521318943783374,9.290426378875669
14.222191251271617,2.307911672342881,2.195604626476177,9.299120925295236
14.23019023397762,2.598889144656237,3.800555427671881,9.500971998425793
14.238189216683622,2.552179756591989,3.8239101217040052,9.54184271298201
14.246188199389623,2.5054703685277513,3.8472648157361244,9.582713427538218
14.254187182095626,2.458760980463503,3.8706195097682485,9.623584142094435
14.262186164801628,2.412051592399255,3.8939742038003726,9.664454856650652
14.270185147507629,2.365342204335017,3.9173288978324914,9.70532557120686
14.278184130213631,2.318632816270769,3.9406835918646155,9.746196285763077
14.286183112919634,2.2719234282065206,3.9640382858967396,9.787067000319293
14.294182095625636,2.2252140401422724,3.9873929799288637,9.827937714875512
14.302181078331637,2.178504652078035,4.010747673960982,9.86880842943172
14.31018006103764,2.1317952640137867,4.034102367993107,9.909679143987937
14.318179043743642,2.0850858759495385,4.057457062025231,9.950549858544154
14.326178026449645,2.0383764878852904,4.080811756057355,9.99142057310037
14.334177009155646,1.9916670998210526,4.1041664500894735,10.032291287656578
14.342175991861648,1.9449577117568044,4.127521144121598,10.073162002212795
14.35017497456765,1.8982483236925562,4.150875838153722,10.114032716769012
14.358173957273651,1.8515389356283185,4.174230532185841,10.15490343132522
14.366172939979654,1.8048295475640703,4.197585226217965,10.195774145881439
14.374171922685656,1.873558181391339,4.034494091869488,9.88737772908681
14.382170905391659,1.9555990296580321,3.8499021832694282,9.538704123953364
