accel_time_list,accel_x_list,accel_y_list,accel_z_list
0.0,0.1,6.4,7.6
0.007998352553542011,0.0008237232289942664,6.50054914881933,7.350082372322899
0.015996705107084022,-1.4310799295574617,5.5258450264159515,7.2
0.023995057660626033,-1.3207578253706753,5.567215815485997,7.2
0.031993410214168044,-1.210435721183889,5.6085866045560415,7.2
0.039991762767710055,-1.1001136169971026,5.649957393626086,7.2
0.047990115321252066,-0.9897915128103162,5.6913281826961315,7.2
0.05598846787479408,-0.87946940862353,5.732698971766176,7.2
0.06398682042833609,-0.7691473044367435,5.774069760836221,7.2
0.07198517298187809,-0.6588252002499573,5.815440549906266,7.2
0.07998352553542011,-0.5485030960631707,5.856811338976311,7.2
0.08798187808896213,-0.4381809918763844,5.898182128046356,7.2
0.09598023064250413,-0.32785888768959803,5.9395529171164005,7.2
0.10397858319604614,-0.2175367835028117,5.980923706186445,7.2
0.11197693574958816,-0.10721467931602535,6.0222944952564905,7.2
0.11997528830313017,0.0031074248707612107,6.063665284326535,7.2
0.12797364085667218,-0.09472817133443492,6.294728171334435,7.2
0.13597199341021418,0.19556418893997884,6.0,7.5
0.14397034596375619,0.18362634930782662,6.0,7.5
0.15196869851729822,0.1716885096756743,6.0,7.5
0.15996705107084022,0.15975067004352209,6.0,7.5
0.16796540362438223,0.14781283041136983,6.0,7.5
0.17596375617792426,0.13587499077921755,6.0,7.5
0.18396210873146626,0.1239371511470653,6.0,7.5
0.19196046128500827,0.11199931151491305,6.0,7.5
0.19995881383855027,0.10006147188276081,6.0,7.5
0.20795716639209227,-0.6875487730859272,6.490661579814446,7.606225613457036
0.2159555189456343,-0.6538714991762765,6.4654036243822075,7.623064250411861
0.2239538714991763,-0.6201942252666259,6.440145668949969,7.639902887366687
0.23195222405271831,-0.5865169513569755,6.414887713517731,7.656741524321512
0.23995057660626035,-0.5528396774473248,6.389629758085493,7.6735801612763375
0.24794892915980235,-0.5191624035376743,6.364371802653256,7.690418798231162
0.25594728171334435,-0.4854851296280237,6.339113847221018,7.707257435185988
0.2639456342668864,-0.451807855718373,6.31385589178878,7.724096072140814
0.27194398682042836,-0.4181305818087226,6.288597936356542,7.740934709095638
0.2799423393739704,-0.38445330789907195,6.263339980924304,7.757773346050464
0.28794069192751237,-0.35077603398942153,6.238082025492067,7.774611983005289
0.2959390444810544,-0.31709876007977084,6.2128240700598285,7.791450619960115
0.30393739703459643,-0.2,6.1,7.622504118616142
0.3119357495881384,-0.19354780310299252,6.109678295345511,7.293547803102992
0.31993410214168044,-0.175969006282021,6.136046490576968,7.275969006282021
0.3279324546952225,-0.15839020946104954,6.162414685808425,7.25839020946105
0.33593080724876445,-0.14081141264007815,6.188782881039883,7.2408114126400775
0.3439291598023065,-0.12323261581910666,6.21515107627134,7.223232615819106
0.3519275123558485,-0.10565381899813517,6.241519271502797,7.205653818998135
0.3599258649093905,-0.0880750221771638,6.267887466734255,7.188075022177164
0.3679242174629325,-0.0704962253561923,6.294255661965711,7.170496225356192
0.3759225700164745,-0.05291742853522094,6.320623857197169,7.15291742853522
0.38392092257001653,-0.03533863171424945,6.346992052428626,7.135338631714249
0.39191927512355856,-0.017759834893277954,6.3733602476600835,7.117759834893278
0.39991762767710054,-0.00018103807230657187,6.399728442891541,7.100181038072306
0.40791598023064257,-0.12171474639840195,5.975183146973255,5.944162080689823
0.41591433278418455,-0.1812769462652039,5.907112061411196,5.79100213817519
0.4239126853377266,-0.2408391461320063,5.8390409758491355,5.637842195660555
0.4319110378912686,-0.3004013459988087,5.770969890287076,5.4846822531459205
0.4399093904448106,-0.35996354586561063,5.702898804725017,5.331522310631287
0.4479077429983526,-0.4195257457324131,5.634827719162956,5.178362368116653
0.45590609555189465,-0.4790879455992154,5.566756633600897,5.025202425602018
0.46390444810543663,-0.5386501454660174,5.4986855480388375,4.872042483087384
0.47190280065897866,-0.5982123453328198,5.430614462476777,4.718882540572749
0.4799011532125207,-0.6577745451996222,5.362543376914718,4.565722598058114
0.48789950576606267,-0.7173367450664241,5.294472291352658,4.412562655543481
0.4958978583196047,-0.7768989449332265,5.226401205790599,4.259402713028846
0.5038962108731467,-1.0737726523888038,3.804909390444785,3.0366062602965234
0.5118945634266887,-1.9927390965056806,1.6660435272695724,1.917565247550506
0.5198929159802307,-2.1442868290991077,1.4471412468568445,1.7828561519119042
0.5278912685337728,-2.2958345616925366,1.2282389664441138,1.6481470562733007
0.5358896210873147,-2.4473822942859638,1.0093366860313857,1.5134379606346988
0.5438879736408567,-2.5989300268793905,0.7904344056186581,1.3787288649960971
0.5518863261943988,-2.75047775947282,0.5715321252059271,1.2440197693574935
0.5598846787479408,-2.9020254920662465,0.35262984479319925,1.1093106737188916
0.5678830313014828,-3.053573224659674,0.1337275643804714,0.9746015780802899
0.5758813838550247,-3.2051209572531008,-0.08517471603225646,0.8398924824416882
0.5838797364085668,-3.35666868984653,-0.3040769964449874,0.7051833868030846
0.5918780889621088,-3.508216422439957,-0.5229792768577151,0.5704742911644829
0.5998764415156508,-3.659764155033384,-0.7418815572704427,0.435765195525881
0.6078747940691929,-7.002791895965509,-5.8381559115286255,0.0009306319885030703
0.6158731466227348,-7.028318553051282,-6.18702022503418,0.009439517683760496
0.6238714991762768,-7.0538452101370535,-6.535884538539735,0.01794840337901792
0.6318698517298189,-7.079371867222826,-6.884748852045294,0.026457289074275463
0.6398682042833609,-7.104898524308599,-7.233613165550849,0.03496617476953289
0.6478665568369029,-7.13042518139437,-7.5824774790564025,0.04347506046479031
0.655864909390445,-7.155951838480143,-7.9313417925619625,0.05198394616004786
0.6638632619439869,-7.181478495565916,-8.280206106067517,0.06049283185530528
0.6718616144975289,-7.207005152651688,-8.629070419573072,0.06900171755056271
0.679859967051071,-7.232531809737461,-8.97793473307863,0.07751060324582025
0.687858319604613,-7.258058466823233,-9.326799046584185,0.08601948894107768
0.6958566721581549,-7.283585123909005,-9.67566336008974,0.0945283746363351
0.703855024711697,-7.584019769357657,-9.705930807248201,4.023064250412386
0.711853377265239,-8.985098097948207,-8.728845289800796,5.256732065298804
0.719851729818781,-9.77146583509846,-8.673276064956465,5.698189770141997
0.727850082372323,-10.218992704165691,-8.95893151329725,5.860061190868441
0.735848434925865,-10.666519573232925,-9.244586961638039,6.021932611594888
0.743846787479407,-11.114046442300154,-9.530242409978822,6.183804032321333
0.751845140032949,-11.561573311367384,-9.815897858319607,6.345675453047777
0.7598434925864911,-12.009100180434618,-10.101553306660396,6.507546873774224
0.7678418451400331,-12.456627049501849,-10.387208755001181,6.669418294500669
0.775840197693575,-12.904153918569078,-10.672864203341964,6.831289715227113
0.7838385502471171,-13.351680787636313,-10.958519651682753,6.99316113595356
0.7918369028006591,-13.799207656703542,-11.244175100023538,7.155032556680005
0.7998352553542011,-15.007413509061001,-11.694892915980242,6.68747940691924
0.8078336079077432,-21.24834340106177,-15.700164744645871,2.7665568369027533
0.8158319604612851,-23.419467325645247,-20.861573311367465,0.3322762218560935
0.8238303130148271,-23.15334731166689,-25.329054964804488,-1.3838250711397304
0.8318286655683691,-21.7406512762361,-21.75576499283249,-1.2280130084083933
0.8398270181219112,-20.32795524080529,-18.182475020860444,-1.0722009456770543
0.8478253706754532,-18.915259205374504,-14.609185048888447,-0.9163888829457172
0.8558237232289951,-17.502563169943713,-11.03589507691645,-0.7605768202143801
0.8638220757825372,-16.089867134512904,-7.462605104944405,-0.6047647574830408
0.8718204283360792,-14.677171099082114,-3.8893151329724063,-0.44895269475170385
0.8798187808896212,-13.264475063651325,-0.316025161000411,-0.29314063202036666
0.8878171334431633,-11.851779028220516,3.257264810971634,-0.1373285692890276
0.8958154859967052,-10.439082992789727,6.830554782943633,0.018483493442309484
0.9038138385502472,-14.078418451399997,9.749423393739324,10.672322899505618
0.9118121911037893,-8.94341454955346,3.4777074481921395,7.9558050810717
0.9198105436573313,-9.11180091910171,3.2167085753923486,7.551677794155895
0.9278088962108733,-9.280187288649964,2.9557097025925576,7.14755050724009
0.9358072487644153,-9.448573658198217,2.694710829792763,6.743423220324279
0.9438056013179573,-9.61696002774647,2.433711956992972,6.339295933408473
0.9518039538714993,-9.785346397294722,2.172713084193181,5.935168646492668
0.9598023064250414,-9.953732766842977,1.911714211393387,5.531041359576857
0.9678006589785834,-10.122119136391229,1.6507153385935958,5.126914072661052
0.9757990115321253,-10.290505505939482,1.3897164657938053,4.722786785745247
0.9837973640856673,-10.458891875487733,1.1287175929940143,4.318659498829441
0.9917957166392094,-10.627278245035988,0.8677187201942198,3.91453221191363
0.9997940691927514,-10.79566461458424,0.6067198473944289,3.5104049249978253
1.0077924217462935,-9.311367380559778,-4.918780889621749,2.424546952223911
1.0157907742998353,-7.784349258649094,-8.147830862163644,1.2052169137836355
1.0237891268533774,-7.762732089585466,-8.075773631951554,1.2124226368048445
1.0317874794069195,-7.741114920521839,-8.003716401739464,1.2196283598260536
1.0397858319604614,-7.719497751458213,-7.931659171527374,1.2268340828472624
1.0477841845140035,-7.6978805823945855,-7.859601941315284,1.2340398058684716
1.0557825370675455,-7.6762634133309575,-7.787544711103193,1.2412455288896806
1.0637808896210874,-7.654646244267331,-7.715487480891104,1.2484512519108895
1.0717792421746295,-7.633029075203704,-7.643430250679013,1.2556569749320987
1.0797775947281716,-7.611411906140077,-7.571373020466923,1.2628626979533077
1.0877759472817135,-7.58979473707645,-7.499315790254833,1.2700684209745166
1.0957742998352555,-7.568177568012823,-7.427258560042743,1.2772741439957258
1.1037726523887976,-7.546560398949196,-7.355201329830652,1.2844798670169348
1.1117710049423395,-7.524943229885569,-7.283144099618563,1.2916855900381436
1.1197693574958816,-7.503326060821942,-7.211086869406472,1.298891313059353
1.1277677100494237,-7.089975921936376,-5.659903687745504,2.1567228488151224
1.1357660626029655,-6.905398555316178,-4.921594221264711,2.587403370928919
1.1437644151565076,-7.245978732963913,-3.9770106335180433,3.5537367081024454
1.1517627677100495,-7.536827916729071,-3.831586041635464,3.7355174479556696
1.1597611202635916,-7.827677100494238,-3.686161449752881,3.917298187808899
1.1677594728171337,-8.118526284259405,-3.5407368578702973,4.099078927662128
1.1757578253706755,-8.409375468024564,-3.395312265987718,4.280859667515352
1.1837561779242176,-8.70022465178973,-3.249887674105135,4.462640407368581
1.1917545304777597,-8.991073835554896,-3.104463082222552,4.64442114722181
1.1997528830313016,-9.281923019320054,-2.9590384903399727,4.826201887075034
1.2077512355848437,-9.562191103789077,-2.3626853377265533,4.687067545304709
1.2157495881383857,-9.5,-2.4758111883102956,4.4652245541150295
1.2237479406919276,-9.5,-2.5540559415514656,4.3261227705751715
1.2317462932454697,-9.5,-2.6323006947926384,4.187020987035309
1.2397446457990118,-9.5,-2.7105454480338107,4.0479192034954465
1.2477429983525536,-9.5,-2.7887902012749812,3.9088174199555885
1.2557413509060957,-9.5,-2.8670349545161535,3.769715636415726
1.2637397034596378,-9.5,-2.9452797077573263,3.630613852875864
1.2717380560131797,-9.5,-3.0235244609984964,3.4915120693360056
1.2797364085667218,-9.5,-3.101769214239669,3.3524102857961435
1.2877347611202639,-9.5,-3.180013967480842,3.2133085022562815
1.2957331136738057,-9.5,-3.258258720722012,3.0742067187164226
1.3037314662273478,-11.309719934102182,-3.263426688632606,2.9097199341021813
1.31172981878089,-11.449884328227416,-3.164203091591011,3.1357969084089894
1.3197281713344318,-11.390322128360614,-3.1216586631147245,3.1783413368852758
1.3277265238879739,-11.330759928493812,-3.079114234638437,3.2208857653615635
1.335724876441516,-11.271197728627008,-3.036569806162149,3.263430193837851
1.3437232289950578,-11.211635528760208,-2.9940253776858627,3.3059746223141375
1.3517215815486,-11.152073328893405,-2.951480949209575,3.3485190507904252
1.359719934102142,-11.092511129026603,-2.9089365207332873,3.391063479266713
1.3677182866556838,-11.0329489291598,-2.866392092257001,3.4336079077429993
1.375716639209226,-10.973386729292999,-2.8238476637807133,3.476152336219287
1.383714991762768,-10.913824529426197,-2.7813032353044256,3.5186967646955747
1.3917133443163099,-10.854262329559395,-2.738758806828139,3.561241193171861
1.399711696869852,-10.764415156507402,-2.5576606260296098,3.6355848434925977
1.407710049423394,-10.592579901153211,-1.1962899505766058,3.8
1.415708401976936,-10.576583196046128,-1.188291598023064,3.8
1.423706754530478,-10.560586490939043,-1.1802932454695219,3.8
1.4317051070840199,-10.54458978583196,-1.17229489291598,3.8
1.439703459637562,-10.528593080724876,-1.164296540362438,3.8
1.447701812191104,-10.512596375617791,-1.1562981878088958,3.8
1.455700164744646,-10.496599670510708,-1.1482998352553542,3.8
1.463698517298188,-10.480602965403625,-1.140301482701812,3.8
1.47169686985173,-10.46460626029654,-1.13230313014827,3.8
1.479695222405272,-10.448609555189456,-1.1243047775947281,3.8
1.487693574958814,-10.432612850082371,-1.116306425041186,3.8
1.4956919275123561,-10.416616144975288,-1.108308072487644,3.8
1.503690280065898,-10.400619439868205,-1.100309719934102,3.8
1.51168863261944,-10.476886326194402,-1.1,3.5693410214167978
1.5196869851729822,-10.337514709343365,-1.2624852906566357,3.2562720640150467
1.527685337726524,-9.996109491826136,-1.6360410594348012,3.0060068432391334
1.5356836902800661,-10.160178262155204,-1.6975668483082016,3.0162611413847005
1.5436820428336082,-10.324247032484273,-1.7590926371816022,3.026515439530267
1.55168039538715,-10.488315802813336,-1.8206184260550011,3.0367697376758334
1.5596787479406922,-10.652384573142404,-1.8821442149284018,3.0470240358214005
1.5676771004942343,-10.816453343471473,-1.9436700038018024,3.057278333966967
1.5756754530477761,-10.980522113800538,-2.0051957926752015,3.067532632112534
1.5836738056013182,-11.144590884129606,-2.066721581548602,3.0777869302581005
1.5916721581548603,-11.308659654458673,-2.1282473704220024,3.088041228403667
1.5996705107084022,-11.472728424787737,-2.1897731592954015,3.098295526549234
1.6076688632619442,-8.344371224601861,-2.1982616007688085,4.3843544069192735
1.6156672158154863,-8.077759472817124,-2.1899299835255355,4.309369851729817
1.6236655683690282,-7.811147721032396,-2.1815983662822624,4.234385296540362
1.6316639209225703,-7.54453596924766,-2.1732667490389894,4.159400741350904
1.6396622734761124,-7.277924217462923,-2.1649351317957164,4.084416186161447
1.6476606260296542,-7.011312465678193,-2.156603514552444,4.009431630971992
1.6556589785831963,-6.744700713893456,-2.148271897309171,3.934447075782535
1.6636573311367382,-6.478088962108727,-2.1399402800658978,3.8594625205930795
1.6716556836902803,-6.211477210323991,-2.1316086628226247,3.7844779654036227
1.6796540362438224,-5.944865458539255,-2.1232770455793517,3.709493410214165
1.6876523887973642,-5.678253706754525,-2.114945428336079,3.63450885502471
1.6956507413509063,-5.411641954969788,-2.106613811092806,3.5595242998352528
1.7036490939044484,-5.101054365733096,-2.0340362438220634,3.1701812191103174
1.7116474464579903,-5.494233937397092,-2.047116968698546,1.8
1.7196457990115324,-5.863355299286115,-2.0405326743547483,1.867962657880288
1.7276441515650744,-6.138854109463676,-1.9783232656049765,1.9390591250228841
1.7356425041186163,-6.414352919641228,-1.9161138568552063,2.0101555921654786
1.7436408566721584,-6.689851729818789,-1.8539044481054345,2.081252059308075
1.7516392092257005,-6.96535053999635,-1.791695039355663,2.152348526450671
1.7596375617792424,-7.240849350173902,-1.7294856306058928,2.223444993593265
1.7676359143327844,-7.516348160351463,-1.667276221856121,2.2945414607358616
1.7756342668863265,-7.791846970529024,-1.6050668131063492,2.365637927878458
1.7836326194398684,-8.067345780706576,-1.5428574043565793,2.4367343950210523
1.7916309719934105,-8.342844590884138,-1.4806479956068075,2.5078308621636487
1.7996293245469526,-8.618343401061697,-1.418438586857036,2.5789273293062447
1.8076276771004944,-9.137232289950562,-1.4441515650741574,3.2255354200988764
1.8156260296540365,-8.993439574599964,-2.0131208508000724,3.6065604254000365
1.8236243822075786,-8.985520413655863,-2.0289591726882747,3.6144795863441375
1.8316227347611205,-8.977601252711763,-2.044797494576476,3.6223987472882384
1.8396210873146626,-8.96968209176766,-2.0606358164646785,3.6303179082323394
1.8476194398682046,-8.96176293082356,-2.076474138352881,3.6382370691764403
1.8556177924217465,-8.953843769879459,-2.0923124602410823,3.6461562301205412
1.8636161449752886,-8.945924608935359,-2.1081507821292846,3.654075391064642
1.8716144975288307,-8.938005447991257,-2.123989104017487,3.6619945520087436
1.8796128500823726,-8.930086287047157,-2.1398274259056884,3.6699137129528445
1.8876112026359146,-8.922167126103055,-2.1556657477938908,3.6778328738969455
1.8956095551894567,-8.914247965158953,-2.1715040696820926,3.6857520348410464
1.9036079077429986,-8.906328804214853,-2.1873423915702945,3.6936711957851474
1.9116062602965407,-8.218121911037805,-2.351565074135163,2.918121911037805
1.9196046128500828,-7.333746443013341,-2.7,2.325475512954922
1.9276029654036246,-7.524616219859227,-2.7,2.3618316609255667
1.9356013179571667,-7.715485996705118,-2.7,2.3981878088962127
1.9435996705107086,-7.906355773551004,-2.7,2.434543956866858
1.9515980230642507,-8.097225550396894,-2.7,2.4709001048375034
1.9595963756177928,-8.288095327242786,-2.7,2.5072562528081495
1.9675947281713346,-8.478965104088672,-2.7,2.5436124007787946
1.9755930807248767,-8.669834880934562,-2.7,2.5799685487494406
1.9835914332784188,-8.860704657780454,-2.7,2.6163246967200866
1.9915897858319607,-9.051574434626339,-2.7,2.6526808446907313
1.9995881383855028,-9.24244421147223,-2.7,2.6890369926613773
2.007586490939045,-7.402369660359777,-1.9165876225184366,3.9952606792804466
2.015584843492587,-7.434686236333684,-2.1428036543357893,3.9306275273326317
2.023583196046129,-7.467002812307592,-2.3690196861531416,3.8659943753848167
2.0315815485996707,-7.4993193882814975,-2.595235717970482,3.8013612234370053
2.0395799011532127,-7.531635964255405,-2.821451749787834,3.7367280714891904
2.047578253706755,-7.563952540229312,-3.0476677816051865,3.6720949195413755
2.055576606260297,-7.59626911620322,-3.2738838134225396,3.60746176759356
2.063574958813839,-7.628585692177127,-3.500099845239892,3.542828615645745
2.0715733113673807,-7.660902268151033,-3.7263158770572318,3.4781954636979338
2.0795716639209227,-7.6932188441249405,-3.9525319088745845,3.413562311750119
2.087570016474465,-7.725535420098848,-4.178747940691936,3.348929159802304
2.095568369028007,-7.757851996072755,-4.4049639725092895,3.284296007854489
2.103566721581549,-7.790168572046663,-4.631180004326643,3.219662855906674
2.111565074135091,-9.17534321801215,-4.1,4.2376716090060755
2.1195634266886327,-9.960057753179202,-3.583984599152213,4.412011550635841
2.127561779242175,-10.094861447901822,-3.5480369472261812,4.438972289580365
2.135560131795717,-10.229665142624441,-3.5120892953001492,4.465933028524889
2.143558484349259,-10.36446883734706,-3.4761416433741172,4.492893767469412
2.151556836902801,-10.49927253206968,-3.4401939914480857,4.519854506413936
2.159555189456343,-10.634076226792299,-3.4042463395220537,4.54681524535846
2.167553542009885,-10.76887992151491,-3.368298687596024,4.573775984302983
2.175551894563427,-10.903683616237531,-3.332351035669992,4.600736723247507
2.183550247116969,-11.03848731096015,-3.29640338374396,4.62769746219203
2.191548599670511,-11.17329100568277,-3.2604557318179284,4.654658201136554
2.199546952224053,-11.30809470040539,-3.2245080798918964,4.681618940081078
2.2075453047775953,-11.481878088961864,-2.154612850082097,5.690856672158369
2.215543657331137,-11.620514289807325,-1.3578199985674364,6.678334288374761
2.223542009884679,-11.794391519232152,-1.2969629682687467,6.791354487500898
2.231540362438221,-11.96826874865698,-1.236105937970057,6.904374686627037
2.239538714991763,-12.142145978081809,-1.1752489076713672,7.017394885753175
2.2475370675453052,-12.316023207506635,-1.1143918773726773,7.1304150848793135
2.2555354200988473,-12.489900436931464,-1.0535348470739876,7.243435284005451
2.263533772652389,-12.663777666356282,-0.9926778167753013,7.356455483131583
2.271532125205931,-12.83765489578111,-0.9318207864766115,7.4694756822577215
2.279530477759473,-13.011532125205937,-0.8709637561779218,7.58249588138386
2.2875288303130152,-13.185409354630766,-0.810106725879232,7.695516080509997
2.2955271828665573,-13.359286584055592,-0.7492496955805423,7.808536279636136
2.303525535420099,-11.29563426688618,-1.257660626029692,6.984678747940616
2.311523887973641,-7.570926905401889,-1.746516951356977,4.812780716205668
2.319522240527183,-7.528830313014825,-1.813871499176279,4.686490939044477
2.3275205930807252,-7.486733720627762,-1.8812260469955808,4.560201161883286
2.3355189456342673,-7.444637128240698,-1.9485805948148829,4.433911384722094
2.3435172981878094,-7.4025405358536345,-2.0159351426341847,4.307621607560904
2.351515650741351,-7.3604439434665725,-2.083289690453483,4.181331830399719
2.359514003294893,-7.318347351079509,-2.1506442382727853,4.0550420532385285
2.3675123558484352,-7.276250758692445,-2.217998786092087,3.928752276077337
2.3755107084019773,-7.234154166305381,-2.285353333911389,3.802462498916146
2.3835090609555194,-7.1920575739183175,-2.352707881730691,3.6761727217549547
2.3915074135090615,-7.149960981531254,-2.420062429549993,3.5498829445937634
2.399505766062603,-7.107864389144193,-2.487416977369291,3.4235931674325792
2.407504118616145,-8.910741350906152,-2.690082372322906,3.1801647446458117
2.4155024711696873,-9.742176480387991,-3.7128352738648176,1.584352960775983
2.4235008237232294,-9.87698017511061,-3.4342409714380704,1.8539603502212219
2.4314991762767715,-10.011783869833229,-3.1556466690113236,2.123567739666461
2.4394975288303136,-10.14658756455585,-2.877052366584577,2.3931751291117
2.447495881383855,-10.281391259278461,-2.598458064157845,2.6627825185569236
2.4554942339373973,-10.416194954001082,-2.3198637617310984,2.932389908002163
2.4634925864909394,-10.5509986487237,-2.041269459304351,3.201997297447402
2.4714909390444815,-10.68580234344632,-1.7626751568776045,3.4716046868926407
2.4794892915980236,-10.82060603816894,-1.4840808544508572,3.7412120763378796
2.4874876441515656,-10.955409732891559,-1.2054865520241105,4.010819465783118
2.4954859967051073,-11.09021342761417,-0.9268922495973788,4.280426855228343
2.5034843492586494,-10.19060955518959,4.985996705106571,5.1359143327843855
2.5114827018121915,-8.96030971993411,-1.8835518945634249,4.045172981878083
2.5194810543657336,-9.048291598023072,-1.8595568369027986,3.965189456342662
2.5274794069192756,-9.136273476112034,-1.8355617792421723,3.8852059308072415
2.5354777594728177,-9.224255354200997,-1.8115667215815463,3.8052224052718207
2.5434761120263594,-9.312237232289956,-1.7875716639209214,3.725238879736404
2.5514744645799015,-9.400219110378918,-1.763576606260295,3.6452553542009833
2.5594728171334435,-9.48820098846788,-1.7395815485996688,3.565271828665563
2.5674711696869856,-9.576182866556843,-1.7155864909390426,3.485288303130142
2.5754695222405277,-9.664164744645806,-1.6915914332784163,3.405304777594721
2.5834678747940694,-9.752146622734765,-1.6675963756177916,3.3253212520593047
2.5914662273476115,-9.840128500823727,-1.6436013179571654,3.245337726523884
2.5994645799011535,-9.92811037891269,-1.619606260296539,3.165354200988463
2.6074629324546956,-9.707413509060881,-2.4777594728173535,2.295387149917426
2.6154612850082377,-8.615980230642496,-2.631960461284994,1.7
2.62345963756178,-8.497231099025424,-2.3950159782457634,1.7016613405847454
2.6314579901153214,-8.449048252317342,-2.3082868541712154,1.7305710486095949
2.6394563426688635,-8.400865405609256,-2.221557730096662,1.759480756634446
2.6474546952224056,-8.352682558901172,-2.134828606022109,1.788390464659297
2.6554530477759477,-8.304499712193087,-2.048099481947556,1.8173001726841478
2.66345140032949,-8.256316865485001,-1.9613703578730033,1.8462098807089988
2.671449752883032,-8.208134018776917,-1.8746412337984502,1.8751195887338499
2.6794481054365735,-8.159951172068835,-1.787912109723902,1.9040292967586994
2.6874464579901156,-8.11176832536075,-1.701182985649349,1.9329390047835504
2.6954448105436577,-8.063585478652664,-1.6144538615747959,1.9618487128084015
2.7034431630972,-8.01540263194458,-1.5277247375002427,1.9907584208332523
2.711441515650742,-9.008339740069571,-1.7039245835621513,2.600981145890538
2.719439868204284,-9.159419732747589,-1.7750210507047472,2.6187552626761867
2.7274382207578256,-9.310499725425597,-1.8461175178473395,2.6365293794618347
2.7354365733113677,-9.461579718103613,-1.9172139849899357,2.654303496247484
2.74343492586491,-9.61265971078163,-1.9883104521325317,2.672077613033133
2.751433278418452,-9.763739703459645,-2.0594069192751276,2.689851729818782
2.759431630971994,-9.914819696137663,-2.1305033864177236,2.7076258466044307
2.767429983525536,-10.06589968881568,-2.20159985356032,2.72539996339008
2.7754283360790777,-10.216979681493688,-2.272696320702912,2.743174080175728
2.7834266886326198,-10.368059674171704,-2.343792787845508,2.760948196961377
2.791425041186162,-10.519139666849721,-2.414889254988104,2.778722313747026
2.799423393739704,-10.670219659527739,-2.4859857221307005,2.7964964305326747
2.807421746293246,-11.735218744279829,-2.8965220574776067,3.2965220574776066
2.815420098846788,-14.5216497187979,-3.1771478346493875,3.3146906777253937
2.8234184514003298,-14.080361302050774,-3.0484387130981423,3.3974322558654797
2.831416803953872,-13.639072885303623,-2.91972959154689,3.4801738340055706
2.839415156507414,-13.19778446855647,-2.7910204699956376,3.5629154121456614
2.847413509060956,-12.75649605180932,-2.662311348444385,3.6456569902857523
2.855411861614498,-12.315207635062169,-2.533602226893133,3.728398568425843
2.8634102141680398,-11.873919218315043,-2.4048931053418876,3.8111401465659296
2.871408566721582,-11.432630801567893,-2.2761839837906352,3.89388172470602
2.879406919275124,-10.991342384820742,-2.147474862239383,3.976623302846111
2.887405271828666,-10.550053968073591,-2.0187657406881305,4.059364880986202
2.895403624382208,-10.108765551326439,-1.890056619136878,4.142106459126293
2.90340197693575,-6.174892915979901,-1.0517627677099786,4.367841845139986
2.911400329489292,-2.9560131795716678,-1.3828848617975458,3.18910854841662
2.919398682042834,-3.2759472817133517,-1.2851272194764758,3.126899139666848
2.927397034596376,-3.595881383855036,-1.1873695771554056,3.0646897309170766
2.935395387149918,-3.9158154859967196,-1.0896119348343356,3.0024803221673046
2.94339373970346,-4.235749588138404,-0.9918542925132654,2.9402709134175327
2.9513920922570023,-4.5556836902800875,-0.8940966501921953,2.8780615046677607
2.959390444810544,-4.875617792421754,-0.7963390078711307,2.8158520959179922
2.967388797364086,-5.1955518945634385,-0.6985813655500606,2.7536426871682202
2.975387149917628,-5.515485996705122,-0.6008237232289905,2.6914332784184483
2.98338550247117,-5.835420098846806,-0.5030660809079204,2.6292238696686767
2.9913838550247123,-6.155354200988491,-0.4053084385868503,2.5670144609189047
2.9993822075782544,-6.475288303130174,-0.3075507962657802,2.5048050521691327
3.007380560131796,-8.160626029654098,-0.3,2.7767710049423497
3.015378912685338,-9.111680395387207,-1.1854695222405884,3.168945634266912
3.02337726523888,-9.419915797181039,-1.5199157971810384,3.353108792482769
3.0313756177924223,-9.44953932515712,-1.5495393251571201,3.4321048670856533
3.0393739703459643,-9.479162853133202,-1.5791628531332016,3.5111009416885377
3.0473723228995064,-9.508786381109283,-1.6087863811092833,3.590097016291422
3.055370675453048,-9.538409909085363,-1.6384099090853634,3.669093090894302
3.06336902800659,-9.568033437061445,-1.668033437061445,3.7480891654971864
3.0713673805601323,-9.597656965037526,-1.6976569650375266,3.827085240100071
3.0793657331136743,-9.627280493013608,-1.7272804930136083,3.906081314702955
3.0873640856672164,-9.656904020989689,-1.75690402098969,3.9850773893058395
3.095362438220758,-9.686527548965769,-1.78652754896577,4.06407346390872
3.1033607907743,-8.883525535420002,-1.8443163097199988,6.2607907742999975
3.1113591433278422,-8.411525039414714,-1.6383004729765775,5.04441196790135
3.1193574958813843,-8.428725797594375,-1.8447095711325023,4.812201732475935
3.1273558484349264,-8.445926555774037,-2.051118669288427,4.5799914970505196
3.1353542009884685,-8.463127313953697,-2.257527767444352,4.347781261625104
3.14335255354201,-8.480328072133355,-2.4639368656002656,4.115571026199701
3.1513509060955522,-8.497528830313016,-2.6703459637561906,3.8833607907742858
3.1593492586490943,-8.514729588492676,-2.876755061912115,3.6511505553488703
3.1673476112026364,-8.531930346672336,-3.08316416006804,3.418940319923455
3.1753459637561785,-8.549131104851996,-3.2895732582239647,3.186730084498039
3.1833443163097206,-8.566331863031657,-3.4959823563798897,2.9545198490726237
3.1913426688632622,-8.583532621211317,-3.702391454535803,2.722309613647221
3.1993410214168043,-8.56210873146617,-3.9,2.556836902800744
3.2073393739703464,-7.67340289218375,-3.9,3.889895661724375
3.2153377265238885,-7.7802830612550515,-2.309858469372474,5.509858469372475
3.2233360790774306,-7.7439269132844055,-2.328036543357797,5.528036543357797
3.2313344316309727,-7.7075707653137595,-2.34621461734312,5.54621461734312
3.2393327841845143,-7.671214617343116,-2.3643926913284417,5.564392691328442
3.2473311367380564,-7.63485846937247,-2.3825707653137647,5.582570765313765
3.2553294892915985,-7.598502321401825,-2.4007488392990877,5.600748839299087
3.2633278418451406,-7.562146173431179,-2.4189269132844107,5.618926913284411
3.2713261943986827,-7.525790025460533,-2.4371049872697337,5.637104987269733
3.2793245469522248,-7.489433877489887,-2.4552830612550562,5.655283061255057
3.2873228995057664,-7.453077729519244,-2.4734611352403784,5.6734611352403785
3.2953212520593085,-7.416721581548598,-2.4916392092257014,5.691639209225701
3.3033196046128506,-7.123723228995468,-3.7721581548597327,7.971169686986402
3.3113179571663927,-10.565828771855253,-2.151464101610251,10.760110538343003
3.3193163097199347,-10.81523976546033,-2.228867513418723,11.000921152858249
3.3273146622734764,-11.064650759065392,-2.3062709252271905,11.241731767373482
3.3353130148270185,-11.314061752670467,-2.3836743370356626,11.482542381888727
3.3433113673805606,-11.563472746275544,-2.461077748844134,11.723352996403973
3.3513097199341026,-11.81288373988062,-2.538481160652606,11.964163610919218
3.3593080724876447,-12.062294733485695,-2.615884572461078,12.204974225434464
3.367306425041187,-12.311705727090771,-2.6932879842695496,12.44578483994971
3.3753047775947285,-12.561116720695834,-2.7706913960780173,12.686595454464943
3.3833031301482706,-12.81052771430091,-2.848094807886489,12.927406068980188
3.3913014827018126,-13.059938707905985,-2.925498219694961,13.168216683495434
3.3992998352553547,-12.992668863261425,-2.880065897858117,13.609884678748296
3.407298187808897,-9.26612596629072,-1.7967557977443223,15.538740337092795
3.415296540362439,-9.389177544037523,-2.5350652642251363,14.308224559624772
3.4232948929159805,-9.989262767710049,-5.907372322899512,13.930207990115317
3.4312932454695226,-9.969266886326194,-6.107331136738065,13.800234761120258
3.4392915980230647,-9.94927100494234,-6.3072899505766165,13.670261532125199
3.447289950576607,-9.929275123558483,-6.507248764415168,13.54028830313014
3.455288303130149,-9.909279242174629,-6.707207578253721,13.410315074135081
3.463286655683691,-9.889283360790774,-6.907166392092273,13.280341845140022
3.4712850082372326,-9.86928747940692,-7.107125205930814,13.15036861614497
3.4792833607907747,-9.849291598023065,-7.307084019769365,13.020395387149913
3.487281713344317,-9.829295716639209,-7.507042833607917,12.890422158154854
3.495280065897859,-9.809299835255354,-7.70700164744647,12.760448929159795
3.503278418451401,-8.559088412959694,-7.529544206479847,9.33124656781958
3.511276771004943,-6.184821526633712,-6.007589236683144,4.429167124290657
3.5192751235584847,-6.131499176276768,-6.034250411861616,4.1803294892915845
3.527273476112027,-6.0781768259198214,-6.060911587040089,3.9314918542924984
3.535271828665569,-6.024854475562874,-6.087572762218563,3.682654219293412
3.543270181219111,-5.971532125205927,-6.114233937397036,3.433816584294326
3.551268533772653,-5.91820977484898,-6.14089511257551,3.18497894929524
3.559266886326195,-5.864887424492033,-6.167556287753984,2.936141314296153
3.567265238879737,-5.811565074135088,-6.194217462932455,2.687303679297081
3.575263591433279,-5.7582427237781415,-6.220878638110929,2.4384660442979946
3.583261943986821,-5.704920373421194,-6.247539813289403,2.189628409298908
3.591260296540363,-5.651598023064247,-6.274200988467876,1.9407907742998218
3.599258649093905,-5.229269632069546,-6.196540362438013,1.6051619989015118
3.607257001647447,-1.1957389774662817,-5.1181093457683025,-2.0255661352023098
3.615255354200989,-1.1686259179627492,-5.233339848658315,-2.1882444922235047
3.623253706754531,-1.1415128584592167,-5.348570351548328,-2.350922849244699
3.631252059308073,-1.1143997989556844,-5.463800854438341,-2.5136012062658937
3.639250411861615,-1.087286739452152,-5.579031357328354,-2.676279563287088
3.647248764415157,-1.0601736799486194,-5.694261860218367,-2.8389579203082826
3.655247116968699,-1.0330606204450885,-5.809492363108373,-3.0016362773294682
3.663245469522241,-1.0059475609415562,-5.924722865998386,-3.1643146343506627
3.671243822075783,-0.9788345014380238,-6.039953368888399,-3.3269929913718572
3.679242174629325,-0.9517214419344914,-6.155183871778411,-3.4896713483930517
3.687240527182867,-0.924608382430959,-6.270414374668424,-3.6523497054142466
3.6952388797364093,-0.8974953229274265,-6.385644877558438,-3.815028062435441
3.703237232289951,-0.8703822634238956,-6.500875380448443,-3.9777064194566267
3.711235584843493,-0.8432692039203632,-6.616105883338456,-4.140384776477822
3.719233937397035,-0.8161561444168308,-6.731336386228469,-4.303063133499016
3.727232289950577,0.3096375617783628,-4.941927512355672,-4.3883855024711345
3.7352306425041193,-4.355059394780203,-3.928422786785736,-3.150446544697817
3.7432289950576614,-4.43925257955433,-3.818971646579371,-3.074672678401103
3.751227347611203,-4.523445764328453,-3.7095205063730115,-2.9988988121043927
3.759225700164745,-4.607638949102579,-3.6000693661666467,-2.9231249458076785
3.767224052718287,-4.691832133876707,-3.490618225960281,-2.847351079510964
3.7752224052718293,-4.7760253186508335,-3.3811670857539164,-2.7715772132142495
3.7832207578253714,-4.860218503424961,-3.271715945547551,-2.6958033469175353
3.7912191103789135,-4.944411688199088,-3.1622648053411857,-2.6200294806208206
3.799217462932455,-5.02860487297321,-3.0528136651348268,-2.5442556143241104
3.807215815485997,-5.112798057747337,-2.9433625249284616,-2.468481748027396
3.8152141680395393,-5.196991242521464,-2.8339113847220965,-2.392707881730682
3.8232125205930814,-5.2811844272955915,-2.7244602445157313,-2.3169340154339673
3.8312108731466235,-6.320357731230981,-1.9458225464814483,-2.5218168980936917
3.8392092257001655,-7.2652388797350484,-0.9372322899503216,-2.8
3.847207578253707,-2.3517784933353143,-0.36816309719938073,2.04507263741207
3.8552059308072493,-2.0700183465628093,-1.0680189456343128,3.081222854575476
3.8632042833607914,-1.788258199790304,-1.767874794069245,4.117373071738882
3.8712026359143334,-1.506498053017799,-2.467730642504177,5.153523288902289
3.8792009884678755,-1.2247379062452939,-3.167586490939109,6.189673506065694
3.887199341021417,-0.9429777594728044,-3.8674423393740023,7.225823723229043
3.8951976935749593,-0.6612176127002991,-4.567298187808935,8.261973940392448
3.9031960461285014,-0.37945746592779406,-5.267154036243866,9.298124157555854
3.9111943986820434,-0.09769731915528901,-5.967009884678799,10.33427437471926
3.9191927512355855,0.18406282761721604,-6.66686573311373,11.370424591882667
3.9271911037891276,0.4658229743897211,-7.366721581548663,12.406574809046072
3.9351894563426693,4.640032948928475,3.5362438220772803,15.611532125206905
3.9431878088962113,2.8686682194322763,6.024243973565046,16.494627809653558
3.9511861614497534,2.611249976329771,5.0497320532484204,15.042053437860853
3.9591845140032955,2.3538317332272665,4.075220132931795,13.589479066068147
3.9671828665568376,2.0964134901247617,3.10070821261517,12.136904694275442
3.9751812191103797,1.838995247022257,2.1261962922985447,10.684330322482737
3.9831795716639213,1.5815770039197665,1.1516843719819736,9.231755950690113
3.9911779242174634,1.3241587608172618,0.17717245166534923,7.779181578897408
3.9991762767710055,1.066740517714757,-0.797339468651276,6.326607207104702
4.007174629324547,0.8093222746122666,-1.771851388967848,4.874032835312077
4.01517298187809,0.5519040315097477,-2.7463633092845257,3.42145846351929
4.023171334431631,-0.29110378912896856,-2.946128500821026,1.8800658978578904
4.031169686985174,-11.304305214672288,3.283006085465449,-13.834088693137815
4.0391680395387155,-10.545277880509662,2.8667652893117506,-13.132192448643343
4.047166392092258,-9.78625054634695,2.4505244931580057,-12.430296204148794
4.0551647446458,-9.027223212184325,2.0342836970043074,-11.728399959654322
4.063163097199341,-8.268195878021698,1.6180429008506092,-11.026503715159851
4.071161449752884,-7.509168543858988,1.2018021046968648,-10.3246074706653
4.0791598023064255,-6.750141209696362,0.7855613085431665,-9.622711226170829
4.087158154859968,-5.991113875533651,0.36932051238942165,-8.92081498167628
4.09515650741351,-5.232086541371024,-0.046920283764276594,-8.218918737181808
4.103154859967051,-4.473059207208398,-0.46316107991797484,-7.517022492687336
4.111153212520594,-3.7140318730456876,-0.8794018760717197,-6.815126248192787
4.1191515650741355,-2.9550045388830615,-1.2956426722254175,-6.113230003698314
4.127149917627678,-12.18212520593499,9.283957990119976,-3.100720757824301
4.13514827018122,-38.8,4.4981054365731925,17.76630971993827
4.143146622734761,-34.23822075782512,-14.006919275123492,35.3985172981876
4.151144975288304,-27.148771903548788,-12.152755728620452,29.49064325295733
4.1591433278418455,-20.059323049273246,-10.29859218211762,23.58276920772771
4.167141680395388,-12.969874194996919,-8.44442863561458,17.67489516249744
4.17514003294893,-5.880425340721381,-6.590265089111746,11.76702111726782
4.183138385502472,1.2090235135549534,-4.736101542608706,5.859147072037551
4.191136738056014,8.298472367830492,-2.881937996105872,-0.048726973192067646
4.1991350906095555,15.38792122210603,-1.0277744496030383,-5.956601018421686
4.207133443163098,22.477370076382364,0.8263890969000016,-11.864475063651959
4.21513179571664,29.566818930657902,2.6805526434028337,-17.772349108881578
4.223130148270182,36.65626778493423,4.534716189905872,-23.68022315411185
4.231128500823724,1.4957166392049288,-17.316474464579624,-0.32844590883919267
4.2391268533772655,-36.5252608456892,-14.341460735859428,18.817462932454696
4.247125205930808,-34.05465861248384,-13.452754896576923,18.657495881383845
4.25512355848435,-31.584056379278753,-12.564049057294516,18.497528830313012
4.263121911037892,-29.113454146073387,-11.675343218012012,18.33756177924216
4.271120263591434,-26.6428519128683,-10.786637378729605,18.17759472817133
4.279118616144976,-24.172249679662933,-9.8979315394471,18.017627677100478
4.287116968698518,-21.701647446457848,-9.009225700164695,17.857660626029645
4.29511532125206,-19.231045213252756,-8.120519860882288,17.697693574958812
4.303113673805602,-16.760442980047394,-7.231814021599783,17.53772652388796
4.311112026359144,-14.289840746842305,-6.343108182317378,17.37775947281713
4.319110378912686,-11.81923851363694,-5.454402343034872,17.217792421746278
4.327108731466228,-0.004612850079972475,-3.3238879736405025,10.942504118614668
4.33510708401977,-3.382434972271956,-2.9204770633686348,4.020270552474662
4.343105436573312,-4.700473350813461,-2.345947513747979,4.166719261201496
4.351103789126854,-6.0185117293548185,-1.771417964127387,4.313167969928313
4.359102141680396,-7.336550107896323,-1.1968884145067316,4.459616678655147
4.367100494233938,-8.654588486437682,-0.6223588648861398,4.606065387381965
4.37509884678748,-9.972626864979038,-0.04782931526554801,4.752514096108782
4.383097199341022,-11.290665243520543,0.5267002343551077,4.898962804835616
4.391095551894564,-12.608703622061899,1.1012297839756995,5.045411513562433
4.399093904448106,-13.926742000603404,1.6757593335963552,5.191860222289267
4.407092257001648,-14.220016474464416,1.367710049423216,1.7431630971984777
4.4150906095551905,-11.878557850715998,2.3892789253579987,4.903573691547334
4.423088962108732,-11.796523465551468,2.348261732775734,4.917246089074756
4.431087314662274,-11.714489080386938,2.307244540193469,4.930918486602177
4.439085667215816,-11.6324546952224,2.2662273476111996,4.9445908841296005
4.447084019769358,-11.55042031005787,2.2252101550289347,4.958263281657022
4.4550823723229005,-11.468385924893331,2.1841929624466654,4.971935679184445
4.463080724876442,-11.386351539728802,2.1431757698644005,4.985608076711866
4.471079077429984,-11.304317154564272,2.1021585772821356,4.9992804742392885
4.479077429983526,-11.222282769399733,2.0611413846998663,5.012952871766712
4.487075782537068,-11.140248384235203,2.0201241921176014,5.026625269294133
4.4950741350906105,-11.058213999070663,1.979106999535332,5.040297666821556
4.503072487644152,-10.976179613906133,1.9380898069530672,5.053970064348977
4.511070840197695,-10.894145228741595,1.8970726143707979,5.0676424618764
4.519069192751236,-10.812110843577065,1.856055421788533,5.081314859403822
4.527067545304778,-10.730076458412535,1.8150382292062681,5.094987256931244
4.5350658978583205,-6.773640856671792,0.5810873146625662,5.351004942338971
4.543064250411862,-6.027564774599374,1.048393739703445,4.417305676201879
4.551062602965405,-6.063920922570022,0.8484349258648818,4.308237232289936
4.559060955518946,-6.100277070540665,0.6484761120263409,4.199168788378004
4.567059308072488,-6.136633218511309,0.44851729818780006,4.090100344466073
4.5750576606260305,-6.172989366481957,0.24855848434923689,3.9810319005541293
4.583056013179572,-6.209345514452601,0.048599670510695914,3.871963456642198
4.591054365733115,-6.245701662423249,-0.15135914332786715,3.7628950127302545
4.599052718286656,-6.282057810393892,-0.351317957166408,3.6538265688183227
4.607051070840198,-6.318413958364537,-0.5512767710049489,3.5447581249063913
4.6150494233937405,-6.3547701063351845,-0.7512355848435122,3.435689680994448
4.623047775947282,-6.391126254305828,-0.951194398682053,3.3266212370825166
4.631046128500825,3.005436573309937,-0.7846787479389471,19.34546952223819
4.639044481054366,-1.0,3.7397733513054443,12.177235285307718
4.647042833607909,-1.0,3.2631038556902845,11.353162597973036
4.6550411861614505,-1.0,2.7864343600751775,10.529089910638444
4.663039538714992,-1.0,2.30976486446007,9.705017223303852
4.671037891268535,-1.0,1.8330953688449103,8.880944535969167
4.679036243822076,-1.0,1.3564258732298033,8.056871848634575
4.687034596375619,-1.0,0.8797563776146435,7.2327991612998925
4.6950329489291605,-1.0,0.40308688199953613,6.4087264739653005
4.703031301482702,-1.0,-0.07358261361557084,5.584653786630708
4.711029654036245,-1.0,-0.5502521092307306,4.760581099296024
4.719028006589786,-1.0,-1.026921604845838,3.936508411961432
4.727026359143329,-1.0,-1.5035911004609979,3.1124357246267493
4.7350247116968704,-13.905436573312542,2.956342668862776,-6.721746293244598
4.743023064250413,-25.3933098524871,-1.999770872389134,3.144570054346859
4.751021416803955,-23.471866537900652,-1.5217084209130807,3.8524702228787078
4.759019769357496,-21.550423223314205,-1.043645969437027,4.560370391410556
4.767018121911039,-19.628979908727544,-0.5655835179609203,5.268270559942484
4.77501647446458,-17.7075365941411,-0.08752106648486668,5.976170728474332
4.783014827018123,-15.78609327955444,0.39054138499124,6.68407089700626
4.791013179571665,-13.864649964967994,0.8686038364672934,7.391971065538108
4.799011532125206,-11.943206650381546,1.3466662879433473,8.099871234069957
4.807009884678749,-10.021763335794887,1.824728739419454,8.807771402601883
4.81500823723229,-8.10032002120844,2.3027911908955074,9.515671571133733
4.823006589785833,-6.178876706621779,2.780853642371614,10.22357173966566
4.831004942339375,3.910543657329155,-4.917957166391127,13.96919275123479
4.839003294892917,0.9924695753839599,-3.5978955200085214,12.212626879948873
4.847001647446459,0.9838691962941302,-3.709700448176308,11.541797310942155
4.855,0.9752688172043005,-3.8215053763440943,10.870967741935436
4.862998352553543,0.9666684381144698,-3.933310304511893,10.200138172928643
4.870996705107085,0.9580680590246401,-4.045115232679679,9.529308603921923
4.878995057660627,0.9494676799348094,-4.156920160847478,8.858479034915131
4.886993410214169,0.9408673008449796,-4.268725089015264,8.187649465908411
4.89499176276771,0.9322669217551499,-4.380530017183051,7.516819896901693
4.902990115321253,0.9236665426653192,-4.49233494535085,6.8459903278949
4.910988467874795,0.9150661635754895,-4.604139873518636,6.175160758888181
4.918986820428337,0.9064657844856588,-4.715944801686435,5.504331189881388
4.926985172981879,-2.6733113673824973,-6.189621087315416,5.496293245469792
4.93498352553542,-3.3209408749771505,-5.93388248215265,6.47576423210695
4.942981878088963,-3.3224235767893027,-4.03816584294327,6.755152846421394
4.950980230642505,-3.322425864909391,-3.567277594728173,6.852327018121913
4.958978583196047,-3.3524196869851757,-3.6572590609555267,6.92231260296541
4.966976935749589,-3.3824135090609566,-3.7472405271828704,6.992298187808899
4.974975288303131,-3.412407331136741,-3.837221993410224,7.062283772652396
4.982973640856673,-3.442401153212522,-3.927203459637567,7.132269357495885
4.990971993410215,-3.4723949752883034,-4.01718492586491,7.2022549423393745
4.998970345963757,-3.502388797364088,-4.107166392092264,7.272240527182872
5.006968698517299,-3.5323826194398693,-4.197147858319608,7.342226112026361
5.014967051070841,-3.562376441515654,-4.287129324546961,7.412211696869858
5.022965403624383,-3.5923702635914347,-4.377110790774305,7.482197281713347
5.030963756177925,-2.1010252725297067,-3.116404360475308,8.808202180237654
5.038962108731467,-2.1095341582249647,-3.252546531599437,8.87627326579972
5.046960461285009,-2.1180430439202222,-3.3886887027235506,8.944344351361776
5.054958813838551,-2.1265519296154802,-3.5248308738476797,9.01241543692384
5.062957166392093,-2.1350608153107373,-3.6609730449717937,9.080486522485897
5.0709555189456355,-2.1435697010059953,-3.7971152160959227,9.148557608047962
5.078953871499177,-2.1520785867012524,-3.9332573872200367,9.21662869361002
5.086952224052719,-2.1605874723965095,-4.06939955834415,9.284699779172076
5.094950576606261,-2.1690963580917675,-4.20554172946828,9.35277086473414
5.102948929159803,-2.1776052437870246,-4.341683900592393,9.420841950296197
5.1109472817133454,-2.186114129482283,-4.477826071716523,9.48891303585826
5.118945634266887,-2.19462301517754,-4.613968242840636,9.556984121420317
5.126943986820429,-2.2,-4.199522240527092,9.717759472817155
5.134942339373971,-1.9644151565072432,-2.7644151565072432,10.0
5.142940691927513,-1.7533899379039444,-2.5610170718902223,9.938982928109779
5.150939044481055,-1.8149157267773484,-2.6313322591741124,9.868667740825888
5.158937397034597,-1.8764415156507455,-2.701647446457995,9.798352553542005
5.166935749588139,-1.9379673045241426,-2.771962633741877,9.728037366258123
5.174934102141681,-1.9994930933975466,-2.8422778210257675,9.657722178974232
5.182932454695223,-2.0610188822709437,-2.91259300830965,9.587406991690349
5.190930807248765,-2.1225446711443476,-2.98290819559354,9.517091804406459
5.198929159802307,-2.184070460017745,-3.0532233828774222,9.446776617122577
5.20692751235585,-2.2455962488911485,-3.1235385701613128,9.376461429838686
5.214925864909391,-2.307122037764546,-3.1938537574451953,9.306146242554805
5.222924217462933,-2.368647826637943,-3.264168944729078,9.235831055270921
5.230922570016475,-2.356415888705829,-3.4743364451766823,9.417920556470852
5.238920922570017,-1.9079077429982818,-3.503953871499141,8.227677100493986
5.24691927512356,-1.909427708480428,-3.547138542402141,8.181144583039144
5.254917627677101,-1.9189495567584538,-3.5947477837922692,8.162100886483092
5.262915980230643,-1.9284714050364795,-3.642357025182398,8.14305718992704
5.270914332784185,-1.9379932533145063,-3.6899662665725317,8.124013493370986
5.278912685337727,-1.947515101592532,-3.7375755079626605,8.104969796814936
5.28691103789127,-1.9570369498705589,-3.785184749352794,8.085926100258883
5.294909390444811,-1.9665587981485846,-3.8327939907429225,8.06688240370283
5.302907742998354,-1.9760806464266112,-3.8804032321330566,8.047838707146777
5.310906095551895,-1.985602494704637,-3.928012473523185,8.028795010590725
5.318904448105437,-1.9951243429826628,-3.9756217149133137,8.009751314034675
5.32690280065898,-2.1951400329489594,-4.0,8.048785008237239
5.334901153212521,-2.616730734028948,-3.7399231191652627,8.1
5.342899505766064,-2.2977789981084835,-4.098889499054241,8.103331502837275
5.350897858319605,-2.2780299794577634,-4.089014989728882,8.132955030813354
5.358896210873147,-2.2582809608070433,-4.079140480403521,8.162578558789434
5.36689456342669,-2.2385319421563215,-4.069265971078161,8.192202086765517
5.374892915980231,-2.2187829235056014,-4.0593914617528,8.221825614741597
5.382891268533774,-2.199033904854879,-4.04951695242744,8.25144914271768
5.390889621087315,-2.1792848862041594,-4.039642443102079,8.281072670693762
5.398887973640857,-2.1595358675534393,-4.02976793377672,8.310696198669842
5.4068863261944,-2.139786848902717,-4.019893424451358,8.340319726645925
5.414884678747941,-2.120037830251997,-4.010018915125999,8.369943254622005
5.422883031301484,-2.100288811601275,-4.000144405800637,8.399566782598088
5.430881383855025,-2.275141863445001,-3.562145341387497,9.012996522057504
5.438879736408568,-2.2560131795716045,-3.5,9.48797364085679
5.44687808896211,-2.185519812711349,-3.514480187288651,9.6
5.454876441515651,-2.1686811757565247,-3.5313188242434754,9.6
5.462874794069194,-2.151842538801698,-3.548157461198302,9.6
5.470873146622735,-2.135003901846874,-3.5649960981531263,9.6
5.478871499176278,-2.1181652648920473,-3.581834735107953,9.6
5.48686985172982,-2.1013266279372225,-3.5986733720627777,9.6
5.494868204283361,-2.084487990982398,-3.615512009017602,9.6
5.502866556836904,-2.0676493540275716,-3.6323506459724286,9.6
5.510864909390445,-2.050810717072747,-3.649189282927253,9.6
5.518863261943988,-2.0339720801179206,-3.6660279198820795,9.6
5.5268616144975296,-2.017133443163096,-3.6828665568369043,9.6
5.534859967051072,-2.0002948062082697,-3.6997051937917305,9.6
5.542858319604614,-2.3955754295128253,-3.7022122852435877,8.5
5.550856672158155,-2.3765317329567734,-3.711734133521613,8.5
5.558855024711698,-2.35748803640072,-3.72125598179964,8.5
5.5668533772652395,-2.3384443398446684,-3.730777830077666,8.5
5.574851729818782,-2.3194006432886147,-3.7402996783556928,8.5
5.582850082372324,-2.300356946732563,-3.7498215266337187,8.5
5.590848434925865,-2.2813132501765114,-3.759343374911744,8.5
5.598846787479408,-2.262269553620458,-3.768865223189771,8.5
5.6068451400329495,-2.2432258570644064,-3.778387071467797,8.5
5.614843492586492,-2.2241821605083523,-3.7879089197458238,8.5
5.622841845140034,-2.205138463952301,-3.7974307680238493,8.5
5.630840197693576,-2.264891085484178,-3.735108914515822,8.17554457257911
5.638838550247118,-1.604226552292226,-4.095773447707773,8.804226552292226
5.6468369028006595,-1.6226135696566895,-4.07738643034331,8.82261356965669
5.654835255354202,-1.641000587021155,-4.058999412978845,8.841000587021155
5.662833607907744,-1.6593876043856184,-4.040612395614382,8.859387604385619
5.670831960461286,-1.6777746217500837,-4.022225378249916,8.877774621750085
5.678830313014828,-1.6961616391145473,-4.003838360885452,8.896161639114547
5.6868286655683695,-1.7145486564790107,-3.9854513435209893,8.914548656479012
5.694827018121912,-1.732935673843476,-3.9670643261565237,8.932935673843476
5.702825370675454,-1.7513226912079396,-3.9486773087920604,8.95132269120794
5.710823723228996,-1.769709708572405,-3.930290291427595,8.969709708572404
5.718822075782538,-1.7880967259368683,-3.9119032740631314,8.988096725936868
5.7268204283360795,-1.8282042833607939,-3.8576935749588093,8.971795716639207
5.734818780889622,-1.9081878088962207,-3.7377182866556686,8.89181219110378
5.742817133443164,-1.988171334431639,-3.6177429983525418,8.811828665568362
5.750815485996706,-1.888738056013176,-3.7,9.2
5.758813838550248,-1.8567446457990096,-3.7,9.2
5.76681219110379,-1.8247512355848394,-3.7,9.2
5.774810543657332,-1.7927578253706729,-3.7,9.2
5.782808896210874,-1.7607644151565065,-3.7,9.2
5.790807248764416,-1.7287710049423364,-3.7,9.2
5.798805601317958,-1.69677759472817,-3.7,9.2
5.8068039538715,-1.664784184514,-3.7,9.2
5.814802306425042,-1.6327907742998335,-3.7,9.2
5.822800658978584,-1.600797364085667,-3.7,9.2
5.830799011532126,-1.9,-3.8,8.600859152185082
5.838797364085668,-1.9,-3.8,8.609459531274911
5.84679571663921,-1.9,-3.8,8.618059910364742
5.854794069192752,-1.9,-3.8,8.626660289454572
5.862792421746295,-1.9,-3.8,8.635260668544403
5.870790774299836,-1.9,-3.8,8.643861047634232
5.878789126853378,-1.9,-3.8,8.652461426724061
5.88678747940692,-1.9,-3.8,8.661061805813892
5.894785831960462,-1.9,-3.8,8.669662184903721
5.9027841845140046,-1.9,-3.8,8.678262563993552
5.910782537067546,-1.9,-3.8,8.686862943083382
5.918780889621088,-1.9,-3.8,8.695463322173213
5.92677924217463,-2.0844151565073954,-3.8,8.484415156507396
5.934777594728172,-1.9,-3.8,8.701953400800189
5.9427759472817145,-1.9,-3.8,8.710742799210674
5.950774299835256,-1.9,-3.8,8.71953219762116
5.958772652388798,-1.9,-3.8,8.728321596031646
5.96677100494234,-1.9,-3.8,8.737110994442132
5.974769357495882,-1.9,-3.8,8.745900392852617
5.9827677100494245,-1.9,-3.8,8.754689791263104
5.990766062602966,-1.9,-3.8,8.763479189673589
5.998764415156509,-1.9,-3.8,8.772268588084076
6.00676276771005,-1.9,-3.8,8.781057986494561
6.014761120263592,-1.9,-3.8,8.789847384905046
6.0227594728171345,-1.9,-3.8,8.798636783315533
6.030757825370676,-1.8,-3.7878912685338224,9.0
6.038756177924219,-1.8,-3.7885938559937955,9.0
6.04675453047776,-1.8,-3.7768315728268225,9.0
6.054752883031302,-1.8,-3.76506928965985,9.0
6.0627512355848445,-1.8,-3.7533070064928755,9.0
6.070749588138386,-1.8,-3.7415447233259025,9.0
6.078747940691929,-1.8,-3.7297824401589286,9.0
6.08674629324547,-1.8,-3.7180201569919555,9.0
6.094744645799013,-1.8,-3.7062578738249816,9.0
6.1027429983525545,-1.8,-3.731191652937954,9.0
6.110741350906096,-1.8,-3.7978445908841363,9.0
6.118739703459639,-1.8,-3.8034950499622786,8.796504950037722
6.12673805601318,-1.8,-3.81097014580671,8.78902985419329
6.134736408566723,-1.8,-3.8184452416511423,8.781554758348857
6.1427347611202645,-1.8,-3.8259203374955737,8.774079662504427
6.150733113673806,-1.8,-3.8333954333400055,8.766604566659995
6.158731466227349,-1.8,-3.8408705291844374,8.759129470815562
6.16672981878089,-1.8,-3.8483456250288692,8.751654374971132
6.174728171334433,-1.8,-3.855820720873301,8.744179279126698
6.1827265238879745,-1.8,-3.863295816717733,8.736704183282267
6.190724876441516,-1.8,-3.8707709125621643,8.729229087437835
6.198723228995059,-1.8,-3.8782460084065966,8.721753991593403
6.2067215815486,-1.8,-3.885721104251028,8.714278895748972
6.214719934102143,-1.8,-3.8931962000954603,8.70680379990454
6.2227182866556845,-1.8,-3.9,8.7
6.230716639209227,-1.8,-3.8,8.7
6.238714991762769,-1.8,-3.8,8.7
6.24671334431631,-1.8,-3.8,8.7
6.254711696869853,-1.8,-3.8,8.7
6.2627100494233945,-1.8,-3.8,8.7
6.270708401976937,-1.8,-3.8,8.7
6.278706754530479,-1.8,-3.8,8.7
6.28670510708402,-1.8,-3.8,8.7
6.294703459637563,-1.8,-3.8,8.7
6.3027018121911045,-1.8,-3.8,8.7
6.310700164744647,-1.8,-3.8,8.7
6.318698517298189,-1.8,-3.8,8.7
6.326696869851731,-1.8848434925865598,-3.7151565074134405,8.78484349258656
6.334695222405273,-1.8,-3.8,9.0
6.3426935749588145,-1.8,-3.8,9.0
6.350691927512357,-1.8,-3.8,9.0
6.358690280065899,-1.8,-3.8,9.0
6.366688632619441,-1.8,-3.8,9.0
6.374686985172983,-1.8,-3.8,9.0
6.3826853377265245,-1.8,-3.8,9.0
6.390683690280067,-1.8,-3.8,9.0
6.398682042833609,-1.8,-3.8,9.0
6.406680395387151,-1.8,-3.8,9.0
6.414678747940693,-1.8,-3.8,9.0
6.4226771004942345,-1.8,-3.8,9.0
6.430675453047777,-1.8,-3.8,9.0
6.438673805601319,-1.8,-3.8,8.798200209030842
6.446672158154861,-1.8,-3.8,8.789599829941011
6.454670510708403,-1.8,-3.8,8.78099945085118
6.462668863261945,-1.8,-3.8,8.772399071761349
6.470667215815487,-1.8,-3.8,8.76379869267152
6.478665568369029,-1.8,-3.8,8.75519831358169
6.486663920922571,-1.8,-3.8,8.74659793449186
6.494662273476113,-1.8,-3.8,8.73799755540203
6.502660626029655,-1.8,-3.8,8.7293971763122
6.510658978583197,-1.8,-3.8,8.720796797222368
6.518657331136739,-1.8,-3.8,8.712196418132539
6.526655683690281,-1.8,-3.8,8.703596039042708
6.534654036243823,-1.8,-3.817298187808869,8.782701812191132
6.542652388797365,-1.7945266014148646,-3.8054733985851352,8.8
6.550650741350907,-1.7851167748812862,-3.8148832251187135,8.8
6.5586490939044495,-1.7757069483477068,-3.824293051652293,8.8
6.566647446457991,-1.7662971218141283,-3.8337028781858713,8.8
6.574645799011533,-1.7568872952805499,-3.84311270471945,8.8
6.582644151565075,-1.7474774687469705,-3.8525225312530296,8.8
6.590642504118617,-1.738067642213392,-3.861932357786608,8.8
6.5986408566721595,-1.7286578156798127,-3.8713421843201874,8.8
6.606639209225701,-1.7192479891462342,-3.8807520108537656,8.8
6.614637561779243,-1.7098381626126558,-3.890161837387344,8.8
6.622635914332785,-1.7004283360790764,-3.8995716639209235,8.8
6.630634266886327,-1.8682866556836433,-3.731713344316357,8.931713344316357
6.6386326194398695,-1.7052051903818755,-3.8,8.994794809618124
6.646630971993411,-1.714192103363383,-3.8,8.985807896636617
6.654629324546953,-1.7231790163448906,-3.8,8.97682098365511
6.662627677100495,-1.732165929326399,-3.8,8.967834070673602
6.670626029654037,-1.7411528423079066,-3.8,8.958847157692094
6.6786243822075795,-1.7501397552894151,-3.8,8.949860244710585
6.686622734761121,-1.7591266682709226,-3.8,8.940873331729078
6.694621087314664,-1.7681135812524311,-3.8,8.931886418747569
6.702619439868205,-1.7771004942339386,-3.8,8.922899505766061
6.710617792421747,-1.786087407215446,-3.8,8.913912592784554
6.7186161449752895,-1.7950743201969546,-3.8,8.904925679803046
6.726614497528831,-1.8,-3.8,8.80963756177923
6.734612850082374,-1.8,-3.8,8.7039270109591
6.742611202635915,-1.8,-3.8,8.712620872430342
6.750609555189457,-1.8,-3.8,8.721314733901583
6.7586079077429995,-1.8,-3.8,8.730008595372825
6.766606260296541,-1.8,-3.8,8.738702456844067
6.774604612850084,-1.8,-3.8,8.747396318315309
6.782602965403625,-1.8,-3.8,8.756090179786549
6.790601317957168,-1.8,-3.8,8.76478404125779
6.7985996705107095,-1.8,-3.8,8.773477902729033
6.806598023064251,-1.8,-3.8,8.782171764200273
6.814596375617794,-1.8,-3.8,8.790865625671515
6.822594728171335,-1.8,-3.8,8.799559487142757
6.830593080724878,-1.7027295586577658,-3.8,8.802729558657767
6.8385914332784195,-1.7111488771351782,-3.8,8.811148877135178
6.846589785831961,-1.7195681956125903,-3.8,8.819568195612591
6.854588138385504,-1.7279875140900036,-3.8,8.827987514090005
6.862586490939045,-1.7364068325674158,-3.8,8.836406832567416
6.870584843492588,-1.744826151044829,-3.8,8.84482615104483
6.8785831960461294,-1.7532454695222413,-3.8,8.853245469522243
6.886581548599672,-1.7616647879996545,-3.8,8.861664787999654
6.894579901153214,-1.770084106477067,-3.8,8.870084106477067
6.902578253706755,-1.778503424954479,-3.8,8.878503424954479
6.910576606260298,-1.7869227434318924,-3.8,8.886922743431892
6.918574958813839,-1.7953420619093046,-3.8,8.895342061909306
6.926573311367382,-1.7475562877539303,-3.8,8.9
6.934571663920924,-1.8,-3.8,8.9
6.942570016474465,-1.8,-3.8,8.9
6.950568369028008,-1.8,-3.8,8.9
6.958566721581549,-1.8,-3.8,8.9
6.966565074135092,-1.8,-3.8,8.9
6.974563426688634,-1.8,-3.8,8.9
6.982561779242175,-1.8,-3.8,8.9
6.990560131795718,-1.8,-3.8,8.9
6.998558484349259,-1.8,-3.8,8.9
7.006556836902802,-1.8,-3.8,8.9
7.014555189456344,-1.8,-3.8,8.9
7.022553542009886,-1.8,-3.8,8.9
7.030551894563428,-1.709198242723793,-3.890801757276207,8.890801757276208
7.038550247116969,-1.7006473495493755,-3.9,8.8
7.046548599670512,-1.7100571760829548,-3.9,8.8
7.054546952224054,-1.7194670026165333,-3.9,8.8
7.062545304777596,-1.7288768291501129,-3.9,8.8
7.070543657331138,-1.7382866556836911,-3.9,8.8
7.078542009884679,-1.7476964822172696,-3.9,8.8
7.086540362438222,-1.7571063087508492,-3.9,8.8
7.094538714991764,-1.7665161352844274,-3.9,8.8
7.102537067545306,-1.775925961818007,-3.9,8.8
7.110535420098848,-1.7853357883515855,-3.9,8.8
7.11853377265239,-1.7947456148851648,-3.9,8.8
7.126532125205932,-1.748929159802271,-3.851070840197729,8.8
7.134530477759474,-1.8,-3.8,8.9
7.142528830313016,-1.8,-3.8,8.9
7.150527182866558,-1.8,-3.8,8.9
7.1585255354201,-1.8,-3.8,8.9
7.166523887973642,-1.8,-3.8,8.9
7.174522240527184,-1.8,-3.8,8.9
7.182520593080726,-1.8,-3.8,8.9
7.190518945634268,-1.8,-3.8,8.9
7.19851729818781,-1.8,-3.8,8.9
7.206515650741352,-1.8,-3.8,8.9
7.214514003294894,-1.8,-3.8,8.9
7.222512355848436,-1.8,-3.8,8.9
7.230510708401978,-1.7165476844224712,-3.8,8.9
7.23850906095552,-1.8,-3.8,8.91930046888862
7.246507413509062,-1.8,-3.8,8.980826257762017
7.254505766062604,-1.7926589785831937,-3.807341021416806,8.992658978583194
7.262504118616146,-1.7819945085118047,-3.818005491488195,8.981994508511805
7.270502471169688,-1.771330038440416,-3.828669961559584,8.971330038440415
7.27850082372323,-1.760665568369026,-3.839334431630974,8.960665568369025
7.286499176276772,-1.750001098297637,-3.849998901702363,8.950001098297637
7.294497528830314,-1.739336628226247,-3.860663371773753,8.939336628226247
7.302495881383856,-1.7286721581548583,-3.8713278418451416,8.928672158154859
7.310494233937398,-1.7180076880834694,-3.8819923119165303,8.91800768808347
7.31849258649094,-1.7073432180120793,-3.8926567819879203,8.90734321801208
7.326490939044482,-1.7122734761120555,-3.8877265238879444,8.8
7.334489291598024,-1.8,-3.8,8.8
7.342487644151566,-1.8,-3.8,8.8
7.350485996705109,-1.8,-3.8,8.8
7.35848434925865,-1.8,-3.8,8.8
7.366482701812192,-1.8,-3.8,8.8
7.374481054365734,-1.8,-3.8,8.8
7.382479406919276,-1.8,-3.8,8.8
7.390477759472819,-1.8,-3.8,8.8
7.39847611202636,-1.8,-3.8,8.8
7.406474464579902,-1.8,-3.8,8.8
7.414472817133444,-1.8,-3.8,8.8
7.422471169686986,-1.8,-3.8,8.8
7.430469522240529,-1.7607724693392062,-3.8392275306607937,8.860772469339206
7.43846787479407,-1.8,-3.8,8.9
7.446466227347612,-1.8,-3.8,8.9
7.454464579901154,-1.8,-3.8,8.9
7.462462932454696,-1.8,-3.8,8.9
7.470461285008239,-1.8,-3.8,8.9
7.47845963756178,-1.8,-3.8,8.9
7.486457990115323,-1.8,-3.8,8.9
7.494456342668864,-1.8,-3.8,8.9
7.502454695222406,-1.8,-3.8,8.9
7.510453047775949,-1.8,-3.8,8.9
7.51845140032949,-1.8,-3.8,8.9
7.526449752883033,-1.8,-3.8,8.9
7.534448105436574,-1.786202635914358,-3.8,8.9
7.542446457990116,-1.8,-3.8,8.807495881383858
7.550444810543659,-1.8,-3.8,8.816796291329837
7.5584431630972,-1.8,-3.8,8.826096701275816
7.566441515650743,-1.8,-3.8,8.835397111221795
7.574439868204284,-1.8,-3.8,8.844697521167774
7.582438220757827,-1.8,-3.8,8.853997931113753
7.590436573311369,-1.8,-3.8,8.863298341059732
7.59843492586491,-1.8,-3.8,8.872598751005711
7.606433278418453,-1.8,-3.8,8.88189916095169
7.614431630971994,-1.8,-3.8,8.891199570897669
7.622429983525537,-1.8,-3.8,8.892833607907717
7.6304283360790786,-1.8,-3.8220757825370764,8.822075782537077
7.63842668863262,-1.8,-3.8947880784783635,8.894788078478364
7.646425041186163,-1.8933840961144357,-3.9,8.793384096114437
7.654423393739704,-1.8836300076345067,-3.9,8.783630007634507
7.662421746293247,-1.8738759191545769,-3.9,8.773875919154577
7.6704200988467885,-1.864121830674648,-3.9,8.764121830674648
7.678418451400331,-1.854367742194718,-3.9,8.754367742194718
7.686416803953873,-1.8446136537147892,-3.9,8.74461365371479
7.694415156507414,-1.8348595652348605,-3.9,8.73485956523486
7.702413509060957,-1.8251054767549304,-3.9,8.72510547675493
7.7104118616144985,-1.8153513882750016,-3.9,8.715351388275002
7.718410214168041,-1.8055972997950718,-3.9,8.705597299795071
7.726408566721583,-1.7402447634737988,-3.8,8.880489526947597
7.734406919275124,-1.7984367563609727,-3.6984367563609726,9.098436756360972
7.742405271828667,-1.7895496979681476,-3.6895496979681477,9.089549697968147
7.7504036243822085,-1.7806626395753236,-3.6806626395753237,9.080662639575323
7.758401976935751,-1.7717755811824987,-3.671775581182499,9.071775581182498
7.766400329489293,-1.7628885227896747,-3.662888522789675,9.062888522789674
7.774398682042834,-1.7540014643968507,-3.654001464396851,9.054001464396851
7.782397034596377,-1.7451144060040258,-3.645114406004026,9.045114406004025
7.7903953871499185,-1.7362273476112018,-3.636227347611202,9.036227347611202
7.798393739703461,-1.7273402892183767,-3.627340289218377,9.027340289218376
7.806392092257003,-1.718453230825553,-3.618453230825553,9.018453230825553
7.814390444810545,-1.7095661724327278,-3.609566172432728,9.009566172432727
7.822388797364087,-1.7006791140399038,-3.600679114039904,9.000679114039905
7.8303871499176285,-1.5,-3.8768808347061876,8.930642504118563
7.838385502471171,-1.4961960646391337,-3.8038039353608664,8.692392129278266
7.846383855024713,-1.4872091516576262,-3.812790848342374,8.674418303315251
7.854382207578255,-1.4782222386761177,-3.821777761323882,8.656444477352235
7.862380560131797,-1.4692353256946102,-3.8307646743053896,8.63847065138922
7.8703789126853385,-1.4602484127131028,-3.839751587286897,8.620496825426205
7.878377265238881,-1.4512614997315945,-3.8487385002684054,8.602522999463188
7.886375617792423,-1.442274586750087,-3.857725413249913,8.584549173500173
7.894373970345965,-1.4332876737685787,-3.866712326231421,8.566575347537157
7.902372322899507,-1.4243007607870712,-3.8756992392129286,8.548601521574142
7.910370675453049,-1.4153138478055627,-3.884686152194437,8.530627695611125
7.918369028006591,-1.4063269348240552,-3.8936730651759444,8.51265386964811
7.926367380560133,-1.3275535420099425,-3.9724464579900576,8.518369028006628
7.934365733113675,-1.6,-3.905199413436648,9.102599706718324
7.942364085667217,-1.6,-3.9227782102576185,9.11138910512881
7.950362438220759,-1.6,-3.9403570070785916,9.120178503539295
7.958360790774301,-1.6,-3.957935803899562,9.12896790194978
7.966359143327843,-1.6,-3.975514600720533,9.137757300360265
7.974357495881385,-1.6,-3.9930933975415055,9.146546698770752
7.982355848434927,-1.6,-4.010672194362477,9.155336097181237
7.990354200988469,-1.6,-4.028250991183449,9.164125495591724
7.998352553542011,-1.6,-4.04582978800442,9.17291489400221
8.006350906095554,-1.6,-4.0634085848253925,9.181704292412697
8.014349258649094,-1.6,-4.080987381646361,9.19049369082318
8.022347611202637,-1.6,-4.098566178467334,9.199283089233667
8.03034596375618,-1.5,-3.897199341021443,8.951400329489278
8.038344316309722,-1.7984368415003242,-3.893747366001297,9.090621049001946
8.046342668863263,-1.7891364315543465,-3.856545726217386,9.034818589326079
8.054341021416805,-1.7798360216083666,-3.8193440864334667,8.9790161296502
8.062339373970348,-1.770535611662387,-3.782142446649547,8.92321366997432
8.070337726523888,-1.761235201716409,-3.7449408068656362,8.867411210298455
8.078336079077431,-1.751934791770429,-3.7077391670817166,8.811608750622575
8.086334431630974,-1.7426343818244494,-3.6705375272977974,8.755806290946696
8.094332784184516,-1.7333339718784695,-3.6333358875138777,8.700003831270816
8.102331136738057,-1.7240335619324916,-3.596134247729967,8.64420137159495
8.1103294892916,-1.7147331519865119,-3.5589326079460473,8.588398911919072
8.118327841845142,-1.705432742040532,-3.521730968162128,8.532596452243192
8.126326194398683,-1.5,-3.655258099945108,7.9221032399780436
8.134324546952225,-1.5,-3.988522789676034,8.055409115870413
8.142322899505768,-1.7203430564977307,-2.928799302257943,10.964399651128971
8.150321252059308,-1.7579823626320397,-2.797061730787861,10.89853086539393
8.158319604612851,-1.795621668766357,-2.66532415931775,10.832662079658876
8.166317957166394,-1.8332609749006745,-2.533586587847639,10.76679329392382
8.174316309719936,-1.870900281034992,-2.401849016377528,10.700924508188765
8.182314662273477,-1.908539587169301,-2.2701114449074464,10.635055722453723
8.19031301482702,-1.9461788933036184,-2.1383738734373354,10.569186936718669
8.198311367380562,-1.9838181994379358,-2.0066363019672244,10.503318150983613
8.206309719934103,-2.021457505572245,-1.8748987304971427,10.437449365248572
8.214308072487645,-2.0590968117065622,-1.7431611590270317,10.371580579513516
8.222306425041188,-2.0967361178408797,-1.611423587556921,10.30571179377846
8.23030477759473,-1.8937733609678857,-3.695739668030659,9.796722821562046
8.238303130148271,-1.7303661582611392,-3.583934739862885,9.710719030663759
8.246301482701814,-1.5669589555543562,-3.472129811695086,9.624715239765452
8.254299835255356,-1.4035517528475732,-3.360324883527287,9.538711448867145
8.262298187808897,-1.2401445501408266,-3.248519955359513,9.452707657968856
8.27029654036244,-1.0767373474340436,-3.1367150271917144,9.36670386707055
8.278294892915982,-0.9133301447272606,-3.0249100990239155,9.280700076172243
8.286293245469523,-0.749922942020514,-2.913105170856141,9.194696285273956
8.294291598023065,-0.586515739313731,-2.801300242688342,9.10869249437565
8.302289950576608,-0.423108536606948,-2.6894953145205434,9.022688703477343
8.31028830313015,-0.25970133390016503,-2.5776903863527445,8.936684912579036
8.318286655683691,-0.09629413119341845,-2.4658854581849705,8.850681121680747
8.326285008237233,1.9283360790780533,-8.555354200993206,11.842833607907806
8.334283360790776,9.84276843420194,-12.617013958035319,13.485567644875708
8.342281713344317,10.677761283197942,-12.414857794594182,13.45041005123377
8.35028006589786,11.51275413219413,-12.212701631153,13.415252457591826
8.358278418451402,12.347746981190319,-12.010545467711816,13.380094863949882
8.366276771004944,13.182739830186508,-11.808389304270635,13.344937270307936
8.374275123558485,14.017732679182512,-11.606233140829497,13.309779676665999
8.382273476112028,14.852725528178699,-11.404076977388314,13.274622083024054
8.39027182866557,15.687718377174889,-11.201920813947133,13.23946448938211
8.398270181219111,16.52271122617089,-10.999764650505995,13.204306895740173
8.406268533772653,17.357704075167078,-10.797608487064812,13.169149302098228
8.414266886326196,18.19269692416327,-10.595452323623629,13.133991708456284
8.422265238879739,18.888931219109732,-10.302193163096632,13.065187397034395
8.43026359143328,15.539621087314545,-7.35280065897848,12.01540362438217
8.438261943986822,12.169028006589384,-4.410190633089862,10.708119557542053
8.446260296540364,8.804501059072729,-2.1285067074606165,3.213503177218187
8.454258649093905,8.833066603906804,-2.3094218247430867,3.2991998117204093
8.462257001647448,8.861632148740885,-2.490336942025597,3.384896446222651
8.47025535420099,8.890197693574965,-2.6712520593081073,3.470593080724893
8.478253706754531,8.918763238409039,-2.8521671765905774,3.556289715227116
8.486252059308073,8.947328783243119,-3.033082293873088,3.6419863497293576
8.494250411861616,8.9758943280772,-3.2139974111555984,3.727682984231599
8.502248764415159,9.00445987291128,-3.394912528438109,3.813379618733841
8.5102471169687,9.033025417745355,-3.575827645720579,3.8990762532360637
8.518245469522242,9.061590962579436,-3.7567427630030896,3.9847728877383055
8.526243822075784,9.090156507413516,-3.9376578802855997,4.070469522240547
8.534242174629325,4.949258649090687,-8.053157605708519,3.3961010433821683
8.542240527182868,-0.7315034277515523,-3.6,2.3698039007280585
8.55023887973641,-1.0282165063507052,-3.6,2.331102194823821
8.558237232289953,-1.324929584949858,-3.6,2.2924004889195837
8.566235584843493,-1.621642663548945,-3.6,2.253698783015355
8.574233937397036,-1.9183557421480977,-3.6,2.214997077111118
8.582232289950579,-2.2150688207472506,-3.6,2.1762953712068804
8.59023064250412,-2.5117818993463374,-3.6,2.137593665302652
8.598228995057662,-2.731301482701646,-4.206836902802125,2.2373970345967074
8.606227347611204,-8.44324546952344,-1.6953871499163595,7.244357495882124
8.614225700164745,-10.739881325538331,0.6982607047571745,8.709249026840256
8.622224052718288,-10.647864880232088,0.5425405665466114,8.723405403041216
8.63022240527183,-10.555848434925847,0.3868204283360482,8.737561779242178
8.638220757825373,-10.463831989619605,0.23110029012548505,8.751718155443138
8.646219110378913,-10.371815544313383,0.0753801519149564,8.765874531644094
8.654217462932456,-10.279799099007143,-0.08033998629560679,8.780030907845054
8.662215815485999,-10.1877826537009,-0.23606012450616998,8.794187284046016
8.67021416803954,-10.095766208394679,-0.39178026271669864,8.808343660246972
8.678212520593082,-10.003749763088436,-0.5475004009272617,8.822500036447932
8.686210873146624,-9.911733317782195,-0.703220539137825,8.836656412648892
8.694209225700167,-9.819716872475952,-0.8589406773483881,8.850812788849854
8.702207578253708,-9.727700427169731,-1.0146608155589167,8.86496916505081
8.71020593080725,-9.635683981863489,-1.1703809537694798,8.87912554125177
8.718204283360793,-9.543667536557248,-1.326101091980043,8.89328191745273
8.726202635914333,-9.247841845140005,2.046161449753256,7.4711037891266985
8.734200988467876,-11.162367120436697,5.2317384895516215,11.352947195005841
8.742199341021418,-9.874211393392487,4.8191918841583785,12.203298361224567
8.75019769357496,-8.586055666348564,4.406645278765226,13.053649527443106
8.758196046128502,-7.2978999393043535,3.9940986733719823,13.904000693661832
8.766194398682044,-6.009744212260144,3.5815520679787394,14.754351859880558
8.774192751235587,-4.721588485215935,3.1690054625854955,15.604703026099283
8.782191103789128,-3.433432758172012,2.7564588571923436,16.45505419231782
8.79018945634267,-2.145277031127801,2.3439122517991,17.305405358536547
8.798187808896213,-0.8571213040835914,1.9313656464058564,18.155756524755276
8.806186161449753,0.431034422960332,1.5188190410127045,19.006107690973813
8.814184514003296,1.7191901500045415,1.106272435619461,19.856458857192536
8.822182866556838,3.007345877048751,0.6937258302262173,20.706810023411265
8.830181219110381,-2.2459637561765025,9.732751235584777,20.951202635913514
8.838179571663922,4.1,2.744632070290542,10.204228445907965
8.846177924217464,4.1,0.2784733662816885,5.93844041735211
8.854176276771007,4.0774255309675285,-0.8473262389242341,3.9413865265595303
8.862174629324548,4.034191192840281,-0.7464461166273243,4.020649479792817
8.87017298187809,3.990956854713025,-0.645565994330392,4.0999124330261205
8.878171334431633,3.947722516585768,-0.5446858720334598,4.179175386259424
8.886169686985175,3.9044881784585117,-0.4438057497365276,4.258438339492728
8.894168039538716,3.8612538403312646,-0.34292562743961774,4.337701292726015
8.902166392092258,3.8180195022040078,-0.24204550514268552,4.416964245959319
8.910164744645801,3.7747851640767514,-0.1411653828457533,4.496227199192623
8.918163097199342,3.7315508259495043,-0.040285260548843516,4.575490152425909
8.926161449752884,3.6883164878222474,0.0605948617480887,4.654753105659212
8.934159802306427,3.645082149694991,0.16147498404502103,4.734016058892516
8.942158154859968,3.601847811567744,0.2623551063419308,4.813279012125803
8.95015650741351,3.558613473440487,0.36323522863886304,4.892541965359107
8.958154859967053,3.5153791353132307,0.46411535093579526,4.971804918592411
8.966153212520595,2.8129049972540443,2.2177375068648892,7.576606260297334
8.974151565074136,1.5929496015869276,5.9741485391520674,9.174148539152068
8.982149917627678,1.5439800961570749,5.794593685909274,8.994593685909273
8.990148270181221,1.495010590727222,5.615038832666481,8.81503883266648
8.998146622734762,1.4460410852973802,5.4354839794237275,8.635483979423727
9.006144975288304,1.3970715798675275,5.255929126180934,8.455929126180934
9.014143327841847,1.3481020744376746,5.076374272938141,8.27637427293814
9.02214168039539,1.3991762767724163,4.673311367377334,8.071663920922166
9.03014003294893,1.3844241425790007,1.6284459088413208,8.620767809894666
9.038138385502473,1.360186710598569,1.9839282445543214,8.653084385868574
9.046136738056015,1.335949278618137,2.339410580267322,8.685400961842484
9.054135090609556,1.3117118466377107,2.694892915980244,8.717717537816386
9.062133443163098,1.2874744146572787,3.0503752516932447,8.750034113790294
9.070131795716641,1.263236982676847,3.4058575874062456,8.782350689764204
9.078130148270182,1.2389995506964204,3.761339923119167,8.814667265738105
9.086128500823724,1.2147621187159885,4.116822258832167,8.846983841712015
9.094126853377267,1.1905246867355568,4.472304594545168,8.879300417685924
9.10212520593081,1.1662872547551248,4.827786930258169,8.911616993659834
9.11012355848435,1.1420498227746985,5.1832692659710915,8.943933569633735
9.118121911037893,1.1178123907942665,5.538751601684092,8.976250145607645
9.126120263591435,1.7010308307837345,5.498969169216266,8.600343610261245
9.134118616144976,1.769588138385512,5.430411861614488,8.623196046128504
9.142116968698518,1.8381454459873048,5.361854554012695,8.646048481995768
9.150115321252061,1.9067027535890977,5.293297246410902,8.668900917863033
9.158113673805603,1.9752600611908906,5.224739938809109,8.691753353730297
9.166112026359144,1.772199341021382,4.883401976935854,8.616598023064146
9.174110378912687,1.69450496891109,5.116485093266729,8.41099006217782
9.18210873146623,1.6859045898212592,5.142286230536222,8.428190820357482
9.19010708401977,1.6773042107314307,5.168087367805708,8.445391578537139
9.198105436573313,1.6687038316415999,5.193888505075201,8.462592336716801
9.206103789126855,1.6601034525517693,5.219689642344692,8.479793094896461
9.214102141680396,1.6515030734619405,5.245490779614179,8.49699385307612
9.222100494233938,1.6429026943721097,5.271291916883671,8.51419461125578
9.230098846787481,1.634302315282279,5.297093054153163,8.531395369435442
9.238097199341023,1.6257019361924485,5.322894191422655,8.548596127615102
9.246095551894564,1.6171015571026197,5.348695328692141,8.56579688579476
9.254093904448107,1.608501178012789,5.374496465961633,8.582997643974421
9.26209225700165,1.5815485996702234,5.446128500824442,8.549258649093114
9.27009060955519,2.031459891015094,2.0370802179698124,10.383221391458617
9.278088962108733,2.262181599290361,1.575636801419278,10.260169813711808
9.286087314662275,2.492903307565628,1.1141933848687438,10.137118235964998
9.294085667215818,2.723625015840895,0.6527499683182096,10.014066658218189
9.302084019769358,2.954346724116111,0.1913065517677779,9.891015080471407
9.310082372322901,3.185068432391378,-0.27013686478275645,9.767963502724598
9.318080724876443,3.4157901406666453,-0.7315802813332906,9.644911924977789
9.326079077429984,0.7196669486620143,8.45223741039225,8.50842869228372
9.334077429983527,0.795327040384714,8.268491473351409,8.540854445879162
9.34207578253707,0.8709871321074139,8.084745536310566,8.573280199474606
9.350074135090612,0.9466472238301136,7.900999599269724,8.605705953070048
9.358072487644153,1.0223073155527966,7.717253662228922,8.638131706665485
9.366070840197695,1.0979674072754964,7.53350772518808,8.670557460260927
9.374069192751238,1.173627498998196,7.349761788147237,8.70298321385637
9.382067545304778,1.2492875907208791,7.166015851106436,8.735408967451805
9.390065897858321,1.3249476824435789,6.9822699140655935,8.76783472104725
9.398064250411863,1.4096375617795598,6.76144975288176,8.812850082372748
9.406062602965404,1.7048229967959114,4.502411498397955,8.492765504806133
9.414060955518947,1.7174188275888917,4.508709413794446,8.473871758616662
9.42205930807249,1.7300146583818723,4.5150073291909365,8.45497801242719
9.430057660626032,1.7426104891748528,4.521305244587427,8.436084266237721
9.438056013179573,1.7552063199678305,4.527603159983915,8.417190520048255
9.446054365733115,1.767802150760811,4.533901075380405,8.398296773858783
9.454052718286658,1.7803979815537914,4.540198990776895,8.379403027669312
9.462051070840198,1.792993812346769,4.546496906173385,8.360509281479846
9.470049423393741,1.8055896431397496,4.552794821569875,8.341615535290375
9.478047775947283,1.8181854739327301,4.559092736966365,8.322721789100905
9.486046128500826,1.8307813047257104,4.565390652362855,8.303828042911434
9.494044481054367,1.843377135518688,4.5716885677593435,8.284934296721968
9.50204283360791,1.8559729663116686,4.577986483155834,8.266040550532496
9.510041186161452,1.8685687971046492,4.584284398552325,8.247146804343025
9.518039538714993,1.8811646278976268,4.590582313948813,8.228253058153559
9.526037891268535,1.8937604586906072,4.596880229345303,8.209359311964088
9.534036243822078,1.7481878088961114,5.055436573311666,8.807248764415554
9.542034596375618,1.7158080817429622,5.097247468670746,8.960479795642595
9.55003294892916,1.733781907705979,4.980417599911137,8.915545230735052
9.558031301482703,1.7517557336689957,4.863587731151527,8.87061066582751
9.566029654036246,1.7697295596320126,4.7467578623919175,8.825676100919969
9.574028006589787,1.7877033855950255,4.629927993632334,8.780741536012435
9.58202635914333,1.8056772115580424,4.513098124872725,8.735806971104894
9.590024711696872,1.823651037521059,4.396268256113115,8.690872406197352
9.598023064250413,1.841624863484072,4.279438387353531,8.64593784128982
9.606021416803955,1.8595986894470888,4.162608518593922,8.601003276382277
9.614019769357498,1.8775725154101057,4.045778649834313,8.556068711474735
9.62201812191104,1.8955463413731226,3.928948781074703,8.511134146567194
9.63001647446458,1.8331502837268747,4.234248581365627,8.5
9.638014827018123,1.8746293245469237,4.4492586490938475,8.774629324546924
9.646013179571666,1.8086434130545965,4.325930239163789,8.691356586945403
9.654011532125207,1.8224336760779427,4.367301028233827,8.677566323922056
9.66200988467875,1.8362239391012918,4.408671817303875,8.663776060898707
9.670008237232292,1.850014202124641,4.450042606373923,8.649985797875358
9.678006589785834,1.8638044651479904,4.491413395443971,8.636195534852009
9.686004942339375,1.8775947281713363,4.532784184514009,8.622405271828663
9.694003294892918,1.8913849911946856,4.574154973584057,8.608615008805314
9.70200164744646,1.9,4.6499176276769925,8.650082372323007
9.71,1.9,4.3,8.5
