accel_time_list,accel_x_list,accel_y_list,accel_z_list
0.0,1.6,5.9,3.6
0.007999487442337262,1.5774309287214168,6.406448306079596,6.896775846960202
0.015998974884674524,1.396797341313801,6.458057902481771,6.870971048759115
0.023998462327011784,1.2161637539061856,6.509667498883947,6.845166250558027
0.03199794976934905,1.0355301664985699,6.5612770952861235,6.819361452356938
0.03999743721168631,0.8548965790909543,6.612886691688299,6.793556654155851
0.04799692465402357,0.6742629916833388,6.664496288090475,6.767751855954763
0.05599641209636083,0.4936294042757232,6.7161058844926504,6.741947057753674
0.0639958995386981,0.3129958168681075,6.767715480894827,6.716142259552587
0.07199538698103536,0.13236222946049203,6.819325077297003,6.690337461351499
0.07999487442337262,-0.04827135794712367,6.870934673699178,6.6645326631504105
0.08799436186570989,-0.22890494535473915,6.922544270101354,6.638727864949323
0.09599384930804714,-0.40953853276235463,6.97415386650353,6.612923066748235
0.1039933367503844,0.7205330599692478,6.539733470015376,6.819866735007688
0.11199282419272166,0.4022142491030241,7.0,7.097785750896976
0.11999231163505893,0.4111025684833988,7.0,7.0888974315166005
0.1279917990773962,0.4199908878637736,7.0,7.080009112136226
0.13599128651973344,0.4288792072441483,7.0,7.071120792755852
0.14399077396207072,0.437767526624523,7.0,7.062232473375476
0.15199026140440797,0.4466558460048977,7.0,7.053344153995102
0.15998974884674524,0.4555441653852725,7.0,7.044455834614728
0.1679892362890825,0.46443248476564725,7.0,7.035567515234352
0.17598872373141977,0.47332080414602196,7.0,7.026679195853978
0.18398821117375702,0.48220912352639667,7.0,7.017790876473604
0.19198769861609427,0.4910974429067714,7.0,7.008902557093228
0.19998718605843155,0.49998576228714614,7.0,7.000014237712854
0.2079866735007688,0.4989390607518615,6.404243756992554,6.9
0.21598616094310608,0.49033746135149886,6.438650154594005,6.9
0.22398564838544333,0.4817358619511362,6.473056552195455,6.9
0.2319851358277806,0.47313426255077357,6.507462949796906,6.9
0.23998462327011785,0.4645326631504109,6.5418693473983565,6.9
0.24798411071245513,0.45593106375004827,6.5762757449998075,6.9
0.2559835981547924,0.4473294643496856,6.610682142601258,6.9
0.26398308559712963,0.438727864949323,6.645088540202708,6.9
0.2719825730394669,0.4301262655489604,6.679494937804159,6.9
0.2799820604818042,0.4215246661485976,6.713901335405609,6.9
0.28798154792414143,0.41292306674823503,6.74830773300706,6.9
0.2959810353664787,0.4043214673478724,6.78271413060851,6.9
0.30398052280881593,0.4669912865197343,6.766991286519734,7.133008713480265
0.31198001025115324,0.47707684422189817,6.654153688443796,7.177076844221898
0.3199794976934905,0.4155423254346886,6.531084650869377,7.115542325434689
0.32797898513582774,0.4,6.5,7.092334634441246
0.335978472578165,0.4,6.5,7.082078881310045
0.34397796002050224,0.4,6.5,7.071823128178843
0.35197744746283954,0.4,6.5,7.061567375047641
0.3599769349051768,0.4,6.5,7.05131162191644
0.36797642234751404,0.4,6.5,7.0410558687852385
0.3759759097898513,0.4,6.5,7.030800115654037
0.38397539723218854,0.4,6.5,7.020544362522835
0.39197488467452585,0.4,6.5,7.010288609391633
0.3999743721168631,0.4,6.5,7.000032856260432
0.40797385955920035,0.39895283918365554,6.597905678367311,6.998952839183655
0.4159733470015376,0.3903512397832929,6.580702479566585,6.990351239783293
0.4239728344438749,0.3817496403829302,6.5634992807658605,6.9817496403829304
0.43197232188621215,0.3731480409825676,6.546296081965135,6.973148040982568
0.4399718093285494,0.36454644158220495,6.5290928831644095,6.964546441582205
0.44797129677088665,0.3559448421818423,6.511889684363685,6.955944842181842
0.4559707842132239,0.34734324278147966,6.494686485562959,6.947343242781479
0.4639702716555612,0.33874164338111695,6.477483286762234,6.9387416433811175
0.47196975909789846,0.33014004398075436,6.460280087961509,6.930140043980755
0.4799692465402357,0.3215384445803917,6.443076889160784,6.921538444580392
0.48796873398257296,0.31293684518002907,6.425873690360058,6.912936845180029
0.49596822142491026,0.30433524577966636,6.408670491559333,6.9043352457796665
0.5039677088672475,0.3,6.275807278318812,6.651614556637625
0.5119671963095848,-0.19782652514700058,6.195653050294001,6.398913262573501
0.519966683751922,-0.1798501488720854,6.159700297744171,6.389925074436043
0.5279661711942593,-0.16187377259717023,6.12374754519434,6.380936886298586
0.5359656586365965,-0.14389739632225504,6.08779479264451,6.371948698161128
0.5439651460789338,-0.12592102004733985,6.05184204009468,6.36296051002367
0.5519646335212711,-0.10794464377242444,6.015889287544849,6.3539723218862125
0.5599641209636084,-0.08996826749750926,5.979936534995018,6.3449841337487545
0.5679636084059456,-0.07199189122259408,5.943983782445188,6.335995945611297
0.5759630958482829,-0.05401551494767892,5.9080310298953576,6.327007757473839
0.5839625832906201,-0.03603913867276373,5.872078277345527,6.318019569336382
0.5919620707329574,-0.01806276239784857,5.836125524795697,6.309031381198924
0.5999615581752946,-8.638612293337955e-05,5.800172772245866,6.300043193061467
0.6079610456176319,0.2653681872543961,4.834631812745604,6.117315906372801
0.6159605330599691,0.6,4.583464889800102,5.811023406799931
0.6239600205023065,0.6,4.556799931658978,5.828800045560681
0.6319595079446437,0.6,4.530134973517854,5.84657668432143
0.639958995386981,0.6,4.503470015376729,5.86435332308218
0.6479584828293182,0.6,4.476805057235605,5.88212996184293
0.6559579702716555,0.6,4.450140099094481,5.899906600603678
0.6639574577139927,0.6,4.423475140953357,5.917683239364428
0.67195694515633,0.6,4.396810182812233,5.935459878125178
0.6799564325986672,0.6,4.370145224671109,5.953236516885927
0.6879559200410045,0.6,4.343480266529985,5.971013155646677
0.6959554074833418,0.6,4.31681530838886,5.988789794407427
0.7039548949256791,0.5022552537160436,3.3022552537160434,6.193234238851869
0.7119543823680163,0.5,3.211617973688707,6.155808986844353
0.7199538698103536,0.5,3.12273477988496,6.11136738994248
0.7279533572526908,0.493482424667512,3.019552725997464,6.113035150664976
0.7359528446950281,0.48295678329601566,3.051129650111953,6.134086433407968
0.7439523321373653,0.4724311419245193,3.082706574226442,6.1551377161509615
0.7519518195797026,0.46190550055302293,3.114283498340931,6.176188998893954
0.7599513070220398,0.45137985918152657,3.1458604224554203,6.1972402816369465
0.7679507944643771,0.4408542178100302,3.1774373465699095,6.218291564379939
0.7759502819067144,0.43032857643853367,3.2090142706843987,6.239342847122932
0.7839497693490517,0.4198029350670373,3.240591194798888,6.260394129865925
0.791949256791389,0.40927729369554094,3.272168118913377,6.281445412608918
0.7999487442337262,0.30512557662738504,3.0628139415684625,6.157688364941078
0.8079482316760634,-0.9246764479753963,1.2588725867076729,5.308225482658465
0.8159477191184007,-0.9746732444900041,1.1755445925166599,5.324891081496668
0.8239472065607379,-1.024670041004612,1.0922165983256469,5.341556680334871
0.8319466940030752,-1.0746668375192197,1.0088886041346339,5.358222279173073
0.8399461814454124,-1.1246636340338276,0.9255606099436209,5.374887878011275
0.8479456688877498,-1.174660430548436,0.8422326157526066,5.391553476849478
0.855945156330087,-1.224657227063044,0.7589046215615936,5.408219075687681
0.8639446437724243,-1.2746540235776518,0.6755766273705806,5.424884674525884
0.8719441312147616,-1.3246508200922595,0.5922486331795676,5.441550273364086
0.8799436186570988,-1.3746476166068673,0.5089206389885544,5.458215872202289
0.887943106099436,-1.424644413121475,0.42559264479754144,5.474881471040492
0.8959425935417733,-1.474641209636083,0.34226465060652833,5.491547069878695
0.9039420809841106,-3.3239364428497367,-3.5181445412607895,5.611583803177894
0.9119415684264478,-4.937194601059285,-4.015940543311122,5.762805398940715
0.9199410558687852,-4.997405796861824,-4.04174534151221,5.702594203138176
0.9279405433111224,-5.057616992664363,-4.067550139713298,5.642383007335638
0.9359400307534597,-5.117828188466901,-4.093354937914386,5.582171811533099
0.9439395181957969,-5.178039384269439,-4.119159736115474,5.521960615730561
0.9519390056381342,-5.238250580071978,-4.1449645343165615,5.461749419928022
0.9599384930804714,-5.298461775874516,-4.17076933251765,5.401538224125484
0.9679379805228087,-5.358672971677054,-4.196574130718737,5.3413270283229455
0.9759374679651459,-5.418884167479593,-4.2223789289198255,5.281115832520407
0.9839369554074832,-5.479095363282131,-4.248183727120913,5.220904636717869
0.9919364428498205,-5.53930655908467,-4.273988525322001,5.160693440915329
0.9999359302921578,-5.599517754887208,-4.299793323523089,5.100482245112791
1.007935417734495,-10.408017866295673,-8.098218251934295,2.5026726220985576
1.0159349051768323,-10.476584901515706,-8.08298113299651,2.5255283005052354
1.0239343926191695,-10.54515193673574,-8.067744014058725,2.548383978911913
1.0319338800615068,-10.613718971955773,-8.052506895120938,2.571239657318591
1.039933367503844,-10.682286007175806,-8.037269776183154,2.5940953357252687
1.0479328549461813,-10.75085304239584,-8.022032657245369,2.6169510141319465
1.0559323423885185,-10.819420077615874,-8.006795538307584,2.6398066925386243
1.0639318298308558,-10.887987112835907,-7.991558419369799,2.662662370945302
1.071931317273193,-10.956554148055941,-7.976321300432013,2.68551804935198
1.0799308047155303,-11.025121183275974,-7.961084181494228,2.7083737277586577
1.0879302921578675,-11.093688218496007,-7.945847062556443,2.7312294061653355
1.0959297796002048,-11.16225525371604,-7.930609943618658,2.7540850845720133
1.1039292670425422,-11.230822288936077,-7.9153728246808726,2.7769407629786915
1.1119287544848795,-11.29938932415611,-7.900135705743088,2.7997964413853698
1.1199282419272167,-12.99712967708867,-8.723206048180419,1.4767939518195816
1.127927729369554,-13.317109174782159,-8.92319323423885,1.2768067657611504
1.1359272168118912,-13.692721681189123,-9.470886724756491,0.8218349564326315
1.1439267042542285,-13.777164711249798,-9.938058814583673,0.43910589666612326
1.1519261916965657,-13.750792774626706,-9.982012042288822,0.36878073233788367
1.159925679138903,-13.724420838003617,-10.025965269993973,0.2984555680096441
1.1679251665812402,-13.698048901380528,-10.069918497699122,0.22813040368140453
1.1759246540235775,-13.671676964757438,-10.113871725404273,0.15780523935316493
1.1839241414659147,-13.645305028134347,-10.157824953109422,0.08748007502492539
1.191923628908252,-13.618933091511257,-10.201778180814571,0.017154910696685788
1.1999231163505892,-13.592561154888168,-10.245731408519722,-0.05317025363155381
1.2079226037929265,-13.566189218265079,-10.289684636224871,-0.12349541795979335
1.2159220912352637,-13.539817281641987,-10.33363786393002,-0.1938205822880329
1.223921578677601,-13.513445345018898,-10.377591091635171,-0.26414574661627255
1.2319210661199382,-11.8315735520247,-9.427626858021613,-0.3078933880061749
1.2399205535622755,-10.977633847444203,-6.8105353897768115,1.1298215367410631
1.247920041004613,-10.941272540888123,-6.6650901635524935,1.1783032788158359
1.2559195284469502,-10.904911234332044,-6.519644937328179,1.226785020890607
1.2639190158892875,-10.868549927775966,-6.3741997111038655,1.2752667629653784
1.2719185033316247,-10.832188621219887,-6.228754484879551,1.3237485050401496
1.279917990773962,-10.795827314663809,-6.0833092586552375,1.372230247114921
1.2879174782162992,-10.75946600810773,-5.937864032430923,1.4207119891896922
1.2959169656586365,-10.723104701551652,-5.792418806206609,1.4691937312644636
1.3039164531009737,-9.733418759610492,-5.208354689902623,1.7916453100973766
1.311915940543311,-8.594928799055111,-6.2050712009448885,1.1076068014173333
1.3199154279856482,-8.581016646981482,-6.218983353018519,1.1284750295277781
1.3279149154279855,-8.56710449490785,-6.232895505092149,1.1493432576382232
1.3359144028703227,-8.55319234283422,-6.246807657165779,1.170211485748668
1.34391389031266,-8.539280190760591,-6.260719809239409,1.1910797138591132
1.3519133777549972,-8.525368038686961,-6.274631961313039,1.211947941969558
1.3599128651973345,-8.511455886613332,-6.288544113386669,1.232816170080003
1.3679123526396717,-8.4975437345397,-6.302456265460299,1.253684398190448
1.375911840082009,-8.48363158246607,-6.316368417533929,1.274552626300893
1.3839113275243462,-8.469719430392441,-6.3302805696075595,1.2954208544113381
1.3919108149666837,-8.455807278318812,-6.344192721681189,1.3162890825217837
1.399910302409021,-8.44189512624518,-6.35810487375482,1.3371573106322285
1.4079097898513582,-8.42798297417155,-6.372017025828449,1.3580255387426736
1.4159092772936954,-8.414070822097921,-6.38592917790208,1.3788937668531185
1.4239087647360327,-8.400158670024291,-6.399841329975709,1.3997619949635636
1.43190825217837,-8.812117717409874,-6.687882282590126,1.7040392391366248
1.4399077396207072,-8.84544891508628,-6.65455108491372,1.7151496383620932
1.4479072270630444,-8.878780112762685,-6.621219887237316,1.7262600375875616
1.4559067145053817,-8.91211131043909,-6.58788868956091,1.73737043681303
1.463906201947719,-8.945442508115496,-6.554557491884505,1.7484808360384985
1.4719056893900562,-8.978773705791902,-6.521226294208099,1.7595912352639669
1.4799051768323934,-9.012104903468305,-6.487895096531694,1.7707016344894355
1.4879046642747307,-9.04543610114471,-6.454563898855289,1.781812033714904
1.495904151717068,-9.078767298821116,-6.421232701178884,1.7929224329403723
1.5039036391594052,-9.106024261062702,-5.975902955749193,1.5879514778745965
1.5119031266017424,-9.15935417734495,-5.762583290620201,1.4812916453101006
1.5199026140440797,-9.390261404407966,-5.124346488980087,1.4
1.527902101486417,-9.893463864684778,-3.667319323423887,1.4934638646847773
1.5359015889287542,-9.882797881428328,-3.6139894071416387,1.4827978814283276
1.5439010763710916,-9.872131898171878,-3.560659490859389,1.4721318981718778
1.551900563813429,-9.861465914915428,-3.507329574577141,1.461465914915428
1.5599000512557661,-9.85079993165898,-3.4539996582948924,1.4507999316589784
1.5678995386981034,-9.84013394840253,-3.4006697420126444,1.4401339484025288
1.5758990261404406,-9.82946796514608,-3.347339825730396,1.429467965146079
1.583898513582778,-9.81880198188963,-3.294009909448148,1.4188019818896296
1.5918980010251151,-9.80813599863318,-3.2406799931659,1.4081359986331798
1.5998974884674524,-10.17949769349046,-3.294874423372615,0.925627883136925
1.6078969759097896,-9.311590210148678,-2.609014607893415,2.0845463864684315
1.6158964633521269,-10.106551625946807,-3.0065516259468077,1.7803451221595774
1.6238959507944641,-10.115439945327182,-3.0154399453271825,1.7536801640184532
1.6318954382368014,-10.124328264707557,-3.024328264707557,1.727015205877329
1.6398949256791386,-10.133216584087931,-3.0332165840879317,1.7003502477362047
1.6478944131214759,-10.142104903468306,-3.0421049034683065,1.6736852895950804
1.6558939005638131,-10.150993222848681,-3.0509932228486814,1.6470203314539562
1.6638933880061504,-10.159881542229055,-3.059881542229056,1.6203553733128322
1.6718928754484876,-10.16876986160943,-3.0687698616094305,1.593690415171708
1.6798923628908249,-10.177658180989805,-3.0776581809898054,1.5670254570305837
1.6878918503331624,-10.186546500370179,-3.0865465003701806,1.5403604988894588
1.6958913377754996,-10.195434819750554,-3.0954348197505555,1.5136955407483346
1.7038908252178369,-9.743669912865284,-2.910917478216321,1.166376217324482
1.711890312660174,-9.475457030582607,-3.219634375533914,0.9852742183495646
1.7198898001025114,-9.442125832906203,-3.2462993336750383,0.9652754997437215
1.7278892875448486,-9.408794635229798,-3.2729642918161623,0.9452767811378784
1.7358887749871859,-9.375463437553393,-3.2996292499572863,0.9252780625320354
1.743888262429523,-9.342132239876987,-3.3262942080984104,0.9052793439261922
1.7518877498718604,-9.308801042200582,-3.352959166239535,0.8852806253203491
1.7598872373141976,-9.275469844524176,-3.379624124380659,0.865281906714506
1.7678867247565349,-9.24213864684777,-3.406289082521783,0.8452831881086629
1.775886212198872,-9.208807449171367,-3.432954040662907,0.8252844695028198
1.7838856996412094,-9.175476251494961,-3.4596189988040313,0.8052857508969766
1.7918851870835466,-9.142145053818556,-3.4862839569451554,0.7852870322911335
1.7998846745258839,-9.10881385614215,-3.5129489150862794,0.7652883136852904
1.807884161968221,-9.075482658465745,-3.5396138732274034,0.7452895950794474
1.8158836494105584,-9.04215146078934,-3.566278831368528,0.7252908764736042
1.8238831368528956,-9.008820263112936,-3.592943789509652,0.7052921578677611
1.831882624295233,-8.607825046984466,-3.892174953015534,0.7
1.8398821117375703,-8.4,-3.8,0.7
1.8478815991799076,-8.4,-3.8,0.7
1.8558810866222448,-8.4,-3.8,0.7
1.863880574064582,-8.4,-3.8,0.7
1.8718800615069193,-8.4,-3.8,0.7
1.8798795489492566,-8.4,-3.8,0.7
1.8878790363915938,-8.4,-3.8,0.7
1.895878523833931,-8.4,-3.8,0.7
1.9038780112762683,-8.4,-3.8,0.7
1.9118774987186056,-8.4,-3.8,0.7
1.9198769861609428,-8.4,-3.8,0.7
1.92787647360328,-8.4,-3.8,0.7
1.9358759610456173,-8.4,-3.8,0.7
1.9438754484879546,-8.3,-3.3989820366419132,0.8
1.9518749359302918,-8.3,-3.3896803070578003,0.8
1.959874423372629,-8.3,-3.380378577473687,0.8
1.9678739108149663,-8.3,-3.371076847889574,0.8
1.9758733982573038,-8.3,-3.3617751183054607,0.8
1.983872885699641,-8.3,-3.3524733887213474,0.8
1.9918723731419783,-8.3,-3.3431716591372345,0.8
1.9998718605843155,-8.3,-3.333869929553121,0.8
2.0078713480266526,-8.3,-3.3245681999690087,0.8
2.01587083546899,-8.3,-3.315266470384895,0.8
2.023870322911327,-8.3,-3.3059647408007824,0.8
2.0318698103536645,-8.462327011788823,-3.2,0.9311635058944111
2.0398692977960016,-8.598965121671426,-3.198965121671427,1.401034878328573
2.047868785238339,-8.589441922335311,-3.189441922335311,1.410558077664689
2.0558682726806765,-8.579918722999194,-3.179918722999195,1.420081277000805
2.0638677601230135,-8.570395523663079,-3.1703955236630796,1.4296044763369207
2.071867247565351,-8.560872324326963,-3.1608723243269634,1.4391276756730367
2.079866735007688,-8.551349124990848,-3.151349124990848,1.4486508750091522
2.0878662224500255,-8.54182592565473,-3.141825925654732,1.4581740743452682
2.0958657098923625,-8.532302726318616,-3.1323027263186165,1.4676972736813838
2.1038651973347,-8.5227795269825,-3.1227795269825003,1.4772204730174998
2.111864684777037,-8.513256327646385,-3.113256327646385,1.4867436723536152
2.1198641722193745,-8.50373312831027,-3.1037331283102687,1.4962668716897314
2.1278636596617115,-8.686365966171143,-3.293182983085572,1.893182983085572
2.135863147104049,-8.70936088940958,-3.309360889409582,1.9
2.143862634546386,-8.718884088745696,-3.318884088745697,1.9
2.1518621219887235,-8.728407288081813,-3.3284072880818134,1.9
2.1598616094310605,-8.737930487417929,-3.3379304874179287,1.9
2.167861096873398,-8.747453686754046,-3.347453686754045,1.9
2.175860584315735,-8.756976886090161,-3.3569768860901603,1.9
2.1838600717580725,-8.766500085426276,-3.3665000854262765,1.9
2.1918595592004095,-8.776023284762392,-3.376023284762392,1.9
2.199859046642747,-8.785546484098509,-3.385546484098508,1.9
2.2078585340850845,-8.795069683434624,-3.395069683434624,1.9
2.2158580215274215,-8.830967025457024,-3.5,2.161934050914049
2.223857508969759,-9.185750896975879,-3.40712455151206,2.3928754484879398
2.231856996412096,-9.2872999601344,-3.487299960134399,2.312700039865601
2.2398564838544335,-9.31523663078763,-3.5,2.292381684606185
2.2478559712967705,-9.33301326954838,-3.5,2.2834933652258105
2.255855458739108,-9.35078990830913,-3.5,2.2746050458454357
2.263854946181445,-9.368566547069879,-3.5,2.2657167264650613
2.2718544336237825,-9.386343185830627,-3.5,2.256828407084686
2.2798539210661195,-9.404119824591376,-3.5,2.2479400877043116
2.287853408508457,-9.421896463352127,-3.5,2.239051768323937
2.295852895950794,-9.439673102112875,-3.5,2.2301634489435624
2.3038523833931315,-9.457449740873626,-3.5,2.221275129563187
2.3118518708354685,-9.475226379634375,-3.5,2.212386810182813
2.319851358277806,-9.493003018395125,-3.5,2.203498490802438
2.327850845720143,-9.9,-3.585084572014314,2.7403382880572553
2.3358503331624805,-9.891989455956653,-3.6320421761733903,2.7839789119133047
2.343849820604818,-9.883826713668553,-3.664693145325788,2.767653427337106
2.351849308047155,-9.875663971380455,-3.697344114478184,2.751327942760908
2.3598487954894924,-9.867501229092355,-3.7299950836305817,2.735002458184709
2.3678482829318295,-9.859338486804257,-3.7626460527829777,2.718676973608511
2.375847770374167,-9.851175744516157,-3.7952970219353754,2.702351489032312
2.383847257816504,-9.843013002228059,-3.8279479910877714,2.686026004456114
2.3918467452588414,-9.834850259939959,-3.860598960240169,2.6697005198799157
2.3998462327011785,-9.826687517651859,-3.8932499293925646,2.6533750353037178
2.407845720143516,-9.81852477536376,-3.9259008985449624,2.637049550727519
2.415845207585853,-9.810362033075661,-3.9585518676973583,2.620724066151321
2.4238446950281904,-9.802199290787561,-3.991202836849756,2.604398581575122
2.4318441824705275,-9.469349051768344,-4.223116350589447,2.4768836494105524
2.439843669912865,-9.297026338850218,-4.002973661149782,2.288105355400872
2.447843157355202,-9.284123939749675,-4.015876060250325,2.236495758998698
2.4558426447975394,-9.27122154064913,-4.02877845935087,2.1848861625965204
2.4638421322398765,-9.258319141548586,-4.0416808584514134,2.133276566194346
2.471841619682214,-9.245416742448041,-4.054583257551958,2.0816669697921686
2.479841107124551,-9.232514343347498,-4.067485656652501,2.030057373389994
2.4878405945668884,-9.219611944246953,-4.080388055753046,1.9784477769878166
2.495840082009226,-9.20670954514641,-4.09329045485359,1.9268381805856394
2.503839569451563,-9.0,-3.516043054843708,1.758021527421854
2.5118390568939004,-9.003254967953806,-3.3065099359076124,1.3
2.5198385443362374,-9.0174133528075,-3.3348267056150003,1.3
2.527838031778575,-9.031571737661194,-3.3631434753223894,1.3
2.535837519220912,-9.045730122514888,-3.3914602450297773,1.3
2.5438370066632494,-9.059888507368584,-3.4197770147371664,1.3
2.5518364941055864,-9.074046892222277,-3.448093784444554,1.3
2.559835981547924,-9.088205277075971,-3.476410554151943,1.3
2.567835468990261,-9.102363661929665,-3.504727323859331,1.3
2.5758349564325984,-9.11652204678336,-3.53304409356672,1.3
2.5838344438749354,-9.130680431637053,-3.5613608632741074,1.3
2.591833931317273,-9.144838816490747,-3.5896776329814966,1.3
2.59983341875961,-9.158997201344441,-3.6179944026888844,1.3
2.6078329062019474,-9.173155586198137,-3.6463111723962736,1.3
2.6158323936442844,-9.18731397105183,-3.674627942103661,1.3
2.623831881086622,-8.451307022040398,-3.866376217324356,1.71594054331089
2.631831368528959,-6.994168631471041,-4.640819579702713,2.311662737057918
2.6398308559712964,-6.986169144028704,-4.696815991799075,2.327661711942593
2.647830343413634,-6.978169656586366,-4.752812403895438,2.343660686827268
2.655829830855971,-6.970170169144029,-4.808808815991797,2.359659661711942
2.6638293182983084,-6.962170681701692,-4.864805228088159,2.375658636596617
2.6718288057406454,-6.954171194259355,-4.920801640184518,2.391657611481291
2.679828293182983,-6.946171706817017,-4.976798052280881,2.407656586365966
2.68782778062532,-6.93817221937468,-5.03279446437724,2.42365556125064
2.6958272680676574,-6.930172731932343,-5.088790876473602,2.439654536135315
2.7038267555099944,-6.922173244490006,-5.144787288569961,2.455653511019989
2.711826242952332,-6.914173757047668,-5.200783700666324,2.471652485904664
2.719825730394669,-6.906174269605331,-5.256780112762682,2.487651460789338
2.7278252178370064,-7.538826242952168,-6.577652485904336,3.0475653511018583
2.7358247052793434,-8.110025853183204,-10.108020682546565,-1.4859638055435123
2.743824192721681,-8.153979080888355,-10.143183264710684,-1.424429286756301
2.751823680164018,-8.197932308593504,-10.178345846874803,-1.3628947679690933
2.7598231676063554,-8.241885536298655,-10.213508429038924,-1.301360249181882
2.7678226550486924,-8.285838764003804,-10.248671011203044,-1.2398257303946743
2.77582214249103,-8.329791991708955,-10.283833593367163,-1.178291211607463
2.7838216299333673,-8.373745219414106,-10.318996175531284,-1.116756692820252
2.7918211173757044,-8.417698447119253,-10.354158757695403,-1.055222174033044
2.799820604818042,-8.461651674824404,-10.389321339859524,-0.9936876552458329
2.807820092260379,-8.505604902529553,-10.424483922023644,-0.9321531364586252
2.8158195797027163,-8.549558130234704,-10.459646504187763,-0.870618617671414
2.8238190671450534,-8.593511357939853,-10.494809086351882,-0.8090840988842062
2.831818554587391,-8.97192115931223,-9.880131401146285,-0.923973719770743
2.839818042029728,-9.9,-8.045489492568,-1.2
2.8478175294720653,-9.529737836247318,-7.48215729825161,-0.8356854034967806
2.8558170169144024,-9.579117388360508,-7.452529566983695,-0.8949408660326105
2.86381650435674,-9.628496940473703,-7.422901835715778,-0.9541963285684436
2.871815991799077,-9.677876492586895,-7.393274104447864,-1.0134517911042735
2.8798154792414143,-9.72725604470009,-7.363646373179947,-1.0727072536401066
2.8878149666837514,-9.77663559681328,-7.3340186419120315,-1.1319627161759365
2.895814454126089,-9.826015148926475,-7.304390910644115,-1.1912181787117695
2.903813941568426,-9.875394701039665,-7.2747631793762,-1.2504736412475994
2.9118134290107633,-9.92477425315286,-7.245135448108284,-1.3097291037834324
2.9198129164531004,-9.974153805266052,-7.215507716840369,-1.3689845663192624
2.927812403895438,-9.9,-6.559379805228105,-1.6406201947718944
2.9358118913377753,-9.9,-6.4928295880655,-1.7071704119345004
2.9438113787801123,-9.9,-6.484409074968303,-1.7155909250316974
2.95181086622245,-9.9,-6.475988561871105,-1.7240114381288947
2.959810353664787,-9.9,-6.4675680487739085,-1.7324319512260915
2.9678098411071243,-9.9,-6.459147535676712,-1.7408524643232888
2.9758093285494613,-9.9,-6.450727022579515,-1.7492729774204858
2.983808815991799,-9.9,-6.442306509482317,-1.757693490517683
2.991808303434136,-9.9,-6.43388599638512,-1.76611400361488
2.9998077908764733,-9.9,-6.425465483287923,-1.7745345167120772
3.0078072783188103,-9.9,-6.417044970190727,-1.782955029809274
3.015806765761148,-9.9,-6.408624457093529,-1.7913755429064715
3.023806253203485,-9.9,-6.400203943996332,-1.7997960560036683
3.0318057406458223,-9.046283956945178,-5.957713992824196,-1.373141978472589
3.0398052280881593,-8.5,-6.298657953186401,-1.6026840936271973
3.047804715530497,-8.5,-6.285325474115838,-1.6293490517683222
3.055804202972834,-8.5,-6.271992995045277,-1.6560140099094456
3.0638036904151713,-8.5,-6.258660515974714,-1.6826789680505705
3.0718031778575083,-8.5,-6.245328036904153,-1.7093439261916938
3.079802665299846,-8.5,-6.23199555783359,-1.7360088843328187
3.0878021527421833,-8.5,-6.218663078763028,-1.7626738424739437
3.0958016401845203,-8.5,-6.205330599692466,-1.789338800615067
3.103801127626858,-7.887842132239936,-5.096135315222911,-1.1839774474628482
3.111800615069195,-6.90743526124565,-5.082651057093483,-1.3099136816608667
3.1198001025115323,-6.928672838526192,-5.033096710105552,-1.338230451368256
3.1277995899538693,-6.949910415806733,-4.983542363117623,-1.3665472210756437
3.135799077396207,-6.971147993087275,-4.9339880161296925,-1.394863990783033
3.143798564838544,-6.992385570367816,-4.884433669141764,-1.4231807604904207
3.1517980522808813,-7.0136231476483575,-4.834879322153832,-1.45149753019781
3.1597975397232183,-7.034860724928898,-4.785324975165904,-1.4798142999051977
3.167797027165556,-7.05609830220944,-4.735770628177973,-1.508131069612587
3.175796514607893,-7.077335879489981,-4.6862162811900445,-1.5364478393199745
3.1837960020502303,-7.098573456770523,-4.636661934202113,-1.564764609027364
3.1917954894925673,-7.119811034051064,-4.587107587214184,-1.5930813787347515
3.1997949769349048,-7.141048611331606,-4.537553240226254,-1.621398148442141
3.207794464377242,-7.162286188612146,-4.487998893238325,-1.6497149181495285
3.2157939518195793,-7.183523765892689,-4.438444546250394,-1.678031687856918
3.2237934392619167,-7.379343926191658,-4.579343926191657,-1.3413121476166854
3.2317929267042538,-6.180634639578773,-5.8515865989469305,-0.9903173197893861
3.2397924141465912,-6.148313478195591,-5.770783695488976,-0.9741567390977952
3.2477919015889283,-6.11599231681241,-5.689980792031027,-0.9579961584062053
3.2557913890312657,-6.083671155429229,-5.609177888573073,-0.9418355777146145
3.2637908764736028,-6.051349994046049,-5.528374985115123,-0.9256749970230246
3.2717903639159402,-6.019028832662867,-5.447572081657169,-0.9095144163314338
3.2797898513582773,-5.986707671279688,-5.3667691781992195,-0.8933538356398438
3.2877893388006147,-5.954386509896506,-5.2859662747412655,-0.8771932549482531
3.2957888262429518,-5.9220653485133266,-5.205163371283316,-0.8610326742566631
3.3037883136852892,-5.889744187130145,-5.124360467825362,-0.8448720935650723
3.3117878011276263,-5.857423025746964,-5.043557564367412,-0.8287115128734823
3.3197872885699637,-5.825101864363782,-4.962754660909458,-0.8125509321818916
3.3277867760123008,-5.97867760123009,-4.006611993849549,-0.7106611993849549
3.3357862634546382,-5.417862634546382,-2.3349621276837733,0.30870209009627114
3.3437857508969753,-5.497857508969752,-2.9393678455492385,-0.1001606014009554
3.3517852383393127,-5.577852383393127,-3.5437735634147374,-0.5090232928982047
3.3597847257816498,-5.657847257816497,-4.1481792812802025,-0.9178859843954313
3.3677842132239872,-5.737842132239872,-4.752584999145702,-1.3267486758926803
3.3757837006663247,-5.817837006663247,-5.3569907170112,-1.73561136738993
3.3837831881086617,-5.897831881086618,-5.961396434876665,-2.1444740588871563
3.391782675550999,-5.977826755509993,-6.565802152742164,-2.5533367503844056
3.3997821629933362,-6.057821629933363,-7.170207870607629,-2.962199441881632
3.4077816504356737,-6.137816504356738,-7.7746135884731284,-3.3710621333788815
3.4157811378780107,-6.217811378780108,-8.379019306338593,-3.7799248248761077
3.423780625320348,-6.297806253203483,-8.983425024204092,-4.188787516373357
3.4317801127626852,-5.750435674013377,-7.3952844695031015,-6.3650948231677
3.4397796002050227,-5.340679993165909,-5.362719972663638,-5.050293296884851
3.4477790876473597,-5.14221398958015,-6.638696157115137,-4.964821675349874
3.455778575089697,-5.263725191235909,-6.750081425299583,-4.863562340636743
3.4637780625320342,-5.3852363928916605,-6.861466693484022,-4.7623030059236156
3.4717775499743717,-5.50674759454742,-6.972851961668468,-4.661043671210483
3.4797770374167087,-5.628258796203172,-7.084237229852907,-4.559784336497357
3.487776524859046,-5.74976999785893,-7.195622498037353,-4.458525001784224
3.4957760123013832,-5.871281199514683,-7.307007766221792,-4.357265667071098
3.5037754997437207,-5.992792401170441,-7.418393034406238,-4.256006332357965
3.511774987186058,-6.1143036028262,-7.5297783025906835,-4.154746997644833
3.519774474628395,-6.235814804481953,-7.641163570775123,-4.0534876629317065
3.5277739620707327,-4.677396207073263,-9.819887237314944,-5.39656586365937
3.5357734495130697,-5.754296759981249,-10.150781377798612,-10.110156275559723
3.543772936955407,-5.677705922767379,-10.235882308036246,-10.127176461607249
3.551772424397744,-5.601115085553514,-10.320983238273874,-10.144196647654775
3.5597719118400817,-5.524524248339644,-10.406084168511505,-10.161216833702301
3.5677713992824187,-5.44793341112578,-10.491185098749135,-10.178237019749828
3.575770886724756,-5.371342573911909,-10.576286028986766,-10.195257205797354
3.583770374167093,-5.2947517366980446,-10.661386959224394,-10.212277391844879
3.5917698616094307,-5.218160899484175,-10.746487889462028,-10.229297577892407
3.5997693490517677,-5.1415700622703095,-10.831588819699656,-10.246317763939931
3.607768836494105,-5.06497922505644,-10.916689749937289,-10.263337949987458
3.615768323936442,-4.988388387842575,-11.001790680174917,-10.280358136034984
3.6237678113787797,-4.911797550628705,-11.08689161041255,-10.29737832208251
3.6317672988211167,-4.6186160943106715,0.046294208097241274,-3.7094310609950547
3.639766786263454,-5.267864362268846,-8.426779698109295,-7.012474732059036
3.647766273705791,-5.213935233444103,-8.471720638796581,-7.201226682945639
3.6557657611481287,-5.160006104619356,-8.51666157948387,-7.389978633832253
3.663765248590466,-5.106076975794609,-8.561602520171158,-7.578730584718866
3.671764736032803,-5.0521478469698655,-8.606543460858445,-7.7674825356054695
3.6797642234751406,-4.998218718145119,-8.651484401545734,-7.956234486492083
3.6877637109174777,-4.944289589320375,-8.69642534223302,-8.144986437378686
3.695763198359815,-4.890360460495629,-8.74136628292031,-8.3337383882653
3.703762685802152,-4.836431331670885,-8.786307223607595,-8.522490339151902
3.7117621732444896,-4.782502202846138,-8.831248164294886,-8.711242290038516
3.7197616606868267,-4.728573074021394,-8.876189104982172,-8.89999424092512
3.727761148129164,-4.916401845207391,-9.7598667350097,-8.855253716043418
3.735760635571501,-3.9929990653360274,-2.565088793077387,1.8099345735219248
3.7437601230138386,-3.981235113214943,-3.6826642445804154,0.9864579250460093
3.7517596104561757,-3.969471161093859,-4.8002396960833815,0.1629812765701395
3.759759097898513,-3.9577072089727747,-5.91781514758641,-0.660495371905776
3.76775858534085,-3.945943256851691,-7.035390599089375,-1.4839720203816458
3.7757580727831876,-3.9341793047306064,-8.152966050592404,-2.3074486688575613
3.7837575602255247,-3.9224153526095225,-9.27054150209537,-3.130925317333431
3.791757047667862,-3.9106514004884376,-10.388116953598399,-3.954401965809346
3.799756535110199,-3.9151307022039843,-11.316781137878086,-4.745392106611954
3.8077560225525366,-4.07512045105073,-10.436837519220985,-5.2253613531521905
3.815755509994874,-3.8032211192566496,-8.090336642230051,2.882283844088427
3.823754997437211,-3.8178990778664423,-8.046302766400673,2.8015550717345667
3.8317544848795486,-3.832577036476236,-8.002268890571292,2.7208262993807026
3.8397539723218856,-3.8472549950860286,-7.958235014741914,2.6400975270268425
3.847753459764223,-3.8619329536958222,-7.914201138912533,2.5593687546729784
3.85575294720656,-3.876610912305615,-7.870167263083156,2.4786399823191183
3.8637524346488976,-3.891288870915408,-7.826133387253774,2.3979112099652538
3.8717519220912346,-3.905966829525201,-7.782099511424397,2.317182437611394
3.879751409533572,-3.9206447881349944,-7.738065635595016,2.2364536652575295
3.887750896975909,-3.935322746744787,-7.694031759765638,2.1557248929036694
3.8957503844182466,-3.9500007053545807,-7.6499978839362575,2.0749961205498053
3.9037498718605836,-3.9646786639643734,-7.605964008106879,1.9942673481959452
3.911749359302921,-3.979356622574167,-7.5619301322774986,1.9135385758420809
3.919748846745258,-3.9940345811839597,-7.517896256448121,1.832809803488221
3.9277483341875956,-4.375499743721305,-8.676166068683045,3.0867503844180426
3.9357478216299326,-4.32371782131612,-8.381410893419398,3.1209405956129315
3.94374730907227,-4.348206048180419,-8.258969759097905,3.039313172731937
3.9517467965146076,-4.372694275044717,-8.136528624776414,2.9576857498509423
3.9597462839569446,-4.397182501909014,-8.014087490454928,2.876058326969952
3.967745771399282,-4.421670728773313,-7.891646356133435,2.7944309040889572
3.975745258841619,-4.4461589556376095,-7.7692052218119505,2.712803481207967
3.9837447462839566,-4.470647182501908,-7.6467640874904586,2.6311760583269725
3.9917442337262936,-4.495135409366205,-7.524322953168973,2.549548635445982
3.999743721168631,-4.519623636230503,-7.401881818847481,2.4679212125649874
4.007743208610968,-4.544111863094801,-7.279440684525996,2.3862937896839975
4.015742696053305,-4.568600089959098,-7.15699955020451,2.304666366803007
4.023742183495643,-4.593088316823398,-7.034558415883011,2.223038943922008
4.03174167093798,-4.074167093798014,-8.843746796514896,1.930420297283119
4.039741158380317,-4.305327144247547,-7.973364278762264,3.2573828460196226
4.047740645822654,-4.3143153323850045,-7.928423338074977,3.1854773409199635
4.055740133264992,-4.323303520522463,-7.883482397387685,3.1135718358202964
4.063739620707329,-4.332291708659921,-7.838541456700399,3.0416663307206373
4.071739108149666,-4.341279896797378,-7.793600516013112,2.969760825620978
4.079738595592003,-4.350268084934835,-7.748659575325824,2.897855320521319
4.087738083034341,-4.359256273072294,-7.703718634638532,2.825949815421652
4.095737570476678,-4.368244461209751,-7.6587776939512455,2.754044310321993
4.103737057919015,-4.377232649347208,-7.613836753263959,2.682138805222334
4.111736545361353,-4.386220837484667,-7.568895812576667,2.610233300122667
4.11973603280369,-4.395209025622124,-7.52395487188938,2.538327795023008
4.127735520246027,-4.613458299772978,-8.087010324375688,2.2331771252837775
4.135735007688364,-4.647001537672815,-7.879497693490777,3.10599692465437
4.143734495130702,-4.682421601975678,-7.896681189133774,2.85937281580542
4.151733982573039,-4.664240948697639,-7.996674782162986,2.7139275895811106
4.159733470015376,-4.6460602954196,-8.096668375192198,2.568482363356801
4.167732957457713,-4.627879642141561,-8.196661968221411,2.423037137132492
4.175732444900051,-4.609698988863521,-8.296655561250637,2.277591910908166
4.183731932342388,-4.591518335585482,-8.39664915427985,2.132146684683857
4.191731419784725,-4.573337682307444,-8.496642747309062,1.9867014584595473
4.199730907227062,-4.555157029029405,-8.596636340338275,1.8412562322352377
4.2077303946694,-4.536976375751364,-8.696629933367499,1.6958110060109122
4.215729882111737,-4.5187957224733255,-8.796623526396711,1.5503657797866026
4.223729369554074,-4.500615069195287,-8.896617119425924,1.404920553562293
4.231728856996411,-4.2,-8.051409533572587,3.1485904664274136
4.239728344438749,-4.108285209863887,-8.587572185204168,2.208285209863887
4.247727831881086,-4.126061848624636,-8.560907227063046,2.2260618486246364
4.255727319323423,-4.143838487385385,-8.534242268921922,2.243838487385385
4.263726806765761,-4.161615126146136,-8.507577310780796,2.261615126146136
4.271726294208098,-4.179391764906885,-8.480912352639672,2.2793917649068853
4.279725781650435,-4.197168403667634,-8.454247394498548,2.297168403667634
4.287725269092772,-4.214945042428383,-8.427582436357426,2.3149450424283833
4.29572475653511,-4.232721681189134,-8.4009174782163,2.332721681189134
4.303724243977447,-4.250498319949883,-8.374252520075176,2.350498319949883
4.311723731419784,-4.268274958710632,-8.347587561934052,2.3682749587106318
4.319723218862121,-4.28605159747138,-8.32092260379293,2.386051597471381
4.327722706304459,-4.644541260891758,-8.21386468477706,2.572270630445879
4.335722193746796,-4.991493144541263,-8.77447943362379,2.4311918033487023
4.343721681189133,-4.96649474628396,-8.69948423885188,2.522852596958814
4.35172116863147,-4.941496348026656,-8.62448904407997,2.6145133905689253
4.359720656073808,-4.916497949769351,-8.549493849308053,2.7061741841790474
4.367720143516145,-4.891499551512047,-8.474498654536143,2.797834977789159
4.375719630958482,-4.866501153254744,-8.399503459764233,2.889495771399271
4.383719118400819,-4.841502754997441,-8.324508264992325,2.9811565650093823
4.391718605843157,-4.816504356740135,-8.249513070220406,3.0728173586195044
4.399718093285494,-4.791505958482832,-8.174517875448496,3.164478152229616
4.407717580727831,-4.766507560225529,-8.099522680676587,3.256138945839728
4.415717068170169,-4.741509161968223,-8.024527485904668,3.3477997394498495
4.423716555612506,-4.71651076371092,-7.949532291132759,3.439460533059961
4.431716043054843,-4.542593541773591,-7.741978472578637,2.770989236289319
4.43971553049718,-5.267848655701043,-7.667848655701043,3.042868459065277
4.447715017939518,-5.213306695866921,-7.61330669586692,3.1155910721774394
4.455714505381855,-5.158764736032804,-7.5587647360328045,3.188313685289594
4.463713992824192,-5.1042227761986885,-7.504222776198688,3.261036298401749
4.471713480266529,-5.049680816364572,-7.449680816364572,3.3337589115139035
4.479712967708867,-4.99513885653045,-7.39513885653045,3.4064815246260665
4.487712455151204,-4.940596896696334,-7.340596896696334,3.479204137738221
4.495711942593541,-4.886054936862219,-7.286054936862218,3.5519267508503756
4.503711430035878,-4.831512977028102,-7.2315129770281015,3.6246493639625306
4.511710917478216,-4.77697101719398,-7.17697101719398,3.6973719770746936
4.519710404920553,-4.722429057359864,-7.122429057359864,3.770094590186848
4.52770989236289,-5.036420883063568,-7.436420883063567,2.9925898806474382
4.535709379805228,-4.905826623237049,-7.702913311618524,3.1
4.543708867247565,-4.9230298220377735,-7.711514911018887,3.1
4.551708354689902,-4.940233020838498,-7.720116510419249,3.1
4.559707842132239,-4.957436219639223,-7.728718109819612,3.1
4.567707329574577,-4.97463941843995,-7.737319709219975,3.1
4.575706817016914,-4.991842617240675,-7.745921308620337,3.1
4.583706304459251,-5.009045816041399,-7.754522908020699,3.1
4.591705791901588,-5.026249014842124,-7.763124507421062,3.1
4.599705279343926,-5.04345221364285,-7.771726106821426,3.1
4.607704766786263,-5.060655412443575,-7.7803277062217875,3.1
4.6157042542286,-5.0778586112443005,-7.78892930562215,3.1
4.623703741670937,-5.095061810045025,-7.797530905022512,3.1
4.631703229113275,-5.175807278318693,-7.65386981035383,2.805484366991216
4.639702716555612,-5.492634377411416,-7.229462490354338,2.9410750192913238
4.647702203997949,-5.483843731870386,-7.264625072518457,2.870749854963086
4.655701691440286,-5.475053086329356,-7.299787654682576,2.800424690634849
4.663701178882624,-5.466262440788325,-7.334950236846698,2.7300995263066037
4.671700666324961,-5.4574717952472955,-7.370112819010817,2.659774361978366
4.679700153767298,-5.448681149706267,-7.4052754011749355,2.589449197650129
4.687699641209636,-5.439890504165236,-7.440437983339058,2.5191240333218836
4.695699128651973,-5.431099858624206,-7.475600565503177,2.448798868993646
4.70369861609431,-5.422309213083176,-7.510763147667296,2.3784737046654083
4.711698103536647,-5.413518567542146,-7.545925729831414,2.308148540337171
4.719697590978985,-5.404727922001116,-7.581088311995537,2.237823376008926
4.727697078421322,-5.1,-7.875730394669469,2.245438236801681
4.735696565863659,-5.220200283284555,-7.725250354105694,1.8050500708211388
4.743696053305996,-5.254606680886005,-7.768258351107506,1.8136516702215013
4.751695540748334,-5.289013078487458,-7.8112663481093225,1.8222532696218645
4.759695028190671,-5.323419476088908,-7.8542743451111345,1.830854869022227
4.767694515633008,-5.3578258736903575,-7.8972823421129466,1.8394564684225894
4.775694003075345,-5.392232271291807,-7.940290339114759,1.8480580678229517
4.783693490517683,-5.42663866889326,-7.983298336116575,1.856659667223315
4.79169297796002,-5.46104506649471,-8.026306333118386,1.8652612666236774
4.799692465402357,-5.495451464096159,-8.069314330120198,1.8738628660240397
4.807691952844694,-5.529857861697609,-8.11232232712201,1.8824644654244023
4.815691440287032,-5.564264259299062,-8.155330324123828,1.8910660648247655
4.823690927729369,-5.598670656900512,-8.19833832112564,1.899667664225128
4.831690415171706,-5.608991570062265,-6.925176396174343,1.1910084299377348
4.839689902614044,-5.651542035181084,-7.044317698507035,1.1484579648189162
4.847689390056381,-5.694092500299897,-7.163459000839714,1.1059074997001024
4.855688877498718,-5.736642965418711,-7.2826003031723925,1.0633570345812884
4.863688364941055,-5.779193430537525,-7.401741605505071,1.0208065694624746
4.871687852383393,-5.821743895656343,-7.5208829078377635,0.9782561043436561
4.87968733982573,-5.864294360775157,-7.640024210170442,0.9357056392248422
4.887686827268067,-5.906844825893971,-7.759165512503121,0.8931551741060284
4.895686314710404,-5.949395291012785,-7.8783068148358,0.8506047089872145
4.903685802152742,-5.991945756131604,-7.997448117168492,0.808054243868396
4.911685289595079,-6.034496221250418,-8.116589419501171,0.7655037787495822
4.919684777037416,-6.077046686369231,-8.23573072183385,0.7229533136307682
4.927684264479753,-4.889441312148135,-7.236852895950622,1.0262942080987563
4.935683751922091,-4.546324961558178,-7.761025115325466,0.2852998462327133
4.943683239364428,-4.506608417865614,-7.7942653141501745,0.08678316426877176
4.951682726806765,-4.515910147449727,-7.64543764080437,0.06817970510054619
4.959682214249102,-4.52521187703384,-7.496609967458565,0.0495762459323206
4.96768170169144,-4.534513606617954,-7.3477822941127435,0.030972786764092958
4.975681189133777,-4.543815336202067,-7.198954620766939,0.012369327595867369
4.983680676576114,-4.553117065786179,-7.050126947421134,-0.006234131572358206
4.991680164018452,-4.562418795370292,-6.901299274075313,-0.024837590740585863
4.999679651460789,-4.571720524954405,-6.752471600729509,-0.04344104990881145
5.007679138903126,-4.581022254538518,-6.603643927383704,-0.06204450907703701
5.015678626345463,-4.590323984122631,-6.454816254037899,-0.0806479682452626
5.023678113787801,-4.599625713706745,-6.305988580692078,-0.09925142741349025
5.031677601230138,-2.901784682159721,-9.807138728638884,-7.28036849624307
5.039677088672475,-2.9102947751834836,-9.841179100733935,-7.186757472981679
5.047676576114812,-2.9188048682072463,-9.875219472828986,-7.093146449720288
5.05567606355715,-2.9273149612310103,-9.909259844924042,-6.999535426458886
5.063675550999487,-2.935825054254773,-9.943300217019093,-6.905924403197495
5.071675038441824,-2.944335147278536,-9.977340589114144,-6.8123133799361035
5.079674525884161,-2.952845240302299,-10.011380961209195,-6.718702356674712
5.087674013326499,-2.9613553333260625,-10.045421333304251,-6.625091333413311
5.095673500768836,-2.9698654263498256,-10.079461705399302,-6.531480310151919
5.103672988211173,-2.9783755193735884,-10.113502077494353,-6.437869286890528
5.11167247565351,-2.986885612397351,-10.147542449589405,-6.344258263629136
5.119671963095848,-2.995395705421115,-10.18158282168446,-6.250647240367735
5.127671450538185,-3.922381684606168,-6.933572526909253,-4.3
5.135670937980522,-2.9870386981035506,-8.796187852383397,-4.315248590466411
5.14367042542286,-2.8325031452402047,-8.750736219188296,-4.497055123246818
5.151669912865197,-2.6779675923768758,-8.7052845859932,-4.6788616560272045
5.159669400307534,-2.5234320395135468,-8.659832952798103,-4.860668188807591
5.167668887749871,-2.3688964866502182,-8.614381319603005,-5.042474721587978
5.175668375192209,-2.2143609337868724,-8.568929686407904,-5.224281254368385
5.183667862634546,-2.0598253809235434,-8.523478053212807,-5.406087787148772
5.191667350076883,-1.9052898280602146,-8.478026420017711,-5.587894319929159
5.19966683751922,-1.7507542751968859,-8.432574786822615,-5.769700852709546
5.207666324961558,-1.59621872233354,-8.387123153627513,-5.951507385489953
5.215665812403895,-1.4416831694702112,-8.341671520432415,-6.13331391827034
5.223665299846232,-0.8342901076377685,-7.4351101998987135,-6.566119938492704
5.231664787288569,-2.007915209768026,-6.9947231934879825,-7.3184688227920605
5.239664274730907,-2.0316760635571485,-6.978882624295235,-7.37391081496668
5.247663762173244,-2.0554369173462685,-6.963042055102488,-7.429352807141293
5.255663249615581,-2.079197771135388,-6.947201485909741,-7.484794799315906
5.263662737057918,-2.1029586249245082,-6.9313609167169945,-7.5402367914905195
5.271662224500256,-2.1267194787136305,-6.915520347524246,-7.5956787836651385
5.279661711942593,-2.1504803325027506,-6.8996797783315,-7.651120775839751
5.28766119938493,-2.1742411862918707,-6.883839209138753,-7.706562768014365
5.295660686827268,-2.198002040080993,-6.867998639946005,-7.762004760188984
5.303660174269605,-2.221762893870113,-6.852158070753258,-7.817446752363597
5.311659661711942,-2.2455237476592327,-6.8363175015605115,-7.87288874453821
5.319659149154279,-2.2692846014483528,-6.8204769323677645,-7.928330736712823
5.327658636596617,-2.293045455237475,-6.804636363175017,-7.983772728887442
5.335658124038954,-2.8165812403895405,-9.050256278831379,-8.150256278831378
5.343657611481291,-2.8965761148129054,-8.810271655561285,-7.910271655561284
5.351657098923628,-3.4217580727831836,-7.363736545361361,-6.663736545361361
5.359656586365966,-3.452525332176791,-7.3124577797053485,-6.612457779705348
5.367656073808303,-3.4832925915703945,-7.261179014049342,-6.561179014049342
5.37565556125064,-3.5140598509639984,-7.209900248393336,-6.509900248393336
5.383655048692977,-3.5448271103576023,-7.158621482737329,-6.458621482737329
5.391654536135315,-3.57559436975121,-7.107342717081318,-6.407342717081318
5.399654023577652,-3.6063616291448137,-7.056063951425311,-6.356063951425311
5.407653511019989,-3.6371288885384176,-7.004785185769305,-6.304785185769305
5.415652998462327,-3.6678961479320247,-6.953506420113293,-6.253506420113292
5.423652485904664,-3.6986634073256286,-6.9022276544572865,-6.202227654457286
5.431651973347001,-5.548026652999484,-8.012762685800723,-3.782829318299432
5.439651460789338,-4.068948017641001,-8.174524757661596,-2.981368810584601
5.447650948231676,-4.024994789935849,-8.280012504153962,-2.9549968739615093
5.455650435674013,-3.9810415622307,-8.385500250646318,-2.9286249373384203
5.46364992311635,-3.937088334525552,-8.490987997138676,-2.9022530007153313
5.471649410558687,-3.893135106820403,-8.596475743631032,-2.8758810640922423
5.479648898001025,-3.84918187911525,-8.7019634901234,-2.84950912746915
5.487648385443362,-3.8052286514101015,-8.807451236615757,-2.823137190846061
5.495647872885699,-3.7612754237049533,-8.912938983108113,-2.796765254222972
5.503647360328036,-3.717322195999805,-9.018426729600469,-2.770393317599883
5.511646847770374,-3.6733689682946515,-9.123914476092837,-2.744021380976791
5.519646335212711,-3.6294157405895033,-9.229402222585193,-2.717649444353702
5.527645822655048,-3.1,-9.353126601742776,-2.5822911327524083
5.535645310097385,-2.7097796002050214,-9.565771399282426,-1.5
5.543644797539723,-2.726620626399417,-9.506827807602042,-1.5
5.55164428498206,-2.7434616525938105,-9.447884215921663,-1.5
5.559643772424397,-2.760302678788204,-9.388940624241286,-1.5
5.567643259866735,-2.7771437049825995,-9.329997032560902,-1.5
5.575642747309072,-2.793984731176993,-9.271053440880523,-1.5
5.583642234751409,-2.810825757371387,-9.212109849200147,-1.5
5.591641722193746,-2.8276667835657805,-9.15316625751977,-1.5
5.599641209636084,-2.844507809760176,-9.094222665839384,-1.5
5.607640697078421,-2.8613488359545696,-9.035279074159007,-1.5
5.615640184520758,-2.878189862148963,-8.97633548247863,-1.5
5.623639671963095,-2.895030888343357,-8.917391890798251,-1.5
5.631639159405433,-3.131957970271627,-7.7,-1.7
5.63963864684777,-3.243771297897383,-7.634343053153926,-1.6708191347350783
5.647638134290107,-3.296515171143561,-7.5552272432846594,-1.6356565525709594
5.655637621732444,-3.349259044389739,-7.476111433415392,-1.6004939704068408
5.663637109174782,-3.4020029176359228,-7.396995623546116,-1.5653313882427182
5.671636596617119,-3.454746790882101,-7.317879813676849,-1.5301688060785994
5.679636084059456,-3.507490664128279,-7.238764003807582,-1.4950062239144808
5.687635571501793,-3.560234537374457,-7.159648193938314,-1.459843641750362
5.695635058944131,-3.612978410620641,-7.080532384069039,-1.4246810595862394
5.703634546386468,-3.665722283866819,-7.001416574199771,-1.3895184774221208
5.711634033828805,-3.718466157112997,-6.922300764330505,-1.354355895258002
5.719633521271143,-3.771210030359181,-6.843184954461228,-1.3191933130938793
5.72763300871348,-3.742019477191208,-5.578990261404396,-1.021009738595604
5.735632496155817,-3.236750384418353,-6.08462327011741,-0.8316248077908234
5.743631983598154,-3.952683605476937,-6.889485245661542,-0.9947426228307708
5.751631471040492,-4.103637261043716,-6.871735292442623,-1.0
5.759630958482829,-4.2122722756927375,-6.842107561174708,-1.0
5.767630445925166,-4.320907290341758,-6.812479829906794,-1.0
5.775629933367503,-4.429542304990779,-6.7828520986388785,-1.0
5.783629420809841,-4.538177319639812,-6.753224367370961,-1.0
5.791628908252178,-4.646812334288833,-6.7235966361030455,-1.0
5.799628395694515,-4.755447348937853,-6.693968904835131,-1.0
5.807627883136852,-4.864082363586874,-6.664341173567216,-1.0
5.81562737057919,-4.972717378235907,-6.634713442299298,-1.0
5.823626858021527,-5.081352392884927,-6.605085711031383,-1.0
5.831626345463864,-6.306586365965956,-4.537365453613618,-1.4692209123523379
5.839625832906201,-7.136382955442028,-5.831185390378882,-2.4207902602525877
5.847625320348539,-7.199300272404236,-5.885114519203631,-2.456743012802421
5.855624807790876,-7.262217589366437,-5.939043648028375,-2.49269576535225
5.863624295233213,-7.325134906328638,-5.992972776853119,-2.528648517902079
5.871623782675551,-7.388052223290846,-6.046901905677869,-2.564601270451912
5.879623270117888,-7.450969540253047,-6.100831034502613,-2.600554023001741
5.887622757560225,-7.513886857215248,-6.1547601633273565,-2.6365067755515703
5.895622245002562,-7.5768041741774494,-6.2086892921520995,-2.6724595281014
5.9036217324449,-7.639721491139658,-6.26261842097685,-2.708412280651233
5.911621219887237,-7.702638808101859,-6.3165475498015935,-2.744365033201062
5.919620707329574,-7.76555612506406,-6.370476678626337,-2.780317785750891
5.927620194771911,-9.255048692977725,-5.5,-2.993029215786635
5.935619682214249,-9.929891926671537,-5.811956770668615,-3.4
5.943619169656586,-9.97244239179035,-5.82897695671614,-3.4
5.951618657098923,-10.014992856909165,-5.845997142763665,-3.4
5.95961814454126,-10.057543322027978,-5.863017328811191,-3.4
5.967617631983598,-10.100093787146797,-5.880037514858719,-3.4
5.975617119425935,-10.142644252265612,-5.897057700906244,-3.4
5.983616606868272,-10.185194717384425,-5.91407788695377,-3.4
5.991616094310609,-10.227745182503238,-5.931098073001295,-3.4
5.999615581752947,-10.270295647622056,-5.948118259048822,-3.4
6.007615069195284,-10.312846112740871,-5.965138445096348,-3.4
6.015614556637621,-10.355396577859684,-5.982158631143874,-3.4
6.023614044079959,-10.397947042978503,-5.999178817191401,-3.4
6.031613531522296,-11.803469960263001,-5.831229642367007,-2.4982650198684997
6.039613018964633,-11.820673159063727,-5.986058431573531,-2.4896634204681374
6.04761250640697,-11.83787635786445,-6.140887220780053,-2.4810618210677746
6.055611993849308,-11.855079556665178,-6.295716009986593,-2.4724602216674114
6.063611481291645,-11.872282755465902,-6.450544799193117,-2.463858622267049
6.071610968733982,-11.889485954266627,-6.60537358839964,-2.455257022866687
6.079610456176319,-11.906689153067353,-6.760202377606163,-2.446655423466324
6.087609943618657,-11.923892351868078,-6.915031166812703,-2.438053824065961
6.095609431060994,-11.941095550668804,-7.069859956019227,-2.4294522246655985
6.103608918503331,-11.958298749469527,-7.22468874522575,-2.420850625265236
6.111608405945668,-11.975501948270253,-7.3795175344322725,-2.4122490258648734
6.119607893388006,-11.992705147070978,-7.534346323638813,-2.4036474264645102
6.127607380830343,-11.90785238339315,-7.830369041517125,-2.353926191696575
6.13560686827268,-11.839313172732052,-4.252101486418593,-2.780343413633974
6.143606355715017,-11.722207725641876,-3.817287172079583,-2.7827128279204167
6.151605843157355,-11.640394785890694,-3.8354678253576235,-2.764532174642376
6.159605330599692,-11.55858184613952,-3.8536484786356624,-2.7463515213643372
6.167604818042029,-11.476768906388346,-3.871829131913701,-2.728170868086299
6.175604305484367,-11.394955966637163,-3.890009785191742,-2.709990214808258
6.183603792926704,-11.313143026885989,-3.9081904384697803,-2.6918095615302193
6.191603280369041,-11.231330087134815,-3.926371091747819,-2.673628908252181
6.199602767811378,-11.14951714738364,-3.944551745025858,-2.655448254974142
6.207602255253716,-11.067704207632456,-3.9627323983038987,-2.6372676016961014
6.215601742696053,-10.985891267881282,-3.980913051581937,-2.619086948418063
6.22360123013839,-10.904078328130108,-3.999093704859976,-2.600906295140024
6.231600717580727,-9.747985648385468,-6.1520143516145325,-0.7439569451564035
6.239600205023065,-9.668887749871862,-6.2,-0.5813326499231181
6.247599692465402,-9.62444615296999,-6.2,-0.5546676917819946
6.255599179907739,-9.580004556068118,-6.2,-0.5280027336408711
6.263598667350076,-9.535562959166246,-6.2,-0.5013377754997477
6.271598154792414,-9.491121362264368,-6.2,-0.4746728173586212
6.279597642234751,-9.446679765362495,-6.2,-0.44800785921749775
6.287597129677088,-9.402238168460624,-6.2,-0.4213429010763743
6.2955966171194255,-9.357796571558746,-6.2,-0.3946779429352478
6.303596104561763,-9.313354974656873,-6.2,-0.36801298479412436
6.3115955920041,-9.268913377755,-6.2,-0.3413480266530009
6.319595079446437,-9.22447178085313,-6.2,-0.31468306851187744
6.3275945668887745,-9.290090551853758,-4.840543311122545,0.5
6.335594054331112,-8.7,-4.102669907106119,0.4
6.343593541773449,-8.7,-4.138622659655948,0.4
6.351593029215786,-8.7,-4.174575412205778,0.4
6.3595925166581235,-8.7,-4.210528164755611,0.4
6.367592004100461,-8.7,-4.24648091730544,0.4
6.375591491542798,-8.7,-4.282433669855269,0.4
6.383590978985135,-8.7,-4.318386422405099,0.4
6.3915904664274725,-8.7,-4.354339174954932,0.4
6.3995899538698096,-8.7,-4.3902919275047605,0.4
6.407589441312147,-8.7,-4.42624468005459,0.4
6.415588928754484,-8.7,-4.46219743260442,0.4
6.4235884161968215,-8.7,-4.498150185154253,0.4
6.4315879036391586,-8.979395181957916,-5.158790363915831,0.5381855458737462
6.439587391081496,-8.80477853237656,-5.495221467623442,0.8
6.4475868785238335,-8.81311133179566,-5.486888668204339,0.8
6.4555863659661705,-8.821444131214761,-5.4785558687852385,0.8
6.4635858534085076,-8.829776930633862,-5.470223069366138,0.8
6.471585340850845,-8.838109730052963,-5.461890269947037,0.8
6.4795848282931825,-8.846442529472066,-5.453557470527935,0.8
6.4875843157355195,-8.854775328891167,-5.445224671108834,0.8
6.4955838031778566,-8.863108128310268,-5.436891871689733,0.8
6.503583290620194,-8.871440927729369,-5.428559072270631,0.8
6.5115827780625315,-8.879773727148471,-5.420226272851529,0.8
6.5195822655048685,-8.888106526567572,-5.411893473432428,0.8
6.5275817529472056,-8.896439325986673,-5.4035606740133275,0.8
6.535581240389543,-8.970480621377584,-5.329519378622417,0.8
6.5435807278318805,-9.093549658952014,-5.2064503410479865,0.8
6.5515802152742175,-9.704104455257708,-4.593843317113437,1.1
6.5595797027165546,-9.724882344718324,-4.562676482922513,1.1
6.567579190158892,-9.745660234178938,-4.53150964873159,1.1
6.5755786776012295,-9.766438123639558,-4.500342814540663,1.1
6.5835781650435665,-9.787216013100172,-4.46917598034974,1.1
6.5915776524859035,-9.807993902560789,-4.438009146158817,1.1
6.5995771399282415,-9.828771792021406,-4.406842311967889,1.1
6.6075766273705785,-9.849549681482022,-4.375675477776966,1.1
6.6155761148129155,-9.870327570942639,-4.3445086435860425,1.1
6.6235756022552525,-9.891105460403255,-4.313341809395119,1.1
6.6315750896975905,-10.0,-3.721245515120463,1.2787544848795371
6.6395745771399275,-10.106193974599918,-3.493806025400081,1.4
6.6475740645822645,-10.115082293980294,-3.4849177060197065,1.4
6.6555735520246015,-10.123970613360667,-3.476029386639332,1.4
6.6635730394669395,-10.132858932741042,-3.4671410672589564,1.4
6.6715725269092765,-10.141747252121418,-3.458252747878582,1.4
6.6795720143516135,-10.150635571501791,-3.4493644284982077,1.4
6.6875715017939505,-10.159523890882166,-3.440476109117833,1.4
6.6955709892362885,-10.168412210262542,-3.4315877897374576,1.4
6.7035704766786255,-10.177300529642917,-3.4226994703570828,1.4
6.7115699641209625,-10.18618884902329,-3.4138111509767084,1.4
6.7195694515632995,-10.195077168403666,-3.404922831596334,1.4
6.7275689390056375,-10.071553049718139,-3.1715530497181397,1.5
6.7355684264479745,-10.094375326820227,-2.9887506536404564,1.5
6.7435679138903115,-10.086295036474432,-2.9725900729488663,1.5
6.751567401332649,-10.078214746128637,-2.9564294922572745,1.5
6.7595668887749865,-10.070134455782842,-2.9402689115656844,1.5
6.7675663762173235,-10.062054165437047,-2.9241083308740943,1.5
6.7755658636596605,-10.053973875091252,-2.907947750182504,1.5
6.783565351101998,-10.045893584745457,-2.8917871694909123,1.5
6.7915648385443355,-10.037813294399662,-2.875626588799322,1.5
6.7995643259866725,-10.029733004053867,-2.859466008107732,1.5
6.8075638134290095,-10.021652713708072,-2.843305427416142,1.5
6.815563300871347,-10.013572423362275,-2.82714484672455,1.5
6.8235627883136845,-10.00549213301648,-2.81098426603296,1.5
6.8315622757560215,-9.743772424397841,-2.6218862121989206,1.5
6.8395617631983585,-9.185124685222743,-2.4950415617409147,1.4950415617409145
6.847561250640696,-9.159039400084685,-2.486346466694895,1.4863464666948951
6.8555607380830335,-9.13295411494663,-2.4776513716488764,1.4776513716488766
6.8635602255253705,-9.106868829808574,-2.468956276602858,1.4689562766028579
6.8715597129677075,-9.080783544670519,-2.4602611815568394,1.4602611815568394
6.879559200410045,-9.05469825953246,-2.45156608651082,1.45156608651082
6.8875586878523825,-9.028612974394404,-2.4428709914648015,1.4428709914648015
6.8955581752947195,-9.002527689256349,-2.434175896418783,1.4341758964187827
6.903557662737057,-8.97644240411829,-2.425480801372763,1.4254808013727633
6.911557150179394,-8.950357118980234,-2.4167857063267446,1.4167857063267448
6.9195566376217315,-8.924271833842178,-2.408090611280726,1.408090611280726
6.9275561250640685,-8.844387493593132,-2.4556125064068692,1.4
6.935555612506406,-8.297160430548438,-2.8,1.397160430548437
6.943555099948743,-8.288272111168062,-2.8,1.3882721111680625
6.9515545873910805,-8.279383791787689,-2.8,1.379383791787688
6.9595540748334175,-8.270495472407314,-2.8,1.3704954724073137
6.967553562275755,-8.261607153026938,-2.8,1.3616071530269382
6.975553049718092,-8.252718833646563,-2.8,1.3527188336465636
6.9835525371604295,-8.24383051426619,-2.8,1.3438305142661893
6.9915520246027665,-8.234942194885814,-2.8,1.3349421948858147
6.999551512045104,-8.226053875505439,-2.8,1.3260538755054392
7.007550999487441,-8.217165556125064,-2.8,1.3171655561250648
7.0155504869297785,-8.20827723674469,-2.8,1.3082772367446902
7.023549974372116,-8.145002562788349,-2.8274987186058245,1.2725012813941752
7.031549461814453,-8.001648363632397,-3.101648363632397,1.001648363632397
7.03954894925679,-8.01015845665616,-3.1101584566561598,1.0101584566561599
7.0475484366991274,-8.018668549679923,-3.118668549679923,1.0186685496799226
7.055547924141465,-8.027178642703687,-3.1271786427036865,1.0271786427036864
7.063547411583802,-8.03568873572745,-3.135688735727449,1.0356887357274493
7.071546899026139,-8.044198828751211,-3.1441988287512124,1.0441988287512123
7.0795463864684764,-8.052708921774975,-3.152708921774975,1.052708921774975
7.087545873910814,-8.061219014798738,-3.161219014798739,1.0612190147987388
7.095545361353151,-8.069729107822502,-3.169729107822502,1.0697291078225017
7.103544848795488,-8.078239200846264,-3.1782392008462645,1.0782392008462645
7.1115443362378254,-8.086749293870026,-3.1867492938700277,1.0867492938700274
7.119543823680163,-8.09525938689379,-3.1952593868937913,1.0952593868937912
7.1275433111225,-8.917324449000171,-3.762993336750129,0.945668887749957
7.135542798564837,-9.314813473580992,-4.009875649053994,1.0
7.1435422860071744,-9.340898758719048,-4.027265839146031,1.0
7.151541773449512,-9.366984043857105,-4.04465602923807,1.0
7.159541260891849,-9.39306932899516,-4.0620462193301075,1.0
7.167540748334186,-9.419154614133216,-4.0794364094221445,1.0
7.175540235776524,-9.445239899271275,-4.096826599514183,1.0
7.183539723218861,-9.47132518440933,-4.11421678960622,1.0
7.191539210661198,-9.497410469547386,-4.131606979698257,1.0
7.199538698103535,-9.523495754685442,-4.148997169790294,1.0
7.207538185545873,-9.5495810398235,-4.166387359882334,1.0
7.21553767298821,-9.575666324961556,-4.183777549974371,1.0
7.223537160430547,-9.707432086109517,-4.226858021527379,0.9731419784726208
7.231536647872884,-9.8,-4.4,1.2
7.239536135315222,-9.803491216625504,-4.3982543916872485,1.2
7.247535622757559,-9.821671869903543,-4.389164065048229,1.2
7.255535110199896,-9.839852523181582,-4.380073738409209,1.2
7.263534597642233,-9.858033176459621,-4.370983411770189,1.2
7.271534085084571,-9.876213829737662,-4.361893085131169,1.2
7.279533572526908,-9.8943944830157,-4.35280275849215,1.2
7.287533059969245,-9.91257513629374,-4.34371243185313,1.2
7.295532547411582,-9.930755789571778,-4.334622105214111,1.2
7.30353203485392,-9.948936442849819,-4.32553177857509,1.2
7.311531522296257,-9.967117096127858,-4.316441451936071,1.2
7.319531009738594,-9.985297749405897,-4.3073511252970516,1.2
7.327530497180932,-9.97347514095338,-4.04695028190676,1.22652485904662
7.335529984623269,-9.64700153767308,-3.7,1.4764992311634593
7.343529472065606,-9.582690868814698,-3.6913454344073493,1.5
7.351528959507943,-9.564301242510476,-3.682150621255238,1.5
7.359528446950281,-9.54591161620625,-3.6729558081031253,1.5
7.367527934392618,-9.527521989902027,-3.663760994951014,1.5
7.375527421834955,-9.509132363597804,-3.654566181798902,1.5
7.383526909277292,-9.490742737293582,-3.645371368646791,1.5
7.39152639671963,-9.472353110989356,-3.636176555494678,1.5
7.399525884161967,-9.453963484685133,-3.6269817423425668,1.5
7.407525371604304,-9.43557385838091,-3.617786929190455,1.5
7.415524859046641,-9.417184232076687,-3.6085921160383436,1.5
7.423524346488979,-9.391260891850347,-3.608739108149654,1.5
7.431523833931316,-9.047616606868367,-3.8261916965658167,1.5
7.439523321373653,-8.90620597907152,-4.0,1.3937940209284794
7.44752280881599,-8.915194167208979,-4.0,1.384805832791022
7.455522296258328,-8.924182355346437,-4.0,1.3758176446535637
7.463521783700665,-8.933170543483893,-4.0,1.3668294565161063
7.471521271143002,-8.942158731621351,-4.0,1.357841268378649
7.47952075858534,-8.95114691975881,-4.0,1.3488530802411907
7.487520246027677,-8.960135107896267,-4.0,1.3398648921037333
7.495519733470014,-8.969123296033723,-4.0,1.3308767039662759
7.503519220912351,-8.978111484171182,-4.0,1.3218885158288185
7.511518708354689,-8.98709967230864,-4.0,1.3129003276913602
7.519518195797026,-8.996087860446098,-4.0,1.3039121395539028
7.527517683239363,-9.075884161968185,-3.9241158380318155,1.2241158380318156
7.5355171706817,-9.0,-3.798295313840786,1.3
7.543516658124038,-9.0,-3.7893071257033273,1.3
7.551516145566375,-9.0,-3.78031893756587,1.3
7.559515633008712,-9.0,-3.771330749428413,1.3
7.567515120451049,-9.0,-3.762342561290956,1.3
7.575514607893387,-9.0,-3.7533543731534973,1.3
7.583514095335724,-9.0,-3.74436618501604,1.3
7.591513582778061,-9.0,-3.735377996878583,1.3
7.599513070220398,-9.0,-3.726389808741126,1.3
7.607512557662736,-9.0,-3.7174016206036673,1.3
7.615512045105073,-9.0,-3.70841343246621,1.3
7.62351153254741,-9.008525542456836,-3.7,1.3
7.631511019989748,-9.1,-3.6,1.3
7.639510507432085,-9.1,-3.6,1.3
7.647509994874422,-9.1,-3.4931975371920716,1.3
7.655509482316759,-9.1,-3.4833216267694334,1.3
7.663508969759097,-9.1,-3.4734457163467938,1.3
7.671508457201434,-9.1,-3.4635698059241555,1.3
7.679507944643771,-9.1,-3.453693895501517,1.3
7.687507432086108,-9.1,-3.4438179850788786,1.3
7.695506919528446,-9.1,-3.433942074656239,1.3
7.703506406970783,-9.1,-3.4240661642336008,1.3
7.71150589441312,-9.1,-3.4141902538109625,1.3
7.719505381855457,-9.1,-3.4043143433883243,1.3
7.727504869297795,-9.1,-3.3,1.3
7.735504356740132,-9.1,-3.3,1.3
7.743503844182469,-9.1,-3.3,1.3
7.751503331624806,-9.1,-3.3,1.3
7.759502819067144,-9.1,-3.3,1.3
7.767502306509481,-9.1,-3.3,1.3
7.775501793951818,-9.1,-3.3,1.3
7.783501281394156,-9.1,-3.3,1.3
7.791500768836493,-9.1,-3.3,1.3
7.79950025627883,-9.1,-3.3,1.3
7.807499743721167,-9.1,-3.3,1.3
7.815499231163505,-9.1,-3.3,1.3
7.823498718605842,-9.1,-3.3,1.3
7.831498206048179,-9.19945847168676,-3.299458471686762,1.2
7.839497693490516,-9.190763376640742,-3.2907633766407436,1.2
7.847497180932854,-9.182068281594724,-3.2820682815947237,1.2
7.855496668375191,-9.173373186548705,-3.2733731865487052,1.2
7.863496155817528,-9.164678091502687,-3.2646780915026867,1.2
7.871495643259865,-9.155982996456668,-3.255982996456668,1.2
7.879495130702203,-9.147287901410648,-3.247287901410649,1.2
7.88749461814454,-9.13859280636463,-3.2385928063646303,1.2
7.895494105586877,-9.12989771131861,-3.229897711318612,1.2
7.903493593029215,-9.121202616272592,-3.2212026162725924,1.2
7.911493080471552,-9.112507521226574,-3.212507521226574,1.2
7.919492567913889,-9.103812426180555,-3.2038124261805554,1.2
7.927492055356226,-8.9,-3.2,1.1
7.935491542798564,-8.9,-3.3,1.2059048847296392
7.943491030240901,-8.9,-3.3,1.2145064841300015
7.951490517683238,-8.9,-3.3,1.223108083530364
7.959490005125575,-8.9,-3.3,1.2317096829307264
7.967489492567913,-8.9,-3.3,1.2403112823310898
7.97548898001025,-8.9,-3.3,1.248912881731452
7.983488467452587,-8.9,-3.3,1.2575144811318146
7.991487954894924,-8.9,-3.3,1.266116080532177
7.999487442337262,-8.9,-3.3,1.2747176799325404
8.0074869297796,-8.9,-3.3,1.2833192793329027
8.015486417221936,-8.9,-3.3,1.2919208787332652
8.023485904664273,-8.9,-3.3,1.27570476678633
8.03148539210661,-8.9,-3.3,1.2
8.039484879548947,-8.816834671678368,-3.3,1.2
8.047484366991286,-8.894394541260892,-3.4,1.2
8.055483854433623,-8.88439518195797,-3.4,1.2
8.06348334187596,-8.87439582265505,-3.4,1.2
8.071482829318297,-8.864396463352127,-3.4,1.2
8.079482316760634,-8.854397104049207,-3.4,1.2
8.087481804202971,-8.844397744746285,-3.4,1.2
8.095481291645308,-8.834398385443365,-3.4,1.2
8.103480779087647,-8.82439902614044,-3.4,1.2
8.111480266529984,-8.81439966683752,-3.4,1.2
8.119479753972321,-8.804400307534598,-3.4,1.2
8.127479241414658,-8.7,-3.6,1.3
8.135478728856995,-8.817301249022089,-3.7,1.3
8.143478216299332,-8.84256278831368,-3.7,1.3
8.15147770374167,-8.86782432760527,-3.7,1.3
8.159477191184006,-8.893085866896861,-3.7,1.3
8.167476678626345,-8.918347406188458,-3.7,1.3
8.175476166068682,-8.943608945480047,-3.7,1.3
8.18347565351102,-8.968870484771639,-3.7,1.3
8.191475140953356,-8.99413202406323,-3.7,1.3
8.199474628395693,-9.019393563354821,-3.7,1.3
8.20747411583803,-9.044655102646411,-3.7,1.3
8.215473603280367,-9.069916641938002,-3.7,1.3
8.223473090722706,-9.095178181229599,-3.7,1.3
8.231472578165043,-9.030548436699144,-3.9389031266017107,1.4
8.23947206560738,-9.205682909442253,-3.8113658188845054,1.2971585452788736
8.247471553049717,-9.224072535746476,-3.8481450714929517,1.287963732126762
8.255471040492054,-9.242462162050698,-3.884924324101398,1.2787689189746505
8.263470527934391,-9.260851788354922,-3.9217035767098443,1.269574105822539
8.271470015376728,-9.279241414659145,-3.9584828293182905,1.2603792926704274
8.279469502819065,-9.297631040963369,-3.995262081926737,1.2511844795183158
8.287468990261404,-9.316020667267596,-4.032041334535191,1.2419896663662022
8.295468477703741,-9.33441029357182,-4.068820587143637,1.2327948532140907
8.303467965146078,-9.352799919876041,-4.105599839752084,1.223600040061979
8.311467452588415,-9.371189546180265,-4.14237909236053,1.2144052269098675
8.319466940030752,-9.389579172484488,-4.179158344968976,1.205210413757756
8.32746642747309,-9.007773791218153,-4.484452417563693,1.3922262087818464
8.335465914915426,-9.203294190821182,-4.103294190821183,1.1967058091788167
8.343465402357765,-9.221270567096102,-4.121270567096102,1.178729432903898
8.351464889800102,-9.239246943371016,-4.139246943371016,1.1607530566289834
8.359464377242439,-9.25722331964593,-4.157223319645931,1.1427766803540689
8.367463864684776,-9.275199695920845,-4.1751996959208455,1.1248003040791543
8.375463352127113,-9.29317607219576,-4.19317607219576,1.1068239278042398
8.38346283956945,-9.311152448470676,-4.211152448470674,1.0888475515293252
8.391462327011787,-9.32912882474559,-4.229128824745589,1.0708711752544107
8.399461814454124,-9.347105201020504,-4.247105201020504,1.0528947989794961
8.407461301896463,-9.365081577295422,-4.2650815772954225,1.0349184227045773
8.4154607893388,-9.383057953570338,-4.283057953570337,1.0169420464296628
8.423460276781137,-9.446027678113687,-4.3,1.0230138390568435
8.431459764223474,-9.341609431061059,-4.106207073295794,1.3583905689389408
8.439459251665811,-9.051358277806317,-3.900905518537545,1.5495472407312274
8.447458739108148,-8.805683399122657,-3.498105533625781,1.4981055336257814
8.455458226550485,-8.83685023331358,-3.4877165888954735,1.4877165888954735
8.463457713992822,-8.868017067504503,-3.4773276441651655,1.4773276441651655
8.471457201435161,-8.899183901695434,-3.466938699434855,1.4669386994348554
8.479456688877498,-8.930350735886357,-3.4565497547045476,1.4565497547045476
8.487456176319835,-8.96151757007728,-3.4461608099742396,1.4461608099742398
8.495455663762172,-8.992684404268203,-3.435771865243932,1.435771865243932
8.50345515120451,-9.023851238459127,-3.425382920513624,1.4253829205136241
8.511454638646846,-9.055018072650052,-3.4149939757833163,1.4149939757833163
8.519454126089183,-9.086184906840975,-3.4046050310530083,1.4046050310530083
8.527453613531522,-9.427319323423916,-4.644848795489102,1.2092772936956613
8.535453100973859,-9.711854567334477,-5.617781851001716,1.2296364183361934
8.543452588416196,-9.729244757426514,-5.643867136139772,1.2731118935662857
8.551452075858533,-9.746634947518551,-5.669952421277826,1.316587368796378
8.55945156330087,-9.764025137610588,-5.696037706415882,1.3600628440264704
8.567451050743207,-9.781415327702625,-5.722122991553937,1.4035383192565627
8.575450538185544,-9.798805517794662,-5.748208276691993,1.447013794486655
8.583450025627881,-9.816195707886699,-5.774293561830048,1.4904892697167473
8.59144951307022,-9.83358589797874,-5.80037884696811,1.5339647449468492
8.599449000512557,-9.850976088070777,-5.826464132106165,1.5774402201769415
8.607448487954894,-9.868366278162814,-5.85254941724422,1.6209156954070338
8.615447975397231,-9.88575646825485,-5.878634702382276,1.6643911706371262
8.623447462839568,-9.972373141978386,-6.26186570989193,1.482880574064842
8.631446950281905,-9.527652485904776,-7.717042542285674,0.8276524859047752
8.639446437724242,-9.377276234785212,-7.8302983536197175,1.1454475304295764
8.647445925166581,-9.324532361539022,-7.900623517947969,1.250935276921955
8.655445412608918,-9.271788488292845,-7.970948682276206,1.35642302341431
8.663444900051255,-9.219044615046668,-8.041273846604444,1.4619107699066651
8.671444387493592,-9.166300741800491,-8.11159901093268,1.5673985163990203
8.679443874935929,-9.113556868554312,-8.181924175260917,1.6728862628913754
8.687443362378266,-9.060812995308135,-8.252249339589154,1.7783740093837306
8.695442849820603,-9.008069122061958,-8.32257450391739,1.8838617558760857
8.70344233726294,-8.95532524881578,-8.392899668245628,1.9893495023684409
8.711441824705279,-8.902581375569591,-8.463224832573879,2.0948372488608196
8.719441312147616,-8.849837502323414,-8.533549996902117,2.2003249953531747
8.727440799589953,-8.645720143516474,-9.195079446436461,2.1236801640188263
8.73544028703229,-6.6855971296771,-10.987197448601867,1.1048009567743002
8.743439774474627,-6.6056022552537295,-10.91609089355887,1.1314659149154236
8.751439261916964,-6.525607380830359,-10.844984338515875,1.1581308730565472
8.759438749359301,-6.445612506406988,-10.773877783472878,1.1847958311976705
8.767438236801638,-6.365617631983618,-10.702771228429881,1.211460789338794
8.775437724243977,-6.28562275756023,-10.63166467338687,1.2381257474799234
8.783437211686314,-6.205627883136859,-10.560558118343874,1.2647907056210468
8.791436699128651,-6.125633008713489,-10.489451563300879,1.2914556637621704
8.799436186570988,-6.045638134290119,-10.418345008257882,1.3181206219032937
8.807435674013325,-5.965643259866748,-10.347238453214887,1.3447855800444173
8.815435161455662,-5.885648385443377,-10.27613189817189,1.3714505381855406
8.823434648897999,-5.805653511020007,-10.205025343128895,1.3981154963266642
8.831434136340338,-5.469593940429432,-9.04357879150301,1.6478045446779264
8.839433623782675,-4.695701837885344,-6.065233945961781,1.2480412975031563
8.847433111225012,-4.473925737531551,-5.978271447942959,0.37392573753155045
8.855432598667349,-4.413170136703675,-5.927641780586396,0.3131701367036748
8.863432086109686,-4.352414535875799,-5.877012113229832,0.2524145358757991
8.871431573552023,-4.2916589350479235,-5.82638244587327,0.1916589350479234
8.87943106099436,-4.230903334220048,-5.775752778516706,0.13090333422004768
8.887430548436697,-4.170147733392172,-5.725123111160143,0.07014773339217201
8.895430035879036,-4.109392132564283,-5.674493443803569,0.00939213256428284
8.903429523321373,-4.048636531736407,-5.623863776447006,-0.05136346826359284
8.91142901076371,-3.9878809309085312,-5.573234109090443,-0.11211906909146852
8.919428498206047,-3.927125330080656,-5.52260444173388,-0.1728746699193442
8.927427985648384,-5.642593541772526,-7.042183495640899,-1.542798564838339
8.935427473090721,-6.544305902781399,-8.788923524304652,-2.8609206163244227
8.943426960533058,-6.60960784108619,-8.772598039728454,-2.9507107814935107
8.951426447975397,-6.674909779390996,-8.756272555152252,-3.040500946662619
8.959425935417734,-6.740211717695788,-8.739947070576054,-3.1302911118317076
8.967425422860071,-6.805513656000579,-8.723621585999856,-3.220081277000796
8.975424910302408,-6.870815594305371,-8.707296101423658,-3.3098714421698845
8.983424397744745,-6.9361175326101625,-8.69097061684746,-3.399661607338973
8.991423885187082,-7.0014194709149535,-8.674645132271262,-3.4894517725080614
8.999423372629419,-7.0667214092197455,-8.658319647695064,-3.57924193767715
9.007422860071756,-7.1320233475245365,-8.641994163118866,-3.6690321028462383
9.015422347514095,-7.197325285829343,-8.625668678542665,-3.7588222680153462
9.023421834956432,-7.2626272241341345,-8.609343193966467,-3.848612433184435
9.031421322398769,-5.505074320861989,-5.478677601231413,-3.494925679138011
9.039420809841106,-3.99213606933079,-3.1376187867111764,-2.5471835840152606
9.047420297283443,-3.9737464430265668,-3.4594372470350807,-2.657521341840599
9.05541978472578,-3.9553568167223436,-3.7812557073589854,-2.767859099665938
9.063419272168117,-3.9369671904181205,-4.103074167682889,-2.8781968574912766
9.071418759610456,-3.9185775641138934,-4.424892628006866,-2.9885346153166394
9.079418247052793,-3.90018793780967,-4.74671108833077,-3.0988723731419783
9.08741773449513,-3.881798311505447,-5.0685295486546735,-3.2092101309673167
9.095417221937467,-3.863408685201224,-5.390348008978579,-3.3195478887926555
9.103416709379804,-3.845019058897001,-5.712166469302483,-3.4298856466179943
9.111416196822141,-3.8266294325927777,-6.033984929626387,-3.5402234044433327
9.119415684264478,-3.8082398062885545,-6.355803389950292,-3.6505611622686716
9.127415171706815,-3.7584828293184875,-7.744413121474371,-5.6075858534075635
9.135414659149154,-3.6066130506692313,-4.76854322657691,-5.472743557361543
9.14341414659149,-3.6148599449396817,-4.479901927111145,-5.563459394336498
9.151413634033828,-3.623106839210132,-4.19126062764538,-5.654175231311452
9.159413121476165,-3.6313537334805828,-3.9026193281796147,-5.744891068286407
9.167412608918502,-3.639600627751033,-3.6139780287138494,-5.835606905261362
9.175412096360839,-3.6478475220214834,-3.325336729248084,-5.926322742236317
9.183411583803176,-3.6560944162919338,-3.036695429782319,-6.017038579211271
9.191411071245513,-3.664341310562384,-2.7480541303165538,-6.107754416186226
9.199410558687852,-3.6725882048328367,-2.4594128308507246,-6.198470253161201
9.207410046130189,-3.680835099103287,-2.1707715313849594,-6.289186090136155
9.215409533572526,-3.6890819933737373,-1.8821302319191942,-6.37990192711111
9.223409021014863,-3.697328887644188,-1.5934889324534294,-6.470617764086065
9.2314085084572,-2.7612762685799925,-4.336596617120021,-7.436596617120021
9.239407995899537,-3.035599977219647,-3.856639899766447,-6.8
9.247407483341874,-3.0800415741215192,-4.052182926134686,-6.8
9.255406970784213,-3.124483171023402,-4.247725952502968,-6.8
9.26340645822655,-3.168924767925274,-4.443268978871207,-6.8
9.271405945668887,-3.2133663648271464,-4.638812005239446,-6.8
9.279405433111224,-3.257807961729019,-4.834355031607684,-6.8
9.287404920553561,-3.3022495586308915,-5.029898057975923,-6.8
9.295404407995898,-3.346691155532764,-5.225441084344162,-6.8
9.303403895438235,-3.391132752434636,-5.420984110712401,-6.8
9.311403382880572,-3.435574349336509,-5.61652713708064,-6.8
9.31940287032291,-3.480015946238391,-5.812070163448921,-6.8
9.327402357765248,-3.9223182250861353,-7.3,-7.977681774913865
9.335401845207585,-4.895220982246869,-3.123895088765657,-6.4952209822468685
9.343401332649922,-4.8679500023298115,-3.260249988350946,-6.467950002329811
9.351400820092259,-4.840679022412753,-3.3966048879362347,-6.440679022412753
9.359400307534596,-4.813408042495696,-3.5329597875215235,-6.413408042495695
9.367399794976933,-4.7861370625786375,-3.6693146871068123,-6.386137062578638
9.375399282419272,-4.758866082661574,-3.8056695866921313,-6.3588660826615735
9.383398769861609,-4.731595102744516,-3.94202448627742,-6.331595102744516
9.391398257303946,-4.704324122827458,-4.078379385862709,-6.304324122827459
9.399397744746283,-4.677053142910401,-4.214734285447998,-6.2770531429104
9.40739723218862,-4.6497821629933425,-4.3510891850332865,-6.249782162993343
9.415396719630957,-4.622511183076285,-4.487444084618575,-6.222511183076286
9.423396207073294,-4.639891630665526,-4.679783261331052,-6.219945815332763
9.431395694515631,-4.439569451563133,-5.095694515631333,-7.5374167093788005
9.43939518195797,-4.508126573580186,-5.748759441481117,-7.883746852839628
9.447394669400307,-4.516917219121216,-5.801503314727296,-7.866165561757568
9.455394156842644,-4.5257078646622455,-5.854247187973475,-7.8485842706755085
9.46339364428498,-4.534498510203275,-5.906991061219653,-7.831002979593449
9.471393131727318,-4.543289155744305,-5.959734934465832,-7.81342168851139
9.479392619169655,-4.552079801285335,-6.01247880771201,-7.79584039742933
9.487392106611992,-4.560870446826365,-6.065222680958189,-7.778259106347271
9.495391594054329,-4.569661092367395,-6.117966554204368,-7.760677815265211
9.503391081496668,-4.578451737908426,-6.170710427450558,-7.743096524183148
9.511390568939005,-4.587242383449456,-6.223454300696736,-7.725515233101088
9.519390056381342,-4.596033028990486,-6.276198173942915,-7.707933942019029
9.527389543823679,-3.797385955919872,-4.555817529471795,-6.933726294207692
9.535389031266016,-4.153642741797707,-6.3536427417977075,-8.9130801408707
9.543388518708353,-4.084829946594808,-6.284829946594808,-8.784056149865265
9.55138800615069,-4.016017151391909,-6.216017151391909,-8.655032158859829
9.559387493593029,-3.9472043561889945,-6.147204356188994,-8.526008167854364
9.567386981035366,-3.8783915609860955,-6.078391560986096,-8.396984176848928
9.575386468477703,-3.809578765783196,-6.009578765783196,-8.267960185843492
9.58338595592004,-3.7407659705802967,-5.940765970580297,-8.138936194838056
9.591385443362377,-3.6719531753773977,-5.8719531753773975,-8.00991220383262
9.599384930804714,-3.603140380174499,-5.803140380174498,-7.880888212827185
9.607384418247051,-3.5343275849715994,-5.734327584971599,-7.751864221821749
9.615383905689388,-3.4655147897687,-5.6655147897687,-7.622840230816313
9.623383393131727,-3.4191696565863645,-5.6,-7.2699641209636265
9.631382880574064,-3.840190215843732,-6.4299048920781345,-6.94952446039067
9.6393823680164,-3.7513070220399904,-6.474346488980005,-7.171732444900023
9.647381855458738,-3.705383852436638,-6.296410765042241,-7.087437677647845
9.655381342901075,-3.7365506866275613,-6.275632875581626,-7.01471506453569
9.663380830343412,-3.767717520818485,-6.25485498612101,-6.941992451423535
9.671380317785749,-3.7988843550094082,-6.2340770966603944,-6.86926983831138
9.679379805228088,-3.830051189200339,-6.213299207199774,-6.79654722519921
9.687379292670425,-3.8612180233912623,-6.192521317739158,-6.723824612087055
9.695378780112762,-3.892384857582186,-6.171743428278543,-6.6511019989749
9.703378267555099,-3.9235516917731093,-6.1509655388179265,-6.578379385862745
9.711377754997436,-3.954718525964033,-6.130187649357311,-6.505656772750591
9.719377242439773,-3.985885360154956,-6.109409759896695,-6.432934159638435
9.72737672988211,-3.9452908764736296,-6.264127370579111,-6.29058175294726
9.735376217324447,-4.131189133777676,-6.0064325986669695,-6.7
9.743375704766786,-4.083044356857965,-6.083044356857965,-6.666088713715931
9.751375192209123,-4.064654730553742,-6.064654730553742,-6.629309461107485
9.75937467965146,-4.046265104249519,-6.046265104249519,-6.5925302084990385
9.767374167093797,-4.027875477945296,-6.027875477945296,-6.555750955890592
9.775373654536134,-4.009485851641073,-6.009485851641073,-6.518971703282146
9.78337314197847,-3.9910962253368494,-5.99109622533685,-6.4821924506737
9.791372629420808,-3.9727065990326267,-5.972706599032627,-6.445413198065253
9.799372116863145,-3.9543169727284035,-5.954316972728404,-6.408633945456807
9.807371604305484,-3.9359273464241764,-5.935927346424177,-6.371854692848353
9.81537109174782,-3.9175377201199533,-5.917537720119953,-6.3350754402399065
9.823370579190158,-3.9,-5.9,-6.3185289595078675
9.831370066632495,-4.148026652997931,-6.5,-6.8
9.839369554074832,-4.181900379523038,-6.6879335863486915,-6.457767552220421
9.847369041517169,-4.154935815110666,-6.669957210073777,-6.39485023525822
9.855368528959506,-4.127971250698294,-6.651980833798863,-6.331932918296019
9.863368016401845,-4.101006686285916,-6.634004457523944,-6.269015601333804
9.871367503844182,-4.0740421218735445,-6.61602808124903,-6.206098284371603
9.879366991286519,-4.047077557461172,-6.5980517049741145,-6.143180967409402
9.887366478728856,-4.020112993048801,-6.5800753286992,-6.0802636504472005
9.895365966171193,-3.9931484286364283,-6.562098952424286,-6.0173463334849995
9.90336545361353,-3.9661838642240568,-6.5441225761493715,-5.954429016522798
9.911364941055867,-3.939219299811685,-6.526146199874456,-5.891511699560597
9.919364428498204,-3.912254735399313,-6.508169823599542,-5.828594382598396
9.927363915940543,-4.3,-6.081650435674758,-5.859021014864482
9.93536340338288,-4.545446779429335,-5.945446779429336,-5.945446779429336
9.943362890825217,-4.614797420523761,-6.0,-6.007398710261881
9.951362378267554,-4.633400879691987,-6.0,-6.016700439845994
9.95936186570989,-4.652004338860212,-6.0,-6.0260021694301065
9.967361353152228,-4.6706077980284375,-6.0,-6.0353038990142185
9.975360840594565,-4.689211257196663,-6.0,-6.044605628598331
9.983360328036904,-4.707814716364893,-6.0,-6.053907358182446
9.99135981547924,-4.7264181755331185,-6.0,-6.063209087766559
9.999359302921578,-4.745021634701344,-6.0,-6.072510817350672
10.007358790363915,-4.76362509386957,-6.0,-6.081812546934785
10.015358277806252,-4.782228553037795,-6.0,-6.091114276518898
10.023357765248589,-4.778534085084657,-5.964223475141095,-6.1286212198871235
10.031357252690926,-4.7035879036389,-6.5035879036389,-6.164274730907399
10.039356740133263,-4.5,-6.435315222962575,-6.121189133777544
10.047356227575602,-4.5,-6.479756819864457,-6.147854091918674
10.055355715017939,-4.5,-6.524198416766329,-6.174519050059797
10.063355202460276,-4.5,-6.568640013668202,-6.20118400820092
10.071354689902613,-4.5,-6.613081610570075,-6.227848966342044
10.07935417734495,-4.5,-6.657523207471947,-6.254513924483168
10.087353664787287,-4.5,-6.701964804373819,-6.281178882624292
10.095353152229624,-4.5,-6.746406401275692,-6.307843840765415
10.103352639671963,-4.5,-6.790847998177574,-6.334508798906544
10.1113521271143,-4.5,-6.835289595079447,-6.361173757047668
10.119351614556637,-4.5,-6.879731191981319,-6.387838715188791
10.127351101998974,-4.445955920041038,-6.6,-5.954044079958962
10.13535058944131,-4.4,-6.418081457240858,-6.107749195960367
10.143350076883648,-4.4,-6.479615976028065,-6.134121132583457
10.151349564325985,-4.4,-6.541150494815273,-6.160493069206545
10.159349051768322,-4.4,-6.60268501360248,-6.186865005829634
10.16734853921066,-4.4,-6.6642195323897,-6.2132369424527285
10.175348026652998,-4.4,-6.725754051176908,-6.239608879075818
10.183347514095335,-4.4,-6.787288569964115,-6.2659808156989065
10.191347001537672,-4.4,-6.848823088751322,-6.292352752321995
10.199346488980009,-4.4,-6.910357607538529,-6.3187246889450845
10.207345976422346,-4.4,-6.971892126325736,-6.345096625568173
10.215345463864683,-4.4,-7.033426645112943,-6.371468562191262
10.22334495130702,-4.4,-7.094961163900151,-6.397840498814351
10.231344438749359,-4.3,-6.701812835522941,-5.7007251342091765
10.239343926191696,-4.3,-6.743915401008925,-5.71756616040357
10.247343413634033,-4.3,-6.786017966494909,-5.734407186597964
10.25534290107637,-4.3,-6.828120531980893,-5.751248212792357
10.263342388518707,-4.3,-6.870223097466877,-5.768089238986751
10.271341875961044,-4.3,-6.9123256629528615,-5.784930265181145
10.27934136340338,-4.3,-6.954428228438846,-5.801771291375538
10.28734085084572,-4.3,-6.996530793924839,-5.818612317569936
10.295340338288057,-4.3,-7.038633359410823,-5.835453343764329
10.303339825730394,-4.3,-7.080735924896807,-5.852294369958723
10.31133931317273,-4.3,-7.122838490382791,-5.8691353961531165
10.319338800615068,-4.3,-7.164941055868775,-5.88597642234751
10.327338288057405,-4.366914402870248,-6.798513582778513,-6.033828805740495
10.335337775499742,-4.151474768184163,-6.694100927263348,-5.648525231815837
10.343337262942079,-4.17790876473598,-6.666273705792061,-6.089543823679898
10.351336750384418,-4.227861077409183,-6.627861077409182,-6.172138922590817
10.359336237826755,-4.25823887782312,-6.658238877823121,-6.14176112217688
10.367335725269092,-4.288616678237059,-6.688616678237058,-6.111383321762942
10.375335212711429,-4.318994478650996,-6.7189944786509965,-6.081005521349004
10.383334700153766,-4.3493722790649345,-6.749372279064934,-6.050627720935066
10.391334187596103,-4.379750079478872,-6.779750079478872,-6.020249920521128
10.39933367503844,-4.410127879892809,-6.81012787989281,-5.989872120107191
10.407333162480779,-4.440505680306754,-6.840505680306754,-5.959494319693246
10.415332649923116,-4.470883480720692,-6.870883480720693,-5.929116519279308
10.423332137365453,-4.5,-6.800358790364175,-5.866786263454725
10.43133162480779,-4.4502562788314455,-6.883418759610482,-5.9834187596104815
10.439331112250127,-4.207034569166808,-6.785930861666385,-5.878896292499578
10.447330599692464,-4.2159228885471824,-6.768154222905635,-5.8522313343584536
10.4553300871348,-4.224811207927557,-6.7503775841448865,-5.82556637621733
10.463329574577138,-4.233699527307931,-6.732600945384138,-5.798901418076207
10.471329062019477,-4.242587846688307,-6.714824306623385,-5.772236459935077
10.479328549461814,-4.251476166068682,-6.697047667862636,-5.745571501793954
10.48732803690415,-4.260364485449056,-6.679271029101887,-5.718906543652831
10.495327524346488,-4.269252804829431,-6.661494390341137,-5.692241585511707
10.503327011788825,-4.278141124209806,-6.643717751580389,-5.665576627370584
10.511326499231162,-4.28702944359018,-6.62594111281964,-5.63891166922946
10.519325986673499,-4.2959177629705545,-6.60816447405889,-5.6122467110883365
10.527325474115836,-4.333726294208225,-6.633726294208225,-5.701178882624674
10.535324961558175,-4.320403101800563,-6.506801033933521,-5.620403101800563
10.543324449000512,-4.346207900001651,-6.515402633333883,-5.6462079000016505
10.551323936442849,-4.372012698202737,-6.524004232734246,-5.672012698202738
10.559323423885186,-4.397817496403825,-6.5326058321346085,-5.697817496403824
10.567322911327523,-4.423622294604912,-6.54120743153497,-5.723622294604912
10.57532239876986,-4.449427092805999,-6.549809030935333,-5.749427092805999
10.583321886212197,-4.475231891007086,-6.558410630335695,-5.775231891007087
10.591321373654536,-4.5010366892081795,-6.56701222973606,-5.801036689208179
10.599320861096873,-4.526841487409266,-6.575613829136422,-5.826841487409267
10.60732034853921,-4.552646285610353,-6.584215428536784,-5.852646285610354
10.615319835981547,-4.578451083811441,-6.592817027937147,-5.878451083811441
10.623319323423884,-4.4021014864175045,-6.731932342388331,-6.03193234238833
10.63131881086622,-3.507480035052326,-7.5900266199302315,-5.702493345017443
10.639318298308558,-3.5332848332534135,-7.555620222328782,-5.7110949444178045
10.647317785750895,-3.5590896314545004,-7.521213824727332,-5.719696543818167
10.655317273193234,-3.5848944296555936,-7.486807427125875,-5.728298143218531
10.66331676063557,-3.6106992278566805,-7.452401029524426,-5.736899742618894
10.671316248077908,-3.636504026057768,-7.417994631922976,-5.7455013420192556
10.679315735520245,-3.662308824258855,-7.383588234321526,-5.754102941419618
10.687315222962582,-3.6881136224599422,-7.349181836720077,-5.762704540819981
10.695314710404919,-3.713918420661029,-7.314775439118628,-5.771306140220343
10.703314197847256,-3.7397232188621166,-7.280369041517178,-5.779907739620706
10.711313685289594,-3.7655280170632093,-7.245962643915721,-5.788509339021069
10.719313172731932,-3.7913328152642967,-7.211556246314271,-5.797110938421432
10.727312660174269,-4.226385329460706,-6.5895779941910595,-5.673614670539293
10.735312147616606,-4.078036904151509,-6.63467452588487,-5.4942080984121535
10.743311635058943,-4.663109670062558,-5.228366899141315,-3.5056600187745297
10.75131112250128,-4.869837997224076,-5.264319651691144,-3.7663174747607915
10.759310609943617,-5.076566324385594,-5.300272404240973,-4.026974930747053
10.767310097385954,-5.283294651547111,-5.336225156790802,-4.287632386733314
10.775309584828292,-5.490022978708675,-5.372177909340639,-4.548289842719633
10.78330907227063,-5.696751305870192,-5.4081306618904685,-4.808947298705895
10.791308559712967,-5.9034796330317105,-5.444083414440297,-5.069604754692157
10.799308047155304,-6.110207960193228,-5.480036166990127,-5.330262210678418
10.80730753459764,-6.316936287354746,-5.515988919539955,-5.59091966666468
10.815307022039978,-6.523664614516264,-5.551941672089785,-5.851577122650941
10.823306509482315,-6.730392941677781,-5.587894424639614,-6.112234578637203
10.831305996924653,-3.689595079445705,-6.361199384930713,-4.981394156841775
10.83930548436699,-4.824351614556632,-6.556820433965476,-6.381172048522108
10.847304971809328,-4.851016572697755,-6.619038669628098,-6.470055242325853
10.855304459251665,-4.8776815308388795,-6.681256905290719,-6.558938436129598
10.863303946694002,-4.904346488980003,-6.74347514095334,-6.647821629933343
10.871303434136339,-4.931011447121126,-6.805693376615961,-6.736704823737088
10.879302921578676,-4.95767640526225,-6.867911612278583,-6.8255880175408326
10.887302409021013,-4.984341363403373,-6.930129847941204,-6.914471211344577
10.895301896463351,-5.011006321544502,-6.99234808360384,-7.003354405148342
10.903301383905688,-5.037671279685626,-7.054566319266462,-7.092237598952087
10.911300871348026,-5.064336237826749,-7.116784554929083,-7.1811207927558325
10.919300358790363,-5.0910011959678725,-7.179002790591704,-7.270003986559577
10.9272998462327,-5.6100461301900415,-5.724884674524897,-5.504946181444952
10.935299333675037,-4.990446370868934,-6.945223185434467,-6.147929712744841
10.943298821117374,-4.851324850132639,-6.875662425066319,-6.20879537806697
10.95129830855971,-4.712203329396344,-6.806101664698172,-6.2696610433891
10.95929779600205,-4.573081808660017,-6.736540904330009,-6.3305267087112425
10.967297283444386,-4.433960287923722,-6.666980143961861,-6.391392374033371
10.975296770886724,-4.294838767187427,-6.597419383593714,-6.452258039355501
10.98329625832906,-4.155717246451131,-6.5278586232255655,-6.51312370467763
10.991295745771398,-4.016595725714836,-6.458297862857418,-6.573989369999759
10.999295233213735,-3.8774742049785402,-6.38873710248927,-6.6348550353218885
11.007294720656072,-3.738352684242245,-6.319176342121123,-6.695720700644017
11.01529420809841,-3.599231163505919,-6.24961558175296,-6.75658636596616
11.023293695540747,-4.0881086622242995,-6.002793439261683,-5.190902101485982
11.031293182983084,-4.31394622804161,-6.886053771958389,-6.185578491216644
11.039292670425422,-4.073199194211682,-7.096171313458812,-6.080856567294059
11.047292157867759,-4.008087087122893,-7.086869583874699,-6.034347919373494
11.055291645310096,-3.9429749800341027,-7.077567854290586,-5.9878392714529305
11.063291132752433,-3.8778628729453133,-7.068266124706473,-5.941330623532367
11.07129062019477,-3.812750765856524,-7.05896439512236,-5.894821975611802
11.079290107637108,-3.7476386587677197,-7.0496626655382455,-5.848313327691228
11.087289595079445,-3.6825265516789303,-7.040360935954133,-5.801804679770664
11.095289082521782,-3.617414444590141,-7.03105920637002,-5.755296031850101
11.10328856996412,-3.5523023375013514,-7.021757476785908,-5.708787383929536
11.111288057406457,-3.487190230412562,-7.012455747201795,-5.662278736008973
11.119287544848794,-3.4220781233237725,-7.003154017617682,-5.615770088088408
11.12728703229113,-4.782612905062808,-6.436522581012562,-6.2634774189874385
11.13528651973347,-3.9936328948117867,-6.612734210376426,-5.903183552594107
11.143286007175806,-3.815866507204304,-6.9682669855913915,-5.992066746397848
11.151285494618143,-3.872854946181433,-6.959525029899203,-6.048569964120955
11.15928498206048,-3.9528498206048037,-6.915083432997331,-6.101899880403202
11.167284469502818,-4.032844695028174,-6.870641836095459,-6.1552297966854495
11.175283956945155,-4.112839569451545,-6.826200239193587,-6.208559712967697
11.183283444387492,-4.192834443874915,-6.781758642291714,-6.261889629249943
11.191282931829829,-4.272829318298285,-6.737317045389841,-6.31521954553219
11.199282419272167,-4.352824192721673,-6.69287544848796,-6.368549461814449
11.207281906714504,-4.432819067145044,-6.648433851586087,-6.421879378096696
11.215281394156841,-4.512813941568415,-6.603992254684214,-6.475209294378942
11.223280881599178,-4.592808815991785,-6.559550657782342,-6.528539210661189
11.231280369041515,-4.672803690415155,-6.515109060880469,-6.581869126943436
11.239279856483853,-3.9279856483852678,-7.270989236288951,-6.170989236288951
11.24727934392619,-4.5694332576700765,-6.820377828219948,-5.8101889141099745
11.255278831368527,-4.5122940616533835,-6.858470625564411,-5.829235312782205
11.263278318810865,-4.455154865636677,-6.896563422908882,-5.84828171145444
11.271277806253202,-4.398015669619984,-6.934656220253344,-5.867328110126672
11.27927729369554,-4.3408764736032905,-6.972749017597806,-5.886374508798903
11.287276781137876,-4.283737277586598,-7.010841814942268,-5.905420907471134
11.295276268580213,-4.226598081569904,-7.048934612286731,-5.924467306143365
11.30327575602255,-4.169458885553211,-7.087027409631193,-5.943513704815596
11.311275243464888,-4.112319689536518,-7.125120206975655,-5.962560103487827
11.319274730907226,-4.055180493519812,-7.163213004320125,-5.981606502160063
11.327274218349563,-4.0068554587390866,-7.165722706304568,-5.9451563300873085
11.3352737057919,-4.305474115837992,-10.106940030754131,-7.9397847257820855
11.343273193234237,-4.384033203735427,-8.39222412521413,-6.7802490280156995
11.351272680676574,-4.345011313772807,-8.128826367966449,-6.487584853296055
11.359272168118911,-4.305989423810188,-7.8654286107187685,-6.19492067857641
11.367271655561249,-4.266967533847569,-7.6020308534710885,-5.902256503856766
11.375271143003586,-4.22794564388495,-7.3386330962234085,-5.60959232913712
11.383270630445924,-4.188923753922322,-7.07523533897567,-5.316928154417411
11.391270117888261,-4.149901863959702,-6.811837581727989,-5.024263979697766
11.399269605330598,-4.110879973997083,-6.548439824480309,-4.731599804978122
11.407269092772935,-4.071858084034464,-6.285042067232629,-4.438935630258477
11.415268580215272,-4.0328361940718445,-6.021644309984948,-4.146271455538832
11.42326806765761,-4.0,-6.370630445924319,-6.055715017936317
11.431267555099947,-3.4048764625805297,-1.88784136064782,-3.822041632909814
11.439267042542285,-3.4220796613812583,-1.4921677882310616,-2.841459301268283
11.447266529984622,-3.439282860181983,-1.0964942158143915,-1.8608769696269696
11.45526601742696,-3.4564860589827076,-0.7008206433977211,-0.8802946379856564
11.463265504869296,-3.4736892577834326,-0.30514707098105087,0.10028769365565715
11.471264992311633,-3.4908924565841573,0.09052650143561936,1.0808700252969698
11.47926447975397,-3.5080956553848823,0.4862000738522898,2.0614523569382834
11.487263967196307,-3.525298854185607,0.8818736462689603,3.042034688579597
11.495263454638645,-3.5425020529863316,1.2775472186856303,4.02261702022091
11.503262942080983,-3.5597052517870607,1.6732207911023886,5.003199351862442
11.51126242952332,-3.5769084505877853,2.0688943635190586,5.983781683503754
11.519261916965657,-3.59411164938851,2.4645679359357286,6.964364015145067
11.527261404407994,-4.301520587732528,-4.765966171191549,2.623196081783143
11.535260891850331,-4.530445925165718,-6.3652485904640095,2.7913377754971527
11.543260379292668,-4.824019286472071,-7.416884603006207,3.9084423015031033
11.551259866735005,-4.7403037202150555,-7.435488062174432,3.9177440310872162
11.559259354177344,-4.656588153958022,-7.454091521342662,3.927045760671331
11.567258841619681,-4.572872587701006,-7.472694980510887,3.936347490255444
11.575258329062018,-4.489157021443991,-7.491298439679113,3.9456492198395563
11.583257816504355,-4.405441455186976,-7.509901898847339,3.954950949423669
11.591257303946692,-4.3217258889299615,-7.528505358015564,3.964252679007782
11.59925679138903,-4.238010322672946,-7.54710881718379,3.973554408591895
11.607256278831366,-4.154294756415931,-7.5657122763520155,3.9828561381760075
11.615255766273703,-4.070579190158916,-7.58431573552024,3.9921578677601204
11.623255253716042,-4.1882880574062975,-7.348949256791603,3.8117119425937025
11.63125474115838,-4.002799353388781,-7.88964239246151,5.097480581950096
11.639254228600716,-4.090705808799079,-7.564388507443408,5.018364772080829
11.647253716043053,-4.178612264209376,-7.239134622425307,4.939248962211561
11.65525320348539,-4.2665187196196745,-6.913880737407205,4.860133152342293
11.663252690927727,-4.354425175029972,-6.588626852389104,4.781017342473025
11.671252178370064,-4.44233163044027,-6.263372967371003,4.701901532603757
11.679251665812401,-4.530238085850567,-5.938119082352902,4.6227857227344895
11.68725115325474,-4.618144541260884,-5.612865197334727,4.543669912865204
11.695250640697077,-4.706050996671182,-5.287611312316626,4.464554102995936
11.703250128139414,-4.79395745208148,-4.9623574272985245,4.385438293126668
11.711249615581751,-4.881863907491778,-4.637103542280423,4.3063224832574
11.719249103024088,-4.969770362902075,-4.3118496572623215,4.227206673388133
11.727248590466425,-3.362147616606313,-8.766658124045508,-1.7773962070770726
11.735248077908762,-3.8,-3.5864172219374715,1.2407483341875862
11.743247565351101,-3.8,-3.5690270318454305,1.2929189044637086
11.751247052793438,-3.8,-3.5516368417533934,1.3450894747398192
11.759246540235775,-3.8,-3.534246651661357,1.39726004501593
11.767246027678112,-3.8,-3.51685646156932,1.4494306152920409
11.77524551512045,-3.8,-3.499466271477283,1.5016011855681515
11.783245002562786,-3.8,-3.482076081385246,1.5537717558442623
11.791244490005123,-3.8,-3.464685891293209,1.6059423261203731
11.79924397744746,-3.8,-3.4472957012011722,1.6581128963964837
11.8072434648898,-3.8,-3.429905511109131,1.7102834666726063
11.815242952332136,-3.8,-3.412515321017094,1.762454036948717
11.823242439774473,-4.212121988723653,-5.6030497180913095,-1.381855458735315
11.83124192721681,-3.806897717482576,-7.872392226572337,-7.441352497900743
11.839241414659147,-3.8239179035301016,-7.5575187846931176,-7.049888218807659
11.847240902101484,-3.840938089577627,-7.242645342813898,-6.6584239397145755
11.855240389543821,-3.8579582756251525,-6.927771900934679,-6.266959660621493
11.86323987698616,-3.8749784616726815,-6.61289845905539,-5.875495381528322
11.871239364428497,-3.891998647720207,-6.29802501717617,-5.484031102435239
11.879238851870834,-3.9090188337677323,-5.983151575296951,-5.092566823342155
11.887238339313171,-3.9260390198152577,-5.668278133417731,-4.701102544249071
11.895237826755508,-3.943059205862783,-5.353404691538511,-4.3096382651559875
11.903237314197845,-3.9600793919103086,-5.038531249659291,-3.9181739860629037
11.911236801640182,-3.977099577957834,-4.723657807780072,-3.52670970696982
11.91923628908252,-3.9941197640053594,-4.408784365900853,-3.135245427876737
11.927235776524858,-3.558944131214636,-8.160994361863445,-11.893900563813656
11.935235263967195,-4.350639025694735,-9.959337463508144,-3.1401538787244037
11.943234751409532,-4.446285071200938,-9.315900430102777,-3.0271176431261635
11.95123423885187,-4.541931116707142,-8.672463396697411,-2.9140814075279238
11.959233726294206,-4.637577162213344,-8.029026363292045,-2.8010451719296836
11.967233213736543,-4.733223207719548,-7.385589329886679,-2.6880089363314434
11.97523270117888,-4.828869253225751,-6.742152296481313,-2.5749727007332037
11.983232188621217,-4.924515298731954,-6.098715263075947,-2.4619364651349636
11.991231676063556,-5.020161344238178,-5.455278229670438,-2.3489002295366985
11.999231163505893,-5.115807389744381,-4.811841196265072,-2.235863993938459
12.00723065094823,-5.211453435250585,-4.168404162859706,-2.1228277583402186
12.015230138390567,-5.307099480756787,-3.52496712945434,-2.0097915227419785
12.023229625832904,-5.319630958483401,-2.762224500257259,-2.439620707325736
12.031229113275241,-5.089319579702606,-7.306201947717522,-8.780189646334591
12.039228600717578,-4.910643738629381,-4.278054083282124,-7.464520871235398
12.047228088159917,-4.937015675252476,-4.4714482851848185,-7.376614415825083
12.055227575602254,-4.963387611875564,-4.664842487087469,-7.288707960414786
12.063227063044591,-4.989759548498653,-4.858236688990121,-7.200801505004491
12.071226550486928,-5.016131485121742,-5.051630890892771,-7.1128950495941945
12.079226037929265,-5.042503421744831,-5.245025092795423,-7.024988594183899
12.087225525371602,-5.06887535836792,-5.438419294698074,-6.937082138773603
12.09522501281394,-5.095247294991008,-5.631813496600725,-6.849175683363307
12.103224500256276,-5.121619231614097,-5.825207698503376,-6.761269227953011
12.111223987698615,-5.1479911682371915,-6.01860190040607,-6.673362772542696
12.119223475140952,-5.17436310486028,-6.211996102308722,-6.585456317132399
12.12722296258329,-5.04392619169791,-6.466888774986611,-6.611481291644351
12.135222450025626,-6.05061222165273,-5.534571444843088,-8.87036733299164
12.143221937467963,-5.872845834045244,-5.659007916168329,-8.763707500427147
12.1512214249103,-5.695079446437758,-5.783444387493569,-8.657047667862654
12.159220912352637,-5.517313058830272,-5.907880858818809,-8.550387835298164
12.167220399794976,-5.339546671222746,-6.032317330144078,-8.443728002733648
12.175219887237313,-5.1617802836152595,-6.156753801469318,-8.337068170169156
12.18321937467965,-4.984013896007774,-6.281190272794559,-8.230408337604665
12.191218862121987,-4.806247508400287,-6.405626744119799,-8.123748505040172
12.199218349564324,-4.6284811207928005,-6.53006321544504,-8.017088672475682
12.207217837006661,-4.450714733185315,-6.65449968677028,-7.910428839911189
12.215217324448998,-4.272948345577828,-6.7789361580955205,-7.803769007346697
12.223216811891335,-4.15420297283368,-7.333623782669442,-7.9493336750349295
12.231216299333674,-5.376207073295828,-11.965894413121939,-12.322132239877256
12.239215786776011,-4.496263454638736,-7.006212198872877,-9.442316760635865
12.247215274218348,-4.285874376776481,-5.419728810400344,-8.552801593588413
12.255214761660685,-4.267693723498442,-4.801586598947035,-8.234640161222739
12.263214249103022,-4.249513070220403,-4.183444387493727,-7.916478728857065
12.27121373654536,-4.231332416942365,-3.5653021760404173,-7.598317296491391
12.279213223987696,-4.213151763664326,-2.9471599645871085,-7.280155864125717
12.287212711430033,-4.194971110386288,-2.3290177531337997,-6.9619944317600435
12.295212198872372,-4.176790457108245,-1.7108755416803536,-6.6438329993942995
12.30321168631471,-4.158609803830207,-1.0927333302270439,-6.325671567028626
12.311211173757046,-4.140429150552168,-0.47459111877373505,-6.007510134662952
12.319210661199383,-4.12224849727413,0.14355109267957378,-5.689348702297278
12.32721014864172,-4.104067843996091,0.7616933041328826,-5.371187269931604
12.335209636084057,-3.9677088672458076,-9.679753972317382,-5.288672475651534
12.343209123526394,-4.649718093285476,-11.08455492909627,-5.817700324619921
12.351208610968733,-4.704886972198158,-10.845489787141316,-5.615414435273421
12.35920809841107,-4.760055851110827,-10.606424645186417,-5.413128545926967
12.367207585853407,-4.8152247300234965,-10.367359503231516,-5.210842656580513
12.375207073295744,-4.8703936089361655,-10.128294361276616,-5.008556767234059
12.383206560738081,-4.925562487848835,-9.889229219321715,-4.806270877887605
12.391206048180418,-4.980731366761504,-9.650164077366814,-4.603984988541151
12.399205535622755,-5.035900245674173,-9.411098935411914,-4.401699099194697
12.407205023065092,-5.091069124586843,-9.172033793457013,-4.199413209848243
12.415204510507431,-5.1462380034995245,-8.93296865150206,-3.9971273205017432
12.423203997949768,-5.0368016401854225,-8.271604305486733,-3.698001025115889
12.431203485392105,-4.220348539210595,-8.591568426447678,-3.920348539210595
12.439202972834442,-4.4,-9.344242940814002,-4.12090889719475
12.44720246027678,-4.4,-9.272337435714343,-4.147873461607121
12.455201947719116,-4.4,-9.200431930614684,-4.1748380260194935
12.463201435161453,-4.4,-9.128526425515027,-4.201802590431865
12.471200922603792,-4.4,-9.056620920415352,-4.228767154844243
12.47920041004613,-4.4,-8.984715415315694,-4.255731719256615
12.487199897488466,-4.4,-8.912809910216035,-4.282696283668987
12.495199384930803,-4.4,-8.840904405116376,-4.309660848081359
12.50319887237314,-4.4,-8.768998900016719,-4.3366254124937305
12.511198359815477,-4.4,-8.69709339491706,-4.363589976906103
12.519197847257814,-4.4,-8.625187889817402,-4.390554541318474
12.527197334700151,-4.6,-8.459200410045593,-2.869067145053191
12.53519682214249,-4.626652998462323,-8.980010251153258,-3.4800102511532574
12.543196309584827,-4.661059396063773,-8.95420545295217,-3.4542054529521704
12.551195797027164,-4.695465793665222,-8.928400654751083,-3.428400654751083
12.559195284469501,-4.729872191266672,-8.902595856549995,-3.402595856549996
12.567194771911838,-4.764278588868121,-8.876791058348909,-3.3767910583489087
12.575194259354175,-4.7986849864695715,-8.85098626014782,-3.3509862601478217
12.583193746796512,-4.833091384071021,-8.825181461946734,-3.3251814619467344
12.591193234238851,-4.867497781672478,-8.79937666374564,-3.2993766637456416
12.599192721681188,-4.901904179273927,-8.773571865544554,-3.2735718655445543
12.607192209123525,-4.936310576875377,-8.747767067343467,-3.2477670673434673
12.615191696565862,-4.970716974476827,-8.721962269142379,-3.22196226914238
12.6231911840082,-5.059559200409944,-8.342644797540332,-3.0213223987701667
12.631190671450536,-5.7,-9.115253716042949,-3.1480932854946313
12.639190158892873,-6.258277806252763,-5.911071245517953,-0.5478728857016559
12.64718964633521,-6.4761256670786915,-5.160709741610571,-0.306003557753022
12.655189133777549,-6.560826122350515,-5.339521813851087,-0.7577393192027476
12.663188621219886,-6.64552657762232,-5.518333886091565,-1.2094750806523729
12.671188108662223,-6.730227032894125,-5.697145958332041,-1.661210842101998
12.67918759610456,-6.81492748816593,-5.875958030572518,-2.1129466035516233
12.687187083546897,-6.899627943437734,-6.054770102812995,-2.5646823650012487
12.695186570989234,-6.984328398709539,-6.2335821750534715,-3.0164181264508736
12.703186058431571,-7.069028853981344,-6.412394247293948,-3.468153887900499
12.711185545873908,-7.153729309253148,-6.591206319534424,-3.9198896493501247
12.719185033316247,-7.238429764524971,-6.770018391774941,-4.37162541079985
12.727184520758584,-4.07380830343355,-6.809533572531601,-0.3756022552570876
12.735184008200921,-4.4219611668678604,-6.350503463897698,0.6390194165660696
12.743183495643258,-4.301538775262787,-6.5827466477074825,0.6992306123686065
12.751182983085595,-4.181116383657714,-6.814989831517267,0.7594418081711433
12.759182470527932,-4.06069399205264,-7.047233015327052,0.81965300397368
12.76718195797027,-3.9402716004475664,-7.279476199136837,0.8798641997762169
12.775181445412608,-3.819849208842466,-7.511719382946673,0.9400753955787671
12.783180932854945,-3.6994268172373923,-7.7439625667564576,1.000286591381304
12.791180420297282,-3.579004425632319,-7.976205750566242,1.0604977871838406
12.799179907739619,-3.4585820340272453,-8.208448934376026,1.1207089829863772
12.807179395181956,-3.3381596424221716,-8.440692118185812,1.1809201787889143
12.815178882624293,-3.2177372508170983,-8.672935301995597,1.241131374591451
12.82317837006663,-3.082162993337021,-8.840543311123405,1.3535110199889369
12.831177857508967,-3.3466427473097538,-7.888928754483744,1.1533572526902462
12.839177344951306,-3.1,-8.244176205934293,1.4079748277236726
12.847176832393643,-3.1,-8.181957970271672,1.416863147104047
12.85517631983598,-3.1,-8.11973973460905,1.4257514664844215
12.863175807278317,-3.1,-8.057521498946429,1.434639785864796
12.871175294720654,-3.1,-7.995303263283807,1.4435281052451705
12.879174782162991,-3.1,-7.9330850276211855,1.4524164246255449
12.887174269605328,-3.1,-7.870866791958564,1.4613047440059195
12.895173757047667,-3.1,-7.808648556295928,1.4701930633862959
12.903173244490004,-3.1,-7.746430320633307,1.4790813827666704
12.911172731932341,-3.1,-7.684212084970685,1.4879697021470448
12.919172219374678,-3.1,-7.621993849308064,1.4968580215274194
12.927171706817015,-5.013736545361239,-8.555356227575976,1.9652485904658814
12.935171194259352,-5.4035235491770575,-7.268288057406482,3.849329688478805
12.94317068170169,-5.412411868557433,-7.188293182983112,3.9737661598040477
12.951170169144026,-5.421300187937807,-7.108298308559742,4.098202631129291
12.959169656586365,-5.430188507318183,-7.028303434136354,4.222639102454561
12.967169144028702,-5.439076826698558,-6.9483085597129834,4.347075573779804
12.975168631471039,-5.447965146078932,-6.868313685289612,4.471512045105047
12.983168118913376,-5.456853465459306,-6.788318810866242,4.59594851643029
12.991167606355713,-5.465741784839681,-6.708323936442872,4.720384987755533
12.99916709379805,-5.474630104220055,-6.6283290620195014,4.844821459080776
13.007166581240387,-5.4835184236004295,-6.548334187596131,4.969257930406019
13.015166068682724,-5.492406742980805,-6.468339313172761,5.093694401731261
13.023165556125063,-5.577703741670847,-6.011481291645765,5.277703741670847
13.0311650435674,-5.83592219914211,-4.965048962745248,5.580582157597909
13.039164531009737,-6.046435026572031,-4.291407914969502,6.1700180744016855
13.047164018452074,-6.488535793609875,-3.150794464377781,7.321339484024687
13.055163505894411,-6.6387216534833025,-2.9,7.677443306966606
13.063162993336748,-6.681962126144584,-2.9,7.7639242522891685
13.071162480779085,-6.725202598805866,-2.9,7.850405197611732
13.079161968221424,-6.768443071467156,-2.9,7.936886142934314
13.087161455663761,-6.811683544128438,-2.9,8.023367088256876
13.095160943106098,-6.854924016789719,-2.9,8.10984803357944
13.103160430548435,-6.898164489451,-2.9,8.196328978902
13.111159917990772,-6.941404962112282,-2.9,8.282809924224564
13.119159405433109,-6.984645434773563,-2.9,8.369290869547127
13.127158892875446,-8.134930804715397,-3.757124551512284,8.742875448487716
13.135158380317783,-8.400251397329816,-2.5992458080105556,10.401131287984168
13.143157867760122,-8.412948996444639,-2.561153010666085,10.458270484000874
13.151157355202459,-8.42564659555946,-2.5230602133216227,10.515409680017566
13.159156842644796,-8.438344194674281,-2.4849674159771604,10.57254887603426
13.167156330087133,-8.4510417937891,-2.446874618632698,10.629688072050953
13.17515581752947,-8.463739392903921,-2.408781821288236,10.686827268067647
13.183155304971807,-8.476436992018742,-2.3706890239437737,10.74396646408434
13.191154792414144,-8.489134591133563,-2.3325962265993114,10.801105660101033
13.199154279856483,-8.501832190248386,-2.2945034292548407,10.85824485611774
13.20715376729882,-8.514529789363207,-2.256410631910379,10.915384052134433
13.215153254741157,-8.527227388478028,-2.2183178345659167,10.972523248151125
13.223152742183494,-8.539924987592848,-2.1802250372214544,11.029662444167819
13.231152229625831,-8.552622586707669,-2.142132239876992,11.086801640184513
13.239151717068168,-8.56532018582249,-2.10403944253253,11.143940836201207
13.247151204510505,-8.57801778493731,-2.0659466451880677,11.201080032217899
13.255150691952842,-8.590715384052132,-2.0278538478436055,11.258219228234593
13.263150179395181,-8.761263454638573,-2.5375448487952443,11.246245515120476
13.271149666837518,-8.5,-3.2005831175487685,10.099416882451232
13.279149154279855,-8.5,-3.2317499517396917,10.068250048260309
13.287148641722192,-8.5,-3.2629167859306154,10.037083214069385
13.295148129164529,-8.5,-3.2940836201215387,10.005916379878462
13.303147616606866,-8.5,-3.3252504543124624,9.974749545687539
13.311147104049203,-8.5,-3.3564172885033856,9.943582711496614
13.319146591491542,-8.5,-3.387584122694316,9.912415877305683
13.327146078933879,-8.5,-3.4187509568852397,9.88124904311476
13.335145566376216,-8.5,-3.449917791076163,9.850082208923837
13.343145053818553,-8.5,-3.4810846252670866,9.818915374732914
13.35114454126089,-7.542183495644311,-1.8072270630444611,10.578318810866616
13.359144028703227,-6.168824068465287,-1.729854154046894,8.506472205395859
13.367143516145564,-6.120342326390517,-1.620770234378663,8.36102697917155
13.375143003587901,-6.071860584315748,-1.511686314710432,8.215581752947243
13.38314249103024,-6.023378842240968,-1.4026023950421767,8.070136526722901
13.391141978472577,-5.974897100166198,-1.2935184753739457,7.924691300498594
13.399141465914914,-5.926415358091429,-1.1844345557057148,7.779246074274287
13.407140953357251,-5.8779336160166595,-1.0753506360374838,7.633800848049979
13.415140440799588,-5.82945187394189,-0.9662667163692528,7.48835562182567
13.423139928241925,-4.28600717580743,0.20658636596588392,8.26419784725777
13.431139415684262,-3.506970784213143,1.6302921578685732,8.5
13.439138903126599,-3.5727159861040034,0.665894982630004,8.5
13.447138390568938,-3.5371627085824975,0.6214533857281217,8.5
13.455137878011275,-3.5016094310609995,0.5770117888262493,8.5
13.463137365453612,-3.4660561535395016,0.5325701919243768,8.5
13.471136852895949,-3.4305028760180036,0.4881285950225044,8.5
13.479136340338286,-3.3949495984965057,0.44368699812063195,8.5
13.487135827780623,-3.3593963209750077,0.3992454012187595,8.5
13.49513531522296,-3.32384304345351,0.3548038043168871,8.5
13.503134802665299,-3.288289765932004,0.31036220741500475,8.5
13.511134290107636,-3.252736488410506,0.2659206105131323,8.5
13.519133777549973,-3.217183210889008,0.22147901361125988,8.5
13.52713326499231,-2.276704254229628,0.6266529984619534,8.396642747308418
13.535132752434647,-0.6928109468495028,0.9095854042006629,8.395207297899669
13.543132239876984,-0.6658463824371309,0.945538156750492,8.377230921624754
13.551131727319321,-0.6388818180247591,0.9814909093003212,8.35925454534984
13.559131214761658,-0.6119172536123871,1.0174436618501503,8.341278169074926
13.567130702203997,-0.5849526892000093,1.0533964143999877,8.323301792800006
13.575130189646334,-0.5579881247876375,1.0893491669498168,8.305325416525092
13.583129677088671,-0.5310235603752655,1.1253019194996459,8.287349040250177
13.591129164531008,-0.5040589959628937,1.1612546720494752,8.269372663975263
13.599128651973345,-0.4770944315505218,1.1972074245993043,8.251396287700347
13.607128139415682,-0.45012986713814995,1.2331601771491334,8.233419911425433
13.615127626858019,-0.42316530272577807,1.2691129296989625,8.215443535150518
13.623127114300358,-0.06822142491038571,1.8317785750896143,8.1
13.631126601742695,0.7032911597291523,2.4065823194583045,7.790126520812543
13.639126089185032,0.7117116728263492,2.423423345652698,7.764864981520953
13.647125576627369,0.720132185923546,2.4402643718470918,7.739603442229362
13.655125064069706,0.7285526990207428,2.4571053980414854,7.714341902937772
13.663124551512043,0.7369732121179395,2.473946424235879,7.689080363646181
13.67112403895438,0.7453937252151364,2.4907874504302727,7.663818824354591
13.679123526396717,0.7538142383123332,2.5076284766246664,7.638557285063
13.687123013839056,0.7622347514095319,2.524469502819064,7.6132957457714046
13.695122501281393,0.7706552645067287,2.5413105290134577,7.588034206479814
13.70312198872373,0.7790757776039255,2.5581515552078513,7.562772667188224
13.711121476166067,0.7874962907011224,2.574992581402245,7.537511127896633
13.719120963608404,0.7959168037983192,2.5918336075966386,7.512249588605043
13.727120451050741,1.3413634033827495,3.782726806765499,7.812045105074125
13.735119938493078,1.4124846621002365,3.3374539863007096,7.493757668949882
13.743119425935415,1.4367255331376212,3.4101765994128637,7.481637233431189
13.751118913377754,1.4609664041750112,3.4828992125250338,7.469516797912495
13.75911840082009,1.485207275212396,3.555621825637188,7.457396362393802
13.767117888262428,1.5094481462497806,3.628344438749342,7.44527592687511
