accel_time_list,vertical_Accel_x,vertical_Accel_y,vertical_Accel_z
0.0,5.191,0.07,4.836
0.007999487442337262,5.35948926109026,-1.556773300706007,7.7430061341578345
0.015998974884674524,5.275365618954713,-1.4028906874335192,7.815087537132873
0.023998462327011784,5.191241976819167,-1.2490080741610314,7.887168940107912
0.03199794976934905,5.10711833468362,-1.0951254608885437,7.959250343082951
0.03999743721168631,5.022994692548073,-0.9412428476160558,8.03133174605799
0.04799692465402357,4.938871050412526,-0.7873602343435682,8.10341314903303
0.05599641209636083,4.85474740827698,-0.6334776210710803,8.175494552008068
0.0639958995386981,4.7706237661414335,-0.47959500779859243,8.247575954983107
0.07199538698103536,4.686500124005887,-0.3257123945261049,8.319657357958146
0.07999487442337262,4.60237648187034,-0.17182978125361714,8.391738760933185
0.08799436186570989,4.518252839734793,-0.017947167981129164,8.463820163908224
0.09599384930804714,4.434129197599247,0.13593544529135837,8.535901566883263
0.1039933367503844,4.876577242439774,-0.9123931317273202,8.073566888774986
0.11199282419272166,4.979616401845207,-0.632088569964121,8.62234290107637
0.11999231163505893,4.986104874992881,-0.6324441027393359,8.611676917819922
0.1279917990773962,4.992593348140555,-0.632799635514551,8.601010934563472
0.13599128651973344,4.999081821288228,-0.6331551682897659,8.590344951307022
0.14399077396207072,5.005570294435902,-0.633510701064981,8.579678968050573
0.15199026140440797,5.012058767583575,-0.6338662338401959,8.569012984794123
0.15998974884674524,5.018547240731249,-0.6342217666154109,8.558347001537673
0.1679892362890825,5.025035713878922,-0.6345772993906259,8.547681018281224
0.17598872373141977,5.031524187026596,-0.6349328321658408,8.537015035024774
0.18398821117375702,5.03801266017427,-0.6352883649410559,8.526349051768324
0.19198769861609427,5.044501133321943,-0.6356438977162708,8.515683068511875
0.19998718605843155,5.050989606469617,-0.6359994304914859,8.505017085255425
0.2079866735007688,4.622365894523349,-0.8940824170676192,8.167249191206054
0.21598616094310608,4.641547461186158,-0.8704280187166218,8.185484581934821
0.22398564838544333,4.660729027848967,-0.8467736203656245,8.20371997266359
0.2319851358277806,4.679910594511775,-0.8231192220146273,8.22195536339236
0.23998462327011785,4.699092161174584,-0.79946482366363,8.240190754121128
0.24798411071245513,4.718273727837392,-0.7758104253126327,8.258426144849897
0.2559835981547924,4.737455294500201,-0.7521560269616354,8.276661535578667
0.26398308559712963,4.75663686116301,-0.7285016286106382,8.294896926307436
0.2719825730394669,4.7758184278258184,-0.7048472302596409,8.313132317036205
0.2799820604818042,4.794999994488627,-0.6811928319086435,8.331367707764974
0.28798154792414143,4.814181561151436,-0.6575384335576463,8.349603098493743
0.2959810353664787,4.833363127814245,-0.633884035206649,8.36783848922251
0.30398052280881593,4.85147719118401,-0.8165043567401329,8.525746796514607
0.31198001025115324,4.773319835981548,-0.9080199897488468,8.50865836060403
0.3199794976934905,4.645328036904153,-0.9000205023065095,8.429894176556402
0.32797898513582774,4.613459921933526,-0.893554087975923,8.40379105389741
0.335978472578165,4.614075267121398,-0.8876057511598261,8.395483893861137
0.34397796002050224,4.6146906123092695,-0.8816574143437291,8.387176733824864
0.35197744746283954,4.615305957497141,-0.8757090775276322,8.37886957378859
0.3599769349051768,4.615921302685014,-0.8697607407115352,8.370562413752317
0.36797642234751404,4.616536647872886,-0.8638124038954382,8.362255253716043
0.3759759097898513,4.617151993060758,-0.8578640670793414,8.35394809367977
0.38397539723218854,4.61776733824863,-0.8519157302632444,8.345640933643496
0.39197488467452585,4.618382683436502,-0.8459673934471474,8.337333773607224
0.3999743721168631,4.6189980286243735,-0.8400190566310505,8.329026613570951
0.40797385955920035,4.685591375803972,-0.7807275067100965,8.373172820114306
0.4159733470015376,4.632949587473752,-0.7292039263019244,8.382806611442712
0.4239728344438749,4.580307799143533,-0.6776803458937519,8.392440402771118
0.43197232188621215,4.527666010813314,-0.6261567654855797,8.402074194099525
0.4399718093285494,4.4750242224830945,-0.5746331850774076,8.411707985427931
0.44797129677088665,4.422382434152875,-0.5231096046692354,8.421341776756337
0.4559707842132239,4.369740645822656,-0.4715860242610632,8.430975568084742
0.4639702716555612,4.317098857492436,-0.4200624438528907,8.440609359413148
0.47196975909789846,4.264457069162217,-0.36853886344471853,8.450243150741555
0.4799692465402357,4.211815280831997,-0.3170152830365464,8.459876942069961
0.48796873398257296,4.159173492501778,-0.2654917026283742,8.469510733398367
0.49596822142491026,4.106531704171559,-0.21396812222020167,8.479144524726774
0.5039677088672475,4.005484366991287,-0.11845207585853491,8.225679138903129
0.5119671963095848,3.5591306100588005,0.22082672671462084,8.164261623252841
0.519966683751922,3.5519400595488344,0.19458121735324466,8.133342256059986
0.5279661711942593,3.5447495090388683,0.1683357079918685,8.102422888867132
0.5359656586365965,3.5375589585289022,0.14209019863049233,8.071503521674279
0.5439651460789338,3.530368408018936,0.11584468926911619,8.040584154481424
0.5519646335212711,3.5231778575089696,0.08959917990773966,8.00966478728857
0.5599641209636084,3.5159873069990035,0.06335367054636351,7.9787454200957155
0.5679636084059456,3.5087967564890374,0.03710816118498733,7.947826052902862
0.5759630958482829,3.501606205979072,0.01086265182361118,7.916906685710007
0.5839625832906201,3.4944156554691057,-0.015382857537764971,7.885987318517153
0.5919620707329574,3.4872251049591396,-0.04162836689914115,7.855067951324299
0.5999615581752946,3.4800345544491735,-0.0678738762605173,7.8241485841314455
0.6079610456176319,3.113073637450879,-0.7036019135486048,7.118943447804549
0.6159605330599691,3.1347264650606554,-0.8948253886895592,6.650850025627882
0.6239600205023065,2.9649595648954956,-1.009040292727376,6.681248077908765
0.6319595079446437,2.7951926647303384,-1.1232551967651911,6.711646130189646
0.639958995386981,2.6254257645651813,-1.2374701008030065,6.7420441824705275
0.6479584828293182,2.455658864400024,-1.3516850048408218,6.772442234751409
0.6559579702716555,2.2858919642348665,-1.465899908878637,6.802840287032291
0.6639574577139927,2.1161250640697093,-1.5801148129164522,6.833238339313173
0.67195694515633,1.946358163904552,-1.6943297169542673,6.863636391594054
0.6799564325986672,1.7765912637393948,-1.8085446209920826,6.8940344438749355
0.6879559200410045,1.6068243635742376,-1.9227595250298979,6.924432496155817
0.6959554074833418,1.4370574634090778,-2.0369744290677145,6.954830548436699
0.7039548949256791,0.6965556125064081,-2.71835417734495,6.453278831368528
0.7119543823680163,0.6570890996070392,-2.739350674867589,6.3659665128993685
0.7199538698103536,0.6219802380545592,-2.755794065721282,6.274416823281509
0.7279533572526908,0.5487693220750495,-2.868855620599422,6.177199357954086
0.7359528446950281,0.5274022700909118,-2.959060367153146,6.167831537133454
0.7439523321373653,0.5060352181067742,-3.04926511370687,6.158463716312822
0.7519518195797026,0.4846681661226365,-3.1394698602605935,6.149095895492191
0.7599513070220398,0.4633011141384989,-3.2296746068143176,6.139728074671559
0.7679507944643771,0.44193406215436126,-3.3198793533680413,6.1303602538509265
0.7759502819067144,0.42056701017022335,-3.4100840999217663,6.120992433030295
0.7839497693490517,0.39919995818608567,-3.5002888464754904,6.111624612209663
0.791949256791389,0.37783290620194804,-3.5904935930292146,6.102256791389031
0.7999487442337262,0.23945822655050508,-3.6562432086109706,5.827877242439815
0.8079482316760634,-0.9403871198530652,-3.85877481099436,3.833343103963782
0.8159477191184007,-1.02221521014864,-3.9515188685289577,3.6901856099436214
0.8239472065607379,-1.1040433004442147,-4.044262926063555,3.547028115923461
0.8319466940030752,-1.1858713907397895,-4.137006983598153,3.403870621903301
0.8399461814454124,-1.2676994810353643,-4.22975104113275,3.2607131278831405
0.8479456688877498,-1.3495275713309403,-4.322495098667349,3.117555633862978
0.855945156330087,-1.431355661626515,-4.415239156201947,2.9743981398428176
0.8639446437724243,-1.5131837519220899,-4.507983213736544,2.831240645822657
0.8719441312147616,-1.5950118422176647,-4.600727271271142,2.6880831518024966
0.8799436186570988,-1.6768399325132395,-4.693471328805739,2.5449256577823363
0.887943106099436,-1.7586680228088143,-4.786215386340337,2.401768163762176
0.8959425935417733,-1.840496113104389,-4.878959443874934,2.2586106697420156
0.9039420809841106,-1.1594433623782368,-7.140065094823142,-1.6101091747820315
0.9119415684264478,-2.1477305655219614,-7.3845482658465755,-3.741306338629759
0.9199410558687852,-1.8769522163985417,-7.343346604718838,-3.874545113341378
0.9279405433111224,-1.606173867275126,-7.302144943591101,-4.0077838880529955
0.9359400307534597,-1.33539551815171,-7.260943282463364,-4.1410226627646125
0.9439395181957969,-1.0646171690282944,-7.2197416213356265,-4.2742614374762296
0.9519390056381342,-0.7938388199048785,-7.17853996020789,-4.4075002121878475
0.9599384930804714,-0.5230604707814628,-7.137338299080152,-4.5407389868994645
0.9679379805228087,-0.25228212165804687,-7.096136637952416,-4.673977761611082
0.9759374679651459,0.01849622746536861,-7.054934976824678,-4.807216536322699
0.9839369554074832,0.2892745765887845,-7.013733315696942,-4.940455311034317
0.9919364428498205,0.560052925712204,-6.972531654569204,-5.073694085745935
0.9999359302921578,0.8308312748356199,-6.931329993441467,-5.206932860457552
1.007935417734495,-0.6820756144590077,-6.545777061824217,-11.689788533352859
1.0159349051768323,-0.5287901979448885,-6.236006433819044,-11.850463952551804
1.0239343926191695,-0.37550478143076926,-5.926235805813871,-12.01113937175075
1.0319338800615068,-0.22221936491665006,-5.616465177808697,-12.171814790949693
1.039933367503844,-0.06893394840253086,-5.306694549803524,-12.332490210148638
1.0479328549461813,0.08435146811158833,-4.99692392179835,-12.493165629347583
1.0559323423885185,0.23763688462570753,-4.687153293793178,-12.653841048546528
1.0639318298308558,0.3909223011398266,-4.377382665788004,-12.814516467745474
1.071931317273193,0.5442077176539459,-4.0676120377828315,-12.975191886944419
1.0799308047155303,0.697493134168065,-3.7578414097776576,-13.135867306143364
1.0879302921578675,0.8507785506821843,-3.4480707817724845,-13.29654272534231
1.0959297796002048,1.0040639671963036,-3.138300153767311,-13.457218144541255
1.1039292670425422,1.157349383710427,-2.828529525762129,-13.617893563740203
1.1119287544848795,1.3106348002245463,-2.518758897756956,-13.778568982939149
1.1199282419272167,0.23030599692465525,-1.6732629420809852,-15.631627370579187
1.127927729369554,0.08471532547411745,-1.5324719630958499,-16.007603280369036
1.1359272168118912,1.0579971809327253,-1.1381799077396524,-16.55789595079444
1.1439267042542285,2.4274619777966766,-0.17869568156089022,-16.656318506711127
1.1519261916965657,2.5365538889608583,0.5688608152482965,-16.478835373237732
1.159925679138903,2.6456458001250396,1.316417312057483,-16.301352239764338
1.1679251665812402,2.7547377112892213,2.06397380886667,-16.123869106290943
1.1759246540235775,2.863829622453403,2.8115303056758565,-15.946385972817549
1.1839241414659147,2.9729215336175847,3.559086802485043,-15.768902839344156
1.191923628908252,3.082013444781766,4.3066432992942305,-15.591419705870761
1.1999231163505892,3.1911053559459477,5.054199796103417,-15.413936572397366
1.2079226037929265,3.3001972671101294,5.801756292912604,-15.236453438923972
1.2159220912352637,3.409289178274311,6.549312789721791,-15.058970305450577
1.223921578677601,3.518381089438493,7.296869286530977,-14.881487171977183
1.2319210661199382,3.2191178882624394,7.02987749871868,-13.00724397744757
1.2399205535622755,3.429081450072229,4.10841274870697,-11.798030800055916
1.247920041004613,3.318664282496934,3.819703974651698,-11.796455143438484
1.2559195284469502,3.2082471149216425,3.530995200596435,-11.794879486821054
1.2639190158892875,3.0978299473463506,3.2422864265411713,-11.793303830203625
1.2719185033316247,2.987412779771059,2.953577652485908,-11.791728173586195
1.279917990773962,2.876995612195767,2.664868878430645,-11.790152516968764
1.2879174782162992,2.7665784446204755,2.3761601043753817,-11.788576860351334
1.2959169656586365,2.6561612770451837,2.0874513303201185,-11.787001203733904
1.3039164531009737,2.7694402870322836,1.6358354689902623,-10.7112137365454
1.311915940543311,2.43089995765828,3.054980892741738,-9.918221955296058
1.3199154279856482,2.4553157845475004,3.0659019321195373,-9.907857402001204
1.3279149154279855,2.479731611436721,3.0768229714973367,-9.89749284870635
1.3359144028703227,2.504147438325942,3.0877440108751366,-9.887128295411495
1.34391389031266,2.5285632652151624,3.098665050252936,-9.87676374211664
1.3519133777549972,2.5529790921043833,3.1095860896307355,-9.866399188821786
1.3599128651973345,2.577394918993604,3.1205071290085353,-9.856034635526932
1.3679123526396717,2.6018107458828243,3.1314281683863348,-9.845670082232077
1.375911840082009,2.626226572772045,3.142349207764134,-9.835305528937223
1.3839113275243462,2.650642399661266,3.1532702471419336,-9.824940975642368
1.3919108149666837,2.675058226550487,3.1641912865197335,-9.814576422347514
1.399910302409021,2.6994740534397077,3.1751123258975333,-9.80421186905266
1.4079097898513582,2.723889880328928,3.1860333652753328,-9.793847315757805
1.4159092772936954,2.748305707218149,3.196954404653132,-9.78348276246295
1.4239087647360327,2.7727215341073697,3.2078754440309316,-9.773118209168096
1.43190825217837,3.097109630388976,3.232663577082981,-10.252649168517568
1.4399077396207072,3.0148926761205095,3.0694518124608496,-10.323200203599292
1.4479072270630444,2.932675721852043,2.9062400478387187,-10.393751238681016
1.4559067145053817,2.850458767583577,2.7430282832165873,-10.464302273762742
1.463906201947719,2.7682418133151105,2.5798165185944564,-10.534853308844466
1.4719056893900562,2.6860248590466442,2.416604753972325,-10.60540434392619
1.4799051768323934,2.603807904778178,2.2533929893501936,-10.675955379007915
1.4879046642747307,2.5215909505097116,2.0901812247280627,-10.74650641408964
1.495904151717068,2.4393739962412453,1.9269694601059315,-10.817057449171363
1.5039036391594052,2.1196381342901103,1.4664692636254952,-10.701023987698617
1.5119031266017424,1.9836468477703781,1.2670153767298882,-10.665826242952333
1.5199026140440797,1.809603280369053,0.6079533572527728,-10.618071245515125
1.527902101486417,1.7753616401845174,-1.0613118195796953,-10.429475099948748
1.5359015889287542,1.8983404271313817,-1.3245482863488725,-10.314389140611656
1.5439010763710916,2.0213192140782494,-1.587784753118057,-10.19930318127456
1.551900563813429,2.144298001025114,-1.851021219887234,-10.08421722193747
1.5599000512557661,2.267276787971978,-2.114257686656411,-9.969131262600378
1.5678995386981034,2.3902555749188426,-2.3774941534255882,-9.854045303263286
1.5758990261404406,2.513234361865707,-2.6407306201947653,-9.738959343926194
1.583898513582778,2.6362131488125717,-2.9039670869639425,-9.623873384589103
1.5918980010251151,2.7591919357594357,-3.1672035537331196,-9.508787425252011
1.5998974884674524,2.0769272168120096,-4.821476166068463,-9.362177857508978
1.6078969759097896,2.822723347001507,-5.163561570989226,-7.951364044080014
1.6158964633521269,2.5996466313571456,-5.34833080471553,-8.875768654251381
1.6238959507944641,2.4363682043396615,-5.369129472065607,-8.903944626687169
1.6318954382368014,2.2730897773221774,-5.389928139415684,-8.932120599122957
1.6398949256791386,2.1098113503046934,-5.41072680676576,-8.960296571558745
1.6478944131214759,1.9465329232872097,-5.431525474115837,-8.988472543994533
1.6558939005638131,1.7832544962697257,-5.4523241414659145,-9.01664851643032
1.6638933880061504,1.6199760692522418,-5.473122808815991,-9.044824488866109
1.6718928754484876,1.456697642234758,-5.493921476166068,-9.073000461301897
1.6798923628908249,1.2934192152172739,-5.514720143516145,-9.101176433737685
1.6878918503331624,1.1301407881997856,-5.535518810866223,-9.129352406173473
1.6958913377754996,0.9668623611823015,-5.556317478216299,-9.15752837860926
1.7038908252178369,0.583790876473627,-5.241813429010823,-8.772473090722778
1.711890312660174,0.5700585853408513,-4.852303297454297,-8.787946881940886
1.7198898001025114,0.5402604946181451,-4.881234777037417,-8.744416337775501
1.7278892875448486,0.5104624038954388,-4.910166256620536,-8.700885793610116
1.7358887749871859,0.4806643131727326,-4.939097736203656,-8.65735524944473
1.743888262429523,0.4508662224500264,-4.968029215786776,-8.613824705279345
1.7518877498718604,0.42106813172732016,-4.996960695369895,-8.57029416111396
1.7598872373141976,0.39127004100461393,-5.0258921749530145,-8.526763616948575
1.7678867247565349,0.3614719502819077,-5.0548236545361345,-8.48323307278319
1.775886212198872,0.33167385955920153,-5.083755134119254,-8.439702528617804
1.7838856996412094,0.3018757688364953,-5.112686613702373,-8.396171984452419
1.7918851870835466,0.2720776781137891,-5.141618093285493,-8.352641440287034
1.7998846745258839,0.24227958739108285,-5.170549572868613,-8.309110896121648
1.807884161968221,0.21248149666837662,-5.199481052451732,-8.265580351956263
1.8158836494105584,0.1826834059456704,-5.228412532034852,-8.222049807790878
1.8238831368528956,0.15288531522296417,-5.257344011617972,-8.178519263625493
1.831882624295233,0.38424859046641735,-4.84039005638136,-8.13417837006663
1.8398821117375703,0.39,-4.731,-7.935
1.8478815991799076,0.39,-4.731,-7.935
1.8558810866222448,0.39,-4.731,-7.935
1.863880574064582,0.39,-4.731,-7.935
1.8718800615069193,0.39,-4.731,-7.935
1.8798795489492566,0.39,-4.731,-7.935
1.8878790363915938,0.39,-4.731,-7.935
1.895878523833931,0.39,-4.731,-7.935
1.9038780112762683,0.39,-4.731,-7.935
1.9118774987186056,0.39,-4.731,-7.935
1.9198769861609428,0.39,-4.731,-7.935
1.92787647360328,0.39,-4.731,-7.935
1.9358759610456173,0.39,-4.731,-7.935
1.9438754484879546,0.30150119795453756,-4.894478442778301,-7.552256886748597
1.9518749359302918,0.2969433504583221,-4.898850255682834,-7.545466624152194
1.959874423372629,0.2923855029621067,-4.903222068587367,-7.538676361555791
1.9678739108149663,0.2878276554658913,-4.9075938814919,-7.531886098959389
1.9758733982573038,0.28326980796967577,-4.911965694396433,-7.525095836362986
1.983872885699641,0.2787119604734603,-4.916337507300967,-7.518305573766584
1.9918723731419783,0.2741541129772449,-4.9207093202055,-7.511515311170181
1.9998718605843155,0.2695962654810295,-4.925081133110033,-7.504725048573779
2.0078713480266526,0.2650384179848142,-4.929452946014566,-7.497934785977376
2.01587083546899,0.2604805704885987,-4.9338247589190996,-7.4911445233809735
2.023870322911327,0.2559227229923834,-4.9381965718236325,-7.4843542607845714
2.0318698103536645,0.263,-5.433165556125044,-7.269237826755521
2.0398692977960016,0.6326362549120076,-6.3029087647360225,-6.779072075370397
2.047868785238339,0.6753001879378074,-6.430900563813422,-6.604892759512835
2.0558682726806765,0.7179641209636072,-6.558892362890822,-6.430713443655273
2.0638677601230135,0.7606280539894047,-6.686884161968214,-6.256534127797721
2.071867247565351,0.8032919870152044,-6.8148759610456136,-6.082354811940158
2.079866735007688,0.845955920041002,-6.942867760123006,-5.908175496082606
2.0878662224500255,0.8886198530668017,-7.070859559200405,-5.733996180225044
2.0958657098923625,0.9312837860925992,-7.198851358277797,-5.559816864367492
2.1038651973347,0.9739477191183991,-7.326843157355197,-5.38563754850993
2.111864684777037,1.0166116521441966,-7.454834956432589,-5.211458232652377
2.1198641722193745,1.0592755851699964,-7.582826755509989,-5.037278916794815
2.1278636596617115,1.4636601742695818,-7.902570476678577,-5.0293649410558405
2.135863147104049,1.5403938883600568,-7.845418893851752,-5.130047240731245
2.143862634546386,1.6120083473676452,-7.773613970857441,-5.224707842132233
2.1518621219887235,1.6836228063752379,-7.701809047863126,-5.319368443533226
2.1598616094310605,1.7552372653828263,-7.630004124868815,-5.414029044934215
2.167861096873398,1.8268517243904188,-7.5581992018745,-5.508689646335208
2.175860584315735,1.8984661833980074,-7.48639427888019,-5.603350247736196
2.1838600717580725,1.9700806424056,-7.414589355885875,-5.698010849137189
2.1918595592004095,2.0416951014131888,-7.3427844328915635,-5.792671450538177
2.199859046642747,2.113309560420781,-7.2709795098972485,-5.88733205193917
2.2078585340850845,2.1849240194283737,-7.1991745869029335,-5.981992653340164
2.2158580215274215,2.495714932513231,-7.229521527421826,-6.033948573381173
2.223857508969759,2.6204325986673465,-7.644758585340814,-6.033066119938497
2.231856996412096,2.573985021926081,-7.6838249900335995,-6.172425935417726
2.2398564838544335,2.5762943447804543,-7.735909584828292,-6.143480949940203
2.2478559712967705,2.5871380944245113,-7.792972595250296,-6.085706873967768
2.255855458739108,2.5979818440685687,-7.8500356056723035,-6.027932797995332
2.263854946181445,2.6088255937126257,-7.9070986160943075,-5.970158722022897
2.2718544336237825,2.619669343356683,-7.964161626516315,-5.91238464605046
2.2798539210661195,2.6305130930007397,-8.021224636938319,-5.854610570078026
2.287853408508457,2.6413568426447975,-8.078287647360327,-5.796836494105588
2.295852895950794,2.652200592288854,-8.13535065778233,-5.739062418133154
2.3038523833931315,2.6630443419329115,-8.192413668204338,-5.681288342160717
2.3118518708354685,2.6738880915769685,-8.249476678626342,-5.623514266188283
2.319851358277806,2.684731841221026,-8.30653968904835,-5.565740190215846
2.327850845720143,3.206846745258687,-8.763525371604295,-5.592579702716565
2.3358503331624805,3.2634339898952915,-8.749015010617267,-5.620080910888189
2.343849820604818,3.258781226791075,-8.72966931139447,-5.651752350966015
2.351849308047155,3.254128463686859,-8.710323612171676,-5.683423791043839
2.3598487954894924,3.249475700582642,-8.690977912948881,-5.715095231121665
2.3678482829318295,3.2448229374784257,-8.671632213726086,-5.746766671199489
2.375847770374167,3.240170174374209,-8.652286514503292,-5.778438111277314
2.383847257816504,3.2355174112699925,-8.632940815280497,-5.810109551355138
2.3918467452588414,3.2308646481657757,-8.6135951160577,-5.841780991432964
2.3998462327011785,3.2262118850615593,-8.594249416834906,-5.873452431510788
2.407845720143516,3.2215591219573425,-8.574903717612111,-5.905123871588614
2.415845207585853,3.216906358853126,-8.555558018389316,-5.9367953116664385
2.4238446950281904,3.21225359574891,-8.53621231916652,-5.9684667517442636
2.4318441824705275,3.1817380830343365,-8.13571040492057,-6.109468990261417
2.439843669912865,2.942830078867746,-8.007587936707397,-5.909144433789122
2.447843157355202,2.8987038739438864,-7.984105570344408,-5.931465584233063
2.4558426447975394,2.854577669020025,-7.960623203981417,-5.953786734677005
2.4638421322398765,2.810451464096166,-7.937140837618427,-5.976107885120945
2.471841619682214,2.766325259172304,-7.913658471255437,-5.998429035564887
2.479841107124551,2.722199054248445,-7.890176104892448,-6.0207501860088275
2.4878405945668884,2.6780728493245833,-7.866693738529457,-6.043071336452769
2.495840082009226,2.633946644400722,-7.843211372166467,-6.065392486896711
2.503839569451563,1.8134643772426915,-7.578677088672562,-5.924827780625169
2.5118390568939004,0.6409764903861419,-7.262618443911223,-6.365193479177912
2.5198385443362374,0.64522400584225,-7.265308537033425,-6.396483509704575
2.527838031778575,0.6494715212983584,-7.267998630155627,-6.42777354023124
2.535837519220912,0.6537190367544666,-7.270688723277829,-6.459063570757904
2.5438370066632494,0.657966552210575,-7.27337881640003,-6.490353601284569
2.5518364941055864,0.6622140676666831,-7.276068909522232,-6.521643631811232
2.559835981547924,0.6664615831227915,-7.278759002644434,-6.552933662337897
2.567835468990261,0.6707090985788996,-7.281449095766636,-6.58422369286456
2.5758349564325984,0.674956614035008,-7.2841391888888385,-6.615513723391225
2.5838344438749354,0.6792041294911161,-7.28682928201104,-6.646803753917888
2.591833931317273,0.6834516449472244,-7.289519375133242,-6.678093784444553
2.59983341875961,0.6876991604033326,-7.292209468255444,-6.709383814971217
2.6078329062019474,0.691946675859441,-7.294899561377646,-6.740673845497882
2.6158323936442844,0.6961941913155492,-7.2975896544998475,-6.771963876024545
2.623831881086622,1.2507052793436186,-6.656124038954742,-6.591197847257933
2.631831368528959,2.3066967093797963,-5.05011254228602,-6.657194700153762
2.6398308559712964,2.4558071553049667,-4.829406683751929,-6.746628969759095
2.647830343413634,2.604917601230137,-4.608700825217839,-6.836063239364427
2.655829830855971,2.754028047155299,-4.3879949666837605,-6.925497508969755
2.6638293182983084,2.9031384930804696,-4.16728910814967,-7.014931778575089
2.6718288057406454,3.052248939005632,-3.9465832496155917,-7.104366048180416
2.679828293182983,3.201359384930802,-3.725877391081501,-7.193800317785749
2.68782778062532,3.350469830855964,-3.5051715325474224,-7.283234587391077
2.6958272680676574,3.499580276781135,-3.284465674013332,-7.37266885699641
2.7038267555099944,3.648690722706297,-3.063759815479253,-7.462103126601738
2.711826242952332,3.7978011686314668,-2.8430539569451625,-7.55153739620707
2.719825730394669,3.946911614556629,-2.6223480984110843,-7.6409716658123985
2.7278252178370064,4.979171963095613,-2.252138646847822,-8.917381599179597
2.7358247052793434,1.752746390974472,0.43154644279347754,-12.910012295751406
2.743824192721681,1.8656182797212995,0.7145173227592386,-12.89691423389527
2.751823680164018,1.9784901684681206,0.9974882027249841,-12.883816172039136
2.7598231676063554,2.091362057214948,1.2804590826907454,-12.870718110183
2.7678226550486924,2.2042339459617692,1.5634299626564907,-12.857620048326867
2.77582214249103,2.317105834708596,1.8464008426222518,-12.844521986470731
2.7838216299333673,2.4299777234554236,2.129371722588013,-12.831423924614596
2.7918211173757044,2.542849612202245,2.412342602553758,-12.818325862758462
2.799820604818042,2.6557215009490722,2.6953134825195195,-12.805227800902326
2.807820092260379,2.7685933896958934,2.978284362485265,-12.792129739046192
2.8158195797027163,2.881465278442721,3.261255242451026,-12.779031677190057
2.8238190671450534,2.994337167189542,3.5442261224167715,-12.765933615333923
2.831818554587391,2.717182284143339,2.9140624388425724,-12.770818554587391
2.839818042029728,2.1652652485904476,-0.6642988211169871,-12.59611173757053
2.8478175294720653,2.339133037188905,-1.0011604305484398,-11.873891090988476
2.8558170169144024,2.3592798944510873,-0.8918341021698337,-11.901938676588768
2.86381650435674,2.379426751713271,-0.7825077737912216,-11.929986262189063
2.871815991799077,2.399573608975453,-0.6731814454126155,-11.958033847789356
2.8798154792414143,2.4197204662376364,-0.5638551170340033,-11.98608143338965
2.8878149666837514,2.4398673234998185,-0.45452878865539714,-12.014129018989943
2.895814454126089,2.460014180762002,-0.34520246027678503,-12.042176604590237
2.903813941568426,2.480161038024184,-0.2358761318981789,-12.07022419019053
2.9118134290107633,2.500307895286367,-0.1265498035195668,-12.098271775790824
2.9198129164531004,2.5204547525485492,-0.017223475140960565,-12.126319361391118
2.927812403895438,2.671518452075584,-0.6245771399280673,-11.632585853408594
2.9358118913377753,3.591961423291699,-1.2174340823869,-11.344
2.9438113787801123,3.580172704955624,-1.2191181850063395,-11.344
2.95181086622245,3.5683839866195473,-1.220802287625779,-11.344
2.959810353664787,3.5565952682834716,-1.2224863902452183,-11.344
2.9678098411071243,3.5448065499473955,-1.2241704928646577,-11.344
2.9758093285494613,3.53301783161132,-1.2258545954840971,-11.344
2.983808815991799,3.521229113275244,-1.2275386981035366,-11.344
2.991808303434136,3.509440394939168,-1.229222800722976,-11.344
2.9998077908764733,3.497651676603092,-1.2309069033424154,-11.344
3.0078072783188103,3.4858629582670164,-1.2325910059618548,-11.344
3.015806765761148,3.4740742399309403,-1.2342751085812942,-11.344
3.023806253203485,3.4622855215948647,-1.2359592112007336,-11.344
3.0318057406458223,3.442897488467448,-1.1789994874423435,-10.294255253716067
3.0398052280881593,3.471583495643223,-0.5109139928241991,-10.100245421151566
3.047804715530497,3.8747576627370317,-0.44051850333162945,-9.884125935417748
3.055804202972834,4.277931829830817,-0.37012301383906365,-9.668006449683944
3.0638036904151713,4.681105996924625,-0.29972752434649397,-9.451886963950127
3.0718031778575083,5.084280164018411,-0.22933203485392817,-9.23576747821632
3.079802665299846,5.48745433111222,-0.15893654536135848,-9.019647992482504
3.0878021527421833,5.890628498206028,-0.0885410558687888,-8.803528506748686
3.0958016401845203,6.293802665299814,-0.018145566376223055,-8.587409021014881
3.103801127626858,6.34822224500254,0.029262532034800073,-7.020660174269659
3.111800615069195,5.924038972526005,0.5723664651211327,-6.31189641799304
3.1198001025115323,5.878448973297108,0.5505625524464429,-6.345876541641907
3.1277995899538693,5.832858974068214,0.5287586397717544,-6.379856665290772
3.135799077396207,5.787268974839318,0.5069547270970647,-6.41383678893964
3.143798564838544,5.741678975610423,0.48515081442237606,-6.447816912588505
3.1517980522808813,5.696088976381526,0.46334690174768633,-6.481797036237372
3.1597975397232183,5.650498977152632,0.4415429890729978,-6.5157771598862375
3.167797027165556,5.604908977923736,0.4197390763983081,-6.549757283535104
3.175796514607893,5.559318978694841,0.39793516372361953,-6.583737407183969
3.1837960020502303,5.513728979465944,0.3761312510489298,-6.617717530832837
3.1917954894925673,5.46813898023705,0.35432733837424124,-6.651697654481702
3.1997949769349048,5.422548981008154,0.3325234256995515,-6.685677778130569
3.207794464377242,5.376958981779259,0.310719513024863,-6.719657901779435
3.2157939518195793,5.331368982550362,0.2889156003501732,-6.753638025428302
3.2237934392619167,5.676209123526314,0.06396104561767751,-6.708262429523337
3.2317929267042538,6.430945435906997,1.1780504170355546,-5.538698103536649
3.2397924141465912,6.3624245737746525,1.1347400607820912,-5.503144826015149
3.2477919015889283,6.293903711642311,1.0914297045286303,-5.467591548493651
3.2557913890312657,6.225382849509966,1.0481193482751667,-5.432038270972152
3.2637908764736028,6.156861987377624,1.0048089920217058,-5.396484993450654
3.2717903639159402,6.088341125245279,0.9614986357682425,-5.360931715929154
3.2797898513582773,6.019820263112938,0.9181882795147815,-5.325378438407657
3.2877893388006147,5.951299400980592,0.8748779232613181,-5.289825160886156
3.2957888262429518,5.882778538848251,0.8315675670078571,-5.254271883364659
3.3037883136852892,5.814257676715906,0.7882572107543937,-5.218718605843159
3.3117878011276263,5.745736814583565,0.7449468545009328,-5.183165328321661
3.3197872885699637,5.67721595245122,0.7016364982474693,-5.147612050800161
3.3277867760123008,5.016496155817693,-0.010974884674342933,-5.209338800615045
3.3357862634546382,3.966577253829926,-1.397166125633613,-4.149068853579343
3.3437857508969753,4.282645890996043,-0.8112481120793266,-4.458382368016375
3.3517852383393127,4.598714528162177,-0.22533009852500752,-4.767695882453424
3.3597847257816498,4.914783165328294,0.3605879150292788,-5.077009396890457
3.3677842132239872,5.230851802494429,0.9465059285835977,-5.386322911327506
3.3757837006663247,5.546920439660563,1.5324239421379167,-5.695636425764555
3.3837831881086617,5.86298907682668,2.118341955692203,-6.004949940201588
3.391782675550999,6.179057713992814,2.704259969246522,-6.3142634546386365
3.3997821629933362,6.495126351158931,3.290177982800808,-6.623576969075669
3.4077816504356737,6.811194988325065,3.876095996355127,-6.932890483512718
3.4157811378780107,7.1272636254911825,4.462014009909414,-7.24220399794975
3.423780625320348,7.443332262657316,5.047932023463732,-7.5515175123868
3.4317801127626852,4.931138903126801,5.750622245002768,-8.419405433111322
3.4397796002050227,3.7886799931659096,3.8862932968848507,-7.302719972663638
3.4477790876473597,4.766621609171531,4.753264174814596,-7.060159424897329
3.455778575089697,4.912333791823728,4.872041374433101,-7.003049160119123
3.4637780625320342,5.058045974475917,4.990818574051598,-6.94593889534092
3.4717775499743717,5.203758157128115,5.109595773670103,-6.888828630562712
3.4797770374167087,5.349470339780304,5.2283729732886,-6.831718365784509
3.487776524859046,5.4951825224325015,5.347150172907105,-6.774608101006303
3.4957760123013832,5.6408947050846905,5.465927372525602,-6.717497836228099
3.5037754997437207,5.786606887736888,5.584704572144107,-6.660387571449893
3.511774987186058,5.932319070389085,5.703481771762611,-6.603277306671686
3.519774474628395,6.078031253041275,5.822258971381109,-6.546167041893482
3.5277739620707327,5.856472065607997,8.826849308047578,-5.93456586365937
3.5357734495130697,5.479793204794038,12.294128951874104,-7.553077974197637
3.543772936955407,5.636974622942946,12.32450998396894,-7.452658876517231
3.551772424397744,5.794156041091844,12.354891016063773,-7.35223977883683
3.5597719118400817,5.951337459240752,12.385272048158606,-7.251820681156423
3.5677713992824187,6.108518877389651,12.41565308025344,-7.151401583476022
3.575770886724756,6.265700295538559,12.446034112348276,-7.050982485795615
3.583770374167093,6.422881713687458,12.47641514444311,-6.950563388115214
3.5917698616094307,6.580063131836365,12.506796176537943,-6.850144290434807
3.5997693490517677,6.737244549985265,12.537177208632777,-6.749725192754406
3.607768836494105,6.894425968134172,12.567558240727612,-6.6493060950739995
3.615768323936442,7.051607386283071,12.597939272822444,-6.548886997393598
3.6237678113787797,7.208788804431979,12.62832030491728,-6.448467899713191
3.6317672988211167,0.4660046130193649,0.3929067145066325,-5.892904151717428
3.639766786263454,4.408353808764164,8.446995392740105,-7.558527508221077
3.647766273705791,4.2998663779450546,8.614804865266432,-7.619826951318537
3.6557657611481287,4.191378947125939,8.782614337792769,-7.681126394415998
3.663765248590466,4.082891516306823,8.950423810319107,-7.74242583751346
3.671764736032803,3.9744040854877136,9.118233282845434,-7.803725280610919
3.6797642234751406,3.865916654668598,9.28604275537177,-7.865024723708381
3.6877637109174777,3.7574292238494884,9.453852227898098,-7.92632416680584
3.695763198359815,3.6489417930303727,9.621661700424436,-7.987623609903302
3.703762685802152,3.540454362211263,9.789471172950764,-8.048923053000761
3.7117621732444896,3.431966931392148,9.9572806454771,-8.110222496098224
3.7197616606868267,3.3234795005730384,10.125090118003428,-8.171521939195681
3.727761148129164,5.0702716555620135,9.4195781650457,-9.053759097898125
3.735760635571501,4.417197153797413,-1.66385147887967,-2.1698367051587057
3.7437601230138386,5.010688538306126,-0.6755618611873606,-2.7576813926492987
3.7517596104561757,5.604179922814806,0.31272775650489404,-3.3455260801398587
3.759759097898513,6.19767130732352,1.3010173741972033,-3.9333707676304517
3.76775858534085,6.7911626918322,2.2893069918894575,-4.521215455121012
3.7757580727831876,7.384654076340913,3.2775966095817672,-5.109060142611605
3.7837575602255247,7.9781454608495945,4.265886227274022,-5.696904830102165
3.791757047667862,8.571636845358308,5.254175844966331,-6.284749517592758
3.799756535110199,9.02116627370587,6.131145771399298,-6.851346694003045
3.8077560225525366,8.092425781650512,5.942357867760139,-7.214523423885158
3.815755509994874,9.217283721826968,-0.3837191842339088,-1.7237207595258062
3.823754997437211,9.086429720820666,-0.5054728509021394,-1.891049487677443
3.8317544848795486,8.955575719814357,-0.6272265175703767,-2.058378215829089
3.8397539723218856,8.824721718808055,-0.7489801842386072,-2.225706943980726
3.847753459764223,8.693867717801746,-0.8707338509068446,-2.3930356721323722
3.85575294720656,8.563013716795444,-0.9924875175750751,-2.5603644002840094
3.8637524346488976,8.432159715789135,-1.1142411842433124,-2.7276931284356554
3.8717519220912346,8.301305714782833,-1.235994850911543,-2.8950218565872925
3.879751409533572,8.170451713776522,-1.3577485175797803,-3.0623505847389385
3.887750896975909,8.03959771277022,-1.479502184248011,-3.2296793128905756
3.8957503844182466,7.908743711763912,-1.6012558509162482,-3.3970080410422216
3.9037498718605836,7.777889710757609,-1.7230095175844788,-3.564336769193859
3.911749359302921,7.6470357097513,-1.8447631842527161,-3.731665497345505
3.919748846745258,7.516181708744998,-1.9665168509209467,-3.898994225497142
3.9277483341875956,8.309785494618325,-3.7652826755509063,-4.552146847770722
3.9357478216299326,8.067455893890116,-3.800713762696264,-4.376839653134446
3.94374730907227,7.920281650435682,-3.783898513582779,-4.394226294208098
3.9517467965146076,7.773107406981249,-3.7670832644692944,-4.41161293528175
3.9597462839569446,7.625933163526824,-3.75026801535581,-4.428999576355401
3.967745771399282,7.47875892007239,-3.7334527662423254,-4.446386217429052
3.975745258841619,7.331584676617965,-3.7166375171288415,-4.463772858502703
3.9837447462839566,7.1844104331635315,-3.6998222680153563,-4.481159499576355
3.9917442337262936,7.037236189709105,-3.6830070189018724,-4.4985461406500065
3.999743721168631,6.890061946254672,-3.6661917697883877,-4.515932781723658
4.007743208610968,6.742887702800247,-3.6493765206749034,-4.533319422797309
4.015742696053305,6.595713459345822,-3.6325612715614195,-4.55070606387096
4.023742183495643,6.44853921589138,-3.615746022447934,-4.568092704944613
4.03174167093798,7.502127370579351,-4.149536135314971,-5.004783956945474
4.039741158380317,7.095312775355773,-5.223081122328513,-3.885136605255729
4.047740645822654,7.028350773731716,-5.18272415759133,-3.9191119564153176
4.055740133264992,6.961388772107651,-5.142367192854142,-3.95308730757491
4.063739620707329,6.8944267704835935,-5.102010228116957,-3.9870626587344993
4.071739108149666,6.827464768859536,-5.061653263379774,-4.021038009894088
4.079738595592003,6.7605027672354785,-5.02129629864259,-4.0550133610536765
4.087738083034341,6.693540765611413,-4.980939333905402,-4.088988712213269
4.095737570476678,6.6265787639873555,-4.940582369168219,-4.122964063372859
4.103737057919015,6.559616762363298,-4.900225404431035,-4.156939414532448
4.111736545361353,6.492654760739233,-4.859868439693847,-4.19091476569204
4.11973603280369,6.425692759115176,-4.819511474956664,-4.224890116851629
4.127735520246027,6.772090356593631,-4.767582192282351,-4.803861682653499
4.135735007688364,6.86663147104089,-5.378679138903224,-4.153366991286296
4.143734495130702,6.790176482922509,-5.240277608219565,-4.346718733982568
4.151733982573039,6.836900761847068,-5.127830267694896,-4.475710468990253
4.159733470015376,6.883625040771628,-5.0153829271702275,-4.604702203997937
4.167732957457713,6.930349319696187,-4.902935586645558,-4.733693939005621
4.175732444900051,6.977073598620752,-4.790488246120876,-4.862685674013321
4.183731932342388,7.023797877545311,-4.678040905596207,-4.991677409021005
4.191731419784725,7.07052215646987,-4.565593565071538,-5.120669144028689
4.199730907227062,7.1172464353944305,-4.4531462245468685,-5.249660879036374
4.2077303946694,7.163970714318995,-4.340698884022187,-5.378652614044072
4.215729882111737,7.210694993243554,-4.228251543497517,-5.507644349051757
4.223729369554074,7.2574192721681134,-4.115804202972848,-5.636636084059441
4.231728856996411,7.158924910302443,-5.070905945668847,-3.9271719630959137
4.239728344438749,7.379167708867247,-4.309834056609147,-4.736574189874139
4.247727831881086,7.409565761148128,-4.217217768665645,-4.7399517512386815
4.255727319323423,7.439963813429009,-4.124601480722143,-4.743329312603223
4.263726806765761,7.470361865709893,-4.03198519277863,-4.746706873967766
4.271726294208098,7.500759917990774,-3.939368904835128,-4.750084435332308
4.279725781650435,7.5311579702716545,-3.846752616891626,-4.75346199669685
4.287725269092772,7.561556022552535,-3.7541363289481238,-4.756839558061393
4.29572475653511,7.591954074833419,-3.6615200410046116,-4.760217119425936
4.303724243977447,7.6223521271143,-3.568903753061109,-4.763594680790478
4.311723731419784,7.652750179395181,-3.4762874651176072,-4.76697224215502
4.319723218862121,7.6831482316760615,-3.3836711771741053,-4.770349803519562
4.327722706304459,7.6406758072783365,-3.6899953869809337,-4.864303434136316
4.335722193746796,7.293016423201782,-2.832391140227218,-6.815713394840263
4.343721681189133,7.231353707500435,-3.0127962476507566,-6.694387835298152
4.35172116863147,7.1696909917990865,-3.1932013550742946,-6.57306227575604
4.359720656073808,7.108028276097731,-3.3736064624978526,-6.451736716213915
4.367720143516145,7.046365560396384,-3.5540115699213906,-6.330411156671804
4.375719630958482,6.984702844695036,-3.7344166773449285,-6.209085597129692
4.383719118400819,6.923040128993688,-3.9148217847684665,-6.08776003758758
4.391718605843157,6.861377413292333,-4.0952268921920245,-5.966434478045456
4.399718093285494,6.799714697590986,-4.2756319996155625,-5.845108918503344
4.407717580727831,6.738051981889638,-4.4560371070391005,-5.723783358961233
4.415717068170169,6.676389266188282,-4.636442214462659,-5.602457799419108
4.423716555612506,6.614726550486935,-4.816847321886197,-5.481132239876996
4.431716043054843,6.19044746284002,-4.307871860584538,-5.6008841619684375
4.43971553049718,5.998286053771958,-4.999449979031731,-5.9009660314058126
4.447715017939518,6.0004677321653235,-5.022266698895671,-5.797427210987371
4.455714505381855,6.002649410558687,-5.04508341875961,-5.69388839056894
4.463713992824192,6.004831088952052,-5.067900138623549,-5.59034957015051
4.471713480266529,6.007012767345417,-5.090716858487487,-5.48681074973208
4.479712967708867,6.009194445738782,-5.113533578351428,-5.383271929313638
4.487712455151204,6.011376124132147,-5.136350298215367,-5.279733108895208
4.495711942593541,6.013557802525511,-5.159167018079305,-5.176194288476777
4.503711430035878,6.015739480918876,-5.181983737943244,-5.072655468058347
4.511710917478216,6.017921159312241,-5.204800457807185,-4.969116647639906
4.519710404920553,6.020102837705605,-5.2276171776711235,-4.865577827221475
4.52770989236289,5.858845134363361,-4.831276415025338,-5.652613897634757
4.535709379805228,6.172524396091334,-4.797583373290784,-5.6474187596104555
4.543708867247565,6.1740726839833995,-4.8081633405532305,-5.6634177344951295
4.551708354689902,6.175620971875465,-4.818743307815676,-5.679416709379804
4.559707842132239,6.17716925976753,-4.829323275078122,-5.695415684264478
4.567707329574577,6.178717547659596,-4.839903242340569,-5.7114146591491535
4.575706817016914,6.180265835551661,-4.850483209603015,-5.7274136340338275
4.583706304459251,6.181814123443726,-4.861063176865461,-5.743412608918502
4.591705791901588,6.183362411335791,-4.871643144127906,-5.759411583803176
4.599705279343926,6.184910699227856,-4.882223111390353,-5.7754105586878515
4.607704766786263,6.186458987119922,-4.892803078652799,-5.7914095335725255
4.6157042542286,6.188007275011987,-4.903383045915245,-5.8074085084572
4.623703741670937,6.189555562904053,-4.91396301317769,-5.823407483341874
4.631703229113275,5.91872475653526,-4.764407483341729,-5.958490005125622
4.639702716555612,5.5517093291127075,-5.02183486068008,-5.8946190739040505
4.647702203997949,5.605068547546758,-4.8461977627703074,-5.966966086706725
4.655701691440286,5.658427765980808,-4.670560664860535,-6.039313099509399
4.663701178882624,5.711786984414864,-4.494923566950742,-6.111660112312081
4.671700666324961,5.765146202848914,-4.319286469040969,-6.184007125114755
4.679700153767298,5.818505421282965,-4.143649371131196,-6.25635413791743
4.687699641209636,5.871864639717021,-3.9680122732214036,-6.3287011507201125
4.695699128651973,5.925223858151071,-3.7923751753116304,-6.401048163522787
4.70369861609431,5.978583076585121,-3.616738077401857,-6.473395176325461
4.711698103536647,6.031942295019172,-3.4411009794920844,-6.545742189128135
4.719697590978985,6.085301513453228,-3.265463881582292,-6.618089201930818
4.727697078421322,7.02352178370065,-3.714074064582156,-5.446802409021205
4.735696565863659,6.794361799573417,-3.668685691925286,-5.528705290366669
4.743696053305996,6.83074656503695,-3.6919960263002682,-5.563971847908155
4.751695540748334,6.867131330500487,-3.7153063606752528,-5.599238405449644
4.759695028190671,6.90351609596402,-3.738616695050235,-5.63450496299113
4.767694515633008,6.939900861427553,-3.761927029425217,-5.669771520532616
4.775694003075345,6.976285626891086,-3.7852373638001993,-5.705038078074102
4.783693490517683,7.0126703923546225,-3.808547698175184,-5.740304635615592
4.79169297796002,7.049055157818156,-3.831858032550166,-5.775571193157078
4.799692465402357,7.0854399232816885,-3.855168366925148,-5.810837750698564
4.807691952844694,7.121824688745221,-3.8784787013001303,-5.84610430824005
4.815691440287032,7.158209454208758,-3.901789035675115,-5.881370865781539
4.823690927729369,7.194594219672291,-3.925099370050097,-5.916637423323025
4.831690415171706,5.778617544739721,-3.6553585395378354,-5.834746861947496
4.839689902614044,5.942436835447173,-3.5718745269747134,-5.880871566136295
4.847689390056381,6.106256126154606,-3.4883905144116008,-5.926996270325089
4.855688877498718,6.2700754168620385,-3.404906501848488,-5.973120974513884
4.863688364941055,6.433894707569472,-3.3214224892853754,-6.019245678702678
4.871687852383393,6.597713998276924,-3.2379384767222534,-6.0653703828914765
4.87968733982573,6.7615332889843565,-3.1544544641591408,-6.111495087080271
4.887686827268067,6.92535257969179,-3.070970451596028,-6.157619791269065
4.895686314710404,7.089171870399223,-2.987486439032915,-6.203744495457859
4.903685802152742,7.252991161106675,-2.904002426469793,-6.249869199646659
4.911685289595079,7.416810451814108,-2.8205184139066803,-6.295993903835453
4.919684777037416,7.580629742521541,-2.7370344013435677,-6.342118608024247
4.927684264479753,6.874001025115309,-2.280222962583933,-4.987838544336294
4.935683751922091,7.033675038441822,-1.4302998462327134,-5.4280251153254655
4.943683239364428,6.978825122477448,-1.2709049980332074,-5.544927884328849
4.951682726806765,6.836415642544681,-1.3073677780029296,-5.513860107517912
4.959682214249102,6.694006162611914,-1.3438305579726517,-5.4827923307069755
4.96768170169144,6.551596682679132,-1.3802933379423779,-5.451724553896035
4.975681189133777,6.409187202746365,-1.4167561179121,-5.420656777085099
4.983680676576114,6.266777722813599,-1.4532188978818221,-5.389589000274162
4.991680164018452,6.1243682428808155,-1.4896816778515483,-5.358521223463222
4.999679651460789,5.981958762948048,-1.5261444578212704,-5.327453446652285
5.007679138903126,5.839549283015282,-1.5626072377909925,-5.296385669841348
5.015678626345463,5.697139803082515,-1.5990700177607147,-5.265317893030411
5.023678113787801,5.554730323149732,-1.6355327977304408,-5.234250116219471
5.031677601230138,5.115868643467051,6.854050143407102,-9.183171603214944
5.039677088672475,5.315515425804528,6.735079042934897,-9.093390121814247
5.047676576114812,5.515162208142004,6.616107942462692,-9.00360864041355
5.05567606355715,5.7148089904795025,6.497136841990475,-8.913827159012842
5.063675550999487,5.9144557728169795,6.37816574151827,-8.824045677612142
5.071675038441824,6.114102555154456,6.259194641046066,-8.734264196211445
5.079674525884161,6.313749337491933,6.140223540573861,-8.644482714810747
5.087674013326499,6.513396119829431,6.021252440101644,-8.55470123341004
5.095673500768836,6.713042902166907,5.902281339629439,-8.46491975200934
5.103672988211173,6.912689684504384,5.783310239157235,-8.375138270608643
5.11167247565351,7.11233646684186,5.66433913868503,-8.285356789207945
5.119671963095848,7.311983249179359,5.545368038212811,-8.195575307807237
5.127671450538185,5.601146420638962,2.358216641038784,-6.709905347684935
5.135670937980522,6.910805676576138,3.9629253587903315,-6.427312275756028
5.14367042542286,6.646186268114256,4.319720679371881,-6.359498439028937
5.151669912865197,6.381566859652403,4.67651599995339,-6.291684602301853
5.159669400307534,6.11694745119055,5.0333113205348985,-6.223870765574768
5.167668887749871,5.852328042728697,5.390106641116407,-6.156056928847684
5.175668375192209,5.587708634266814,5.746901961697956,-6.088243092120592
5.183667862634546,5.323089225804962,6.103697282279466,-6.020429255393508
5.191667350076883,5.058469817343109,6.460492602860975,-5.952615418666424
5.19966683751922,4.793850408881256,6.817287923442484,-5.88480158193934
5.207666324961558,4.529231000419374,7.1740832440240325,-5.816987745212248
5.215665812403895,4.264611591957521,7.530878564605542,-5.749173908485163
5.223665299846232,3.071951819581048,7.504060481804704,-5.7741542798563605
5.231664787288569,3.417701995929989,6.7764935169067915,-6.994342089103827
5.239664274730907,3.407801640184521,6.7689692465402365,-7.055407483341872
5.247663762173244,3.3979012844390546,6.7614449761736815,-7.11647287757991
5.255663249615581,3.388000928693588,6.753920705807127,-7.177538271817948
5.263662737057918,3.3781005729481213,6.746396435440572,-7.238603666055987
5.271662224500256,3.3682002172026535,6.738872165074017,-7.299669060294032
5.279661711942593,3.358299861457187,6.731347894707462,-7.36073445453207
5.28766119938493,3.3483995057117206,6.723823624340907,-7.421799848770108
5.295660686827268,3.338499149966253,6.716299353974352,-7.482865243008153
5.303660174269605,3.328598794220786,6.708775083607797,-7.5439306372461905
5.311659661711942,3.3186984384753195,6.701250813241243,-7.604996031484228
5.319659149154279,3.3087980827298527,6.693726542874688,-7.666061425722267
5.327658636596617,3.2988977269843853,6.686202272508133,-7.727126819960311
5.335658124038954,4.9973470015376735,8.236328036904165,-7.9660084572014425
5.343657611481291,4.984547821629935,7.929147719118444,-7.802018964633544
5.351657098923628,4.929441312147604,6.017361609431092,-7.038615325474114
5.359656586365966,5.010666876946727,5.804349616896018,-7.049383866261876
5.367656073808303,5.091892441745842,5.591337624360968,-7.060152407049638
5.37565556125064,5.173118006544956,5.378325631825917,-7.0709209478374
5.383655048692977,5.25434357134407,5.165313639290867,-7.081689488625161
5.391654536135315,5.335569136143193,4.952301646755792,-7.092458029412923
5.399654023577652,5.416794700942307,4.739289654220742,-7.103226570200684
5.407653511019989,5.498020265741421,4.5262776616856915,-7.113995110988446
5.415652998462327,5.579245830540545,4.313265669150617,-7.124763651776209
5.423652485904664,5.660471395339659,4.100253676615566,-7.13553219256397
5.431651973347001,8.314527421834322,0.7322086109669177,-6.294593029216593
5.439651460789338,7.66820027486608,2.024965821979133,-5.418571608811486
5.447650948231676,7.720856241656853,2.1296624103728083,-5.416549760337049
5.455650435674013,7.773512208447621,2.234358998766472,-5.414527911862613
5.46364992311635,7.826168175238389,2.3390555871601353,-5.412506063388175
5.471649410558687,7.878824142029157,2.443752175553799,-5.410484214913739
5.479648898001025,7.9314801088199305,2.548448763947474,-5.408462366439301
5.487648385443362,7.9841360756106985,2.6531453523411375,-5.406440517964865
5.495647872885699,8.036792042401466,2.757841940734801,-5.404418669490428
5.503647360328036,8.089448009192234,2.8625385291284644,-5.402396821015992
5.511646847770374,8.142103975983007,2.9672351175221396,-5.400374972541554
5.519646335212711,8.194759942773775,3.0719317059158033,-5.398353124067118
5.527645822655048,7.5358270117890305,2.8245058944134156,-6.208149923116035
5.535645310097385,8.460953152229623,3.1923059969246816,-4.347372629420815
5.543644797539723,8.479815101567347,2.939690604008749,-4.299796730421647
5.55164428498206,8.498677050905068,2.6870752110928446,-4.252220831422486
5.559643772424397,8.517539000242788,2.43445981817694,-4.2046449324233235
5.567643259866735,8.53640094958051,2.1818444252610076,-4.157069033424157
5.575642747309072,8.555262898918231,1.9292290323451031,-4.109493134424994
5.583642234751409,8.574124848255952,1.6766136394291988,-4.061917235425833
5.591641722193746,8.592986797593673,1.4239982465132943,-4.0143413364266705
5.599641209636084,8.611848746931397,1.1713828535973616,-3.966765437427503
5.607640697078421,8.630710696269118,0.9187674606814573,-3.9191895384283413
5.615640184520758,8.649572645606838,0.666152067765553,-3.8716136394291794
5.623639671963095,8.668434594944559,0.4135366748496483,-3.8240377404300174
5.631639159405433,7.693876217324446,-0.7841542798560968,-3.429301640184618
5.63963864684777,7.659584501608084,-1.7465434800975501,-3.1427325519175913
5.647638134290107,7.610884325310779,-1.8026277986493195,-3.0737259844205083
5.655637621732444,7.562184149013475,-1.858712117201089,-3.0047194169234253
5.663637109174782,7.513483972716164,-1.9147964357528646,-2.9357128494263343
5.671636596617119,7.46478379641886,-1.970880754304634,-2.8667062819292513
5.679636084059456,7.416083620121555,-2.0269650728564033,-2.7976997144321682
5.687635571501793,7.367383443824251,-2.0830493914081725,-2.7286931469350852
5.695635058944131,7.318683267526941,-2.1391337099599483,-2.6596865794379947
5.703634546386468,7.269983091229637,-2.1952180285117175,-2.5906800119409117
5.711634033828805,7.221282914932333,-2.251302347063487,-2.5216734444438287
5.719633521271143,7.172582738635023,-2.3073866656152626,-2.452666876946738
5.72763300871348,6.065654741158373,-2.4807398769861897,-1.7958881599179926
5.735632496155817,6.420921066119542,-1.8395181957972193,-1.893242952331917
5.743631983598154,7.345972687998776,-2.3650998022990897,-2.125838983671384
5.751631471040492,7.325566566053497,-2.5086223589042627,-2.232195986863334
5.759630958482829,7.2800386190051345,-2.6140970822180396,-2.3466577886617115
5.767630445925166,7.234510671956772,-2.719571805531816,-2.461119590460089
5.775629933367503,7.18898272490841,-2.8250465288455926,-2.5755813922584663
5.783629420809841,7.143454777860042,-2.930521252159381,-2.6900431940568565
5.791628908252178,7.09792683081168,-3.0359959754731576,-2.8045049958552335
5.799628395694515,7.052398883763318,-3.141470698786934,-2.918966797653611
5.807627883136852,7.0068709367149555,-3.2469454221007106,-3.0334285994519883
5.81562737057919,6.961342989666588,-3.3524201454144986,-3.1478904012503786
5.823626858021527,6.915815042618226,-3.4578948687282756,-3.262352203048756
5.831626345463864,5.509651717068273,-4.871003075345734,-2.904804202972559
5.839625832906201,6.617120376182775,-5.324103951301263,-4.294556459090382
5.847625320348539,6.586201008989918,-5.324283715064012,-4.4995770305058045
5.855624807790876,6.555281641797065,-5.324463478826761,-4.704597601921206
5.863624295233213,6.524362274604212,-5.32464324258951,-4.909618173336606
5.871623782675551,6.493442907411356,-5.3248230063522595,-5.11463874475203
5.879623270117888,6.462523540218502,-5.325002770115009,-5.3196593161674315
5.887622757560225,6.431604173025649,-5.325182533877758,-5.524679887582832
5.895622245002562,6.400684805832796,-5.325362297640507,-5.7297004589982325
5.9036217324449,6.36976543863994,-5.325542061403256,-5.934721030413656
5.911621219887237,6.338846071447087,-5.325721825166005,-6.139741601829057
5.919620707329574,6.307926704254234,-5.325901588928754,-6.344762173244458
5.927620194771911,5.25579805228089,-5.005558175294537,-8.496651973346799
5.935619682214249,5.403183953673513,-5.253606355715021,-9.314475042804014
5.943619169656586,5.346506734135253,-5.093616606868282,-9.46603979955723
5.951618657098923,5.289829514596993,-4.933626858021542,-9.617604556310443
5.95961814454126,5.233152295058733,-4.7736371091748016,-9.769169313063658
5.967617631983598,5.176475075520466,-4.613647360328044,-9.920734069816891
5.975617119425935,5.119797855982206,-4.4536576114813045,-10.072298826570105
5.983616606868272,5.063120636443947,-4.293667862634564,-10.22386358332332
5.991616094310609,5.006443416905687,-4.133678113787824,-10.375428340076535
5.999615581752947,4.9497661973674205,-3.9736883649410664,-10.526993096829766
6.007615069195284,4.89308897782916,-3.8136986160943263,-10.678557853582982
6.015614556637621,4.8364117582909,-3.6537088672475866,-10.830122610336197
6.023614044079959,4.779734538752634,-3.4937191184008287,-10.981687367089428
6.031613531522296,1.467334645040047,-5.722601632468617,-12.024530877465633
6.039613018964633,1.4045429694174016,-5.5570208440116415,-12.185810866222429
6.04761250640697,1.341751293794756,-5.391440055554665,-12.347090854979223
6.055611993849308,1.2789596181721035,-5.22585926709767,-12.508370843736037
6.063611481291645,1.216167942549458,-5.0602784786406945,-12.669650832492831
6.071610968733982,1.1533762669268126,-4.894697690183718,-12.830930821249627
6.079610456176319,1.0905845913041672,-4.729116901726742,-12.992210810006421
6.087609943618657,1.0277929156815147,-4.563536113269747,-13.153490798763233
6.095609431060994,0.9650012400588691,-4.397955324812771,-13.314770787520029
6.103608918503331,0.9022095644362236,-4.232374536355795,-13.476050776276825
6.111608405945668,0.839417888813578,-4.066793747898819,-13.637330765033619
6.119607893388006,0.7766262131909256,-3.901212959441824,-13.798610753790431
6.127607380830343,0.9181694003075012,-3.659605433111259,-13.943482521783686
6.13560686827268,-1.305951050742453,-5.333947462838953,-11.654188621220861
6.143606355715017,-1.492593308792705,-5.381069707842161,-11.327295233213738
6.151605843157355,-1.426961150458978,-5.217080215274233,-11.321295617631984
6.159605330599692,-1.3613289921252585,-5.053090722706325,-11.315296002050232
6.167604818042029,-1.2956968337915389,-4.889101230138416,-11.309296386468478
6.175604305484367,-1.230064675457812,-4.725111737570488,-11.303296770886725
6.183603792926704,-1.1644325171240923,-4.56112224500258,-11.297297155304973
6.191603280369041,-1.0988003587903727,-4.397132752434671,-11.29129753972322
6.199602767811378,-1.033168200456653,-4.233143259866762,-11.285297924141467
6.207602255253716,-0.9675360421229261,-4.069153767298835,-11.279298308559714
6.215601742696053,-0.9019038837892065,-3.905164274730926,-11.27329869297796
6.22360123013839,-0.8362717254554869,-3.741174782163017,-11.267299077396208
6.231600717580727,-0.37843321373662514,-3.9573518195797166,-10.845556842644804
6.239600205023065,-0.22025771399282434,-3.9919756022552484,-10.779495745771404
6.247599692465402,-0.2177689845663195,-4.080503263283778,-10.700211936898464
6.255599179907739,-0.21528025513981464,-4.169030924312308,-10.620928128025524
6.263598667350076,-0.21279152571330978,-4.257558585340838,-10.541644319152583
6.271598154792414,-0.21030279628680465,-4.346086246369378,-10.462360510279634
6.279597642234751,-0.2078140668602998,-4.434613907397908,-10.383076701406694
6.287597129677088,-0.20532533743379494,-4.523141568426437,-10.303792892533753
6.2955966171194255,-0.2028366080072898,-4.611669229454977,-10.224509083660804
6.303596104561763,-0.20034787858078495,-4.700196890483507,-10.145225274787864
6.3115955920041,-0.1978591491542801,-4.788724551512037,-10.065941465914923
6.319595079446437,-0.19537041972777525,-4.877252212540567,-9.986657657041983
6.3275945668887745,0.4233606697420175,-5.761215274218334,-8.752615240047879
6.335594054331112,0.27533373838826497,-5.595705095053533,-7.829309469646794
6.343593541773449,0.2798278324569936,-5.578268010066865,-7.860408600602396
6.351593029215786,0.28432192652572225,-5.560830925080198,-7.891507731557998
6.3595925166581235,0.2888160205944514,-5.543393840093529,-7.922606862513604
6.367592004100461,0.29331011466318,-5.525956755106861,-7.953705993469206
6.375591491542798,0.2978042087319087,-5.508519670120195,-7.984805124424808
6.383590978985135,0.30229830280063735,-5.491082585133527,-8.015904255380411
6.3915904664274725,0.3067923968693665,-5.4736455001468585,-8.047003386336016
6.3995899538698096,0.31128649093809513,-5.456208415160191,-8.078102517291619
6.407589441312147,0.31578058500682377,-5.438771330173523,-8.10920164824722
6.415588928754484,0.3202746790755524,-5.4213342451868565,-8.140300779202823
6.4235884161968215,0.32476877314428154,-5.403897160200187,-8.171399910158428
6.4315879036391586,0.5230948231674335,-5.342642747309058,-8.87158431573541
6.439587391081496,0.7661343648556403,-4.969894338373496,-9.099805174696732
6.4475868785238335,0.6425589494703579,-4.82148718071929,-9.169217393857851
6.4555863659661705,0.518983534085089,-4.6730800230651,-9.238629613018963
6.4635858534085076,0.39540811869982034,-4.52467286541091,-9.308041832180075
6.471585340850845,0.27183270331455156,-4.37626570775672,-9.377454051341186
6.4795848282931825,0.14825728792926907,-4.227858550102514,-9.446866270502305
6.4875843157355195,0.02468187254400034,-4.079451392448324,-9.516278489663417
6.4955838031778566,-0.0988935428412685,-3.9310442347941343,-9.58569070882453
6.503583290620194,-0.22246895822653734,-3.782637077139944,-9.655102927985642
6.5115827780625315,-0.3460443736118197,-3.6342299194857377,-9.72451514714676
6.5195822655048685,-0.46961978899708856,-3.485822761831548,-9.793927366307873
6.5275817529472056,-0.5931952043823572,-3.337415604177358,-9.863339585468985
6.535581240389543,0.4601933525211711,-3.6320415565981237,-9.672395655088165
6.5435807278318805,2.3917618972518566,-4.25723226747623,-9.287189567480196
6.5515802152742175,2.396287192049356,-5.199061447010182,-9.146416156882593
6.5595797027165546,2.5091111318204993,-5.310742602860991,-9.042215041237606
6.567579190158892,2.6219350715916425,-5.4224237587118,-8.938013925592617
6.5755786776012295,2.734759011362798,-5.534104914562622,-8.833812809947618
6.5835781650435665,2.847582951133941,-5.645786070413431,-8.72961169430263
6.5915776524859035,2.9604068909050842,-5.75746722626424,-8.625410578657643
6.5995771399282415,3.0732308306762395,-5.869148382115062,-8.521209463012644
6.6075766273705785,3.1860547704473827,-5.980829537965871,-8.417008347367656
6.6155761148129155,3.298878710218526,-6.09251069381668,-8.312807231722669
6.6235756022552525,3.411702649989669,-6.20419184966749,-8.20860611607768
6.6315750896975905,2.4345128139415677,-7.7580658636596525,-7.026494618144556
6.6395745771399275,2.3622306395580623,-7.974308890027904,-6.866070903810012
6.6475740645822645,2.355386633635174,-7.984797106896746,-6.864737655902956
6.6555735520246015,2.3485426277122854,-7.9952853237655885,-6.8634044079959
6.6635730394669395,2.3416986217893965,-8.005773540634431,-6.862071160088844
6.6715725269092765,2.334854615866508,-8.016261757503273,-6.860737912181787
6.6795720143516135,2.32801060994362,-8.026749974372116,-6.859404664274732
6.6875715017939505,2.3211666040207315,-8.037238191240958,-6.858071416367675
6.6955709892362885,2.314322598097842,-8.047726408109801,-6.856738168460619
6.7035704766786255,2.307478592174954,-8.058214624978643,-6.855404920553562
6.7115699641209625,2.3006345862520656,-8.068702841847484,-6.854071672646507
6.7195694515632995,2.293790580329177,-8.079191058716326,-6.85273842473945
6.7275689390056375,2.2247852383393396,-8.093492055356252,-6.580148129164586
6.7355684264479745,2.8804090986751527,-8.832459800464914,-5.124878202838236
6.7435679138903115,2.655453815448219,-8.899202998721181,-5.045691357449445
6.751567401332649,2.43049853222126,-8.965946196977455,-4.966504512060644
6.7595668887749865,2.205543248994326,-9.032689395233723,-4.887317666671853
6.7675663762173235,1.9805879657673926,-9.09943259348999,-4.808130821283062
6.7755658636596605,1.755632682540459,-9.166175791746257,-4.72894397589427
6.783565351101998,1.5306773993135,-9.232918990002531,-4.649757130505471
6.7915648385443355,1.3057221160865664,-9.299662188258798,-4.57057028511668
6.7995643259866725,1.0807668328596327,-9.366405386515066,-4.491383439727888
6.8075638134290095,0.855811549632699,-9.433148584771333,-4.412196594339097
6.815563300871347,0.6308562664057402,-9.499891783027607,-4.333009748950296
6.8235627883136845,0.4059009831788063,-9.566634981283874,-4.253822903561505
6.8315622757560215,0.19037724243978413,-9.384176319836069,-3.9961086622245645
6.8395617631983585,0.24190943328950787,-8.856877922135817,-3.776187997236634
6.847561250640696,0.2294754473737,-8.788273622222723,-3.851922275087464
6.8555607380830335,0.21704146145789346,-8.719669322309636,-3.927656552938285
6.8635602255253705,0.20460747554208694,-8.65106502239655,-4.003390830789106
6.8715597129677075,0.19217348962628045,-8.582460722483464,-4.0791251086399285
6.879559200410045,0.17973950371047254,-8.51385642257037,-4.154859386490759
6.8875586878523825,0.16730551779466601,-8.445252122657283,-4.23059366434158
6.8955581752947195,0.1548715318788595,-8.376647822744197,-4.306327942192401
6.903557662737057,0.1424375459630516,-8.308043522831102,-4.382062220043231
6.911557150179394,0.1300035600472451,-8.239439222918016,-4.457796497894053
6.9195566376217315,0.11756957413143856,-8.17083492300493,-4.533530775744874
6.9275561250640685,0.16828600717569372,-8.059173244490092,-4.608449000512549
6.935555612506406,0.6104604818042031,-7.592052998462328,-4.541567913890313
6.943555099948743,0.6087717011219319,-7.579698234523607,-4.543345577766388
6.9515545873910805,0.6070829204396607,-7.567343470584887,-4.545123241642463
6.9595540748334175,0.6053941397573895,-7.554988706646166,-4.546900905518537
6.967553562275755,0.6037053590751182,-7.542633942707444,-4.548678569394612
6.975553049718092,0.6020165783928471,-7.5302791787687235,-4.550456233270688
6.9835525371604295,0.600327797710576,-7.517924414830003,-4.552233897146762
6.9915520246027665,0.5986390170283048,-7.505569650891283,-4.554011561022837
6.999551512045104,0.5969502363460334,-7.49321488695256,-4.555789224898912
7.007550999487441,0.5952614556637623,-7.48086012301384,-4.557566888774987
7.0155504869297785,0.5935726749814911,-7.468505359075119,-4.559344552651062
7.023549974372116,0.617573808303417,-7.395402870322952,-4.568974628395689
7.031549461814453,0.7572033054516498,-7.125923149067029,-4.82583507639291
7.03954894925679,0.7634156733589966,-7.177153909070082,-4.76303058987754
7.0475484366991274,0.7696280412663435,-7.228384669073134,-4.700226103362171
7.055547924141465,0.7758404091736911,-7.279615429076192,-4.637421616846794
7.063547411583802,0.7820527770810379,-7.330846189079245,-4.574617130331424
7.071546899026139,0.7882651449883848,-7.382076949082297,-4.511812643816054
7.0795463864684764,0.7944775128957318,-7.43330770908535,-4.4490081573006846
7.087545873910814,0.8006898808030793,-7.484538469088408,-4.386203670785307
7.095545361353151,0.8069022487104262,-7.53576922909146,-4.323399184269937
7.103544848795488,0.8131146166177731,-7.586999989094513,-4.260594697754568
7.1115443362378254,0.8193269845251199,-7.6382307490975645,-4.197790211239198
7.119543823680163,0.8255393524324675,-7.689461509100623,-4.134985724723821
7.1275433111225,0.9307954894925228,-8.377513070220134,-4.850324449000173
7.135542798564837,1.0864027533260383,-8.720508028212961,-5.14923011053416
7.1435422860071744,1.1769186927550914,-8.684423383771986,-5.235920208142964
7.151541773449512,1.2674346321841545,-8.648338739331004,-5.322610305751779
7.159541260891849,1.3579505716132076,-8.612254094890028,-5.409300403360584
7.167540748334186,1.4484665110422605,-8.57616945044905,-5.495990500969389
7.175540235776524,1.5389824504713236,-8.54008480600807,-5.582680598578204
7.183539723218861,1.6294983899003768,-8.504000161567093,-5.669370696187008
7.191539210661198,1.7200143293294299,-8.467915517126116,-5.756060793795813
7.199538698103535,1.8105302687584828,-8.43183087268514,-5.842750891404618
7.207538185545873,1.9010462081875459,-8.395746228244159,-5.9294409890134325
7.21553767298821,1.991562147616599,-8.359661583803181,-6.016131086622238
7.223537160430547,2.0590794464377513,-8.407111225012684,-6.1751568426446735
7.231536647872884,2.321,-8.553,-6.189
7.239536135315222,2.3002621732445045,-8.554571047481478,-6.196698132659237
7.247535622757559,2.1922690927729533,-8.562752341456596,-6.236786473137313
7.255535110199896,2.0842760123014026,-8.570933635431713,-6.276874813615389
7.263534597642233,1.9762829318298518,-8.57911492940683,-6.3169631540934645
7.271534085084571,1.8682898513582888,-8.587296223381948,-6.357051494571544
7.279533572526908,1.7602967708867379,-8.595477517357066,-6.39713983504962
7.287533059969245,1.652303690415187,-8.603658811332183,-6.437228175527696
7.295532547411582,1.5443106099436363,-8.611840105307301,-6.4773165160057715
7.30353203485392,1.4363175294720734,-8.62002139928242,-6.517404856483852
7.311531522296257,1.3283244490005224,-8.628202693257537,-6.557493196961927
7.319531009738594,1.2203313685289716,-8.636383987232655,-6.597581537440003
7.327530497180932,1.0302652485904662,-8.680286519733473,-6.398279343926247
7.335529984623269,1.1268590466426895,-8.54431112250135,-5.886790876473657
7.343529472065606,1.1552210890966614,-8.496066149395832,-5.846671968987319
7.351528959507943,1.1543935559129714,-8.481262500220932,-5.832511956733066
7.359528446950281,1.1535660227292812,-8.466458851046031,-5.818351944478813
7.367527934392618,1.1527384895455912,-8.451655201871132,-5.804191932224561
7.375527421834955,1.1519109563619012,-8.436851552696233,-5.79003191997031
7.383526909277292,1.1510834231782112,-8.422047903521333,-5.775871907716057
7.39152639671963,1.150255889994521,-8.407244254346432,-5.761711895461804
7.399525884161967,1.149428356810831,-8.392440605171531,-5.747551883207553
7.407525371604304,1.148600823627141,-8.377636955996632,-5.733391870953301
7.415524859046641,1.147773290443451,-8.362833306821733,-5.719231858699049
7.423524346488979,1.1532921578677509,-8.339212198872389,-5.710107380830338
7.431523833931316,1.3363582778062095,-7.9808308559713925,-5.768143003587898
7.439523321373653,1.3665457817656188,-7.777475348280052,-5.907840663675786
7.44752280881599,1.357198066102663,-7.7825087336370276,-5.9148514504230025
7.455522296258328,1.3478503504397064,-7.787542118994004,-5.92186223717022
7.463521783700665,1.3385026347767506,-7.792575504350981,-5.928873023917436
7.471521271143002,1.329154919113795,-7.7976088897079565,-5.935883810664653
7.47952075858534,1.3198072034508381,-7.802642275064933,-5.942894597411871
7.487520246027677,1.3104594877878826,-7.80767566042191,-5.949905384159088
7.495519733470014,1.3011117721249268,-7.8127090457788855,-5.956916170906305
7.503519220912351,1.2917640564619712,-7.817742431135862,-5.963926957653522
7.511518708354689,1.2824163407990143,-7.822775816492839,-5.9709377444007385
7.519518195797026,1.2730686251360588,-7.827809201849814,-5.977948531147955
7.527517683239363,1.1513795489493142,-7.88767196309582,-5.977205791901591
7.5355171706817,1.1651306100588008,-7.871357984093436,-5.813585110487852
7.543516658124038,1.160546634108697,-7.873245503602302,-5.806124914333762
7.551516145566375,1.1559626581585938,-7.875133023111168,-5.798664718179673
7.559515633008712,1.1513786822084906,-7.877020542620033,-5.791204522025583
7.567515120451049,1.1467947062583874,-7.878908062128899,-5.783744325871494
7.575514607893387,1.1422107303082836,-7.8807955816377655,-5.7762841297174035
7.583514095335724,1.1376267543581804,-7.882683101146632,-5.768823933563314
7.591513582778061,1.1330427784080772,-7.884570620655498,-5.761363737409224
7.599513070220398,1.128458802457974,-7.886458140164364,-5.753903541255134
7.607512557662736,1.1238748265078704,-7.88834565967323,-5.746443345101044
7.615512045105073,1.119290850557767,-7.890233179182096,-5.7389831489469545
7.62351153254741,1.1132096360840644,-7.899758243635721,-5.734983939859893
7.631511019989748,1.043,-8.004,-5.684
7.639510507432085,1.043,-8.004,-5.684
7.647509994874422,0.9875307439679565,-8.026428517189665,-5.595353955869419
7.655509482316759,0.982494029652411,-8.02850245837842,-5.587156950218629
7.663508969759097,0.9774573153368649,-8.030576399567174,-5.578959944567838
7.671508457201434,0.9724206010213192,-8.032650340755927,-5.570762938917049
7.679507944643771,0.9673838867057737,-8.034724281944682,-5.562565933266259
7.687507432086108,0.9623471723902282,-8.036798223133435,-5.554368927615469
7.695506919528446,0.957310458074682,-8.03887216432219,-5.546171921964678
7.703506406970783,0.9522737437591364,-8.040946105510944,-5.537974916313889
7.71150589441312,0.9472370294435908,-8.043020046699697,-5.529777910663099
7.719505381855457,0.9422003151280453,-8.045093987888452,-5.521580905012309
7.727504869297795,0.888,-8.066,-5.435
7.735504356740132,0.888,-8.066,-5.435
7.743503844182469,0.888,-8.066,-5.435
7.751503331624806,0.888,-8.066,-5.435
7.759502819067144,0.888,-8.066,-5.435
7.767502306509481,0.888,-8.066,-5.435
7.775501793951818,0.888,-8.066,-5.435
7.783501281394156,0.888,-8.066,-5.435
7.791500768836493,0.888,-8.066,-5.435
7.79950025627883,0.888,-8.066,-5.435
7.807499743721167,0.888,-8.066,-5.435
7.815499231163505,0.888,-8.066,-5.435
7.823498718605842,0.888,-8.066,-5.435
7.831498206048179,0.7838321262228963,-8.1216155148976,-5.512355581307247
7.839497693490516,0.7811366467586305,-8.115441997414928,-5.502008418202485
7.847497180932854,0.7784411672943645,-8.109268479932254,-5.491661255097721
7.855496668375191,0.7757456878300988,-8.10309496244958,-5.481314091992959
7.863496155817528,0.7730502083658329,-8.096921444966908,-5.470966928888197
7.871495643259865,0.7703547289015672,-8.090747927484234,-5.460619765783435
7.879495130702203,0.7676592494373011,-8.084574410001562,-5.450272602678672
7.88749461814454,0.7649637699730354,-8.078400892518887,-5.43992543957391
7.895494105586877,0.7622682905087697,-8.072227375036215,-5.429578276469148
7.903493593029215,0.7595728110445036,-8.066053857553541,-5.419231113364385
7.911493080471552,0.7568773315802378,-8.059880340070867,-5.408883950259623
7.919492567913889,0.7541818521159721,-8.053706822588195,-5.398536787154861
7.927492055356226,0.712,-7.834,-5.365
7.935491542798564,0.8519010543256005,-7.851066709655374,-5.403460899566255
7.943491030240901,0.8590403818279013,-7.854077269445501,-5.3997622118240995
7.951490517683238,0.8661797093302022,-7.857087829235628,-5.396063524081943
7.959490005125575,0.8733190368325029,-7.8600983890257545,-5.392364836339787
7.967489492567913,0.8804583643348045,-7.863108948815881,-5.388666148597632
7.97548898001025,0.8875976918371052,-7.866119508606008,-5.384967460855476
7.983488467452587,0.8947370193394061,-7.869130068396135,-5.3812687731133195
7.991487954894924,0.9018763468417069,-7.872140628186262,-5.377570085371164
7.999487442337262,0.9090156743440084,-7.87515118797639,-5.373871397629008
8.0074869297796,0.9161550018463093,-7.878161747766517,-5.370172709886853
8.015486417221936,0.9232943293486101,-7.8811723075566436,-5.366474022144696
8.023485904664273,0.909834956432654,-7.875496668375216,-5.3734469502818785
8.03148539210661,0.847,-7.849,-5.406
8.039484879548947,0.8636330656643266,-7.772487897944097,-5.376060481804212
8.047484366991286,0.937350320348542,-7.779344618144538,-5.533339178626348
8.055483854433623,1.0075458226550493,-7.692550179395181,-5.612434110712456
8.06348334187596,1.0777413249615568,-7.605755740645825,-5.691529042798563
8.071482829318297,1.1479368272680641,-7.518961301896468,-5.77062397488467
8.079482316760634,1.2181323295745714,-7.432166863147112,-5.849718906970778
8.087481804202971,1.288327831881079,-7.3453724243977545,-5.928813839056885
8.095481291645308,1.3585233341875862,-7.258577985648397,-6.007908771142993
8.103480779087647,1.4287188364941092,-7.171783546899022,-6.087003703229118
8.111480266529984,1.4989143388006165,-7.084989108149665,-6.166098635315224
8.119479753972321,1.569109841107124,-6.998194669400308,-6.245193567401332
8.127479241414658,1.789,-6.829,-6.364
8.135478728856995,1.8200968626075704,-6.897398111629657,-6.498670220399792
8.143478216299332,1.8173180932854953,-6.919880881599174,-6.509869502819064
8.15147770374167,1.8145393239634204,-6.94236365156869,-6.521068785238336
8.159477191184006,1.8117605546413453,-6.964846421538206,-6.532268067657608
8.167476678626345,1.8089817853192698,-6.987329191507727,-6.543467350076883
8.175476166068682,1.8062030159971947,-7.009811961477243,-6.554666632496154
8.18347565351102,1.8034242466751198,-7.0322947314467585,-6.565865914915427
8.191475140953356,1.8006454773530447,-7.054777501416274,-6.577065197334698
8.199474628395693,1.7978667080309696,-7.07726027138579,-6.5882644797539704
8.20747411583803,1.7950879387088947,-7.099743041355306,-6.599463762173242
8.215473603280367,1.7923091693868196,-7.122225811324823,-6.610663044592514
8.223473090722706,1.789530400064744,-7.144708581294343,-6.6218623270117885
8.231472578165043,1.9914515633008554,-7.030877498718631,-6.7543418759610265
8.23947206560738,1.7897494889152148,-7.204187920135268,-6.767935070137914
8.247471553049717,1.6853883596387487,-7.211267926262393,-6.822736156524499
8.255471040492054,1.5810272303622825,-7.218347932389519,-6.8775372429110835
8.263470527934391,1.4766661010858164,-7.225427938516645,-6.932338329297669
8.271470015376728,1.3723049718093505,-7.232507944643771,-6.987139415684253
8.279469502819065,1.2679438425328842,-7.239587950770897,-7.0419405020708385
8.287468990261404,1.163582713256395,-7.246667956898024,-7.096741588457435
8.295468477703741,1.0592215839799288,-7.25374796302515,-7.15154267484402
8.303467965146078,0.9548604547034627,-7.260827969152276,-7.206343761230605
8.311467452588415,0.8504993254269966,-7.267907975279402,-7.26114484761719
8.319466940030752,0.7461381961505305,-7.274987981406528,-7.315945934003775
8.32746642747309,0.995795147787499,-6.865805569793234,-7.420205023065126
8.335465914915426,0.6910846411232527,-7.135054141062779,-7.181793047644821
8.343465402357765,0.6751755481199497,-7.140806581470753,-7.207948675124828
8.351464889800102,0.6592664551166504,-7.146559021878725,-7.234104302604829
8.359464377242439,0.643357362113351,-7.152311462286698,-7.260259930084829
8.367463864684776,0.6274482691100516,-7.158063902694671,-7.28641555756483
8.375463352127113,0.6115391761067521,-7.163816343102644,-7.312571185044831
8.38346283956945,0.5956300831034528,-7.169568783510616,-7.338726812524832
8.391462327011787,0.5797209901001534,-7.175321223918589,-7.364882440004832
8.399461814454124,0.563811897096854,-7.181073664326561,-7.391038067484833
8.407461301896463,0.5479028040935511,-7.186826104734536,-7.41719369496484
8.4154607893388,0.5319937110902516,-7.192578545142508,-7.44334932244484
8.423460276781137,0.5321891337775168,-7.244948231675961,-7.4827288569963795
8.431459764223474,0.8265331112249518,-7.2960598667350345,-7.215471553049797
8.439459251665811,1.0080608235092905,-7.149805911498415,-6.885430719289322
8.447458739108148,0.9271909443708357,-7.070269398976203,-6.413404474561844
8.455458226550485,1.0324309544888541,-7.154004293502484,-6.322397318724347
8.463457713992822,1.1376709646068726,-7.237739188028765,-6.231390162886851
8.471457201435161,1.2429109747249143,-7.321474082555064,-6.1403830070493335
8.479456688877498,1.3481509848429325,-7.405208977081346,-6.049375851211837
8.487456176319835,1.453390994960951,-7.488943871607627,-5.95836869537434
8.495455663762172,1.5586310050789693,-7.572678766133908,-5.867361539536844
8.50345515120451,1.6638710151969875,-7.656413660660189,-5.776354383699347
8.511454638646846,1.769111025315006,-7.740148555186471,-5.68534722786185
8.519454126089183,1.8743510354330244,-7.823883449712752,-5.594340072024354
8.527453613531522,2.1158918503331514,-7.788880061507077,-6.838049718092907
8.535453100973859,2.428074242863192,-7.785550564927685,-7.803380384641098
8.543452588416196,2.476592873219975,-7.801027834109598,-7.820074967129454
8.551452075858533,2.525111503576758,-7.816505103291511,-7.836769549617809
8.55945156330087,2.573630133933541,-7.831982372473424,-7.853464132106165
8.567451050743207,2.622148764290324,-7.847459641655337,-7.8701587145945195
8.575450538185544,2.670667394647107,-7.8629369108372495,-7.886853297082875
8.583450025627881,2.71918602500389,-7.8784141800191625,-7.903547879571231
8.59144951307022,2.7677046553606837,-7.893891449201079,-7.92024246205959
8.599449000512557,2.8162232857174665,-7.909368718382991,-7.936937044547945
8.607448487954894,2.8647419160742498,-7.924845987564904,-7.953631627036301
8.615447975397231,2.9132605464310326,-7.940323256746817,-7.970326209524656
8.623447462839568,2.8574674525885304,-7.886416709379885,-8.396526909276801
8.631446950281905,3.10715287032285,-5.96457983085622,-10.285187083546635
8.639446437724242,3.034134966007833,-7.322206211522976,-9.366765496420546
8.647445925166581,3.1690713750626673,-7.297152871731035,-9.361579015551337
8.655445412608918,3.3040077841174718,-7.2720995319391015,-9.35639253468213
8.663444900051255,3.4389441931722757,-7.247046192147167,-9.351206053812922
8.671444387493592,3.57388060222708,-7.221992852355233,-9.346019572943716
8.679443874935929,3.7088170112818846,-7.196939512563298,-9.340833092074508
8.687443362378266,3.843753420336689,-7.171886172771364,-9.3356466112053
8.695442849820603,3.9786898293914934,-7.146832832979429,-9.330460130336093
8.70344233726294,4.113626238446297,-7.121779493187495,-9.325273649466885
8.711441824705279,4.2485626475011316,-7.096726153395555,-9.320087168597677
8.719441312147616,4.383499056555936,-7.071672813603621,-9.31490068772847
8.727440799589953,4.702747821629527,-6.720706304459947,-9.825074320860004
8.73544028703229,5.201851358277793,-4.2374458682157075,-11.019062247280633
8.743439774474627,5.295445361353137,-4.400990944814598,-10.74725744062878
8.751439261916964,5.38903936442848,-4.564536021413489,-10.47545263397693
8.759438749359301,5.482633367503824,-4.72808109801238,-10.203647827325078
8.767438236801638,5.576227370579167,-4.89162617461127,-9.931843020673226
8.775437724243977,5.669821373654531,-5.055171251210197,-9.660038214021313
8.783437211686314,5.763415376729874,-5.218716327809087,-9.388233407369462
8.791436699128651,5.857009379805218,-5.382261404407978,-9.11642860071761
8.799436186570988,5.950603382880562,-5.545806481006869,-8.844623794065757
8.807435674013325,6.044197385955905,-5.70935155760576,-8.572818987413907
8.815435161455662,6.137791389031248,-5.8728966342046505,-8.301014180762055
8.823434648897999,6.231385392106592,-6.03644171080354,-8.029209374110202
8.831434136340338,5.747347001537706,-5.797717409875294,-6.912225867076787
8.839433623782675,3.713285055283037,-4.910547850918966,-4.743280222596447
8.847433111225012,3.1556704967916445,-4.414198645290638,-5.130807044748234
8.855432598667349,3.276067845765551,-4.295826483010993,-5.013852513154574
8.863432086109686,3.3964651947394584,-4.177454320731348,-4.8968979815609135
8.871431573552023,3.516862543713365,-4.059082158451704,-4.779943449967252
8.87943106099436,3.6372598926872723,-3.9407099961720595,-4.662988918373592
8.887430548436697,3.757657241661179,-3.8223378338924148,-4.546034386779931
8.895430035879036,3.878054590635113,-3.7039656716127443,-4.429079855186244
8.903429523321373,3.99845193960902,-3.5855935093331,-4.312125323592584
8.91142901076371,4.118849288582927,-3.4672213470534556,-4.1951707919989225
8.919428498206047,4.239246637556834,-3.348849184773811,-4.078216260405262
8.927427985648384,7.0491927216778585,-3.012597642235845,-4.881379292669752
8.935427473090721,8.78686668793606,-2.5311923294177014,-6.667834789066817
8.943426960533058,8.823517400809624,-2.3619786817854105,-6.745707350495282
8.951426447975397,8.860168113683196,-2.1927650341530818,-6.823579911923763
8.959425935417734,8.89681882655676,-2.023551386520791,-6.901452473352227
8.967425422860071,8.933469539430325,-1.8543377388884994,-6.9793250347806906
8.975424910302408,8.97012025230389,-1.6851240912562084,-7.057197596209154
8.983424397744745,9.006770965177454,-1.5159104436239172,-7.135070157637618
8.991423885187082,9.043421678051018,-1.346696795991626,-7.212942719066082
8.999423372629419,9.080072390924583,-1.1774831483593349,-7.290815280494546
9.007422860071756,9.116723103798147,-1.0082695007270437,-7.36868784192301
9.015422347514095,9.153373816671719,-0.839055853094715,-7.446560403351492
9.023421834956432,9.190024529545283,-0.669842205462424,-7.5244329647799555
9.031421322398769,5.941417734496888,-0.8801163505896376,-6.038274730906924
9.039420809841106,3.6089028379198234,-1.0443812132888235,-4.2366191991139095
9.047420297283443,3.800430795878307,-0.7225627529649191,-4.385391275915074
9.05541978472578,3.9919587538367907,-0.40074429264101474,-4.53416335271624
9.063419272168117,4.183486711795274,-0.07892583231711026,-4.682935429517404
9.071418759610456,4.3750146697538,0.2428926280068655,-4.831707506318603
9.079418247052793,4.566542627712284,0.5647110883307698,-4.9804795831197675
9.08741773449513,4.758070585670768,0.886529548654674,-5.129251659920932
9.095417221937467,4.949598543629252,1.2083480089785787,-5.278023736722098
9.103416709379804,5.141126501587735,1.530166469302483,-5.426795813523262
9.111416196822141,5.332654459546219,1.8519849296263873,-5.575567890324427
9.119415684264478,5.5241824175047025,2.173803389950292,-5.724339967125593
9.127415171706815,5.792260379291841,3.4994297795986933,-7.729723731418698
9.135414659149154,3.6643466633552992,1.6774897092159986,-7.068434326567925
9.14341414659149,3.4777194460150063,1.6431826290509246,-7.093917229863616
9.151413634033828,3.291092228674713,1.6088755488858508,-7.119400133159308
9.159413121476165,3.1044650113344194,1.574568468720777,-7.144883036455
9.167412608918502,2.917837793994126,1.5402613885557033,-7.170365939750692
9.175412096360839,2.731210576653833,1.5059543083906295,-7.195848843046384
9.183411583803176,2.5445833593135396,1.4716472282255557,-7.221331746342075
9.191411071245513,2.357956141973246,1.437340148060482,-7.246814649637767
9.199410558687852,2.1713289246329115,1.4030330678954004,-7.272297552933464
9.207410046130189,1.9847017072926183,1.3687259877303266,-7.297780456229157
9.215409533572526,1.798074489952325,1.3344189075652528,-7.323263359524849
9.223409021014863,1.6114472726120317,1.3001118274001788,-7.348746262820541
9.2314085084572,2.3045276781138004,4.318962839570227,-7.600336750384813
9.239407995899537,2.3473191639614814,3.6652198872372526,-7.160410410615644
9.247407483341874,2.4176257702602437,3.8852057919015213,-7.139700626459372
9.255406970784213,2.4879323765590216,4.105191696565838,-7.118990842303094
9.26340645822655,2.558238982857784,4.3251776012301075,-7.098281058146822
9.271405945668887,2.6285455891565457,4.545163505894376,-7.077571273990549
9.279405433111224,2.698852195455308,4.765149410558644,-7.056861489834277
9.287404920553561,2.7691588017540703,4.985135315222913,-7.036151705678004
9.295404407995898,2.8394654080528325,5.205121219887182,-7.015441921521732
9.303403895438235,2.909772014351595,5.425107124551451,-6.994732137365459
9.311403382880572,2.9800786206503567,5.645093029215719,-6.974022353209187
9.31940287032291,3.0503852269491345,5.865078933880037,-6.95331256905291
9.327402357765248,3.6327936589296037,7.399118693710122,-8.023582338727348
9.335401845207585,3.1122805204790014,2.9302835259307405,-7.584141920227401
9.343401332649922,3.205183658729778,3.154450980848955,-7.430879013093537
9.351400820092259,3.298086796980555,3.37861843576717,-7.277616105959672
9.359400307534596,3.3909899352313313,3.602785890685385,-7.1243531988258075
9.367399794976933,3.483893073482108,3.8269533456035996,-6.971090291691943
9.375399282419272,3.5767962117329057,4.051120800521864,-6.817827384558044
9.383398769861609,3.6696993499836825,4.275288255440079,-6.66456447742418
9.391398257303946,3.7626024882344593,4.499455710358293,-6.511301570290315
9.399397744746283,3.855505626485236,4.723623165276508,-6.358038663156451
9.40739723218862,3.948408764736013,4.947790620194723,-6.2047757560225865
9.415396719630957,4.04131190298679,5.171958075112938,-6.051512848888722
9.423396207073294,4.18282389983148,5.420427692758187,-5.936369114739675
9.431395694515631,3.81738544336175,6.448141465913102,-6.807153767298414
9.43939518195797,4.078700469187395,7.132230853718293,-6.929701544995243
9.447394669400307,4.116236525647592,7.164932055130924,-6.903417514827564
9.455394156842644,4.153772582107789,7.197633256543554,-6.877133484659885
9.46339364428498,4.191308638567986,7.230334457956185,-6.850849454492206
9.471393131727318,4.228844695028183,7.263035659368816,-6.824565424324527
9.479392619169655,4.266380751488381,7.295736860781447,-6.798281394156848
9.487392106611992,4.3039168079485774,7.328438062194078,-6.771997363989169
9.495391594054329,4.341452864408775,7.361139263606708,-6.74571333382149
9.503391081496668,4.378988920868981,7.3938404650193466,-6.719429303653805
9.511390568939005,4.4165249773291775,7.4265416664319766,-6.6931452734861265
9.519390056381342,4.454061033789374,7.459242867844607,-6.666861243318447
9.527389543823679,3.2119466940029295,5.909158892875083,-6.165629420809506
9.535389031266016,3.734924312318479,8.201603346505529,-7.471147666209229
9.543388518708353,3.6442634546386596,8.067418395859876,-7.410506390436674
9.55138800615069,3.55360259695884,7.933233445214222,-7.349865114664119
9.559387493593029,3.462941739279,7.799048494568539,-7.289223838891552
9.567386981035366,3.3722808815991803,7.664863543922886,-7.228582563118996
9.575386468477703,3.281620023919361,7.530678593277233,-7.167941287346442
9.58338595592004,3.190959166239541,7.3964936426315795,-7.107300011573887
9.591385443362377,3.1002983085597213,7.262308691985925,-7.046658735801332
9.599384930804714,3.0096374508799015,7.128123741340272,-6.986017460028777
9.607384418247051,2.9189765932000817,6.993938790694619,-6.925376184256222
9.615383905689388,2.8283157355202624,6.859753840048965,-6.864734908483667
9.623383393131727,2.848199897488459,6.603563300871358,-6.647316760635585
9.631382880574064,3.7842567913890384,6.884301497807382,-6.532183153938146
9.6393823680164,3.6642644797539874,7.07051178882622,-6.633509994874411
9.647381855458738,3.555317053525655,6.911532394309962,-6.572687932262518
9.655381342901075,3.5918861389763386,6.845147037483295,-6.541936655860806
9.663380830343412,3.628455224427022,6.778761680656627,-6.5111853794590955
9.671380317785749,3.6650243098777056,6.71237632382996,-6.480434103057384
9.679379805228088,3.7015933953283975,6.645990967003279,-6.449682826655666
9.687379292670425,3.738162480779081,6.579605610176611,-6.418931550253955
9.695378780112762,3.7747315662297645,6.513220253349944,-6.388180273852243
9.703378267555099,3.811300651680448,6.446834896523277,-6.3574289974505325
9.711377754997436,3.8478697371311315,6.38044953969661,-6.326677721048821
9.719377242439773,3.884438822581815,6.314064182869943,-6.29592644464711
9.72737672988211,4.0153420681701135,6.372081688877456,-6.136473731419855
9.735376217324447,3.8043898001023506,6.318348795489157,-6.606179395182105
9.743375704766786,3.8359460695075334,6.377431656032572,-6.536766939441613
9.751375192209123,3.8272109970130272,6.3518700754697015,-6.500723271885335
9.75937467965146,3.8184759245185216,6.326308494906831,-6.464679604329057
9.767374167093797,3.8097408520240155,6.300746914343962,-6.42863593677278
9.775373654536134,3.80100577952951,6.275185333781091,-6.392592269216503
9.78337314197847,3.7922707070350037,6.249623753218221,-6.356548601660226
9.791372629420808,3.7835356345404976,6.224062172655351,-6.3205049341039485
9.799372116863145,3.774800562045992,6.198500592092481,-6.284461266547671
9.807371604305484,3.766065489551484,6.172939011529605,-6.248417598991386
9.81537109174782,3.757330417056978,6.147377430966735,-6.212373931435108
9.823370579190158,3.7414031266017744,6.13275858534081,-6.191834956432541
9.831370066632495,4.0902173244486555,6.732679138903343,-6.6057370579186765
9.839369554074832,4.372707381406252,6.6802291651069226,-6.3389138615172955
9.847369041517169,4.369291869914018,6.644815703845341,-6.277704300301211
9.855368528959506,4.365876358421784,6.609402242583759,-6.216494739085127
9.863368016401845,4.362460846929549,6.57398878132217,-6.155285177869029
9.871367503844182,4.359045335437315,6.538575320060588,-6.094075616652945
9.879366991286519,4.3556298239450815,6.503161858799006,-6.032866055436861
9.887366478728856,4.352214312452848,6.467748397537424,-5.971656494220777
9.895365966171193,4.348798800960614,6.432334936275843,-5.9104469330046925
9.90336545361353,4.34538328946838,6.396921475014261,-5.849237371788608
9.911364941055867,4.341967777976146,6.361508013752679,-5.788027810572524
9.919364428498204,4.338552266483913,6.326094552491097,-5.72681824935644
9.927363915940543,4.304693746796866,5.86461071245587,-6.07215889287555
9.93536340338288,4.341811321829246,5.70790238624066,-6.317808759040927
9.943362890825217,4.396658839235692,5.7528543740240545,-6.399019381831618
9.951362378267554,4.405030395861393,5.750156872444662,-6.417901892887367
9.95936186570989,4.413401952487096,5.747459370865269,-6.436784403943116
9.967361353152228,4.421773509112797,5.744761869285877,-6.455666914998865
9.975360840594565,4.430145065738499,5.742064367706484,-6.4745494260546135
9.983360328036904,4.438516622364202,5.7393668661270905,-6.493431937110366
9.99135981547924,4.446888178989903,5.736669364547698,-6.512314448166116
9.999359302921578,4.455259735615606,5.733971862968305,-6.531196959221864
10.007358790363915,4.463631292241307,5.7312743613889126,-6.5500794702776135
10.015358277806252,4.4720028488670085,5.72857685980952,-6.568961981333362
10.023357765248589,4.431415479241608,5.722994771911852,-6.600952844694973
10.031357252690926,4.713275756022148,6.175964120963611,-6.485892362890833
10.039356740133263,4.55498482829318,6.185504766786254,-6.334676371091746
10.047356227575602,4.572583700666325,6.232701742696053,-6.346853368642861
10.055355715017939,4.590182573039467,6.279898718605842,-6.359030366193974
10.063355202460276,4.607781445412608,6.32709569451563,-6.3712073637450874
10.071354689902613,4.6253803177857495,6.374292670425419,-6.3833843612962005
10.07935417734495,4.642979190158891,6.421489646335207,-6.3955613588473135
10.087353664787287,4.660578062532032,6.468686622244996,-6.4077383563984265
10.095353152229624,4.678176934905173,6.515883598154784,-6.4199153539495395
10.103352639671963,4.695775807278319,6.563080574064584,-6.432092351500655
10.1113521271143,4.71337467965146,6.610277549974372,-6.444269349051768
10.119351614556637,4.730973552024602,6.657474525884161,-6.456446346602881
10.127351101998974,4.692983495643295,6.242531214761629,-6.146674628395691
10.13535058944131,4.4844207929436,6.2055906748300345,-6.263634726626525
10.143350076883648,4.513078297407356,6.265454970964447,-6.272601185078376
10.151349564325985,4.541735801871113,6.325319267098858,-6.2815676435302255
10.159349051768322,4.570393306334869,6.385183563233269,-6.290534101982076
10.16734853921066,4.599050810798632,6.445047859367694,-6.299500560433928
10.175348026652998,4.627708315262389,6.504912155502106,-6.3084670188857785
10.183347514095335,4.656365819726145,6.564776451636518,-6.317433477337628
10.191347001537672,4.685023324189901,6.624640747770929,-6.326399935789479
10.199346488980009,4.713680828653658,6.68450504390534,-6.335366394241329
10.207345976422346,4.742338333117414,6.744369340039752,-6.344332852693179
10.215345463864683,4.770995837581171,6.804233636174164,-6.3532993111450295
10.22334495130702,4.799653342044927,6.864097932308575,-6.362265769596879
10.231344438749359,4.7668665353799655,6.245733070759931,-5.846224791604845
10.239343926191696,4.7869915616822665,6.285983123364532,-5.851445509725107
10.247343413634033,4.8071165879845665,6.326233175969133,-5.856666227845369
10.25534290107637,4.827241614286867,6.366483228573734,-5.861886945965631
10.263342388518707,4.8473666405891676,6.406733281178335,-5.867107664085893
10.271341875961044,4.867491666891468,6.446983333782935,-5.872328382206155
10.27934136340338,4.887616693193768,6.487233386387536,-5.877549100326417
10.28734085084572,4.907741719496073,6.527483438992146,-5.88276981844668
10.295340338288057,4.927866745798373,6.567733491596747,-5.887990536566942
10.303339825730394,4.947991772100673,6.607983544201348,-5.893211254687205
10.31133931317273,4.968116798402974,6.648233596805948,-5.898431972807466
10.319338800615068,4.988241824705274,6.688483649410549,-5.9036526909277285
10.327338288057405,4.736673244490307,6.4650486929782485,-6.120787801127388
10.335337775499742,4.686787847723755,6.27321890871808,-5.713370113228656
10.343337262942079,4.5061219887239075,6.472662737057921,-6.0647529472063
10.351336750384418,4.480363831595611,6.466892135808317,-6.165106028067398
10.359336237826755,4.532006092299305,6.461322872399095,-6.156498984616783
10.367335725269092,4.583648353002999,6.455753608989873,-6.147891941166167
10.375335212711429,4.635290613706693,6.4501843455806505,-6.139284897715551
10.383334700153766,4.686932874410387,6.4446150821714285,-6.130677854264936
10.391334187596103,4.738575135114082,6.439045818762207,-6.12207081081432
10.39933367503844,4.790217395817776,6.433476555352985,-6.113463767363704
10.407333162480779,4.841859656521482,6.427907291943762,-6.104856723913087
10.415332649923116,4.893501917225176,6.42233802853454,-6.096249680462471
10.423332137365453,4.892515120451182,6.324997949769588,-6.080692977960039
10.43133162480779,4.8656870835469554,6.468170937980524,-6.121712711430099
10.439331112250127,4.687220741500084,6.439590044991178,-5.905136442849822
10.447330599692464,4.692553733128309,6.408747576741279,-5.89393716043055
10.4553300871348,4.697886724756534,6.377905108491379,-5.8827378780112785
10.463329574577138,4.703219716384758,6.34706264024148,-5.871538595592007
10.471329062019477,4.708552708012984,6.316220171991573,-5.860339313172733
10.479328549461814,4.713885699641209,6.285377703741673,-5.8491400307534605
10.48732803690415,4.719218691269434,6.254535235491774,-5.837940748334189
10.495327524346488,4.724551682897658,6.223692767241874,-5.826741465914917
10.503327011788825,4.729884674525883,6.192850298991975,-5.815542183495645
10.511326499231162,4.735217666154108,6.162007830742075,-5.804342901076374
10.519325986673499,4.740550657782333,6.131165362492176,-5.793143618657101
10.527325474115836,4.745360840594576,6.18141722193771,-5.87939825730429
10.535324961558175,4.688317416488924,6.049413126987538,-5.833136125394749
10.543324449000512,4.7001016076674205,6.058788870333933,-5.867456507002196
10.551323936442849,4.711885798845917,6.068164613680328,-5.901776888609641
10.559323423885186,4.723669990024414,6.077540357026723,-5.936097270217087
10.567322911327523,4.73545418120291,6.086916100373118,-5.970417651824533
10.57532239876986,4.747238372381406,6.096291843719513,-6.0047380334319795
10.583321886212197,4.759022563559903,6.105667587065908,-6.039058415039425
10.591321373654536,4.770806754738402,6.115043330412305,-6.073378796646879
10.599320861096873,4.7825909459168985,6.1244190737587,-6.107699178254324
10.60732034853921,4.794375137095395,6.133794817105095,-6.142019559861771
10.615319835981547,4.806159328273892,6.14317056045149,-6.176339941469217
10.623319323423884,4.717710404920694,6.399692465402002,-6.153546386468551
10.63131881086622,4.819456788082209,7.233799556885639,-5.1844025727087795
10.639318298308558,4.810683156693839,7.202059655098302,-5.213389962688001
10.647317785750895,4.8019095253054696,7.170319753310965,-5.242377352667222
10.655317273193234,4.793135893917098,7.1385798515236205,-5.27136474264645
10.66331676063557,4.784362262528728,7.106839949736283,-5.3003521326256715
10.671316248077908,4.775588631140359,7.075100047948945,-5.329339522604893
10.679315735520245,4.766814999751989,7.043360146161608,-5.358326912584114
10.687315222962582,4.758041368363619,7.011620244374271,-5.387314302563335
10.695314710404919,4.74926773697525,6.979880342586934,-5.4163016925425564
10.703314197847256,4.740494105586881,6.948140440799596,-5.445289082521778
10.711313685289594,4.731720474198508,6.916400539012252,-5.474276472501005
10.719313172731932,4.722946842810138,6.884660637224915,-5.503263862480226
10.727312660174269,4.6582983655106265,6.177013212597534,-5.798237428099538
10.735312147616606,4.663353921065997,6.177218605844338,-5.561046130190198
10.743311635058943,4.9543519140285195,3.845478095358745,-4.695316409331938
10.75131112250128,5.005494704530651,3.9246640328497437,-5.016374489601913
10.759310609943617,5.056637495032784,4.003849970340743,-5.337432569871887
10.767310097385954,5.107780285534916,4.083035907831741,-5.658490650141862
10.775309584828292,5.158923076037059,4.162221845322757,-5.979548730411907
10.78330907227063,5.210065866539191,4.241407782813757,-6.300606810681882
10.791308559712967,5.261208657041323,4.320593720304755,-6.621664890951856
10.799308047155304,5.312351447543455,4.3997796577957535,-6.942722971221831
10.80730753459764,5.363494238045587,4.478965595286753,-7.263781051491805
10.815307022039978,5.414637028547719,4.558151532777751,-7.58483913176178
10.823306509482315,5.4657798190498506,4.63733747026875,-7.905897212031754
10.831305996924653,4.444562788313505,5.862856483854208,-4.976758585339747
10.83930548436699,4.737156603451218,6.2800841448829505,-6.716317563642563
10.847304971809328,4.758133037188902,6.362301099151415,-6.788935132980223
10.855304459251665,4.779109470926585,6.444518053419879,-6.861552702317882
10.863303946694002,4.800085904664269,6.526735007688343,-6.934170271655542
10.871303434136339,4.821062338401952,6.608951961956806,-7.006787840993201
10.879302921578676,4.842038772139636,6.69116891622527,-7.07940541033086
10.887302409021013,4.86301520587732,6.773385870493734,-7.15202297966852
10.895301896463351,4.883991639615009,6.855602824762217,-7.224640549006196
10.903301383905688,4.904968073352692,6.937819779030681,-7.297258118343855
10.911300871348026,4.925944507090376,7.020036733299145,-7.369875687681515
10.919300358790363,4.94692094082806,7.102253687567609,-7.442493257019175
10.9272998462327,5.072878011276081,4.877816760634431,-6.709559456688958
10.935299333675037,5.190081797517481,6.379894769683318,-6.580213491409097
10.943298821117374,5.030178999621201,6.416588070777516,-6.54873724734251
10.95129830855971,4.870276201724922,6.453281371871714,-6.517261003275923
10.95929779600205,4.710373403828607,6.4899746729659205,-6.485784759209329
10.967297283444386,4.550470605932327,6.526667974060119,-6.454308515142743
10.975296770886724,4.390567808036048,6.563361275154316,-6.422832271076156
10.98329625832906,4.230665010139768,6.600054576248514,-6.391356027009569
10.991295745771398,4.070762212243489,6.636747877342712,-6.359879782942982
10.999295233213735,3.9108594143472097,6.67344117843691,-6.328403538876395
11.007294720656072,3.7509566164509303,6.710134479531107,-6.296927294809809
11.01529420809841,3.5910538185546153,6.746827780625313,-6.265451050743215
11.023293695540747,4.389229113275141,5.541973859558879,-5.451210148641309
11.031293182983084,4.696052280881592,6.631606868272636,-6.185336098038355
11.039292670425422,4.7169396373952575,6.832047369863994,-5.916179073343435
11.047292157867759,4.687639189205302,6.8273034877760965,-5.841300150191326
11.055291645310096,4.6583387410153465,6.822559605688198,-5.766421227039219
11.063291132752433,4.629038292825391,6.817815723600301,-5.691542303887111
11.07129062019477,4.599737844635436,6.813071841512404,-5.616663380735003
11.079290107637108,4.570437396445474,6.808327959424505,-5.541784457582878
11.087289595079445,4.541136948255518,6.803584077336608,-5.46690553443077
11.095289082521782,4.511836500065563,6.798840195248711,-5.392026611278663
11.10328856996412,4.482536051875608,6.7940963131608125,-5.317147688126554
11.111288057406457,4.453235603685653,6.789352431072915,-5.242268764974447
11.119287544848794,4.423935155495697,6.784608548985018,-5.167389841822338
11.12728703229113,4.681047098354015,6.145528902557137,-6.622271484708641
11.13528651973347,4.427737855230932,6.409784782732482,-5.816084230309249
11.143286007175806,4.504177401902149,6.794649011902681,-5.706757901930647
11.151285494618143,4.512618998804032,6.794515325474121,-5.787097283444372
11.15928498206048,4.514396662680107,6.756651084913726,-5.88602427814794
11.167284469502818,4.516174326556182,6.718786844353331,-5.984951272851508
11.175283956945155,4.517951990432256,6.6809226037929355,-6.083878267555076
11.183283444387492,4.519729654308331,6.64305836323254,-6.182805262258644
11.191282931829829,4.5215073181844065,6.6051941226721445,-6.281732256962213
11.199282419272167,4.523284982060481,6.567329882111741,-6.3806592516658025
11.207281906714504,4.525062645936556,6.5294656415513455,-6.4795862463693705
11.215281394156841,4.5268403098126315,6.49160140099095,-6.5785132410729386
11.223280881599178,4.528617973688706,6.4537371604305545,-6.677440235776507
11.231280369041515,4.530395637564781,6.41587291987016,-6.776367230480075
11.239279856483853,4.6980881599178455,7.069252178369971,-5.859944643772236
11.24727934392619,4.973046917331778,6.282012081716316,-6.0794619059822885
11.255278831368527,4.952572038759129,6.343722413414346,-6.050416148007137
11.263278318810865,4.932097160186476,6.405432745112388,-6.0213703900319775
11.271277806253202,4.911622281613828,6.467143076810417,-5.9923246320568255
11.27927729369554,4.891147403041179,6.5288534085084455,-5.963278874081673
11.287276781137876,4.870672524468531,6.590563740206474,-5.934233116106521
11.295276268580213,4.850197645895882,6.652274071904503,-5.905187358131368
11.30327575602255,4.829722767323234,6.713984403602533,-5.876141600156216
11.311275243464888,4.809247888750585,6.775694735300561,-5.847095842181063
11.319274730907226,4.788773010177932,6.8374050669986035,-5.818050084205904
11.327274218349563,4.773867375704752,6.83982547411602,-5.759424654023674
11.3352737057919,6.039469092773165,9.962648692978707,-6.927764325986856
11.343273193234237,5.4643836681626805,8.041164556012607,-6.411088259929274
11.351272680676574,5.389559194159358,7.706746959032959,-6.213344832543701
11.359272168118911,5.314734720156036,7.3723293620533115,-6.015601405158128
11.367271655561249,5.2399102461527125,7.037911765073664,-5.8178579777725545
11.375271143003586,5.16508577214939,6.703494168094017,-5.620114550386981
11.383270630445924,5.090261298146051,6.369076571114295,-5.422371123001364
11.391270117888261,5.0154368241427285,6.034658974134648,-5.224627695615791
11.399269605330598,4.940612350139406,5.700241377155001,-5.0268842682302175
11.407269092772935,4.865787876136084,5.3658237801753526,-4.829140840844644
11.415268580215272,4.790963402132761,5.031406183195705,-4.63139741345907
11.42326806765761,4.214432598668113,6.306553049715782,-5.977170681699445
11.431267555099947,1.820926853061292,2.0103488478478058,-4.708743186565682
11.439267042542285,1.8206688050792812,1.1366843967528029,-4.055193664126001
11.447266529984622,1.8204107570972703,0.26301994565799425,-3.4016441416864662
11.45526601742696,1.8201527091152594,-0.6106445054368144,-2.7480946192469315
11.463265504869296,1.8198946611332485,-1.4843089565316232,-2.0945450968073964
11.471264992311633,1.8196366131512376,-2.3579734076264325,-1.4409955743678613
11.47926447975397,1.8193785651692267,-3.231637858721241,-0.7874460519283266
11.487263967196307,1.819120517187216,-4.105302309816049,-0.1338965294887915
11.495263454638645,1.8188624692052051,-4.9789667609108585,0.5196529929507436
11.503262942080983,1.8186044212231942,-5.8526312120058614,1.1732025153904244
11.51126242952332,1.8183463732411833,-6.726295663100669,1.8267520378299595
11.519261916965657,1.8180883252591724,-7.599960114195478,2.4803015602694938
11.527261404407994,5.836543766727836,-2.44467743037959,-2.838597243576753
11.535260891850331,7.3148708354655225,-2.015361865708804,-3.355822142491336
11.543260379292668,8.773926364535782,-2.5522530246861916,-3.166579273598525
11.551259866735005,8.746300227670968,-2.630759622376104,-3.1022113048764646
11.559259354177344,8.718674090806147,-2.7092662200660333,-3.0378433361543897
11.567258841619681,8.691047953941332,-2.787772817755945,-2.9734753674323295
11.575258329062018,8.663421817076516,-2.8662794154458573,-2.909107398710269
11.583257816504355,8.635795680211702,-2.944786013135769,-2.8447394299882083
11.591257303946692,8.608169543346888,-3.0232926108256812,-2.7803714612661476
11.59925679138903,8.580543406482072,-3.101799208515593,-2.716003492544087
11.607256278831366,8.552917269617257,-3.180305806205505,-2.651635523822027
11.615255766273703,8.525291132752443,-3.2588124038954174,-2.587267555099966
11.623255253716042,8.190697078421588,-3.4197716555611697,-2.700576371091605
11.63125474115838,9.236516421559013,-3.9153956156605916,-1.9000923786618298
11.639254228600716,8.90730674604745,-4.022026146073283,-1.9029932916903696
11.647253716043053,8.578097070535884,-4.128656676485973,-1.9058942047189094
11.65525320348539,8.248887395024319,-4.235287206898665,-1.9087951177474491
11.663252690927727,7.919677719512755,-4.3419177373113556,-1.911696030775989
11.671252178370064,7.59046804400119,-4.448548267724047,-1.914596943804529
11.679251665812401,7.261258368489625,-4.555178798136739,-1.9174978568330687
11.68725115325474,6.932048692977987,-4.661809328549453,-1.9203987698616092
11.695250640697077,6.602839017466422,-4.768439858962144,-1.923299682890149
11.703250128139414,6.273629341954857,-4.8750703893748355,-1.9262005959186888
11.711249615581751,5.9444196664432924,-4.981700919787526,-1.9291015089472288
11.719249103024088,5.615209990931728,-5.088331450200217,-1.9320024219757685
11.727248590466425,7.133526653001853,3.1209982060538906,-5.539322911331185
11.735248077908762,4.46950794464377,-1.4094559200409977,-2.6222350076883725
11.743247565351101,4.481681077708199,-1.445888368283823,-2.5828462271299
11.751247052793438,4.493854210772624,-1.4823208165266404,-2.5434574465714364
11.759246540235775,4.50602734383705,-1.5187532647694577,-2.504068666012973
11.767246027678112,4.518200476901476,-1.5551857130122753,-2.464679885454509
11.77524551512045,4.530373609965902,-1.5916181612550926,-2.4252911048960457
11.783245002562786,4.542546743030328,-1.62805060949791,-2.3859023243375823
11.791244490005123,4.554719876094754,-1.6644830577407272,-2.3465135437791185
11.79924397744746,4.5668930091591795,-1.7009155059835446,-2.3071247632206546
11.8072434648898,4.579066142223608,-1.7373479542263701,-2.2677359826621823
11.815242952332136,4.591239275288034,-1.7737804024691872,-2.228347202103719
11.823242439774473,4.900936699128926,0.7234835981518359,-5.147393900560734
11.83124192721681,3.65417649977643,5.388669318516455,-9.450728998767733
11.839241414659147,3.7138322518730065,5.091752172917375,-9.018246071300114
11.847240902101484,3.7734880039695833,4.794835027318295,-8.585763143832494
11.855240389543821,3.8331437560661596,4.497917881719215,-8.153280216364875
11.86323987698616,3.8927995081627493,4.2010007361200685,-7.720797288897159
11.871239364428497,3.9524552602593257,3.9040835905209885,-7.2883143614295385
11.879238851870834,4.012111012355902,3.6071664449219085,-6.855831433961919
11.887238339313171,4.071766764452478,3.3102492993228285,-6.4233485064943
11.895237826755508,4.131422516549055,3.013332153723748,-5.99086557902668
11.903237314197845,4.191078268645632,2.716415008124668,-5.55838265155906
11.911236801640182,4.250734020742208,2.419497862525588,-5.125899724091441
11.91923628908252,4.310389772838785,2.1225807169265076,-4.69341679662382
11.927235776524858,3.892348026651714,10.129490005123836,-10.160657611481895
11.935235263967195,7.93105996924655,7.317311646201519,-3.395232400329817
11.943234751409532,7.627079446437745,6.73804441423577,-3.4844440755019663
11.95123423885187,7.323098923628939,6.15877718227002,-3.573655750674116
11.959233726294206,7.019118400820134,5.579509950304271,-3.662867425846265
11.967233213736543,6.715137878011329,5.000242718338521,-3.7520791010184142
11.97523270117888,6.411157355202523,4.420975486372772,-3.8412907761905637
11.983232188621217,6.1071768323937174,3.8417082544070214,-3.930502451362713
11.991231676063556,5.803196309584845,3.262441022441143,-4.019714126534883
11.999231163505893,5.499215786776039,2.6831737904753936,-4.108925801707032
12.00723065094823,5.195235263967234,2.103906558509644,-4.198137476879181
12.015230138390567,4.891254741158429,1.5246393265438938,-4.2873491520513305
12.023229625832904,4.235372629423376,1.1747483341860827,-4.750012301381231
12.031229113275241,4.411492888261588,7.989835853407035,-8.54832822911302
12.039228600717578,2.2241012611170974,6.060838651353728,-7.488618933091568
12.047228088159917,2.439911609149422,6.2413106043111055,-7.2572491424516175
12.055227575602254,2.6557219571816986,6.421782557268443,-7.025879351811719
12.063227063044591,2.871532305213975,6.602254510225781,-6.79450956117182
12.071226550486928,3.0873426532462513,6.782726463183119,-6.5631397705319205
12.079226037929265,3.3031530012785284,6.963198416140456,-6.331769979892022
12.087225525371602,3.5189633493108046,7.143670369097793,-6.100400189252123
12.09522501281394,3.734773697343081,7.324142322055131,-5.8690303986122245
12.103224500256276,3.950584045375358,7.504614275012469,-5.637660607972325
12.111223987698615,4.166394393407682,7.685086227969847,-5.4062908173323745
12.119223475140952,4.382204741439959,7.865558180927184,-5.174921026692475
12.12722296258329,4.46491132752544,8.189716043053563,-4.8953741670942685
12.135222450025626,3.8082832621447715,8.76448306851187,-7.38998098980582
12.143221937467963,3.7841070334301534,8.820212831026817,-7.155951540520564
12.1512214249103,3.7599308047155353,8.875942593541764,-6.9219220912353085
12.159220912352637,3.735754576000917,8.93167235605671,-6.687892641950053
12.167220399794976,3.7115783472862933,8.98740211857167,-6.453863192664746
12.175219887237313,3.687402118571675,9.043131881086616,-6.21983374337949
12.18321937467965,3.663225889857057,9.098861643601563,-5.985804294094234
12.191218862121987,3.639049661142439,9.15459140611651,-5.7517748448089785
12.199218349564324,3.614873432427821,9.210321168631456,-5.517745395523723
12.207217837006661,3.590697203713203,9.266050931146403,-5.283715946238467
12.215217324448998,3.5665209749985847,9.321780693661351,-5.049686496953211
12.223216811891335,3.7091863147080635,9.850384418240369,-4.8421635058941295
12.231216299333674,5.2676540235778475,15.901997949769852,-6.580795694515672
12.239215786776011,3.183787544849007,10.502343926192246,-6.166422245002605
12.247215274218348,2.4801357112902886,8.668562229159981,-6.1194138786636145
12.255214761660685,2.172700864358658,7.858432319090585,-6.177864678952508
12.263214249103022,1.8652660174270268,7.04830240902119,-6.2363154792414015
12.27121373654536,1.5578311704953958,6.238172498951794,-6.294766279530296
12.279213223987696,1.250396323563765,5.428042588882398,-6.353217079819189
12.287212711430033,0.9429614766321339,4.617912678813003,-6.411667880108083
12.295212198872372,0.6355266297004345,3.8077827687434267,-6.47011868039699
12.30321168631471,0.3280917827688037,2.997652858674031,-6.528569480685883
12.311211173757046,0.020656935837172874,2.1875229486046353,-6.5870202809747775
12.319210661199383,-0.2867779110944584,1.3773930385352395,-6.645471081263671
12.32721014864172,-0.5942127580260892,0.5672631284658447,-6.7039218815525645
12.335209636084057,7.925323423881375,6.4827703741643194,-5.707852895948548
12.343209123526394,9.206595933709243,7.220642918161723,-6.437445412608947
12.351208610968733,9.106280522219684,6.931741888922314,-6.350278583926911
12.35920809841107,9.005965110730147,6.642840859682969,-6.263111755244893
12.367207585853407,8.905649699240609,6.353939830443624,-6.175944926562876
12.375207073295744,8.805334287751073,6.065038801204279,-6.088778097880858
12.383206560738081,8.705018876261535,5.776137771964934,-6.001611269198841
12.391206048180418,8.604703464771998,5.487236742725589,-5.914444440516823
12.399205535622755,8.504388053282462,5.1983357134862445,-5.8272776118348055
12.407205023065092,8.404072641792924,4.909434684246899,-5.7401107831527876
12.415204510507431,8.303757230303365,4.62053365500749,-5.652943954470751
12.423203997949768,7.8155479241436225,4.124598154793599,-5.419081496669198
12.431203485392105,7.623222706304208,4.897109687339653,-4.989755509994807
12.439202972834442,8.252239882745249,5.3467638145808305,-5.192863452335012
12.44720246027678,8.184199298544696,5.3219564153214485,-5.218479788526765
12.455201947719116,8.116158714344145,5.297149016062066,-5.244096124718519
12.463201435161453,8.048118130143594,5.2723416168026835,-5.269712460910272
12.471200922603792,7.980077545943026,5.247534217543296,-5.295328797102031
12.47920041004613,7.912036961742475,5.222726818283914,-5.320945133293784
12.487199897488466,7.843996377541924,5.197919419024532,-5.346561469485538
12.495199384930803,7.775955793341372,5.17311201976515,-5.372177805677291
12.50319887237314,7.70791520914082,5.148304620505768,-5.397794141869044
12.511198359815477,7.639874624940268,5.123497221246385,-5.423410478060798
12.519197847257814,7.571834040739716,5.098689821987003,-5.449026814252551
12.527197334700151,7.0462080984109425,4.7037232188613975,-5.401440287031915
12.53519682214249,7.14594874423373,5.251692465402383,-5.903536647872869
12.543196309584827,7.107155530938096,5.018933185628576,-6.063010300755588
12.551195797027164,7.068362317642461,4.78617390585477,-6.2224839536383065
12.559195284469501,7.029569104346828,4.553414626080963,-6.381957606521025
12.567194771911838,6.990775891051193,4.320655346307157,-6.541431259403744
12.575194259354175,6.9519826777555584,4.08789606653335,-6.700904912286463
12.583193746796512,6.913189464459924,3.8551367867595436,-6.8603785651691815
12.591193234238851,6.87439625116428,3.6223775069856856,-7.019852218051936
12.599192721681188,6.835603037868646,3.3896182272118787,-7.1793258709346555
12.607192209123525,6.796809824573012,3.156858947438072,-7.338799523817374
12.615191696565862,6.758016611277378,2.9240996676642657,-7.498273176700093
12.6231911840082,6.53262378267588,2.4091450538190955,-7.47319015889315
12.631190671450536,7.254133008713386,2.4352688364940587,-8.181654587391067
12.639190158892873,6.045190158894101,-0.9502296258300986,-6.079452588417899
12.64718964633521,5.515834648898056,-1.7544595531703602,-5.935296867368002
12.655189133777549,5.365444284982085,-1.6448195194018331,-6.3840210570747296
12.663188621219886,5.215053921066147,-1.5351794856333303,-6.832745246781357
12.671188108662223,5.06466355715021,-1.4255394518648274,-7.281469436487985
12.67918759610456,4.914273193234272,-1.3158994180963246,-7.7301936261946125
12.687187083546897,4.763882829318334,-1.2062593843278218,-8.17891781590124
12.695186570989234,4.6134924654023965,-1.0966193505593191,-8.627642005607868
12.703186058431571,4.4631021014864585,-0.9869793167908163,-9.076366195314497
12.711185545873908,4.31271173757052,-0.8773392830223135,-9.525090385021125
12.719185033316247,4.1623213736545495,-0.7676992492537864,-9.973814574727852
12.727184520758584,5.90004151717347,-0.9379564325948941,-5.236328549465235
12.735184008200921,5.925487998985847,-2.051674895146121,-4.566051195141211
12.743183495643258,6.176224621506411,-2.10672513130844,-4.4102762300006475
12.751182983085595,6.426961244026975,-2.1617753674707596,-4.254501264860085
12.759182470527932,6.67769786654754,-2.216825603633079,-4.098726299719522
12.76718195797027,6.9284344890681036,-2.271875839795398,-3.9429513345789586
12.775181445412608,7.1791711115887225,-2.32692607595773,-3.7871763694383613
12.783180932854945,7.429907734109287,-2.3819763121200492,-3.6314014042977982
12.791180420297282,7.680644356629851,-2.4370265482823688,-3.475626439157235
12.799179907739619,7.931380979150415,-2.492076784444688,-3.319851474016672
12.807179395181956,8.18211760167098,-2.5471270206070074,-3.164076508876109
12.815178882624293,8.432854224191543,-2.602177256769327,-3.008301543735546
12.82317837006663,8.63590466427537,-2.6729451563298303,-2.7876842644807907
12.831177857508967,6.708405945667452,-3.841902101486674,-3.8741670937983566
12.839177344951306,7.140994629534732,-3.826116584087914,-3.712482612905075
12.847176832393643,7.044023065094846,-3.912066632496135,-3.655064069707856
12.85517631983598,6.947051500654961,-3.9980166809043562,-3.597645526510637
12.863175807278317,6.850079936215075,-4.083966729312578,-3.5402269833134175
12.871175294720654,6.753108371775189,-4.169916777720799,-3.4828084401161985
12.879174782162991,6.6561368073353036,-4.2558668261290205,-3.425389896918979
12.887174269605328,6.559165242895418,-4.341816874537241,-3.36797135372176
12.895173757047667,6.4621936784555105,-4.427766922945482,-3.310552810524528
12.903173244490004,6.365222114015625,-4.513716971353704,-3.253134267327309
12.911172731932341,6.26825054957574,-4.599667019761925,-3.1957157241300895
12.919172219374678,6.171278985135854,-4.685617068170146,-3.1382971809328706
12.927171706817015,6.441605843157886,-6.79724295233165,-3.7886745258846917
12.935171194259352,4.620804726920697,-8.463470277350625,-1.9437656985022416
12.94317068170169,4.524455344837437,-8.535287897944052,-1.7817316361980147
12.951170169144026,4.428105962754177,-8.607105518537477,-1.6196975738937878
12.959169656586365,4.331756580670897,-8.67892313913092,-1.457663511589525
12.967169144028702,4.235407198587637,-8.750740759724344,-1.2956294492852978
12.975168631471039,4.139057816504378,-8.822558380317771,-1.1335953869810709
