accel_time_list,vertical_Accel_x,vertical_Accel_y,vertical_Accel_z
0.0,0.033,-3.067,9.533
0.007999445061043284,0.42104117273990616,-3.2420823454798127,9.377790806666729
0.01599889012208657,0.4332083958999804,-3.266416791799961,9.364951361232617
0.023998335183129854,0.44537561906005463,-3.2907512381201096,9.352111915798506
0.03199778024417314,0.45754284222012886,-3.315085684440258,9.339272470364394
0.03999722530521642,0.4697100653802031,-3.3394201307604066,9.326433024930283
0.04799667036625971,0.48187728854027734,-3.363754577080555,9.313593579496171
0.05599611542730299,0.4940445117003516,-3.3880890234007035,9.30075413406206
0.06399556048834627,0.5062117348604258,-3.4124234697208515,9.287914688627948
0.07199500554938956,0.5183789580205,-3.436757916041,9.275075243193836
0.07999445061043284,0.5305461811805743,-3.4610923623611485,9.262235797759725
0.08799389567147613,0.5427134043406485,-3.485426808681297,9.249396352325613
0.09599334073251942,0.5548806275007228,-3.5097612550014454,9.236556906891503
0.10399278579356269,0.567047850660797,-3.534095701321594,9.22371746145739
0.11199223085460598,0.5792150738208712,-3.5584301476417424,9.21087801602328
0.11999167591564926,0.5913822969809455,-3.582764593961891,9.198038570589167
0.12799112097669255,0.6710255271920113,-3.2417147613762505,9.105466148723641
0.13599056603773582,0.9861134040880504,-3.578373329402516,9.116963148584906
0.14399001109877912,0.9782806141324455,-3.570957177210507,9.1217128190899
0.1519894561598224,0.9704478241768406,-3.5635410250184982,9.126462489594894
0.15998890122086568,0.9626150342212357,-3.5561248728264894,9.131212160099889
0.16798834628190898,0.9547822442656309,-3.5487087206344805,9.135961830604884
0.17598779134295225,0.946949454310026,-3.5412925684424716,9.140711501109879
0.18398723640399553,0.9391166643544211,-3.533876416250463,9.145461171614873
0.19198668146503883,0.9312838743988161,-3.526460264058454,9.150210842119867
0.1999861265260821,0.9234510844432113,-3.519044111866445,9.15496051262486
0.20798557158712538,0.9156182944876065,-3.511627959674436,9.159710183129855
0.21598501664816866,0.9077855045320016,-3.5042118074824273,9.164459853634849
0.22398446170921196,0.8999527145763966,-3.4967956552904185,9.169209524139845
0.23198390677025524,0.5082033851276337,-3.4170321864594895,9.286152885682576
0.2399833518312985,0.417808546059933,-3.23644950055494,9.379926193118754
0.24798279689234182,0.4275793562708102,-3.226984135274532,9.382784389893583
0.2559822419533851,0.4371786903440621,-3.2179494679114713,9.384572501142522
0.26398168701442837,0.44677802441731407,-3.2089148005484107,9.38636061239146
0.27198113207547164,0.456377358490566,-3.1998801331853497,9.3881487236404
0.2799805771365149,0.4659766925638179,-3.190845465822289,9.389936834889339
0.28798002219755825,0.4755760266370699,-3.1818107984592285,9.391724946138279
0.2959794672586015,0.48517536071032186,-3.172776131096168,9.393513057387217
0.3039789123196448,0.4947746947835738,-3.1637414637331074,9.395301168636156
0.3119783573806881,0.5043740288568257,-3.1547067963700464,9.397089279885096
0.31997780244173135,0.5139733629300777,-3.145672129006986,9.398877391134034
0.3279772475027746,0.4932047724750285,-3.285885127635956,9.23426655567888
0.33597669256381796,0.3748730470417485,-3.2422330743618204,9.158093229744729
0.34397613762486123,0.3656429181251601,-3.1622386237513873,9.126095449500555
0.3519755826859045,0.361,-3.122,9.11
0.3599750277469478,0.361,-3.122,9.11
0.36797447280799106,0.361,-3.122,9.11
0.37597391786903434,0.361,-3.122,9.11
0.38397336293007767,0.361,-3.122,9.11
0.39197280799112094,0.361,-3.122,9.11
0.3999722530521642,0.361,-3.122,9.11
0.4079716981132075,0.361,-3.122,9.11
0.41597114317425077,0.361,-3.122,9.11
0.42397058823529404,0.361,-3.122,9.11
0.4319700332963373,0.2833129855715919,-3.1121309655937823,8.966133185349616
0.43996947835738065,0.20101450159163814,-3.0010290031832763,8.833253283897012
0.4479689234184239,0.19433364637582176,-2.9876672927516434,8.801431315632202
0.4559683684794672,0.1876527911600054,-2.974305582320011,8.769609347367394
0.4639678135405105,0.18097193594418906,-2.9609438718883783,8.737787379102585
0.47196725860155375,0.17429108072837268,-2.9475821614567455,8.705965410837775
0.479966703662597,0.16761022551255633,-2.9342204510251126,8.674143442572966
0.48796614872364036,0.16092937029673993,-2.92085874059348,8.642321474308154
0.49596559378468363,0.15424851508092358,-2.907497030161847,8.610499506043345
0.5039650388457269,0.14756765986510725,-2.8941353197302147,8.578677537778537
0.5119644839067702,0.14088680464929085,-2.880773609298582,8.546855569513728
0.5199639289678135,0.13420594943347444,-2.867411898866949,8.515033601248916
0.5279633740288567,0.2884034406215172,-2.3887763596004494,7.347394006659313
0.5359628190899001,-0.05283937469005998,-2.2474822950858377,6.353154969655466
0.5439622641509433,-0.13317422721798342,-2.333689080690484,6.32439100762746
0.5519617092119866,-0.21350907974590794,-2.419895866295132,6.295627045599453
0.5599611542730298,-0.2938439322738314,-2.506102651899779,6.2668630835714465
0.5679605993340732,-0.3741787848017559,-2.5923094375044267,6.238099121543439
0.5759600443951165,-0.4545136373296805,-2.6785162231090744,6.209335159515432
0.5839594894561597,-0.5348484898576039,-2.764723008713721,6.180571197487426
0.591958934517203,-0.6151833423855284,-2.8509297943183687,6.151807235459419
0.5999583795782463,-0.6955181949134518,-2.937136579923015,6.123043273431413
0.6079578246392896,-0.7758530474413764,-3.0233433655276634,6.0942793114034055
0.6159572697003329,-0.8561878999693009,-3.109550151132311,6.065515349375399
0.6239567147613762,-0.9365227524972244,-3.1957569367369576,6.036751387347392
0.6319561598224195,-2.0930194228634535,-3.684102663706974,6.131495837957823
0.6399556048834627,-2.032281271400573,-3.7147575507119748,6.224420431199375
0.647955049944506,-1.9470956915483986,-3.7316074456277892,6.317350154674474
0.6559544950055493,-1.8619101116962256,-3.7484573405436037,6.410279878149572
0.6639539400665926,-1.7767245318440512,-3.765307235459418,6.503209601624671
0.6719533851276359,-1.691538951991877,-3.782157130375233,6.59613932509977
0.6799528301886791,-1.606353372139704,-3.7990070252910475,6.6890690485748685
0.6879522752497225,-1.52116779228753,-3.815856920206862,6.781998772049968
0.6959517203107657,-1.435982212435357,-3.8327068151226764,6.874928495525065
0.703951165371809,-1.3507966325831826,-3.8495567100384913,6.967858219000164
0.7119506104328522,-1.2656110527310096,-3.8664066049543058,7.060787942475263
0.7199500554938956,-1.1804254728788353,-3.8832564998701202,7.153717665950362
0.7279495005549389,-1.417197835738063,-3.3842561043285335,7.679208379578237
0.7359489456159821,-2.248742983986039,-3.859675439987308,6.8076534009830425
0.7439483906770255,-2.870985531948623,-4.425350483589657,6.212837521801179
0.7519478357380687,-3.4300852217648536,-5.447875511035555,5.1283172845923675
0.759947280799112,-2.9957862361089695,-5.6319640062377925,4.994250635721211
0.7679467258601553,-2.5614872504530855,-5.816052501440031,4.860183986850054
0.7759461709211986,-2.1271882647972067,-6.000140996642266,4.726117337978899
0.7839456159822419,-1.6928892791413226,-6.184229491844503,4.592050689107743
0.7919450610432851,-1.2585902934854443,-6.368317987046739,4.457984040236588
0.7999445061043284,-0.8242913078295597,-6.552406482248976,4.323917391365431
0.8079439511653717,-0.3899923221736814,-6.736494977451211,4.189850742494277
0.815943396226415,0.04430666348220269,-6.920583472653449,4.05578409362312
0.8239428412874583,0.47860564913808723,-7.104671967855687,3.9217174447519634
0.8319422863485015,-2.20355049944499,-9.558577136514943,0.3713540510544582
0.8399417314095449,-2.0844528983390784,-9.696438197324609,0.29801521214245397
0.8479411764705881,-1.9187100103199197,-9.809693498452011,0.27184158926728624
0.8559406215316314,-1.7529671223007588,-9.922948799579414,0.24566796639211813
0.8639400665926746,-1.5872242342816003,-10.036204100706815,0.2194943435169504
0.871939511653718,-1.4214813462624392,-10.149459401834218,0.19332072064178232
0.8799389567147613,-1.2557384582432782,-10.26271470296162,0.1671470977666142
0.8879384017758045,-1.0899955702241195,-10.375970004089023,0.1409734748914465
0.8959378468368479,-0.9242526822049586,-10.489225305216426,0.1147998520162784
0.9039372918978911,-0.7585097941857999,-10.602480606343827,0.08862622914111068
0.9119367369589344,-0.592766906166639,-10.71573590747123,0.06245260626594257
0.9199361820199776,-0.42702401814748026,-10.828991208598632,0.036278983390774844
0.927935627081021,-0.2612811301283193,-10.942246509726035,0.010105360515606732
0.9359350721420643,-0.0955382421091584,-11.055501810853437,-0.016068262359561325
0.9439345172031075,0.07020464591000053,-11.168757111980838,-0.04224188523472905
0.9519339622641508,-0.02821855345911988,-14.718342767295574,-0.5152814465408766
0.959933407325194,0.1386944940404367,-17.04555793080152,-4.838855233315648
0.9679328523862374,0.2223988322154118,-17.093438667181392,-4.333962722578783
0.9759322974472807,0.3061031703903868,-17.14131940356126,-3.8290702118419184
0.9839317425083239,0.3898075085653607,-17.189200139941125,-3.324177701105061
0.9919311875693673,0.47351184674033575,-17.237080876320995,-2.8192851903681957
0.9999306326304105,0.5572161849153097,-17.28496161270086,-2.3143926796313377
1.0079300776914537,0.6409205230902836,-17.332842349080728,-1.80950016889448
1.0159295227524971,0.7246248612652598,-17.3807230854606,-1.3046076581576078
1.0239289678135404,0.8083291994402337,-17.428603821840465,-0.7997151474207502
1.0319284128745836,4.17996614872367,-10.490888179800331,5.591985849056565
1.039927857935627,3.8627456449355786,-9.510989986970998,5.956334917724268
1.0479273029966703,3.7897072335086626,-9.457863237706896,5.987897945519471
1.0559267480577135,3.716668822081746,-9.404736488442794,6.019460973314674
1.0639261931187567,3.6436304106548296,-9.351609739178691,6.0510240011098775
1.0719256381798001,3.5705919992279114,-9.298482989914588,6.082587028905081
1.0799250832408434,3.4975535878009953,-9.245356240650485,6.114150056700284
1.0879245283018866,3.424515176374079,-9.192229491386383,6.145713084495488
1.09592397336293,3.3514767649471606,-9.13910274212228,6.177276112290691
1.1039234184239732,3.278438353520244,-9.085975992858177,6.208839140085894
1.1119228634850165,3.2053999420933277,-9.032849243594075,6.240402167881097
1.1199223085460597,3.1323615306664117,-8.979722494329973,6.271965195676301
1.1279217536071031,2.2300643112590977,-8.927723887039091,5.78150838574424
1.1359211986681463,1.996302750030832,-9.046826735725736,5.343316561844868
1.1439206437291896,2.7247507671214977,-9.19457184827316,3.6730835999216596
1.151920088790233,2.7854524384670625,-9.236545407064046,3.448816804857348
1.1599195338512762,2.8461541098126255,-9.278518965854932,3.2245500097930426
1.1679189789123194,2.906855781158189,-9.320492524645816,3.0002832147287375
1.1759184239733627,2.967557452503752,-9.362466083436702,2.7760164196644324
1.183917869034406,3.028259123849317,-9.404439642227588,2.5517496246001206
1.1919173140954493,3.08896079519488,-9.446413201018474,2.327482829535815
1.1999167591564925,3.149662466540443,-9.48838675980936,2.10321603447151
1.207916204217536,3.2103641378860077,-9.530360318600247,1.8789492394071985
1.2159156492785792,3.2710658092315708,-9.572333877391133,1.654682444342893
1.2239150943396224,3.3317674805771342,-9.614307436182017,1.4304156492785878
1.2319145394006659,3.238682130965602,-10.12994073251942,-1.3398843507214
1.239913984461709,2.8751772721667295,-9.575850413121223,-1.886602848686645
1.2479134295227523,2.8380242939943288,-9.569095326180786,-1.8615379208287097
1.2559128745837955,2.800871315821928,-9.562340239240351,-1.8364729929707742
1.263912319644839,2.763718337649526,-9.555585152299914,-1.8114080651128381
1.2719117647058822,2.7265653594771253,-9.548830065359477,-1.7863431372549026
1.2799112097669254,2.6894123813047246,-9.542074978419041,-1.7612782093969672
1.2879106548279688,2.6522594031323226,-9.535319891478604,-1.736213281539031
1.295910099889012,2.615106424959922,-9.528564804538167,-1.7111483536810956
1.3039095449500553,2.5779534467875207,-9.52180971759773,-1.68608342582316
1.3119089900110985,2.54080046861512,-9.515054630657295,-1.6610184979652247
1.319908435072142,2.5036474904427184,-9.508299543716857,-1.6359535701072885
1.3279078801331852,1.9964239733629778,-9.984,-0.9404239733629778
1.3359073251942284,1.7257074054832697,-9.759055848112027,-0.5586309183649375
1.3439067702552718,1.7105595201549109,-9.768927503719272,-0.5482486598814557
1.351906215316315,1.6954116348265524,-9.778799159326516,-0.537866401397974
1.3599056603773583,1.680263749498194,-9.788670814933761,-0.5274841429144924
1.3679051054384015,1.6651158641698356,-9.798542470541006,-0.5171018844310108
1.375904550499445,1.6499679788414767,-9.808414126148252,-0.5067196259475288
1.3839039955604882,1.6348200935131183,-9.818285781755495,-0.4963373674640473
1.3919034406215314,1.6196722081847597,-9.82815743736274,-0.48595510898056565
1.3999028856825748,1.6045243228564008,-9.838029092969986,-0.47557285049708375
1.407902330743618,1.5893764375280424,-9.847900748577231,-0.46519059201360213
1.4159017758046613,1.574228552199684,-9.857772404184475,-0.4548083335301205
1.4239012208657045,1.5590806668713255,-9.86764405979172,-0.44442607504663895
1.431900665926748,1.7000416263253637,-11.697350998890121,-0.3818492396155568
1.4399001109877911,1.5227773277918206,-11.709350166481686,-0.3982736321345073
1.4478995560488344,1.3455130292582775,-11.72134933407325,-0.41469802465345773
1.4558990011098778,1.1682487307247293,-11.733348501664816,-0.4311224171724086
1.463898446170921,0.9909844321911864,-11.74534766925638,-0.44754680969135907
1.4718978912319642,0.8137201336576432,-11.757346836847946,-0.4639712022103096
1.4798973362930075,0.6364558351241001,-11.76934600443951,-0.48039559472926
1.487896781354051,0.4591915365905521,-11.781345172031076,-0.4968199872482109
1.4958962264150941,0.28192723805700903,-11.79334433962264,-0.5132443797671614
1.5038956714761373,0.10466293952346595,-11.805343507214205,-0.5296687722861119
1.5118951165371808,-0.07260135901008224,-11.81734267480577,-0.5460931648050628
1.519894561598224,-0.24986565754362533,-11.829341842397335,-0.5625175573240132
1.5278940066592672,-0.40266870144284034,-11.537730854606007,-0.4030138734739213
1.5358934517203107,-0.44444358120606664,-10.962659637439891,-0.25102441731409797
1.5438928967813539,-0.6761542730299632,-10.408029966703666,-0.007851831298557748
1.551892341842397,-0.8076127913429498,-10.39189539400666,0.0642526359600428
1.5598917869034403,-0.9209049320199744,-10.394095241398446,0.14114730160932068
1.5678912319644838,-1.034197072697002,-10.396295088790234,0.2180419672586007
1.575890677025527,-1.1474892133740267,-10.39849493618202,0.2949366329078786
1.5838901220865702,-1.260781354051051,-10.400694783573808,0.37183129855715646
1.5918895671476136,-1.3740734947280786,-10.402894630965594,0.4487259642064365
1.5998890122086569,-1.4873656354051032,-10.405094478357382,0.5256206298557143
1.6078884572697,-1.6006577760821277,-10.407294325749168,0.6025152955049923
1.6158879023307433,-1.713949916759152,-10.409494173140954,0.6794099611542701
1.6238873473917868,-1.8272420574361798,-10.411694020532742,0.7563046268035502
1.63188679245283,-0.3845660377358497,-10.057490566037737,0.8559150943396221
1.6398862375138732,-0.36261011405766724,-9.998771235270505,0.8731904916523006
1.6478856825749166,-0.3406541903794842,-9.940051904503273,0.8904658889649795
1.6558851276359599,-0.31869826670130175,-9.88133257373604,0.9077412862776579
1.663884572697003,-0.2967423430231193,-9.822613242968808,0.9250166835903363
1.6718840177580463,-0.27478641934493686,-9.763893912201576,0.9422920809030148
1.6798834628190897,-0.25283049566675386,-9.705174581434342,0.9595674782156937
1.687882907880133,-0.2308745719885714,-9.64645525066711,0.976842875528372
1.6958823529411762,-0.20891864831038895,-9.587735919899878,0.9941182728410505
1.7038817980022196,-0.18696272463220592,-9.529016589132643,1.0113936701537294
1.7118812430632628,-0.16500680095402348,-9.470297258365413,1.0286690674664078
1.719880688124306,-0.14305087727584104,-9.41157792759818,1.0459444647790863
1.7278801331853493,-0.05934156492785292,-8.678701026637098,0.7383497502774703
1.7358795782463927,-0.22743951165369147,-8.073220310765855,0.7896490011098576
1.743879023307436,-0.32525844668714027,-7.767554990578945,1.032803912964919
1.7518784683684792,-0.40274144361561715,-7.732394639031568,1.1226581446971022
1.7598779134295226,-0.4802244405440962,-7.697234287484191,1.212512376429288
1.7678773584905658,-0.5577074374725731,-7.6620739359368155,1.3023666081614713
1.775876803551609,-0.6351904344010499,-7.626913584389439,1.3922208398936546
1.7838762486126523,-0.7126734313295269,-7.591753232842063,1.4820750716258377
1.7918756936736957,-0.7901564282580059,-7.556592881294686,1.5719293033580235
1.799875138734739,-0.8676394251864828,-7.52143252974731,1.661783535090207
1.8078745837957821,-0.9451224221149598,-7.4862721781999335,1.7516377668223901
1.8158740288568256,-1.0226054190434388,-7.451111826652557,1.841491998554576
1.8238734739178688,-1.1000884159719158,-7.415951475105181,1.9313462302867592
1.831872918978912,2.7802654515815735,-8.127057193396222,6.064650515630786
1.8398723640399552,2.8560101970033265,-8.237549528301882,5.8964955142434405
1.8478718091009987,2.9317549424250813,-8.348041863207545,5.72834051285609
1.855871254162042,3.0074996878468343,-8.458534198113204,5.560185511468744
1.8638706992230851,3.0832444332685873,-8.569026533018864,5.3920305100813986
1.8718701442841286,3.1589891786903426,-8.679518867924527,5.223875508694047
1.8798695893451718,3.234733924112095,-8.790011202830186,5.0557205073067015
1.887869034406215,3.310478669533848,-8.900503537735846,4.887565505919356
1.8958684794672584,3.3862234149556034,-9.010995872641507,4.719410504532005
1.9038679245283017,3.4619681603773564,-9.121488207547166,4.5512555031446595
1.911867369589345,3.537712905799109,-9.231980542452826,4.383100501757314
1.919866814650388,3.613457651220862,-9.342472877358485,4.214945500369968
1.9278662597114316,3.5110398446171387,-9.451221864594892,3.7851981132076244
1.9358657047724748,1.9415487236404605,-9.545615316315201,1.2013773584906664
1.943865149833518,4.2444147332949855,-9.8739671048233,-5.898718752925125
1.9518645948945614,4.670794792934217,-9.526424949520617,-6.0476240856879215
1.9598640399556047,5.097174852573437,-9.178882794217945,-6.196529418450714
1.9678634850166479,5.523554912212656,-8.831340638915272,-6.3454347512135065
1.975862930077691,5.949934971851876,-8.483798483612599,-6.494340083976299
1.9838623751387345,6.3763150314911075,-8.136256328309916,-6.643245416739096
1.9918618201997778,6.802695091130326,-7.788714173007243,-6.7921507495018885
1.999861265260821,7.229075150769546,-7.44117201770457,-6.941056082264681
2.0078607103218644,7.655455210408778,-7.093629862401887,-7.089961415027478
2.0158601553829074,8.081835270047986,-6.746087707099224,-7.238866747790266
2.023859600443951,8.508215329687218,-6.398545551796541,-7.387772080553063
2.0318590455049943,8.066689511653717,-5.104529689234181,-6.597655244173141
2.0398584905660373,8.092985252656693,-4.624662220776404,-6.5805126870527
2.0478579356270807,8.054183346728413,-4.627512597752178,-6.582719430517815
2.055857380688124,8.015381440800132,-4.630362974727952,-6.584926173982931
2.063856825749167,7.976579534871855,-4.633213351703726,-6.587132917448046
2.0718562708102106,7.937777628943576,-4.6360637286795,-6.589339660913161
2.079855715871254,7.898975723015296,-4.6389141056552745,-6.591546404378277
2.087855160932297,7.860173817087018,-4.641764482631048,-6.593753147843392
2.0958546059933405,7.821371911158739,-4.644614859606823,-6.595959891308508
2.103854051054384,7.782570005230459,-4.647465236582597,-6.598166634773623
2.111853496115427,7.743768099302182,-4.65031561355837,-6.600373378238738
2.1198529411764704,7.704966193373902,-4.653165990534145,-6.602580121703854
2.1278523862375134,7.9292891231963605,-4.4859574546800935,-6.855088235294105
2.135851831298557,8.529516370699177,-1.4852022752500873,-9.330357658157332
2.1438512763596003,8.621282287357479,-1.0442017455352763,-9.295130511552825
2.1518507214206433,8.699004168348294,-0.7204060261326043,-9.165866751589153
2.1598501664816867,8.776726049339114,-0.3966103067299144,-9.036602991625474
2.16784961154273,8.854447930329934,-0.07281458732722457,-8.907339231661796
2.175849056603773,8.93216981132075,0.2509811320754476,-8.778075471698124
2.1838485016648166,9.00989169231157,0.5747768514781375,-8.648811711734444
2.19184794672586,9.087613573302388,0.8985725708808272,-8.519547951770765
2.199847391786903,9.165335454293205,1.2223682902834994,-8.390284191807092
2.2078468368479465,9.243057335284023,1.5461640096861893,-8.261020431843413
2.21584628190899,9.320779216274843,1.8699597290888792,-8.131756671879735
2.223845726970033,9.398501097265658,2.1937554484915514,-8.002492911916063
2.2318451720310764,5.761782233688336,2.755458916806383,-7.6715658960493105
2.2398446170921193,5.76918597539377,2.9301702009587367,-7.421370486693286
2.247844062153163,5.776589717099204,3.1048814851110995,-7.171175077337247
2.2558435072142062,5.7839934588046376,3.2795927692634628,-6.920979667981208
2.2638429522752492,5.791397200510072,3.4543040534158163,-6.670784258625183
2.2718423973362927,5.798800942215505,3.6290153375681795,-6.420588849269144
2.279841842397336,5.806204683920939,3.8037266217205423,-6.170393439913106
2.287841287458379,5.813608425626372,3.978437905872896,-5.9201980305570805
2.2958407325194226,5.821012167331806,4.153149190025259,-5.670002621201042
2.303840177580466,5.82841590903724,4.327860474177622,-5.4198072118450025
2.311839622641509,5.835819650742673,4.502571758329975,-5.169611802488978
2.3198390677025524,5.843223392448107,4.677283042482339,-4.9194163931329395
2.327838512763596,6.6267971698113275,3.1254697558268525,-5.2385463374028856
2.335837957824639,6.318921080137496,3.0953602361992627,-5.900132894410743
2.3438374028856823,6.305562783530705,3.0579259398941856,-5.855708791741647
2.3518368479467253,6.292204486923915,3.0204916435891107,-5.811284689072554
2.3598362930077688,6.278846190317124,2.9830573472840336,-5.7668605864034586
2.367835738068812,6.2654878937103335,2.9456230509789565,-5.722436483734364
2.375835183129855,6.252129597103543,2.9081887546738816,-5.678012381065271
2.3838346281908986,6.238771300496752,2.870754458368805,-5.633588278396175
2.391834073251942,6.225413003889961,2.833320162063728,-5.589164175727079
2.399833518312985,6.212054707283171,2.795885865758653,-5.544740073057986
2.4078329633740285,6.19869641067638,2.758451569453576,-5.500315970388891
2.415832408435072,6.185338114069589,2.7210172731484987,-5.455891867719796
2.423831853496115,6.171979817462799,2.683582976843424,-5.411467765050703
2.4318312985571584,6.158621520856008,2.646148680538347,-5.367043662381607
2.439830743618202,6.157312985571542,1.2070277469478221,-5.302965963743997
2.447830188679245,6.44636962946125,1.5983052966583307,-5.061498295067058
2.4558296337402883,6.323390209004726,1.6083286976986744,-5.096483819852104
2.4638290788013317,6.2004107885482025,1.6183520987390179,-5.131469344637149
2.4718285238623747,6.077431368091686,1.628375499779361,-5.166454869422193
2.479827968923418,5.954451947635162,1.6383989008197046,-5.201440394207238
2.487827413984461,5.831472527178645,1.6484223018600477,-5.236425918992282
2.4958268590455046,5.708493106722122,1.6584457029003914,-5.271411443777327
2.503826304106548,5.585513686265598,1.6684691039407349,-5.306396968562373
2.511825749167591,5.462534265809081,1.678492504981078,-5.3413824933474165
2.5198251942286345,5.339554845352557,1.6885159060214217,-5.376368018132462
2.527824639289678,5.8975482796892695,2.2112608213096623,-5.270820199778036
2.535824084350721,6.615346392896776,2.924512512413112,-5.117956831590647
2.5438235294117644,6.690541176470584,2.877273684210529,-4.897340557275554
2.551822974472808,6.765735960044393,2.830034856007946,-4.6767242829604605
2.559822419533851,6.840930743618197,2.7827960278053654,-4.45610800864538
2.5678218645948943,6.916125527192006,2.7355571996027823,-4.235491734330286
2.5758213096559377,6.991320310765814,2.6883183714001992,-4.014875460015192
2.5838207547169807,7.066515094339619,2.6410795431976193,-3.7942591857001116
2.591820199778024,7.141709877913427,2.593840714995036,-3.573642911385018
2.599819644839067,7.216904661487232,2.546601886792456,-3.353026637069937
2.6078190899001106,7.29209944506104,2.4993630585898727,-3.132410362754843
2.615818534961154,7.367294228634849,2.45212423038729,-2.91179408843975
2.623817980022197,7.442489012208653,2.4048854021847097,-2.6911778141246687
2.6318174250832405,7.449226193118795,8.599156659267498,-6.408265815760287
2.639816870144284,5.8269387347392225,7.808011542730321,-5.520327413984486
2.647816315205327,5.478099340601954,7.30567771104005,-5.465503114186846
2.6558157602663703,5.350296441861989,6.853473787295183,-5.5552851211072625
2.663815205327414,5.222493543122025,6.401269863550315,-5.645067128027679
2.671814650388457,5.094690644382067,5.949065939805473,-5.7348491349480915
2.6798140954495,4.966887745642103,5.496862016060605,-5.824631141868508
2.6878135405105437,4.8390848469021375,5.044658092315737,-5.914413148788926
2.6958129855715867,4.71128194816218,4.592454168570894,-6.004195155709337
2.70381243063263,4.583479049422215,4.140250244826027,-6.093977162629755
2.711811875693673,4.455676150682258,3.6880463210811847,-6.183759169550166
2.7198113207547165,4.327873251942293,3.2358423973363166,-6.273541176470584
2.72781076581576,4.948779411764522,4.9068146503879415,-6.285055493895686
2.735810210876803,4.146157725983567,8.68986595141187,-8.77902133431991
2.7438096559378464,3.5765703466736225,9.686799699680087,-8.642215381602142
2.75180910099889,3.6806572435855527,9.7703703727884,-8.623769602402561
2.759808546059933,3.7847441404974766,9.853941045896708,-8.605323823202978
2.7678079911209763,3.888831037409407,9.937511719005022,-8.586878044003397
2.7758074361820197,3.992917934321337,10.021082392113334,-8.568432264803814
2.7838068812430627,4.097004831233261,10.104653065221642,-8.549986485604233
2.791806326304106,4.201091728145191,10.188223738329954,-8.53154070640465
2.7998057713651496,4.305178625057121,10.271794411438268,-8.513094927205067
2.8078052164261926,4.409265521969045,10.355365084546575,-8.494649148005486
2.815804661487236,4.5133524188809755,10.438935757654889,-8.476203368805903
2.8238041065482795,4.617439315792906,10.522506430763201,-8.45775758960632
2.8318035516093225,6.706485941546722,8.19329892711791,-6.438872364039895
2.839802996670366,4.928205540852051,11.470689276871855,-8.576656706223854
2.847802441731409,4.632050261614097,11.280724433169505,-8.56962422704931
2.8558018867924524,4.335894982376127,11.090759589467144,-8.562591747874768
2.863801331853496,4.039739703138157,10.900794745764784,-8.555559268700224
2.871800776914539,3.7435844239002023,10.710829902062434,-8.54852678952568
2.8798002219755823,3.447429144662232,10.520865058360073,-8.541494310351137
2.8877996670366257,3.151273865424262,10.330900214657712,-8.534461831176593
2.8957991120976687,2.855118586186308,10.140935370955361,-8.52742935200205
2.903798557158712,2.5589633069483377,9.950970527253,-8.520396872827506
2.9117980022197556,2.2628080277103675,9.76100568355064,-8.513364393652962
2.9197974472807986,1.9666527484724137,9.571040839848289,-8.50633191447842
2.927796892341842,2.354647058823269,8.210239733629773,-7.435750277469902
2.9357963374028855,3.7867037418740987,3.584781829713076,-4.053214127160335
2.9437957824639285,9.126549957411694,10.222685581911609,-5.863070838603102
2.951795227524972,8.63039833002093,9.663375545259814,-5.869861065224685
2.959794672586015,8.134246702630191,9.104065508608052,-5.876651291846269
2.9677941176470584,7.638095075239427,8.544755471956258,-5.883441518467852
2.975793562708102,7.1419434478486625,7.985445435304463,-5.8902317450894355
2.983793007769145,6.645791820457925,7.4261353986527,-5.897021971711019
2.9917924528301882,6.149640193067159,6.866825362000906,-5.903812198332602
2.9997918978912317,5.653488565676394,6.307515325349112,-5.9106024249541855
3.0077913429522747,5.157336938285657,5.748205288697348,-5.917392651575768
3.015790788013318,4.661185310894892,5.188895252045555,-5.924182878197352
3.0237902330743616,4.165033683504127,4.62958521539376,-5.930973104818936
3.0317896781354046,5.877959385405145,4.351670747780355,-3.93608445477246
3.039789123196448,5.31849819644842,2.7952787180910916,-4.151569506104317
3.0477885682574914,6.857315535480971,3.0867756711951624,-3.9853918641734203
3.0557880133185344,6.806584877562205,2.784923193638591,-4.072575689458964
3.063787458379578,6.755854219643436,2.483070716082003,-4.159759514744514
3.0717869034406213,6.705123561724667,2.181218238525415,-4.246943340030063
3.0797863485016643,6.654392903805901,1.879365760968844,-4.334127165315607
3.0877857935627078,6.603662245887132,1.577513283412256,-4.421310990601157
3.0957852386237508,6.552931587968366,1.2756608058556849,-4.508494815886701
3.103784683684794,6.502200930049597,0.9738083282990968,-4.59567864117225
3.1117841287458377,6.451470272130828,0.671955850742509,-4.6828624664578
3.1197835738068806,6.400739614212061,0.370103373185938,-4.770046291743344
3.127783018867924,8.310323450134733,0.0825188679245299,-3.5924407008086257
3.1357824639289675,9.316488870729717,0.003409483967756158,-3.572134112280618
3.1437819089900105,9.152632105962859,-0.15631569928405809,-3.500930260638367
3.151781354051054,8.988775341195991,-0.3160408825358812,-3.4297264089961126
3.1597807991120974,8.824918576429123,-0.47576606578770436,-3.358522557353858
3.1677802441731404,8.661061811662266,-0.6354912490395185,-3.287318705711607
3.175779689234184,8.497205046895399,-0.7952164322913416,-3.2161148540693523
3.1837791342952273,8.333348282128531,-0.9549416155431647,-3.1449110024270976
3.1917785793562703,8.169491517361672,-1.114666798794979,-3.073707150784847
3.1997780244173137,8.005634752594805,-1.2743919820468022,-3.0025032991425924
3.2077774694783567,7.841777987827946,-1.4341171652986164,-2.9312994475003418
3.2157769145394,7.6779212230610785,-1.5938423485504396,-2.8600955958580867
3.2237763596004436,7.514064458294212,-1.7535675318022628,-2.788891744215832
3.2317758046614866,14.984536457076732,-3.9443908217922137,-5.071344013897627
3.23977524972253,14.082685976933877,-3.907176012160403,-4.662444843893275
3.2477746947835735,13.180835496791023,-3.869961202528592,-4.253545673888924
3.2557741398446165,12.278985016648218,-3.8327463928967833,-3.8446465038845954
3.26377358490566,11.377134536505364,-3.7955315832649723,-3.4357473338802444
3.2717730299667034,10.475284056362508,-3.7583167736331617,-3.026848163875893
3.2797724750277464,9.573433576219704,-3.721101964001353,-2.6179489938715643
3.28777192008879,8.67158309607685,-3.683887154369542,-2.2090498238672134
3.2957713651498333,7.769732615933995,-3.6466723447377314,-1.800150653862862
3.3037708102108763,7.628820477247441,-4.454509156492754,-1.4911687014428932
3.3117702552719197,7.936705216426189,-4.1847766925638386,-2.2459380688123796
3.3197697003329627,7.987907941793076,-4.287668701442838,-3.6152474822214065
3.327769145394006,7.92420865704773,-4.322332963374027,-3.5440425453200195
3.3357685904550496,7.860509372302384,-4.356997225305215,-3.472837608418633
3.3437680355160926,7.796810087557041,-4.3916614872364015,-3.4016326715172505
3.351767480577136,7.733110802811695,-4.42632574916759,-3.3304277346158635
3.3597669256381795,7.669411518066349,-4.460990011098778,-3.259222797714477
3.3677663706992225,7.6057122333210065,-4.495654273029964,-3.188017860813094
3.375765815760266,7.542012948575661,-4.530318534961152,-3.1168129239117075
3.3837652608213094,7.478313663830315,-4.56498279689234,-3.045607987010321
3.3917647058823523,7.414614379084973,-4.5996470588235265,-2.974403050108938
3.399764150943396,7.990481132075162,-4.406339622641619,-3.3455660377356367
3.4077635960044392,7.612317742191223,-4.43876629142223,-3.6484139051847335
3.4157630410654822,7.4420438401775915,-4.427338512763597,-3.209015815760294
3.4237624861265257,7.50985514087426,-4.409791597020714,-3.173086637337364
3.431761931187569,7.584934269820679,-4.392057887487798,-3.1494738175788624
3.439761376248612,7.660013398767094,-4.374324177954883,-3.1258609978203618
3.4477608213096556,7.7350925277135145,-4.3565904684219685,-3.1022481780618603
3.4557602663706986,7.8101716566599295,-4.338856758889054,-3.0786353583033597
3.463759711431742,7.885250785606349,-4.321123049356138,-3.055022538544858
3.4717591564927854,7.960329914552768,-4.303389339823223,-3.0314097187863567
3.4797586015538284,8.035409043499184,-4.285655630290308,-3.007796899027856
3.487758046614872,8.110488172445603,-4.267921920757393,-2.9841840792693546
3.4957574916759153,8.185567301392023,-4.2501882112244775,-2.9605712595108526
3.5037569367369583,8.521805771365752,-3.9918457269699075,-3.157032186459276
3.5117563817980018,7.9288553321368695,-4.247453526814177,-3.957236280019838
3.519755826859045,7.917536968380287,-4.275877086924694,-3.903367676576854
3.527755271920088,7.906218604623705,-4.304300647035208,-3.849499073133873
3.5357547169811316,7.8949002408671225,-4.3327242071457235,-3.7956304696908894
3.543754162042175,7.883581877110539,-4.36114776725624,-3.7417618662479053
3.551753607103218,7.872263513353958,-4.389571327366754,-3.6878932628049244
3.5597530521642615,7.860945149597375,-4.41799488747727,-3.6340246593619407
3.5677524972253045,7.849626785840793,-4.446418447587784,-3.58015605591896
3.575751942286348,7.83830842208421,-4.4748420076983,-3.526287452475976
3.5837513873473914,7.8269900583276275,-4.503265567808816,-3.472418849032992
3.5917508324084344,7.815671694571045,-4.53168912791933,-3.418550245590011
3.599750277469478,7.804353330814463,-4.560112688029847,-3.3646816421470276
3.6077497225305213,7.236517047963435,-4.907016493024478,-4.328410768202593
3.6157491675915643,7.210024262169874,-4.896522597353003,-4.343463487403481
3.6237486126526077,7.18353147637631,-4.886028701681526,-4.358516206604369
3.631748057713651,7.157038690582747,-4.87553480601005,-4.373568925805257
3.639747502774694,7.1305459047891855,-4.865040910338574,-4.388621645006144
3.6477469478357376,7.104053118995623,-4.854547014667097,-4.403674364207033
3.655746392896781,7.077560333202059,-4.844053118995621,-4.418727083407921
3.663745837957824,7.051067547408497,-4.833559223324145,-4.433779802608808
3.6717452830188675,7.024574761614934,-4.823065327652668,-4.448832521809696
3.6797447280799105,6.998081975821372,-4.812571431981192,-4.463885241010583
3.687744173140954,6.971589190027809,-4.802077536309716,-4.478937960211472
3.6957436182019974,6.945096404234246,-4.7915836406382395,-4.49399067941236
3.7037430632630404,6.929639289678098,-4.789923973362897,-4.310957547169777
3.711742508324084,6.856312087692824,-5.068814188978539,-4.45523433388619
3.7197419533851273,6.891995005549388,-5.04526526082131,-4.5439472807991095
3.7277413984461703,6.927677923405951,-5.021716332664083,-4.632660227712025
3.7357408435072137,6.963360841262515,-4.998167404506853,-4.7213731746249445
3.743740288568257,6.99904375911908,-4.974618476349624,-4.810086121537864
3.7517397336293,7.034726676975643,-4.951069548192397,-4.89879906845078
3.7597391786903436,7.070409594832207,-4.9275206200351676,-4.9875120153637
3.767738623751387,7.106092512688772,-4.903971691877939,-5.07622496227662
3.77573806881243,7.1417754305453345,-4.880422763720711,-5.164937909189534
3.7837375138734735,7.177458348401899,-4.856873835563483,-5.253650856102455
3.791736958934517,7.2131412662584635,-4.833324907406253,-5.342363803015375
3.79973640399556,7.248824184115026,-4.809775979249025,-5.43107674992829
3.8077358490566033,6.934941509433985,-4.69584339622639,-5.207666037735866
3.8157352941176463,6.597286096256682,-4.613326203208554,-4.964524064171122
3.82373473917869,6.622157098173744,-4.6386335384925825,-4.9811047321158295
3.831734184239733,6.647028100090807,-4.66394087377661,-4.997685400060538
3.839733629300776,6.671899102007868,-4.689248209060637,-5.014266068005245
3.8477330743618197,6.696770103924931,-4.714555544344666,-5.030846735949954
3.855732519422863,6.721641105841993,-4.739862879628694,-5.047427403894662
3.863731964483906,6.746512107759054,-4.765170214912721,-5.064008071839369
3.8717314095449495,6.771383109676116,-4.79047755019675,-5.080588739784077
3.879730854605993,6.7962541115931785,-4.815784885480777,-5.097169407728786
3.887730299667036,6.82112511351024,-4.841092220764805,-5.113750075673493
3.8957297447280794,6.845996115427302,-4.866399556048833,-5.1303307436182015
3.903729189789123,6.870867117344364,-4.891706891332862,-5.146911411562909
3.911728634850166,6.895738119261425,-4.917014226616889,-5.163492079507617
3.9197280799112093,6.920609121178488,-4.942321561900917,-5.180072747452325
3.9277275249722523,7.053463374028832,-4.6478135405103,-4.965945615982653
3.9357269700332957,7.326070366259707,-4.33752284762962,-4.7656286031393735
3.943726415094339,7.388466037735846,-4.317181401617252,-4.696147708894882
3.951725860155382,7.450861709211981,-4.296839955604885,-4.6266668146503935
3.9597253052164256,7.51325738068812,-4.276498509592518,-4.557185920405902
3.967724750277469,7.5756530521642595,-4.25615706358015,-4.487705026161411
3.975724195338512,7.638048723640395,-4.235815617567783,-4.418224131916922
3.9837236403995555,7.700444395116534,-4.215474171555416,-4.348743237672431
3.991723085460599,7.762840066592673,-4.195132725543048,-4.2792623434279395
3.999722530521642,7.825235738068809,-4.174791279530681,-4.209781449183451
4.007721975582685,7.456448760636395,-4.155012948575659,-4.555570662227094
4.015721420643729,7.487596004439486,-4.162344617092119,-4.3748926193119155
4.023720865704772,7.418387347391716,-4.252856270810174,-4.553699223085474
4.031720310765815,7.455985186829449,-4.271514687384387,-4.564602308546058
4.039719755826859,7.459078305586385,-4.272047983721791,-4.582841043285238
4.047719200887902,7.462171424343322,-4.272581280059193,-4.601079778024416
4.055718645948945,7.465264543100258,-4.273114576396596,-4.619318512763593
4.063718091009989,7.468357661857196,-4.273647872733999,-4.637557247502774
4.071717536071032,7.471450780614132,-4.274181169071402,-4.655795982241951
4.079716981132075,7.474543899371069,-4.274714465408805,-4.674034716981129
4.0877164261931185,7.477637018128006,-4.275247761746208,-4.692273451720309
4.0957158712541615,7.480730136884943,-4.27578105808361,-4.710512186459487
4.1037153163152045,7.474927025527194,-4.118036903440663,-4.908970310765766
4.111714761376248,7.397550207866964,-4.0973942229914035,-5.067820660659531
4.119714206437291,7.3664337224176535,-4.130544465659624,-5.02436604808217
4.127713651498334,7.335317236968343,-4.163694708327844,-4.980911435504809
4.135713096559378,7.304200751519027,-4.196844950996068,-4.937456822927444
4.143712541620421,7.273084266069716,-4.229995193664289,-4.8940022103500835
4.151711986681464,7.2419677806204055,-4.263145436332509,-4.850547597772723
4.159711431742508,7.21085129517109,-4.296295679000734,-4.807092985195357
4.167710876803551,7.179734809721779,-4.329445921668954,-4.763638372617997
4.175710321864594,7.148618324272468,-4.362596164337174,-4.720183760040636
4.183709766925638,7.117501838823154,-4.395746407005398,-4.676729147463271
4.191709211986681,7.086385353373842,-4.428896649673619,-4.63327453488591
4.199708657047724,7.055268867924531,-4.4620468923418395,-4.58981992230855
4.207708102108768,7.024152382475217,-4.495197135010064,-4.5463653097311845
4.215707547169811,6.993035897025905,-4.528347377678284,-4.5029106971538235
4.223706992230854,6.961919411576594,-4.561497620346504,-4.4594560845764635
4.231706437291897,7.159906104328545,-4.256280854605985,-4.986733906770258
4.239705882352941,6.756917112299462,-4.097029411764711,-5.086181818181817
4.247705327413984,6.846638160881842,-3.9500396087680465,-5.110907375643222
4.255704772475027,6.9363592094642215,-3.8030498057713813,-5.135632933104628
4.263704217536071,7.026080258046611,-3.6560600027747,-5.160358490566036
4.271703662597114,7.115801306628992,-3.5090701997780354,-5.185084048027442
4.279703107658157,7.205522355211372,-3.36208039678137,-5.209809605488847
4.2877025527192005,7.295243403793761,-3.215090593784689,-5.234535162950256
4.2957019977802435,7.384964452376141,-3.068100790788024,-5.259260720411662
4.3037014428412865,7.474685500958521,-2.9211109877913586,-5.283986277873067
4.31170088790233,7.5644065495409105,-2.7741211847946774,-5.308711835334476
4.319700332963373,7.65412759812329,-2.627131381798012,-5.333437392795881
4.327699778024416,7.500874583796151,-2.6378540510541573,-5.24683462819107
4.33569922308546,2.6878035516094103,-4.7693478357380386,-0.1502879023308039
4.343698668146503,8.752586374616422,4.615579290983866,-9.589323039759774
4.351698113207546,9.039342952275224,4.7682275249722395,-9.062300776914588
4.35969755826859,9.326099529934055,4.920875758960629,-8.535278514069343
4.367697003329633,9.612856107592856,5.073523992949003,-8.008256251224157
4.375696448390676,9.899612685251656,5.2261722269373765,-7.481233988378971
4.38369589345172,10.186369262910489,5.378820460925767,-6.954211725533726
4.391695338512763,10.473125840569288,5.531468694914141,-6.42718946268854
4.399694783573806,10.759882418228088,5.6841169289025135,-5.900167199843354
4.40769422863485,11.046638995886921,5.836765162890904,-5.37314493699811
4.415693673695893,11.333395573545722,5.989413396879278,-4.846122674152924
4.423693118756936,11.620152151204522,6.1420616308676514,-4.319100411307738
4.43169256381798,6.730277965381255,8.427713982100263,-4.645392495336151
4.439692008879023,6.721938118402721,8.516814184003582,-4.66147648593761
4.447691453940066,6.713598271424186,8.605914385906901,-4.677560476539068
4.45569089900111,6.705258424445652,8.695014587810231,-4.693644467140529
4.463690344062153,6.696918577467118,8.78411478971355,-4.709728457741988
4.471689789123196,6.688578730488583,8.87321499161687,-4.725812448343446
4.479689234184239,6.680238883510049,8.962315193520189,-4.741896438944905
4.487688679245283,6.6718990365315145,9.051415395423518,-4.7579804295463655
4.495688124306326,6.66355918955298,9.140515597326836,-4.774064420147824
4.503687569367369,6.655219342574446,9.229615799230157,-4.790148410749283
4.5116870144284125,6.64687949559591,9.318716001133485,-4.806232401350743
4.5196864594894555,6.638539648617376,9.407816203036804,-4.822316391952203
4.5276859045504985,5.793923418424373,9.068948945616173,-4.839446170921195
4.535685349611542,4.394829726230117,8.67715442717968,-5.105278086077206
4.543684794672585,4.36949815020348,8.632268652114938,-4.980131212233333
4.551684239733628,4.344166574176844,8.587382877050196,-4.85498433838946
4.559683684794672,4.318834998150205,8.54249710198545,-4.729837464545573
4.567683129855715,4.293503422123569,8.497611326920708,-4.604690590701701
4.575682574916758,4.268171846096933,8.452725551855968,-4.479543716857828
4.583682019977802,4.242840270070293,8.40783977679122,-4.354396843013941
4.591681465038845,4.217508694043658,8.36295400172648,-4.229249969170068
4.599680910099888,4.192177118017021,8.318068226661739,-4.104103095326195
4.607680355160932,4.166845541990382,8.273182451596993,-3.978956221482309
4.615679800221975,4.141513965963746,8.228296676532251,-3.8538093476384363
4.623679245283018,4.1161823899371095,8.18341090146751,-3.7286624737945635
4.631678690344062,1.9085120952824262,8.365789409616559,-4.756486233933613
4.639678135405105,1.8438284104877558,8.304374315276938,-4.915442948694983
4.647677580466148,1.7791447256930857,8.242959220937319,-5.0743996634563535
4.655677025527192,1.7144610408984082,8.181544126597691,-5.233356378217742
4.663676470588235,1.6497773561037379,8.12012903225807,-5.392313092979112
4.671675915649278,1.5850936713090675,8.05871393791845,-5.551269807740483
4.679675360710322,1.52040998651439,7.997298843578823,-5.710226522501872
4.687674805771365,1.4557263017197197,7.935883749239203,-5.8691832372632415
4.695674250832408,1.3910426169250496,7.874468654899582,-6.028139952024612
4.703673695893451,1.3263589321303793,7.813053560559961,-6.187096666785983
4.7116731409544945,1.2616752473357018,7.751638466220334,-6.346053381547371
4.7196725860155375,1.1969915625410317,7.690223371880713,-6.505010096308742
4.7276720310765805,1.7907003329635272,7.84634406215316,-7.614177025527149
4.735671476137624,1.645536094154642,7.838645313078063,-7.626171499260084
4.743670921198667,1.6593684679060288,7.826229507722902,-7.588007480114692
4.75167036625971,1.6732008416574156,7.813813702367741,-7.549843460969299
4.759669811320754,1.6870332154088041,7.8013978970125795,-7.511679441823902
4.767669256381797,1.700865589160191,7.788982091657419,-7.47351542267851
4.77566870144284,1.7146979629115777,7.776566286302259,-7.435351403533117
4.783668146503884,1.728530336662966,7.764150480947097,-7.3971873843877205
4.791667591564927,1.7423627104143529,7.751734675591936,-7.359023365242328
4.79966703662597,1.7561950841657399,7.739318870236776,-7.320859346096935
4.807666481687014,1.7700274579171282,7.726903064881614,-7.282695326951538
4.815665926748057,1.783859831668515,7.714487259526454,-7.244531307806145
4.8236653718091,1.7976922054199018,7.702071454171293,-7.206367288660753
4.831664816870144,2.17688781968027,7.105665253737002,-7.397188183342384
4.839664261931187,2.0792775698396704,6.8970839787942735,-7.411485063877015
4.84766370699223,1.9816673199990704,6.688502703851545,-7.425781944411645
4.855663152053274,1.8840570701584598,6.479921428908793,-7.440078824946276
4.863662597114317,1.78644682031786,6.271340153966063,-7.454375705480906
4.87166204217536,1.6888365704772603,6.062758879023335,-7.468672586015536
4.879661487236404,1.59122632063665,5.854177604080583,-7.482969466550168
4.887660932297447,1.4936160707960502,5.645596329137854,-7.497266347084798
4.89566037735849,1.3960058209554504,5.437015054195125,-7.511563227619428
4.903659822419534,1.2983955711148398,5.228433779252374,-7.52586010815406
4.911659267480577,1.20078532127424,5.019852504309645,-7.5401569886886906
4.91965871254162,1.1031750714336404,4.811271229366915,-7.5544538692233205
4.9276581576026635,1.3136847946725296,6.979349611542535,-8.589100998889881
4.9356576026637065,0.6076434871419392,5.081586865657558,-7.765058439795025
4.9436570477247495,0.7032113254775909,4.8953870167898765,-7.7823338371077035
4.9516564927857925,0.7987791638132425,4.709187167922195,-7.799609234420381
4.959655937846836,0.8943470021489048,4.522987319054494,-7.816884631733061
4.967655382907879,0.9899148404845565,4.336787470186812,-7.834160029045739
4.975654827968922,1.0854826788202083,4.150587621319131,-7.851435426358417
4.983654273029966,1.1810505171558705,3.96438777245143,-7.868710823671097
4.991653718091009,1.276618355491522,3.7781879235837486,-7.885986220983774
4.999653163152052,1.3721861938271738,3.5919880747160677,-7.903261618296453
5.007652608213096,1.4677540321628362,3.4057882258483656,-7.920537015609132
5.015652053274139,1.5633218704984877,3.2195883769806843,-7.937812412921811
5.023651498335182,1.6588897088341394,3.033388528113003,-7.955087810234488
5.031650943396226,2.7604339622636043,5.911523584905503,-10.595981132075217
5.039650388457269,2.993658404242185,2.4637172277716104,-6.274941916389193
5.047649833518312,3.132404334689831,2.475271981748673,-6.314405845357005
5.055649278579356,3.2711502651374924,2.486826735725736,-6.353869774324822
5.063648723640399,3.4098961955851386,2.498381489702798,-6.393333703292634
5.071648168701442,3.5486421260327847,2.5099362436798605,-6.432797632260446
5.079647613762486,3.687388056480446,2.5214909976569237,-6.472261561228263
5.087647058823529,3.826133986928092,2.5330457516339857,-6.511725490196074
5.095646503884572,3.964879917375738,2.544600505611048,-6.551189419163887
5.103645948945616,4.1036258478234,2.5561552595881114,-6.590653348131704
5.111645394006659,4.242371778271045,2.567710013565174,-6.630117277099515
5.119644839067702,4.381117708718691,2.5792647675422358,-6.669581206067328
5.1276442841287455,3.573332408434981,1.6123435072140484,-7.056115982242008
5.1356437291897885,5.098718091010021,3.867432852386282,-8.952925638179693
5.1436431742508315,4.92380279018145,3.6690913132694796,-9.478432284541746
5.151642619311875,4.93552290736391,3.772619015047874,-9.320675786593716
5.159642064372918,4.947243024546369,3.8761467168262564,-9.162919288645705
5.167641509433961,4.958963141728827,3.9796744186046396,-9.005162790697693
5.175640954495005,4.970683258911286,4.083202120383033,-8.847406292749664
5.183640399556048,4.982403376093745,4.186729822161417,-8.689649794801651
5.191639844617091,4.994123493276204,4.2902575239397995,-8.531893296853639
5.199639289678134,5.005843610458662,4.393785225718182,-8.374136798905628
5.207638734739178,5.017563727641122,4.497312927496576,-8.216380300957598
5.215638179800221,5.02928384482358,4.600840629274959,-8.058623803009587
5.223637624861264,5.041003962006039,4.704368331053342,-7.900867305061574
5.231637069922308,5.055185983827552,3.427352782622512,-8.23540177580463
5.239636514983351,4.263120357967525,3.230029788102622,-8.614060666947324
5.247635960044394,4.2179740645770405,3.2028132853662,-8.617278834500619
5.255635405105438,4.172827771186552,3.1755967826297744,-8.620497002053911
5.263634850166481,4.1276814777960675,3.1483802798933525,-8.623715169607205
5.271634295227524,4.082535184405583,3.12116377715693,-8.626933337160498
5.279633740288568,4.037388891015094,3.093947274420505,-8.63015150471379
5.287633185349611,3.99224259762461,3.0667307716840826,-8.633369672267085
5.295632630410654,3.9470963042341256,3.03951426894766,-8.636587839820377
5.303632075471698,3.9019500108436365,3.012297766211235,-8.639806007373672
5.311631520532741,3.856803717453152,2.9850812634748127,-8.643024174926964
5.319630965593784,3.8116574240626684,2.9578647607383908,-8.646242342480258
5.327630410654828,2.119191453940225,2.8214073251940928,-8.482355160932471
5.335629855715871,3.0509116537180896,2.708381187569368,-8.903419450610444
5.343629300776914,3.0701103218645924,2.6979819089900126,-8.73983079911212
5.3516287458379574,3.094566481687012,2.7003232852386216,-8.630771098779135
5.359628190899,3.1297640399556013,2.728694650388454,-8.633117602663708
5.367627635960043,3.16496159822419,2.7570660155382862,-8.63546410654828
5.375627081021087,3.200159156492783,2.785437380688122,-8.637810610432853
5.38362652608213,3.235356714761372,2.8138087458379544,-8.640157114317425
5.391625971143173,3.270554273029961,2.842180110987787,-8.642503618201998
5.399625416204217,3.3057518312985543,2.8705514761376225,-8.64485012208657
5.40762486126526,3.340949389567143,2.898922841287455,-8.647196625971143
5.415624306326303,3.3761469478357324,2.927294206437287,-8.649543129855715
5.423623751387346,3.4113445061043213,2.9556655715871196,-8.651889633740288
5.43162319644839,3.535323973362996,3.0392284128746407,-9.434182685904544
5.439622641509433,3.3270675052410925,2.857755136268346,-9.471618867924526
5.447622086570476,3.310090905167101,2.8403341225798524,-9.492417425083238
5.45562153163152,3.2931143050931078,2.822913108891357,-9.513215982241952
5.463620976692563,3.2761377050191167,2.805492095202863,-9.534014539400664
5.471620421753606,3.2591611049451252,2.7880710815143694,-9.554813096559377
5.47961986681465,3.2421845048711324,2.7706500678258736,-9.57561165371809
5.487619311875693,3.225207904797141,2.75322905413738,-9.596410210876803
5.495618756936736,3.20823130472315,2.7358080404488865,-9.617208768035514
5.50361820199778,3.1912547046491566,2.7183870267603907,-9.638007325194227
5.511617647058823,3.174278104575165,2.700966013071897,-9.65880588235294
5.519617092119866,3.157301504501174,2.6835449993834035,-9.679604439511651
5.52761653718091,3.345359600443933,2.721014983351827,-9.913675360710302
5.535615982241953,4.580582685904508,0.6770277469489847,-11.657401775806775
5.543615427302996,4.500220544092432,-0.007557196549296236,-10.172172724750283
5.5516148723640395,4.385955743618203,0.08534544950055428,-10.10617730299667
5.5596143174250825,4.2716909431439865,0.17824809555039448,-10.040181881243067
5.5676137624861255,4.15742614266977,0.27115074160023467,-9.974186459489461
5.575613207547169,4.043161342195541,0.3640533876500852,-9.908191037735849
5.583612652608212,3.9288965417213246,0.45695603369992543,-9.842195615982245
5.591612097669255,3.8146317412471085,0.5498586797497657,-9.77620019422864
5.599611542730299,3.700366940772879,0.6427613257996161,-9.710204772475029
5.607610987791342,3.586102140298663,0.7356639718494563,-9.644209350721423
5.615610432852385,3.4718373398244466,0.8285666178992965,-9.57821392896782
5.623609877913429,3.357572539350217,0.921469263949147,-9.512218507214207
5.631609322974472,3.5476637069921435,1.2391209766921876,-9.163910099889053
5.639608768035515,5.604321006961949,3.088116663303399,-8.034274801987696
5.647608213096559,5.698132680859645,3.095025274947028,-7.990550562506309
5.655607658157602,5.791944354757332,3.1019338865906563,-7.9468263230249265
5.663607103218645,5.885756028655018,3.108842498234284,-7.903102083543543
5.671606548279688,5.979567702552703,3.115751109877912,-7.859377844062161
5.679605993340732,6.0733793764504,3.1226597215215413,-7.815653604580773
5.687605438401775,6.167191050348086,3.129568333165169,-7.771929365099391
5.695604883462818,6.261002724245772,3.136476944808797,-7.7282051256180075
5.703604328523862,6.354814398143469,3.143385556452426,-7.684480886136621
5.711603773584905,6.448626072041154,3.150294168096054,-7.6407566466552375
5.719603218645948,6.54243774593884,3.157202779739682,-7.597032407173855
5.727602663706992,8.643255271919836,7.10574583795756,-8.339831298557236
5.735602108768035,7.7317319217963805,6.7679488602408036,-6.963811064629137
5.743601553829078,6.475152149189491,7.02648775708751,-4.61536131321851
5.7516009988901216,6.610155129417231,6.7537165563640125,-4.606868075252463
5.7596004439511646,6.745158109644958,6.480945355640545,-4.598374837286418
5.7675998890122075,6.880161089872685,6.208174154917077,-4.589881599320372
5.775599334073251,7.015164070100426,5.935402954193579,-4.581388361354326
5.783598779134294,7.150167050328153,5.662631753470111,-4.57289512338828
5.791598224195337,7.285170030555879,5.389860552746644,-4.564401885422234
5.799597669256381,7.42017301078362,5.117089352023145,-4.555908647456188
5.807597114317424,7.555175991011347,4.844318151299678,-4.547415409490142
5.815596559378467,7.690178971239074,4.571546950576209,-4.538922171524097
5.823596004439511,7.825181951466815,4.298775749852712,-4.53042893355805
5.831595449500554,7.737727067963707,4.0919862244565,-3.713489178690403
5.839594894561597,7.638439838088408,3.8887062087876414,-2.853548834628276
5.847594339622641,7.539152608213098,3.6854261931187606,-1.9936084905660532
5.855593784683684,7.4398653783377995,3.482146177449902,-1.133668146503926
5.863593229744727,4.4355144920943665,2.7959573606739516,0.6849339804588541
5.871592674805771,4.590782409344793,2.687505867797176,0.778435690762531
5.879592119866814,4.746050326595201,2.579054374920413,0.8719374010661977
5.887591564927857,4.901318243845609,2.4706028820436496,0.9654391113698643
5.895591009988901,5.0565861610960345,2.362151389166874,1.0589408216735412
5.903590455049944,5.211854078346443,2.2536998962901107,1.1524425319772078
5.911589900110987,5.367121995596852,2.1452484034133477,1.2459442422808746
5.91958934517203,5.5223899128472596,2.036796910536584,1.339445952584541
5.927588790233074,6.322439178690355,1.7019066592674632,2.131336958934442
5.935588235294117,7.2174531351001825,2.2702003878474497,1.7628829993535884
5.94358768035516,7.305359124781973,2.2460262406849574,1.7572570160139538
5.951587125416204,7.393265114463774,2.2218520935224624,1.7516310326743185
5.959586570477247,7.481171104145565,2.1976779463599696,1.746005049334684
5.96758601553829,7.569077093827356,2.1735037991974773,1.7403790659950493
5.9755854605993335,7.656983083509156,2.149329652034982,1.734753082655414
5.9835849056603765,7.744889073190947,2.1251555048724895,1.7291270993157792
5.9915843507214195,7.832795062872738,2.1009813577099967,1.7235011159761446
5.999583795782463,7.920701052554539,2.0768072105475017,1.7178751326365094
6.007583240843506,8.00860704223633,2.0526330633850094,1.7122491492968748
6.015582685904549,8.096513031918121,2.0284589162225166,1.7066231659572402
6.023582130965593,8.184419021599922,2.0042847690600216,1.700997182617605
6.031581576026636,10.699374649433723,1.194,1.73
6.039581021087679,10.690773095604644,1.194,1.73
6.047580466148723,10.682171541775565,1.194,1.73
6.055579911209766,10.673569987946488,1.194,1.73
6.063579356270809,10.664968434117409,1.194,1.73
6.071578801331853,10.65636688028833,1.194,1.73
6.079578246392896,10.64776532645925,1.194,1.73
6.087577691453939,10.639163772630173,1.194,1.73
6.095577136514983,10.630562218801092,1.194,1.73
6.103576581576026,10.621960664972015,1.194,1.73
6.111576026637069,10.613359111142936,1.194,1.73
6.119575471698113,10.604757557313857,1.194,1.73
6.127574916759156,10.7,0.7993518312985786,1.7272120659584538
6.135574361820199,10.7,0.6233640399556245,1.7689234580624658
6.143573806881243,10.397435579123334,0.2932676861100872,1.816797043066002
6.151573251942286,10.361684972801143,0.1436484358942837,1.8697316424822863
6.159572697003329,10.32593436647895,-0.005970814321519746,1.9226662418985707
6.167572142064372,10.290183760156758,-0.1555900645373232,1.975600841314855
6.1755715871254155,10.254433153834563,-0.30520931475314333,2.028535440731145
6.1835710321864585,10.21868254751237,-0.4548285649689468,2.0814700401474293
6.1915704772475015,10.182931941190178,-0.6044478151847503,2.134404639563714
6.199569922308545,10.147181334867982,-0.7540670654005703,2.187339238980004
6.207569367369588,10.111430728545791,-0.9036863156163737,2.240273838396288
6.215568812430631,10.075680122223599,-1.0533055658321773,2.2932084378125723
6.223568257491675,10.039929515901402,-1.2029248160479973,2.3461430372288627
6.231567702552718,8.644500554938956,-1.889793562708101,2.510004994450612
6.239567147613761,8.6515538290788,-1.9009755826859032,2.495984461709214
6.247566592674805,8.658607103218646,-1.9121576026637064,2.4819639289678146
6.255566037735848,8.66566037735849,-1.9233396226415085,2.4679433962264166
6.263565482796891,8.672713651498334,-1.9345216426193106,2.4539228634850185
6.271564927857935,8.67976692563818,-1.9457036625971138,2.4399023307436187
6.279564372918978,8.686820199778024,-1.956885682574916,2.425881798002221
6.287563817980021,8.693873473917868,-1.9680677025527178,2.411861265260823
6.295563263041065,8.700926748057714,-1.9792497225305212,2.3978407325194233
6.303562708102108,8.707980022197559,-1.9904317425083233,2.3838201997780253
6.311562153163151,8.715033296337403,-2.001613762486125,2.3697996670366277
6.319561598224195,8.722086570477249,-2.0127957824639284,2.355779134295228
6.327561043285238,9.129793007768972,-2.1767874583794815,2.108726970033362
6.335560488346281,9.202258185349613,-2.228142896781353,2.0639815945246047
6.343559933407325,9.193008826997781,-2.234642445893451,2.0491492901405857
6.351559378468368,9.18375946864595,-2.2411419950055484,2.034316985756569
6.359558823529411,9.174510110294118,-2.247641544117646,2.0194846813725515
6.367558268590455,9.165260751942288,-2.254141093229744,2.0046523769885325
6.375557713651498,9.156011393590456,-2.2606406423418415,1.9898200726045154
6.383557158712541,9.146762035238625,-2.267140191453939,1.9749877682204982
6.391556603773584,9.137512676886795,-2.2736397405660362,1.9601554638364809
6.3995560488346275,9.128263318534962,-2.2801392896781345,1.945323159452462
6.4075554938956705,9.119013960183132,-2.286638838790232,1.930490855068445
6.4155549389567135,9.1097646018313,-2.2931383879023293,1.9156585506844277
6.423554384017757,9.100515243479467,-2.2996379370144275,1.9008262463004089
6.4315538290788,9.291886852123685,-2.5552203406012435,1.809304178153304
6.439553274139843,9.29025255689616,-2.5584029155180024,1.8281415810389858
6.447552719200887,9.288618261668637,-2.5615854904347617,1.84697898392467
6.45555216426193,9.286983966441111,-2.5647680653515206,1.865816386810352
6.463551609322973,9.285349671213586,-2.56795064026828,1.8846537896960338
6.471551054384017,9.283715375986061,-2.5711332151850392,1.9034911925817177
6.47955049944506,9.282081080758536,-2.574315790101798,1.9223285954673996
6.487549944506103,9.28044678553101,-2.5774983650185574,1.9411659983530816
6.495549389567147,9.278812490303485,-2.5806809399353168,1.9600034012387655
6.50354883462819,9.277178195075962,-2.5838635148520757,1.9788408041244474
6.511548279689233,9.275543899848437,-2.5870460897688345,1.9976782070101293
6.519547724750277,9.273909604620911,-2.5902286646855943,2.0165156098958135
6.52754716981132,9.148381132075471,-2.6611773584905642,2.036147169811327
6.535546614872363,9.145181354051054,-2.682775860155381,1.9593524972253125
6.543546059933407,8.926283593392963,-2.718523601227395,1.9683681008030298
6.55154550499445,8.928542260233728,-2.7124063785336556,1.9566983221257435
6.559544950055493,8.930800927074493,-2.706289155839917,1.9450285434484573
6.567544395116537,8.933059593915258,-2.7001719331461778,1.9333587647711696
6.57554384017758,8.935318260756024,-2.694054710452439,1.9216889860938835
6.583543285238623,8.937576927596789,-2.6879374877587,1.9100192074165971
6.5915427302996665,8.939835594437554,-2.6818202650649607,1.8983494287393095
6.5995421753607095,8.942094261278319,-2.675703042371222,1.8866796500620233
6.6075416204217525,8.944352928119082,-2.6695858196774833,1.875009871384737
6.615541065482796,8.94661159495985,-2.6634685969837437,1.8633400927074495
6.623540510543839,8.948870261800613,-2.657351374290005,1.8516703140301631
6.631539955604882,9.042300538231114,-2.011622611674007,1.5594412540426994
6.639539400665925,9.06156801880825,-2.006031601685106,1.565978434952799
6.647538845726969,9.080835499385389,-2.0004405916962043,1.5725156158628995
6.655538290788012,9.100102979962523,-1.9948495817073033,1.579052796772999
6.663537735849055,9.11937046053966,-1.9892585717184024,1.5855899776830988
6.671537180910099,9.138637941116798,-1.9836675617295008,1.592127158593199
6.679536625971142,9.157905421693934,-1.9780765517405998,1.5986643395032987
6.687536071032185,9.177172902271069,-1.9724855417516987,1.6052015204133985
6.695535516093229,9.196440382848207,-1.966894531762797,1.6117387013234987
6.703534961154272,9.215707863425344,-1.961303521773896,1.6182758822335985
6.711534406215315,9.234975344002478,-1.955712511784995,1.624813063143698
6.719533851276359,9.254242824579617,-1.9501215017960933,1.6313502440537986
6.727533296337402,9.471479467258547,-1.6779012208658362,1.583378468368498
6.735532741398445,9.975491675915375,-0.7500599334071394,1.4623795782463411
6.743532186459489,10.401474015497184,-1.2164229508365114,1.5870295607760911
6.751531631520532,10.384660367081844,-1.3318964216713813,1.6047320364204363
6.759531076581575,10.367846718666504,-1.4473698925062515,1.6224345120647814
6.767530521642619,10.351033070251162,-1.5628433633411345,1.6401369877091283
6.775529966703662,10.334219421835822,-1.6783168341760044,1.6578394633534734
6.783529411764705,10.317405773420482,-1.7937903050108748,1.6755419389978186
6.791528856825749,10.300592125005139,-1.9092637758457576,1.6932444146421655
6.799528301886792,10.283778476589799,-2.024737246680628,1.7109468902865106
6.807527746947835,10.266964828174459,-2.140210717515498,1.7286493659308557
6.8155271920088785,10.250151179759117,-2.2556841883503806,1.7463518415752026
6.8235266370699215,10.233337531343777,-2.3711576591852506,1.7640543172195478
6.8315260821309645,10.216523882928437,-2.486631130020121,1.7817567928638929
6.839525527192008,10.199710234513093,-2.6021046008550037,1.79945926850824
6.847524972253051,10.020733629301072,-2.700550499445078,1.874271920088685
6.855524417314094,8.899429226278258,-2.847985373937632,1.9005707737217417
6.863523862375138,8.916633512231462,-2.8701208246544927,1.8833664877685379
6.871523307436181,8.933837798184664,-2.892256275371351,1.8661622018153359
6.879522752497224,8.951042084137866,-2.9143917260882097,1.848957915862134
6.887522197558267,8.968246370091068,-2.9365271768050687,1.831753629908932
6.895521642619311,8.985450656044272,-2.9586626275219294,1.814549343955728
6.903521087680354,9.002654941997474,-2.980798078238788,1.7973450580025263
6.911520532741397,9.019859227950676,-3.002933528955647,1.7801407720493243
6.919519977802441,9.03706351390388,-3.0250689796725077,1.7629364860961205
6.927519422863484,9.07181609322973,-3.0793142064372647,1.7585723640399484
6.935518867924527,9.181408490566021,-3.270500943396196,1.8089688679245204
6.943518312985571,9.158866537180913,-3.394774694783564,1.747154550499451
6.951517758046614,8.833439682404167,-3.023436160676172,1.9607683201001738
6.959517203107657,8.823594211559808,-3.020667122001196,1.9603580921483255
6.967516648168701,8.813748740715447,-3.017898083326219,1.959947864196477
6.975516093229744,8.803903269871086,-3.0151290446512427,1.9595376362446286
6.983515538290787,8.794057799026724,-3.0123600059762663,1.9591274082927803
6.991514983351831,8.784212328182363,-3.0095909673012895,1.9587171803409318
6.999514428412874,8.774366857338002,-3.006821928626313,1.9583069523890835
7.007513873473917,8.76452138649364,-3.004052889951337,1.9578967244372352
7.0155133185349605,8.75467591564928,-3.00128385127636,1.9574864964853866
7.0235127635960035,8.74483044480492,-2.9985148126013836,1.9570762685335383
7.0315122086570465,9.162758046614687,-2.746756659267427,1.7640732519422786
7.03951165371809,9.23763955082588,-2.790308219625251,1.7734069987595475
7.047511098779133,9.242580384540053,-2.815130027094076,1.7802300548410255
7.055510543840176,9.247521218254228,-2.8399518345629007,1.7870531109225034
7.06350998890122,9.2524620519684,-2.8647736420317282,1.793876167003982
7.071509433962263,9.257402885682575,-2.889595449500553,1.80069922308546
7.079508879023306,9.262343719396748,-2.9144172569693776,1.8075222791669379
7.08750832408435,9.267284553110922,-2.939239064438205,1.8143453352484165
7.095507769145393,9.272225386825097,-2.96406087190703,1.8211683913298944
7.103507214206436,9.247,-3.071,1.853
7.111506659267479,9.1430666719518,-3.062104627337149,1.7569333280481993
7.119506104328523,9.137352782622484,-3.049182446853924,1.7626472173775165
7.127505549389566,9.131638893293168,-3.036260266370701,1.7683611067068328
7.135504994450609,9.12592500396385,-3.023338085887478,1.7740749960361493
7.143504439511653,9.120211114634534,-3.010415905404253,1.7797888853654664
7.151503884572696,9.114497225305218,-2.99749372492103,1.7855027746947827
7.159503329633739,9.108783335975902,-2.9845715444378063,1.7912166640240992
7.167502774694783,9.103069446646584,-2.971649363954582,1.7969305533534163
7.175502219755826,9.097355557317268,-2.958727183471358,1.8026444426827328
7.183501664816869,9.091641667987952,-2.945805002988135,1.808358332012049
7.191501109877913,9.085927778658634,-2.93288282250491,1.8140722213413663
7.199500554938956,8.998017758046581,-2.8639334073253186,1.752037735848986
7.207499999999999,9.015217213114752,-2.7998524590163942,1.7847827868852462
7.215499445061043,9.016987582103672,-2.7938200906097053,1.7830124178963267
7.223498890122086,9.018757951092592,-2.787787722203017,1.7812420489074072
7.231498335183129,9.020528320081512,-2.781755353796329,1.779471679918488
7.2394977802441725,9.022298689070432,-2.77572298538964,1.7777013109295683
7.2474972253052155,9.02406905805935,-2.769690616982952,1.775930941940649
7.2554966703662584,9.02583942704827,-2.763658248576264,1.7741605729517296
7.263496115427302,9.02760979603719,-2.7576258801695754,1.77239020396281
7.271495560488345,9.02938016502611,-2.751593511762887,1.7706198349738906
7.279495005549388,9.031150534015028,-2.745561143356199,1.7688494659849714
7.287494450610432,9.032920903003948,-2.7395287749495103,1.7670790969960517
7.295493895671475,9.034691271992868,-2.7334964065428218,1.7653087280071325
7.303493340732518,9.036461640981788,-2.7274640381361337,1.763538359018213
7.311492785793562,9.038232009970706,-2.721431669729445,1.7617679900292935
7.319492230854605,9.040002378959626,-2.715399301322757,1.759997621040374
7.327491675915648,9.050776692563815,-2.6798765815760355,1.7492233074361847
7.335491120976692,9.171630133185342,-2.624408435072165,1.7283698668146572
7.343490566037735,9.330693286529174,-2.4590482667836935,1.5813163668275578
7.351490011098778,9.36399330201584,-2.3540322961567446,1.5694102160390286
7.359489456159821,9.397293317502509,-2.2490163255297952,1.5575040652504994
7.367488901220865,9.430593332989181,-2.144000354902835,1.545597914461969
7.375488346281908,9.463893348475848,-2.038984384275886,1.5336917636734397
7.383487791342951,9.497193363962516,-1.933968413648937,1.5217856128849105
7.391487236403995,9.530493379449187,-1.8289524430219766,1.50987946209638
7.399486681465038,9.563793394935855,-1.7239364723950277,1.4979733113078508
7.407486126526081,9.597093410422522,-1.6189205017680788,1.4860671605193216
7.415485571587125,9.630393425909194,-1.5139045311411181,1.4741610097307911
7.423485016648168,9.66369344139586,-1.4088885605141692,1.462254858942262
7.431484461709211,9.654385682575008,-1.6506362375138113,1.5420402330743406
7.4394839067702545,9.41279737791343,-1.7380262208657045,1.5685160932297453
7.4474833518312975,9.412547395255272,-1.7405260474472806,1.5605166481687023
7.4554827968923405,9.412297412597114,-1.7430258740288564,1.5525172031076593
7.463482241953384,9.412047429938957,-1.7455257006104326,1.5445177580466154
7.471481687014427,9.411797447280799,-1.7480255271920087,1.5365183129855724
7.47948113207547,9.411547464622641,-1.7505253537735845,1.5285188679245296
7.487480577136514,9.411297481964484,-1.7530251803551606,1.5205194228634857
7.495480022197557,9.411047499306326,-1.7555250069367367,1.5125199778024427
7.5034794672586,9.410797516648168,-1.7580248335183126,1.5045205327413997
7.511478912319644,9.41054753399001,-1.7605246600998887,1.4965210876803559
7.519478357380687,9.410297551331853,-1.7630244866814648,1.4885216426193129
7.52747780244173,9.410047568673695,-1.7655243132630407,1.4805221975582699
7.535477247502774,9.23,-1.611,1.54
7.543476692563817,9.221588720865705,-1.6098105261830291,1.5398300751690042
7.55147613762486,9.212589345172033,-1.608537887196045,1.5396482695994351
7.559475582685904,9.203589969478358,-1.6072652482090606,1.5394664640298659
7.567475027746947,9.194590593784685,-1.6059926092220767,1.5392846584602966
7.57547447280799,9.18559121809101,-1.6047199702350925,1.5391028528907276
7.583473917869034,9.176591842397336,-1.6034473312481081,1.5389210473211583
7.591473362930077,9.167592466703663,-1.602174692261124,1.5387392417515893
7.59947280799112,9.15859309100999,-1.60090205327414,1.53855743618202
7.607472253052163,9.149593715316318,-1.5996294142871559,1.538375630612451
7.615471698113207,9.140594339622643,-1.5983567753001715,1.5381938250428817
7.62347114317425,9.131594963928968,-1.5970841363131876,1.5380120194733125
7.631470588235293,9.228,-1.641,1.445
7.639470033296337,9.229294006659268,-1.62158990011099,1.5064653163151986
7.64746947835738,9.244898261191267,-1.5353499403954614,1.527860676066376
7.6554689234184226,9.27156307806141,-1.3999519258437343,1.5061337882462593
7.663468368479466,9.298227894931555,-1.2645539112919921,1.4844069004261402
7.671467813540509,9.324892711801699,-1.129155896740265,1.4626800126060235
7.679467258601552,9.351557528671842,-0.9937578821885379,1.4409531247859069
7.687466703662596,9.378222345541987,-0.8583598676367958,1.4192262369657878
7.695466148723639,9.40488716241213,-0.7229618530850687,1.397499349145671
7.703465593784682,9.431551979282274,-0.5875638385333415,1.3757724613255544
7.711465038845726,9.45821679615242,-0.4521658239815993,1.3540455735054353
7.719464483906769,9.484881613022564,-0.31676780942987226,1.3323186856853186
7.727463928967812,9.6,-0.2593074361819937,1.429798002219748
7.735463374028856,9.709267480577116,-0.36044839067701545,1.4592974472807962
7.743462819089899,10.030854605993273,-0.4347806141324363,1.6412933777283996
7.751462264150942,10.389687458379584,-0.5317389567147424,1.9236160932297401
7.759461709211986,10.356183900241563,-0.6868340797806286,1.9613546516941942
7.767461154273029,10.322680342103547,-0.8419292028464976,1.999093210158644
7.775460599334072,10.289176783965534,-0.9970243259123667,2.036831768623094
7.783460044395116,10.255673225827513,-1.152119448978253,2.074570327087548
7.791459489456159,10.222169667689498,-1.307214572044122,2.112308885551998
7.799458934517202,10.188666109551482,-1.462309695109991,2.1500474440164483
7.807458379578246,10.155162551413463,-1.6174048181758771,2.187786002480902
7.815457824639289,10.121658993275448,-1.7724999412417461,2.225524560945352
7.823457269700332,10.088155435137432,-1.9275950643076152,2.2632631194098023
7.831456714761375,10.054651876999417,-2.082690187373484,2.301001677874252
7.839456159822419,9.104226097986452,-2.1196667195179937,1.6655787220548697
7.847455604883462,7.824263752525701,-2.0596525655254734,1.8195907538632248
7.855455049944505,7.721296536611763,-2.12918620336377,1.8448197729018987
7.8634544950055485,7.618329320697813,-2.1987198412020743,1.8700487919405755
7.8714539400665915,7.515362104783876,-2.2682534790403706,1.8952778109792494
7.8794533851276345,7.4123948888699385,-2.3377871168786672,1.9205068300179235
7.887452830188678,7.309427672955989,-2.4073207547169715,1.9457358490566001
7.895452275249721,7.206460457042052,-2.476854392555268,1.9709648680952743
7.903451720310764,7.103493241128114,-2.546388030393565,1.9961938871339482
7.911451165371808,7.000526025214165,-2.615921668231869,2.0214229061726248
7.919450610432851,6.897558809300227,-2.685455306070166,2.046651925211299
7.927450055493894,6.622796522382627,-2.6306984831668903,2.1622016278208984
7.935449500554938,6.989997961202512,-2.984456208077988,2.015733170872954
7.943448945615981,7.29249871519565,-2.8502046518361355,1.8152253414081145
7.951448390677024,7.594999469188789,-2.715953095594283,1.614717511943275
7.959447835738068,7.89750022318196,-2.5817015393524154,1.4142096824784134
7.967447280799111,8.200000977175097,-2.447449983110563,1.213701853013574
7.975446725860154,8.502501731168236,-2.3131984268687105,1.0131940235487344
7.983446170921198,8.805002485161408,-2.178946870626843,0.8126861940838728
7.991445615982241,9.107503239154546,-2.04469531438499,0.6121783646190335
7.999445061043284,9.410003993147685,-1.9104437581431377,0.41167053515419405
8.007444506104328,9.712504747140855,-1.7761922019012701,0.21116270568933238
8.01544395116537,10.01500550113396,-1.6419406456594325,0.01065487622451533
8.023443396226414,10.317506255127132,-1.507689089417565,-0.18985295324034634
8.031442841287458,11.56455584703866,-1.8223274139844468,-1.7888245383916508
8.0394422863485,10.90787412975499,-2.406286903440467,-3.1683652002821496
8.047441731409544,10.705648449513946,-2.501218084323982,-3.445692456841793
8.055441176470588,10.613317505315392,-2.4778944011339505,-3.4564868887313946
8.06344062153163,10.520986561116857,-2.4545707179439242,-3.4672813206209936
8.071440066592674,10.428655616918302,-2.431247034753893,-3.4780757525105948
8.079439511653717,10.336324672719748,-2.4079233515638614,-3.4888701844001964
8.08743895671476,10.243993728521215,-2.384599668373835,-3.4996646162897953
8.095438401775803,10.15166278432266,-2.3612759851838034,-3.5104590481793965
8.103437846836847,10.059331840124106,-2.337952301993772,-3.521253480068998
8.11143729189789,9.96700089592557,-2.3146286188037455,-3.532047911958597
8.119436736958933,9.874669951727016,-2.2913049356137143,-3.542842343848198
8.127436182019977,8.634821309656074,-1.8257147613767502,-2.7124667036625585
8.13543562708102,7.857689109478839,0.672517352754113,-3.512308807941227
8.143435072142063,7.9437954956415355,0.7003805883599961,-3.573068637843088
8.151434517203107,8.029901881804232,0.7282438239658791,-3.633828467744949
8.15943396226415,8.11600826796691,0.756107059571756,-3.6945882976467965
8.167433407325193,8.202114654129607,0.783970295177639,-3.7553481275486575
8.175432852386237,8.288221040292303,0.811833530783522,-3.816107957450519
8.183432297447279,8.37432742645498,0.8396967663893989,-3.8768677873523667
8.191431742508323,8.460433812617678,0.867560001995282,-3.9376276172542277
8.199431187569367,8.546540198780376,0.895423237601165,-3.9983874471560887
8.207430632630409,8.632646584943052,0.923286473207042,-4.059147277057937
8.215430077691453,8.718752971105749,0.951149708812925,-4.119907106959798
8.223429522752497,8.804859357268446,0.979012944418808,-4.180666936861659
8.231428967813539,8.183867172675502,4.3266402324776365,-7.302618983686019
8.239428412874583,8.293278937381391,4.413171863998176,-7.146328750611644
8.247427857935627,8.402690702087282,4.499703495518715,-6.990038517537271
8.255427302996669,8.512102466793149,4.586235127039235,-6.833748284462932
8.263426748057713,8.62151423149904,4.672766758559774,-6.677458051388559
8.271426193118756,8.73092599620493,4.759298390080314,-6.521167818314185
8.279425638179799,8.840337760910796,4.845830021600834,-6.364877585239846
8.287425083240842,8.949749525616687,4.932361653121373,-6.208587352165472
8.295424528301886,9.059161290322576,5.018893284641912,-6.052297119091099
8.303423973362928,9.168573055028443,5.105424916162432,-5.89600688601676
8.311423418423972,9.277984819734334,5.191956547682972,-5.739716652942386
8.319422863485016,9.387396584440223,5.278488179203511,-5.583426419868013
8.327422308546058,7.799010266372436,5.099944228634854,-7.762483629301955
8.335421753607102,6.03926692563817,5.289113762486104,-6.2059554030874695
8.343421198668146,6.082263942841281,5.386107033851262,-6.243043739279583
8.351420643729188,6.125260960044383,5.483100305216399,-6.280132075471688
8.359420088790232,6.168257977247494,5.5800935765815565,-6.317220411663801
8.367419533851276,6.211254994450606,5.677086847946715,-6.354308747855914
8.375418978912318,6.2542520116537075,5.774080119311852,-6.391397084048018
8.383418423973362,6.297249028856818,5.87107339067701,-6.428485420240131
8.391417869034406,6.34024604605993,5.968066662042167,-6.465573756432244
8.399417314095448,6.3832430632630315,6.065059933407304,-6.502662092624349
8.407416759156492,6.426240080466143,6.162053204772462,-6.539750428816461
8.415416204217536,6.469237097669254,6.25904647613762,-6.576838765008574
8.423415649278578,6.457004716981342,6.252283296337795,-6.631535516093153
8.431415094339622,5.151584905660382,4.708830188679274,-7.308867924528286
8.439414539400664,5.013797297120842,4.079072821048475,-7.1162448717112055
8.447413984461708,5.023961297904287,4.181277495593107,-7.010181641313599
8.455413429522752,5.034125298687731,4.28348217013774,-6.904118410915992
8.463412874583794,5.044289299471172,4.385686844682349,-6.798055180518409
8.471412319644838,5.054453300254616,4.487891519226982,-6.691991950120803
8.479411764705882,5.064617301038061,4.590096193771614,-6.585928719723197
8.487411209766924,5.074781301821503,4.692300868316224,-6.479865489325613
8.495410654827968,5.084945302604947,4.794505542860856,-6.373802258928007
8.503410099889011,5.095109303388391,4.896710217405489,-6.2677390285304
8.511409544950054,5.105273304171833,4.998914891950099,-6.161675798132817
8.519408990011097,5.115437304955277,5.101119566494731,-6.055612567735211
8.527408435072141,5.2484170921198805,4.971163817980011,-5.936351387347401
8.535407880133183,4.698481387721511,5.9935300789385195,-5.814790650837369
8.543407325194227,4.689852772824205,5.956768584219789,-5.898829764680921
8.551406770255271,4.681224157926899,5.920007089501059,-5.9828688785244735
8.559406215316313,4.672595543029595,5.883245594782337,-6.066907992368007
8.567405660377357,4.6639669281322895,5.8464841000636065,-6.150947106211559
8.575405105438401,4.655338313234983,5.809722605344876,-6.234986220055112
8.583404550499443,4.64670969833768,5.772961110626154,-6.3190253338986455
8.591403995560487,4.638081083440373,5.736199615907424,-6.403064447742198
8.599403440621531,4.629452468543067,5.6994381211886935,-6.48710356158575
8.607402885682573,4.6208238536457635,5.662676626469971,-6.571142675429283
8.615402330743617,4.612195238748457,5.625915131751241,-6.655181789272836
8.62340177580466,4.491301886792487,5.5552419533851385,-6.9184106548279125
8.631401220865703,4.51602202413985,6.056097912042222,-7.638674008046617
8.639400665926747,4.496523376803555,5.87861022475031,-7.632174458934519
8.64740011098779,4.477024729467261,5.701122537458399,-7.62567490982242
8.655399556048833,4.457526082130971,5.523634850166528,-7.619175360710324
8.663399001109877,4.438027434794677,5.346147162874616,-7.612675811598225
8.67139844617092,4.418528787458382,5.1686594755827056,-7.6061762624861275
8.679397891231963,4.3990301401220915,4.991171788290834,-7.599676713374031
8.687397336293007,4.379531492785797,4.813684100998923,-7.593177164261933
8.69539678135405,4.360032845449503,4.636196413707012,-7.586677615149834
8.703396226415093,4.340534198113213,4.45870872641514,-7.580178066037737
8.711395671476136,4.3210355507769185,4.281221039123229,-7.573678516925639
8.71939511653718,4.301536903440624,4.103733351831318,-7.5671789678135415
8.727394561598222,4.268354801854224,3.9201691258080023,-7.5460530782791135
8.735394006659266,3.971434223411939,3.6194841026311075,-7.243015277143088
8.74339345172031,3.6745136449696534,3.3187990794542133,-6.939977476007063
8.751392896781352,4.606607103218648,5.156107214206755,-5.536113207546897
8.759392341842396,4.657273738683919,4.810541072168793,-5.807597802976628
8.76739178690344,4.736304400732786,4.987878167497959,-5.618598866052447
8.775391231964482,4.815335062781636,5.165215262827084,-5.429599929128308
8.783390677025526,4.894365724830503,5.34255235815625,-5.240600992204127
8.79139012208657,4.9733963868793705,5.519889453485415,-5.051602055279946
8.799389567147612,5.0524270489282195,5.697226548814541,-4.862603118355807
8.807389012208656,5.131457710977087,5.874563644143706,-4.673604181431626
8.8153884572697,5.210488373025954,6.051900739472871,-4.484605244507445
8.823387902330742,5.289519035074804,6.229237834801998,-4.295606307583306
8.831387347391786,5.368549697123671,6.406574930131162,-4.106607370659125
8.83938679245283,5.265789622641506,7.572578301886806,-3.987947169811325
8.847386237513872,5.114600110987833,8.227732852386053,-4.189533185349555
8.855385682574916,4.9439950903317325,8.33400028517697,-4.362193411641395
8.86338512763596,4.931218198914787,8.312112914662723,-4.322418393143427
8.871384572697002,4.9184413074978455,8.290225544148482,-4.282643374645467
8.879384017758046,4.9056644160809,8.268338173634238,-4.242868356147498
8.88738346281909,4.892887524663955,8.246450803119991,-4.20309333764953
8.895382907880132,4.880110633247012,8.224563432605752,-4.1633183191515695
8.903382352941176,4.867333741830067,8.202676062091506,-4.1235433006536
8.91138179800222,4.854556850413122,8.180788691577261,-4.083768282155632
8.919381243063262,4.84177995899618,8.15890132106302,-4.043993263657672
8.927380688124305,4.7680199778024255,7.737068072512043,-4.457485386607546
8.935380133185348,4.663472757542144,7.241373398244358,-4.143147866007459
8.943379578246391,4.556086267783283,7.336275905559469,-4.178781757643018
8.951379023307435,4.448699778024422,7.431178412874579,-4.214415649278577
8.959378468368477,4.341313288265585,7.526080920189669,-4.250049540914128
8.967377913429521,4.233926798506725,7.620983427504779,-4.285683432549687
8.975377358490565,4.126540308747864,7.715885934819889,-4.321317324185246
8.983376803551607,4.019153818989027,7.810788442134979,-4.356951215820797
8.991376248612651,3.911767329230166,7.905690949450089,-4.392585107456355
8.999375693673695,3.8043808394713055,8.0005934567652,-4.428218999091914
9.007375138734737,3.653091231964438,8.4137123936367,-4.022856061166633
9.015374583795781,3.8682763041065193,8.407579485756568,-3.8918429276113136
9.023374028856825,4.0834613762486,8.401446577876435,-3.7608297940559945
9.031373473917867,4.298646448390633,8.395313669996302,-3.6298166605007047
9.039372918978911,4.513831520532714,8.389180762116169,-3.4988035269453857
9.047372364039955,4.729016592674795,8.383047854236034,-3.367790393390067
9.055371809100997,4.944201664816828,8.376914946355901,-3.236777259834777
9.06337125416204,5.1593867369589095,8.370782038475769,-3.105764126279458
9.071370699223085,5.37457180910099,8.364649130595636,-2.974750992724139
9.079370144284127,5.589756881243023,8.358516222715503,-2.8437378591688494
9.08736958934517,5.804941953385104,8.35238331483537,-2.7127247256135307
9.095369034406215,6.020127025527184,8.346250406955235,-2.5817115920582117
9.103368479467257,6.52294551508426,7.762230652810012,-1.803851478155572
9.1113679245283,6.487554030874793,7.75188793596341,-1.8497472841623692
9.119367369589344,6.452162546665326,7.741545219116808,-1.8956430901691663
9.127366814650387,6.416771062455867,7.731202502270208,-1.9415388961759532
9.13536625971143,6.3813795782464,7.720859785423606,-1.9874347021827503
9.143365704772474,6.345988094036933,7.710517068577004,-2.0333305081895476
9.151365149833516,6.310596609827474,7.7001743517304035,-2.0792263141963345
9.15936459489456,6.275205125618008,7.689831634883801,-2.1251221202031316
9.167364039955604,6.239813641408541,7.679488918037199,-2.1710179262099287
9.175363485016646,6.204422157199082,7.6691462011906,-2.2169137322167156
9.18336293007769,6.169030672989615,7.658803484343998,-2.2628095382235127
9.191362375138734,6.1336391887801485,7.6484607674973955,-2.30870534423031
9.199361820199776,6.0982477045706895,7.638118050650795,-2.354601150237097
9.20736126526082,6.447392896781303,7.901711431742643,-2.4033762486128114
9.215360710321864,6.65537846836845,7.34175027746956,-1.7474217536071985
9.223360155382906,6.549249771702327,7.102270325517362,-1.676591199651584
9.23135960044395,6.5570466991668885,7.07341156801866,-1.66666783742396
9.239359045504994,6.5648436266314505,7.044552810519957,-1.6567444751963363
9.247358490566036,6.57264055409601,7.015694053021262,-1.6468211129687145
9.25535793562708,6.580437481560572,6.986835295522559,-1.6368977507410905
9.263357380688124,6.588234409025134,6.957976538023857,-1.6269743885134664
9.271356825749166,6.596031336489693,6.929117780525161,-1.6170510262858446
9.27935627081021,6.603828263954255,6.900259023026458,-1.6071276640582208
9.287355715871254,6.611625191418817,6.871400265527756,-1.5972043018305968
9.295355160932296,6.619422118883377,6.8425415080290595,-1.587280939602975
9.30335460599334,6.806021365149872,6.992284406215632,-1.8591206992231433
9.311354051054384,6.793596326662131,6.7071677347749805,-1.8066646020550643
9.319353496115426,6.82456192044681,6.726263184275533,-1.8100192080484045
9.32735294117647,6.855527514231496,6.745358633776089,-1.8133738140417455
9.335352386237513,6.886493108016182,6.764454083276646,-1.8167284200350864
9.343351831298556,6.917458701800861,6.783549532777197,-1.8200830260284266
9.3513512763596,6.948424295585547,6.802644982277754,-1.8234376320217676
9.359350721420643,6.979389889370233,6.82174043177831,-1.8267922380151087
9.367350166481685,7.010355483154912,6.8408358812788626,-1.8301468440084487
9.37534961154273,7.041321076939598,6.8599313307794185,-1.8335014500017899
9.383349056603773,7.072286670724284,6.879026780279975,-1.8368560559951308
9.391348501664815,7.1032522645089635,6.898122229780527,-1.840210661988471
9.39934794672586,7.101367092119881,6.974208287088388,-1.8690603033666155
9.407347391786901,7.248668146503456,6.358560488346963,-1.6831542730302778
9.415346836847945,8.186027796275736,4.772304112714259,-2.4729145517326283
9.423346281908989,8.211270489579475,4.805457368356141,-2.5232221728943047
9.431345726970031,8.236513182883208,4.838610623998015,-2.5735297940559696
9.439345172031075,8.261755876186946,4.871763879639897,-2.6238374152176456
9.447344617092119,8.286998569490684,4.90491713528178,-2.6741450363793215
9.455344062153161,8.312241262794418,4.938070390923654,-2.7244526575409864
9.463343507214205,8.337483956098156,4.9712236465655355,-2.774760278702663
9.471342952275249,8.362726649401894,5.004376902207418,-2.825067899864339
9.479342397336291,8.387969342705627,5.037530157849292,-2.8753755210260037
9.487341842397335,8.413212036009366,5.070683413491174,-2.9256831421876797
9.495341287458379,8.438454729313104,5.103836669133056,-2.9759907633493556
9.50334073251942,7.55213614502348,3.812909729929998,-2.5704951905294053
9.511340177580465,9.277635024754028,4.0063956465350685,-1.575543104415794
9.519339622641509,9.174990460038162,3.9216374814500754,-1.8469849480602032
9.52733906770255,9.072345895322318,3.836879316365102,-2.118426791704552
9.535338512763595,8.969701330606453,3.752121151280109,-2.3898686353489613
9.543337957824638,8.867056765890586,3.6673629861951165,-2.6613104789933706
9.55133740288568,8.764412201174743,3.5826048211101424,-2.93275232263772
9.559336847946724,8.661767636458878,3.4978466560251498,-3.2041941662821287
9.567336293007768,8.559123071743011,3.413088490940157,-3.475636009926538
9.57533573806881,8.456478507027168,3.328330325855183,-3.747077853570887
9.583335183129854,8.353833942311303,3.2435721607701904,-4.018519697215297
9.591334628190898,8.251189377595436,3.158813995685198,-4.289961540859705
9.59933407325194,8.148544812879592,3.074055830600224,-4.561403384504055
9.607333518312984,7.215143118756854,2.284600610432847,-4.547259045505059
9.615332963374028,8.592759896411376,2.655234554199051,-4.060683684794691
9.62333240843507,8.534411426697629,2.667662294420333,-4.098058081929154
9.631331853496114,8.435581919079825,2.705477852890722,-4.1723074765412065
9.639331298557158,8.33675241146202,2.743293411361111,-4.246556871153258
9.6473307436182,8.237922903844238,2.7811089698314913,-4.3208062657652935
9.655330188679244,8.139093396226432,2.81892452830188,-4.395055660377346
9.663329633740288,8.040263888608628,2.856740086772269,-4.469305054989397
9.67132907880133,7.941434380990845,2.8945556452426495,-4.543554449601433
9.679328523862374,7.84260487337304,2.9323712037130383,-4.617803844213485
9.687327968923418,7.743775365755235,2.9701867621834275,-4.692053238825537
9.69532741398446,7.6449458581374525,3.008002320653808,-4.766302633437572
9.703326859045504,7.546116350519648,3.0458178791241965,-4.840552028049625
9.711326304106548,7.447286842901843,3.0836334375945853,-4.914801422661677
9.71932574916759,7.34845733528406,3.121448996064966,-4.9890508172737125
9.727325194228634,7.290516093229709,2.992320199778261,-5.0967192008878355
9.735324639289678,8.059713743987992,2.9360068442470695,-5.485404920458679
9.74332408435072,7.166719660147731,2.5263955757970114,-5.252405615727094
9.751323529411764,7.160651115618663,2.5123275862069,-5.266105814739686
9.759322974472807,7.154582571089595,2.498259596616788,-5.279806013752278
9.76732241953385,7.1485140265605285,2.4841916070266796,-5.293506212764868
9.775321864594893,7.1424454820314605,2.4701236174365677,-5.30720641177746
9.783321309655937,7.136376937502393,2.4560556278464563,-5.320906610790052
9.79132075471698,7.130308392973326,2.4419876382563475,-5.334606809802642
9.799320199778023,7.124239848444259,2.4279196486662356,-5.348307008815234
9.807319644839067,7.118171303915191,2.413851659076124,-5.362007207827827
9.81531908990011,7.112102759386125,2.3997836694860153,-5.375707406840416
9.823318534961153,7.106034214857057,2.385715679895904,-5.389407605853009
9.831317980022197,7.5643811320754555,1.5136345172031356,-6.570827413984486
9.83931742508324,8.46492373180127,-0.12448047267741692,-5.215087393092647
9.847316870144283,8.440172507671216,-0.12739791734673878,-5.173113834301758
9.855316315205327,8.415421283541162,-0.13031536201606064,-5.1311402755108695
9.863315760266369,8.390670059411114,-0.13323280668538184,-5.0891667167199905
9.871315205327413,8.365918835281061,-0.1361502513547037,-5.047193157929102
9.879314650388455,8.341167611151015,-0.1390676960240249,-5.005219599138222
9.887314095449499,8.316416387020961,-0.14198514069334678,-4.963246040347333
9.895313540510543,8.291665162890908,-0.14490258536266865,-4.921272481556445
9.903312985571585,8.26691393876086,-0.14782003003198985,-4.879298922765566
9.911312430632629,8.242162714630807,-0.1507374747013117,-4.837325363974677
9.919311875693673,8.217411490500753,-0.15365491937063355,-4.795351805183788
9.927311320754715,8.226838050314454,-0.1959575471697885,-4.621511006289394
9.935310765815759,9.30761707964933,-0.2709675766002832,-4.0670883662347705
9.943310210876803,9.305280163114642,-0.2585639426854062,-4.067627654665852
9.951309655937845,9.302943246579956,-0.24616030877053202,-4.068166943096934
9.959309100998889,9.300606330045268,-0.23375667485565504,-4.068706231528015
9.967308546059932,9.298269413510582,-0.22135304094077804,-4.069245519959097
9.975307991120975,9.295932496975896,-0.2089494070259038,-4.069784808390178
9.983307436182018,9.293595580441208,-0.19654577311102683,-4.07032409682126
9.991306881243062,9.291258663906522,-0.18414213919614986,-4.070863385252341
9.999306326304104,9.288921747371834,-0.17173850528127566,-4.071402673683423
10.007305771365148,9.286584830837148,-0.15933487136639865,-4.071941962114504
10.015305216426192,9.28424791430246,-0.14693123745152167,-4.072481250545587
10.023304661487234,9.284437291897877,-0.15734184239720503,-4.0936154273028755
10.031304106548278,9.21400688124296,-0.28277669256392685,-4.365615094339516
10.039303551609322,8.990016717536085,-0.3774857103218603,-4.890522752497226
10.047302996670364,8.876660944909727,-0.4118469629704279,-4.880341640601355
10.055302441731408,8.763305172283342,-0.44620821561900303,-4.8701605287054806
10.063301886792452,8.649949399656958,-0.4805694682675783,-4.859979416809606
10.071301331853494,8.536593627030598,-0.5149307209161458,-4.849798304913734
10.079300776914538,8.423237854404213,-0.549291973564721,-4.83961719301786
10.087300221975582,8.30988208177783,-0.5836532262132962,-4.829436081121986
10.095299667036624,8.196526309151471,-0.6180144788618638,-4.819254969226114
10.103299112097668,8.083170536525087,-0.6523757315104389,-4.80907385733024
10.111298557158712,7.969814763898702,-0.6867369841590141,-4.798892745434366
10.119298002219754,7.856458991272343,-0.7210982368075818,-4.788711633538494
10.127297447280798,8.174596559377996,-0.4283035516094982,-4.778529411764572
10.135296892341842,8.41935445519471,0.2276672598079446,-4.970252997876769
10.143296337402884,8.421876019398734,0.21401603291029675,-4.864608152777137
10.151295782463928,8.42439758360276,0.20036480601264586,-4.758963307677482
10.159295227524971,8.426919147806784,0.18671357911499495,-4.653318462577827
10.167294672586014,8.429440712010807,0.1730623522173471,-4.547673617478195
10.175294117647057,8.431962276214833,0.1594111253196962,-4.44202877237854
10.183293562708101,8.434483840418856,0.1457598984220453,-4.336383927278885
10.191293007769143,8.437005404622882,0.13210867152439743,-4.230739082179253
10.199292452830187,8.439526968826906,0.11845744462674652,-4.125094237079598
10.207291897891231,8.442048533030931,0.10480621772909562,-4.019449391979943
10.215291342952273,8.444570097234955,0.09115499083144776,-3.913804546880312
10.223290788013317,8.594720310764863,0.08556048834623321,-3.8026947835738665
10.231290233074361,9.120141910879164,0.357288095969018,-3.735536011996127
10.239289678135403,9.134608992372538,0.3722657803386286,-3.7374082225423284
10.247289123196447,9.149076073865915,0.3872434647082425,-3.7392804330885303
10.255288568257491,9.163543155359292,0.4022211490778564,-3.741152643634732
10.263288013318533,9.178010236852666,0.41719883344746694,-3.7430248541809332
10.271287458379577,9.192477318346043,0.4321765178170809,-3.744897064727135
10.279286903440621,9.20694439983942,0.44715420218669477,-3.746769275273337
10.287286348501663,9.221411481332794,0.4621318865563053,-3.748641485819538
10.295285793562707,9.235878562826171,0.4771095709259192,-3.75051369636574
10.30328523862375,9.250345644319548,0.4920872552955331,-3.752385906911942
10.311284683684793,9.264812725812922,0.5070649396651437,-3.754258117458143
10.319284128745837,9.279279807306299,0.5220426240347575,-3.7561303280043448
10.32728357380688,8.984865704772476,0.4388504439511517,-3.8973584905660505
10.335283018867923,8.923735849056616,0.3379517819706749,-3.8616708595387865
10.343282463928967,8.900243703075017,0.3223388000261126,-3.8539001175164858
10.35128190899001,8.887821035450807,0.3405963569889655,-3.8474064503492853
10.359281354051053,8.8753983678266,0.3588539139518144,-3.8409127831820866
10.367280799112097,8.86297570020239,0.3771114709146673,-3.834419116014886
10.375280244173139,8.850553032578185,0.39536902787751615,-3.8279254488476875
10.383279689234183,8.838130364953976,0.41362658484036907,-3.8214317816804875
10.391279134295226,8.825707697329767,0.431884141803222,-3.814938114513287
10.399278579356269,8.813285029705561,0.4501416987660709,-3.8084444473460883
10.407278024417312,8.800862362081352,0.4683992557289238,-3.801950780178888
10.415277469478356,8.788439694457143,0.48665681269177674,-3.795457113011688
10.423276914539398,8.806092119866767,0.37175471698135,-3.7389234184240587
10.431276359600442,8.964502397336291,0.526720443951169,-3.9387823418424044
10.439275804661486,8.96978203107658,0.5116814872364064,-3.909904345172036
10.447275249722528,8.975061664816868,0.4966425305216472,-3.8810263485016736
10.455274694783572,8.980341298557157,0.4816035738068846,-3.852148351831305
10.463274139844616,8.985620932297445,0.4665646170921221,-3.8232703551609366
10.471273584905658,8.990900566037734,0.45152566037736286,-3.7943923584905743
10.479273029966702,8.996180199778022,0.43648670366260034,-3.765514361820206
10.487272475027746,9.001459833518313,0.42144774694783776,-3.7366363651498373
10.495271920088788,9.0067394672586,0.4064087902330785,-3.707758368479475
10.503271365149832,9.012019100998888,0.391369833518316,-3.6788803718091065
10.511270810210876,9.017298734739178,0.37633087680355337,-3.650002375138738
10.519270255271918,9.022578368479465,0.3612919200887942,-3.6211243784683758
10.527269700332962,9.027858002219755,0.34625296337403166,-3.5922463817980073
10.535269145394006,8.76964082236668,1.0795715166569628,-3.8197870267603986
10.543268590455048,8.788687120131065,1.1857228828638064,-3.754013811814053
10.551268035516092,8.807733417895456,1.2918742490706734,-3.688240596867693
10.559267480577136,8.826779715659846,1.3980256152775405,-3.6224673819213327
10.567266925638178,8.845826013424231,1.504176981484384,-3.556694166974987
10.575266370699222,8.864872311188622,1.6103283476912509,-3.4909209520286266
10.583265815760265,8.883918608953012,1.716479713898118,-3.4251477370822663
10.591265260821308,8.902964906717397,1.8226310801049614,-3.359374522135921
10.599264705882351,8.992352941176383,1.8829117647059173,-3.3469999999999485
10.607264150943395,9.156445878848068,2.1100287984111192,-3.6104528301886787
10.615263596004437,9.133289590513472,2.1277959869151184,-3.612052719200887
10.623263041065481,9.11013330217887,2.145563175419121,-3.613652608213096
10.631262486126525,9.086977013844269,2.1633303639231243,-3.615252497225305
10.639261931187567,9.063820725509673,2.181097552427123,-3.6168523862375133
10.647261376248611,9.040664437175073,2.198864740931126,-3.618452275249722
10.655260821309655,9.017508148840472,2.216631929435129,-3.620052164261931
10.663260266370697,8.994351860505876,2.234399117939128,-3.6216520532741394
10.671259711431741,8.971195572171276,2.252166306443131,-3.6232519422863483
10.679259156492785,8.948039283836673,2.269933494947134,-3.624851831298557
10.687258601553827,8.924882995502077,2.287700683451133,-3.6264517203107656
10.695258046614871,8.901726707167477,2.305467871955136,-3.6280516093229744
10.703257491675915,8.216067924528295,1.7927944506104365,-3.7126053274139856
10.711256936736957,8.528846226415048,1.6000078246393177,-3.6382104883462927
10.719256381798,8.605986439309856,1.5477622843305427,-3.625071314700837
10.727255826859045,8.617476551306629,1.534672283321562,-3.6289983150035314
10.735255271920087,8.628966663303398,1.5215822823125842,-3.632925315306225
10.74325471698113,8.640456775300171,1.5084922813036035,-3.6368523156089188
10.751254162042175,8.651946887296942,1.4954022802946227,-3.640779315911613
10.759253607103217,8.663436999293712,1.4823122792856447,-3.6447063162143065
10.76725305216426,8.674927111290485,1.469222278276664,-3.648633316517001
10.775252497225305,8.686417223287256,1.4561322772676832,-3.652560316819695
10.783251942286347,8.697907335284025,1.4430422762587054,-3.6564873171223886
10.79125138734739,8.709397447280798,1.4299522752497247,-3.6604143174250825
10.799250832408434,8.72088755927757,1.4168622742407437,-3.664341317727777
10.807250277469477,8.732377671274339,1.403772273231766,-3.6682683180304703
10.81524972253052,8.743867783271112,1.3906822722227852,-3.6721953183331646
10.823249167591564,8.85915205327377,1.348847391787007,-3.921679245282145
10.831248612652606,9.6208031816499,1.5074528301886139,-4.174732149463688
10.83924805771365,9.264944971273755,2.1772268965854793,-2.7005095074100756
10.847247502774692,9.203890383234329,2.317805379643499,-2.6159271397793504
10.855246947835736,9.142835795194891,2.4583838627015506,-2.5313447721486066
10.86324639289678,9.081781207155453,2.598962345759602,-2.4467624045178624
10.871245837957822,9.020726619116028,2.7395408288176224,-2.3621800368871373
10.879245283018866,8.95967203107659,2.880119311875674,-2.2775976692563935
10.88724472807991,8.898617443037152,3.0206977949337253,-2.1930153016256497
10.895244173140952,8.837562854997726,3.161276277991745,-2.1084329339949246
10.903243618201996,8.457062985571953,2.4281215316324696,-3.0281637069911262
10.91124306326304,9.609930694290401,3.1613555308921577,-2.849811074114898
10.919242508324082,8.968068997410342,-0.11570384757687352,-4.523425083240816
10.927241953385126,8.949470259382563,0.09954711842803732,-4.449752641098411
10.93524139844617,9.006651477781878,0.2667207064167063,-4.295244841123062
10.943240843507212,9.06383269618118,0.4338942944053382,-4.140737041147747
10.951240288568256,9.121013914580494,0.6010678823940072,-3.9862292411723974
10.9592397336293,9.178195132979807,0.7682414703826762,-3.8317214411970477
10.967239178690342,9.23537635137911,0.9354150583713081,-3.6772136412217327
10.975238623751386,9.292557569778424,1.1025886463599772,-3.5227058412463834
10.98323806881243,9.349738788177739,1.269762234348646,-3.368198041271034
10.991237513873472,9.406920006577039,1.4369358223372781,-3.213690241295719
10.999236958934516,9.464101224976353,1.604109410325947,-3.0591824413203694
11.00723640399556,9.521282443375668,1.771282998314616,-2.9046746413450197
11.015235849056602,9.57846366177497,1.9384565863032481,-2.7501668413697047
11.023235294117645,9.635644880174285,2.1056301742919175,-2.5956590413943554
11.03123473917869,9.362350443951364,2.1753851276360043,-2.7008351831297097
11.039234184239731,8.606223110401666,0.9125524448490329,-3.9332452580777955
11.047233629300775,8.636872669568138,0.9513812118869086,-3.9185945890334115
11.05523307436182,8.66752222873461,0.9902099789247844,-3.903943919989028
11.063232519422861,8.698171787901074,1.0290387459626515,-3.8892932509446476
11.071231964483905,8.728821347067546,1.0678675130005273,-3.874642581900264
11.07923140954495,8.759470906234016,1.106696280038403,-3.85999191285588
11.087230854605991,8.79012046540048,1.1455250470762701,-3.8453412438114998
11.095230299667035,8.820770024566952,1.184353814114146,-3.8306905747671163
11.103229744728079,8.851419583733424,1.2231825811520216,-3.8160399057227323
11.111229189789121,8.882069142899889,1.262011348189889,-3.801389236678352
11.119228634850165,8.91271870206636,1.3008401152277647,-3.7867385676339684
11.127228079911209,8.730965316315174,-0.07135210876794155,-4.414892619312037
11.135227524972251,9.346823406091799,1.0845740535203543,-3.2785116537184193
11.143226970033295,9.138850714967866,0.6637373654595464,-4.014134714658147
11.151226415094339,9.131130320315929,0.7741483106625587,-3.9320008775778943
11.15922586015538,9.123409925663992,0.8845592558655466,-3.84986704049766
11.167225305216425,9.115689531012055,0.9949702010685588,-3.767733203417407
11.175224750277469,9.107969136360117,1.1053811462715712,-3.6855993663371547
11.18322419533851,9.100248741708182,1.215792091474559,-3.6034655292569204
11.191223640399555,9.092528347056243,1.3262030366775712,-3.5213316921766675
11.199223085460599,9.084807952404306,1.4366139818805836,-3.439197855096415
11.20722253052164,9.077087557752371,1.5470249270835716,-3.357064018016181
11.215221975582685,9.069367163100432,1.6574358722865838,-3.274930180935928
11.223221420643728,9.061646768448496,1.767846817489596,-3.1927963438556755
11.23122086570477,8.82655586385511,3.1221370699215587,-2.979537550869505
11.239220310765814,8.555342410708313,3.377923023949294,-3.75154679539467
11.247219755826858,8.567775283152585,3.3751280371207364,-3.7714008397630443
11.2552192008879,8.580208155596857,3.3723330502921796,-3.791254884131414
11.263218645948944,8.592641028041129,3.3695380634636223,-3.8111089284997886
11.271218091009988,8.605073900485403,3.3667430766350646,-3.830962972868163
11.27921753607103,8.617506772929673,3.3639480898065077,-3.850817017236533
11.287216981132074,8.629939645373947,3.36115310297795,-3.870671061604907
11.295216426193118,8.64237251781822,3.3583581161493927,-3.8905251059732815
11.30321587125416,8.65480539026249,3.3555631293208354,-3.9103791503416514
11.311215316315204,8.667238262706762,3.352768142492278,-3.9302331947100257
11.319214761376248,8.679671135151036,3.3499731556637204,-3.9500872390784
11.32721420643729,3.449354767850584,0.5707035932298063,-3.3518791389197116
11.335213651498334,3.23853605947099,0.2982224958379992,-3.384710194691079
11.343213096559376,3.027717351091443,0.02574139844625256,-3.417541250462439
11.35121254162042,2.816898642711849,-0.2467396989455546,-3.450372306233807
11.359211986681464,2.6060799343322554,-0.5192207963373617,-3.4832033620051743
11.367211431742506,2.395261225952708,-0.7917018937291084,-3.5160344177765346
11.37521087680355,2.1844425175731144,-1.0641829911209153,-3.5488654735479024
11.383210321864594,1.9736238091935203,-1.3366640885127228,-3.58169652931927
11.391209766925636,1.7628051008139733,-1.6091451859044694,-3.6145275850906304
11.39920921198668,1.5519863924343793,-1.8816262832962765,-3.647358640861998
11.407208657047724,1.3411676840547853,-2.1541073806880835,-3.6801896966333656
11.415208102108766,1.1303489756752385,-2.42658847807983,-3.713020752404726
11.42320754716981,1.7854905660307878,-2.3970754717004947,-4.2947924528257495
11.431206992230853,7.643072413630271,2.0958831204099604,-7.273393870876332
11.439206437291896,7.501975818830187,2.015718468840793,-7.263947717665953
11.44720588235294,7.360879224030071,1.9355538172716082,-7.2545015644555715
11.455205327413983,7.219782629229956,1.8553891657024233,-7.24505541124519
11.463204772475025,7.078686034429872,1.775224514133256,-7.235609258034811
11.47120421753607,6.937589439629756,1.6950598625640712,-7.226163104824429
11.479203662597113,6.796492844829641,1.6148952109948862,-7.216716951614047
11.487203107658155,6.655396250029557,1.534730559425719,-7.207270798403668
11.4952025527192,6.514299655229442,1.454565907856534,-7.197824645193286
11.503201997780243,6.373203060429326,1.3744012562873489,-7.188378491982904
11.511201442841285,6.232106465629242,1.294236604718182,-7.178932338772524
11.519200887902329,6.091009870829127,1.2140719531489967,-7.169486185562143
11.527200332963373,5.997615982241894,0.9828011805065034,-6.803188679245325
11.535199778024415,6.381589345171942,1.0111628493592912,-6.531207547169874
11.543199223085459,6.668676886792498,0.14566375323716696,-7.262481594524572
11.551198668146503,6.391838948787085,0.0040545293589251685,-7.4519922572802555
11.559198113207545,6.115001010781734,-0.13755469451928518,-7.641502920035896
11.567197558268589,5.838163072776321,-0.27916391839752697,-7.83101358279158
11.575197003329633,5.561325134770907,-0.4207731422757687,-8.020524245547263
11.583196448390675,5.284487196765556,-0.5623823661539791,-8.210034908302905
11.591195893451719,5.007649258760144,-0.7039915900322208,-8.399545571058589
11.599195338512763,4.73081132075473,-0.8456008139104625,-8.589056233814272
11.607194783573805,4.453973382749379,-0.987210037788673,-8.778566896569913
11.615194228634849,4.177135444743967,-1.1288192616669146,-8.968077559325597
11.623193673695893,3.9015771365149927,-1.3435011098777812,-9.218171198668035
11.631193118756935,4.57167591564927,-2.653462819088784,-8.359192008878177
11.639192563817979,4.479125397706264,-3.8407891293624026,-8.972854322357882
11.647192008879022,4.351400924898266,-4.208674719447514,-8.88094958687878
11.655191453940065,4.223676452090296,-4.576560309532544,-8.789044851399698
11.663190899001108,4.095951979282297,-4.944445899617656,-8.697140115920595
11.671190344062152,3.968227506474299,-5.312331489702768,-8.605235380441492
11.679189789123194,3.8405030336663293,-5.680217079787797,-8.51333064496241
11.687189234184238,3.7127785608583306,-6.048102669872909,-8.421425909483307
11.695188679245282,3.5850540880503323,-6.41598825995802,-8.329521174004206
11.703188124306324,3.4573296152423625,-6.783873850043051,-8.237616438525123
11.711187569367368,3.329605142434364,-7.151759440128162,-8.14571170304602
11.719187014428412,3.2018806696263655,-7.519645030213274,-8.053806967566919
11.727186459489454,0.2705072142066141,-10.796344506103553,-6.09495627081159
11.735185904550498,0.8204876327887561,-12.02602949104167,-2.6704206437295612
11.743185349611542,1.3787761310961664,-12.126658797414635,-1.5289529281190972
11.751184794672584,1.4046566886465965,-12.167785356140227,-1.2527367957172344
11.759184239733628,1.4305372461970323,-12.20891191486583,-0.97652066331531
11.767183684794672,1.4564178037474682,-12.250038473591431,-0.7003045309133855
11.775183129855714,1.4822983612978984,-12.291165032317023,-0.42408839851152247
11.783182574916758,1.508178918848334,-12.332291591042626,-0.14787226610959814
11.791182019977802,1.5340594763987698,-12.373418149768227,0.1283438662923262
11.799181465038844,1.5599400339492,-12.41454470849382,0.40455999869418924
11.807180910099888,1.585820591499636,-12.455671267219422,0.6807761310961136
11.81518035516093,1.611701149050066,-12.496797825945015,0.9569922634979766
11.823179800221974,1.727259711430637,-12.510389567147941,1.2774339622635333
11.831179245283018,3.277726026064961,-11.356000291772032,2.0341869286131344
11.83917869034406,3.316568692289197,-11.328868153369116,1.89300084671103
11.847178135405104,3.355411358513441,-11.301736014966195,1.7518147648088938
11.855177580466147,3.394254024737685,-11.274603876563273,1.6106286829067578
11.86317702552719,3.4330966909619205,-11.247471738160357,1.469442601004653
11.871176470588233,3.471939357186165,-11.220339599757434,1.3282565191025169
11.879175915649277,3.510782023410409,-11.193207461354513,1.1870704372003809
11.88717536071032,3.5496246896346446,-11.166075322951597,1.0458843552982762
11.895174805771363,3.588467355858889,-11.138943184548674,0.90469827339614
11.903174250832407,3.627310022083133,-11.111811046145752,0.763512191494004
11.91117369589345,3.6661526883073687,-11.084678907742836,0.6223261095918993
11.919173140954493,3.704995354531613,-11.057546769339915,0.48114002768976305
11.927172586015537,3.7324722530522125,-11.031034517203109,0.3445532741398375
11.93517203107658,3.2445061043286336,-11.032634406215315,0.416548279689218
11.943171476137623,2.9378270671476723,-10.85634149556054,0.31497051886796
11.951170921198667,3.0205614377599193,-10.509487236403999,0.01533030234144437
11.959170366259709,3.0152606006712768,-10.485488901220872,-0.009246305978624709
11.967169811320753,3.0099597635826334,-10.46149056603774,-0.03382291429869924
11.975169256381797,3.00465892649399,-10.437492230854609,-0.058399522618773785
11.983168701442839,2.9993580894053475,-10.413493895671483,-0.08297613093884287
11.991168146503883,2.994057252316704,-10.389495560488351,-0.1075527392589174
11.999167591564927,2.9887564152280603,-10.36549722530522,-0.13212934757899195
12.007167036625969,2.9834555781394183,-10.341498890122093,-0.15670595589906103
12.015166481687013,2.9781547410507745,-10.317500554938961,-0.18128256421913555
12.023165926748057,2.972853903962131,-10.29350221975583,-0.2058591725392101
12.031165371809099,2.967553066873489,-10.269503884572703,-0.23043578085927915
12.039164816870143,1.1622622394874853,-10.054443766185777,-1.8785196078426851
12.047164261931187,1.3641745429055385,-9.61087487586892,-3.7942291021671717
12.055163706992229,1.4546945791225934,-9.589402681231386,-3.9950572755417535
12.063163152053272,1.5452146153396682,-9.567930486593847,-4.19588544891638
12.071162597114316,1.635734651556743,-9.546458291956307,-4.396713622291007
12.079162042175358,1.7262546877737979,-9.524986097318774,-4.597541795665589
12.087161487236402,1.816774723990873,-9.503513902681235,-4.798369969040216
12.095160932297446,1.907294760207948,-9.482041708043697,-4.999198142414842
12.103160377358488,2.0049811320753594,-9.502457547169294,-5.229037735848644
12.111159822419532,2.432301886792233,-9.920160932297945,-5.876364039956139
12.119159267480576,2.1253238598810413,-8.819386673982704,-5.701900921572801
12.127158712541618,2.0586318572372972,-8.891291798126904,-5.586313434511003
12.135158157602662,1.9919398545935385,-8.963196922271118,-5.4707259474491785
12.143157602663706,1.9252478519497798,-9.035102046415332,-5.355138460387353
12.151157047724748,1.8585558493060357,-9.10700717055953,-5.239550973325555
12.159156492785792,1.7918638466622767,-9.178912294703744,-5.1239634862637295
12.167155937846836,1.725171844018518,-9.25081741884796,-5.008375999201905
12.175155382907878,1.6584798413747739,-9.322722542992159,-4.892788512140107
12.183154827968922,1.591787838731015,-9.394627667136373,-4.777201025078282
12.191154273029966,1.5250958360872562,-9.466532791280587,-4.661613538016457
12.199153718091008,1.458403833443512,-9.538437915424785,-4.546026050954659
12.207153163152052,1.346528301886843,-9.653471698113158,-4.396119866814707
12.215152608213096,1.3808997830693182,-9.915170870749675,-3.8181845676521102
12.223152053274138,1.3732639491474141,-9.895535869236207,-3.7778237312077607
12.231151498335182,1.3656281152255085,-9.875900867722736,-3.7374628947634028
12.239150943396226,1.357992281303603,-9.856265866209265,-3.6971020583190444
12.247150388457268,1.3503564473816991,-9.836630864695797,-3.6567412218746953
12.255149833518312,1.3427206134597935,-9.816995863182326,-3.6163803854303374
12.263149278579355,1.335084779537888,-9.797360861668855,-3.576019548985979
12.271148723640398,1.3274489456159841,-9.777725860155387,-3.53565871254163
12.279148168701441,1.3198131116940786,-9.758090858641916,-3.495297876097272
12.287147613762485,1.312177277772173,-9.738455857128445,-3.4549370396529135
12.295147058823527,1.304541443850269,-9.718820855614977,-3.4145762032085645
12.303146503884571,1.3043057713651447,-9.684229189789137,-3.3512227524972493
12.311145948945613,1.3483027192008772,-9.560237791342983,-3.150436681465088
12.319145394006657,0.8075044982699446,-9.332323509825695,-2.651609688581332
12.327144839067701,0.622952595155742,-9.292514506757206,-2.5867671280276934
12.335144284128743,0.4384006920415802,-9.252705503688725,-2.521924567474069
12.343143729189787,0.2538487889273775,-9.212896500620236,-2.4570820069204298
12.351143174250831,0.06929688581317472,-9.173087497551746,-2.392239446366791
12.359142619311873,-0.11525501730098697,-9.133278494483266,-2.3273968858131666
12.367142064372917,-0.29980692041518964,-9.093469491414776,-2.262554325259528
12.375141509433961,-0.4843588235293925,-9.053660488346287,-2.1977117647058892
12.383140954495003,-0.6689107266435541,-9.013851485277806,-2.1328692041522648
12.391140399556047,-0.853462629757757,-8.974042482209317,-2.068026643598626
12.39913984461709,-1.0380145328719597,-8.934233479140827,-2.003184083044987
12.407139289678133,0.08705493895588597,-8.900378468368542,1.1560943396217431
12.415138734739177,0.41916206578977744,-8.87701272817437,1.4618239308569707
12.42313817980022,0.4585635877393867,-8.875906421942522,1.443697528750563
12.431137624861263,0.4979651096889872,-8.874800115710677,1.425571126644159
12.439137069922307,0.5373666316385965,-8.87369380947883,1.4074447245377515
12.44713651498335,0.5767681535882058,-8.872587503246983,1.3893183224313437
12.455135960044393,0.6161696755378063,-8.871481197015138,1.37119192032494
12.463135405105437,0.6555711974874157,-8.87037489078329,1.3530655182185323
12.47113485016648,0.6949727194370249,-8.869268584551444,1.3349391161121245
12.479134295227523,0.7343742413866254,-8.868162278319598,1.3168127140057209
12.487133740288566,0.7737757633362347,-8.867055972087751,1.298686311899313
12.49513318534961,0.8131772852858439,-8.865949665855906,1.2805599097929055
12.503132630410652,0.8260463374029299,-8.913703107658055,1.0305455049949446
12.511132075471696,0.44338266509431085,-9.435575078616347,-1.73133333333337
12.51913152053274,0.5536250173418218,-9.452740554476504,-1.5900098039215949
12.527130965593782,0.6638673695893083,-9.469906030336656,-1.4486862745098512
12.535130410654826,0.7741097218368193,-9.487071506196813,-1.307362745098076
12.54312985571587,0.8843520740843303,-9.50423698205697,-1.1660392156863009
12.551129300776912,0.9945944263318167,-9.521402457917123,-1.024715686274557
12.559128745837956,1.1048367785793276,-9.53856793377728,-0.8833921568627817
12.567128190899,1.2150791308268387,-9.555733409637437,-0.7420686274510067
12.575127635960042,1.3253214830743252,-9.57289888549759,-0.6007450980392628
12.583127081021086,1.435563835321836,-9.590064361357747,-0.4594215686274876
12.59112652608213,1.545806187569347,-9.607229837217902,-0.31809803921571245
12.599125971143172,1.6560485398168334,-9.624395313078056,-0.17677450980396858
12.607125416204216,1.4414483906771636,-9.991614872363733,-0.15194339622656633
12.61512486126526,1.2486122805468673,-10.454435986530118,-0.0976537433155093
12.623124306326302,1.2448852663707,-10.459799250832408,-0.07838235294118079
12.631123751387346,1.241158252194532,-10.465162515134699,-0.059110962566848
12.63912319644839,1.2374312380183636,-10.470525779436988,-0.039839572192515216
12.647122641509432,1.2337042238421965,-10.47588904373928,-0.020568181818186704
12.655122086570476,1.2299772096660282,-10.481252308041569,-0.0012967914438539174
12.66312153163152,1.2262501954898601,-10.48661557234386,0.017974598930478855
12.671120976692562,1.2225231813136928,-10.49197883664615,0.03724598930480737
12.679120421753606,1.2187961671375247,-10.49734210094844,0.05651737967914015
12.68711986681465,1.2150691529613566,-10.50270536525073,0.07578877005347294
12.695119311875692,1.2113421387851893,-10.50806862955302,0.09506016042780145
12.703118756936735,1.201623852285342,-10.45508969831502,0.13736595701744445
12.71111820199778,1.1845862930077709,-10.342222253052176,0.21040849056602978
12.719117647058821,1.138647058823774,-10.15041176470597,0.3320588235293977
12.727117092119865,0.8091225693673657,-10.209122569367366,0.5872049112097629
12.73511653718091,0.8229616093229717,-10.222961609322972,0.6012039400665898
12.743115982241951,0.8368006492785746,-10.236800649278575,0.6152029689234135
12.751115427302995,0.8506396892341805,-10.25063968923418,0.6292019977802404
12.759114872364039,0.8644787291897865,-10.264478729189786,0.6432010266370672
12.767114317425081,0.8783177691453894,-10.278317769145389,0.657200055493891
12.775113762486125,0.8921568091009954,-10.292156809100995,0.6711990843507178
12.783113207547167,0.9059958490565982,-10.305995849056599,0.6851981132075416
12.791112652608211,0.9198348890122042,-10.319834889012204,0.6991971420643684
12.799112097669255,0.9336739289678102,-10.33367392896781,0.7131961709211954
12.807111542730297,0.9475129689234132,-10.347512968923413,0.727195199778019
12.815110987791341,0.9613520088790191,-10.361352008879019,0.7411942286348459
12.823110432852385,0.9966448390673611,-10.374558268590462,0.7593068812429954
12.831109877913427,0.7752051404871912,-9.088530685203567,0.5561338395934355
12.83910932297447,0.7418600852853658,-9.105708440913599,0.5528498568841649
12.847108768035515,0.7085150300835403,-9.12288619662363,0.5495658741748942
12.855108213096557,0.6751699748817224,-9.140063952333659,0.5462818914656242
12.8631076581576,0.6418249196798969,-9.157241708043689,0.5429979087563536
12.871107103218645,0.6084798644780715,-9.17441946375372,0.5397139260470828
12.879106548279687,0.5751348092762534,-9.191597219463748,0.5364299433378129
12.88710599334073,0.541789754074428,-9.20877497517378,0.5331459606285421
12.895105438401774,0.5084446988726026,-9.225952730883812,0.5298619779192715
12.903104883462817,0.4750996436707845,-9.243130486593838,0.5265779952100015
12.91110432852386,0.44175458846895904,-9.26030824230387,0.5232940125007308
12.919103773584904,0.40840953326713364,-9.277485998013901,0.5200100297914602
12.927103218645946,0.2793873473918598,-9.644870144283889,0.5686859045504654
