accel_time_list,vertical_Accel_x,vertical_Accel_y,vertical_Accel_z
0.0,2.624,-4.494,8.4
0.007996704021094266,2.8437971874313335,-5.18865677872995,9.865791474401231
0.01599340804218853,2.629951843075772,-5.904501737069964,10.835012079317288
0.023990112063282797,2.7211574943433874,-5.820428281280622,10.623639740597552
0.03198681608437706,2.812363145611003,-5.736354825491279,10.412267401877818
0.03998352010547133,2.903568796878619,-5.652281369701936,10.200895063158082
0.04798022412656559,2.9947744481462344,-5.568207913912594,9.989522724438347
0.05597692814765986,3.08598009941385,-5.484134458123251,9.778150385718613
0.06397363216875412,3.177185750681466,-5.400061002333909,9.566778046998877
0.07197033618984838,3.2683914019490814,-5.315987546544567,9.355405708279143
0.07996704021094266,3.359597053216697,-5.231914090755224,9.144033369559407
0.08796374423203693,3.450802704484313,-5.147840634965882,8.932661030839672
0.09596044825313119,3.5420083557519284,-5.06376717917654,8.721288692119938
0.10395715227422545,3.6332140070195442,-4.979693723387197,8.509916353400202
0.11195385629531972,3.72441965828716,-4.895620267597855,8.298544014680468
0.11995056031641399,3.815625309554776,-4.811546811808512,8.087171675960732
0.12794726433750825,2.3786882845481703,-3.53436581158221,9.027628809660724
0.1359439683586025,2.409824387438814,-3.562779632252907,8.982285796434732
0.14394067237969677,2.4409604903294575,-3.5911934529236036,8.93694278320874
0.15193737640079105,2.4720965932201016,-3.6196072735943003,8.891599769982749
0.1599340804218853,2.5032326961107447,-3.648021094264997,8.846256756756757
0.16793078444297957,2.5343687990013883,-3.6764349149356934,8.800913743530764
0.17592748846407386,2.5655049018920324,-3.70484873560639,8.755570730304772
0.18392419248516811,2.596641004782676,-3.733262556277087,8.71022771707878
0.19192089650626237,2.6277771076733196,-3.7616763769477837,8.664884703852788
0.19991760052735663,2.6589132105639632,-3.79009019761848,8.619541690626797
0.2079143045484509,2.690049313454607,-3.8185040182891767,8.574198677400805
0.21591100856954518,2.7211854163452505,-3.8469178389598735,8.528855664174813
0.22390771259063943,2.6080316413974955,-4.052629531970995,8.293816743572842
0.2319044166117337,2.7360696769940676,-3.867666183256427,8.50101568885959
0.23990112063282798,2.7153670988061234,-3.8788615688859593,8.505280597670842
0.24789782465392224,2.694664520618179,-3.8900569545154915,8.509545506482091
0.2558945286750165,2.673961942430235,-3.901252340145023,8.513810415293342
0.26389123269611076,2.6532593642422913,-3.9124477257745554,8.518075324104592
0.271887936717205,2.632556786054347,-3.923643111404087,8.522340232915843
0.2798846407382993,2.611854207866403,-3.934838497033619,8.526605141727092
0.28788134475939353,2.591151629678459,-3.946033882663151,8.530870050538343
0.29587804878048785,2.570449051490515,-3.957229268292683,8.535134959349593
0.3038747528015821,2.5497464733025708,-3.968424653922215,8.539399868160844
0.31187145682267636,2.5290438951146266,-3.979620039551747,8.543664776972093
0.3198681608437706,2.508341316926683,-3.990815425181279,8.547929685783345
0.3278648648648649,2.5031936936936936,-3.758572072072072,8.027765765765766
0.33586156888595914,2.506525653702483,-3.7099254559437487,7.982451109646232
0.3438582729070534,2.5030337698850778,-3.6725922357855945,7.9697201356513725
0.3518549769281477,2.498409169969264,-3.637136969764357,7.962397852451335
0.35985168094924197,2.4937845700534504,-3.60168170374312,7.955075569251297
0.36784838497033623,2.489159970137637,-3.5662264377218826,7.947753286051259
0.3758450889914305,2.4845353702218236,-3.5307711717006454,7.940431002851221
0.38384179301252475,2.47991077030601,-3.495315905679408,7.933108719651182
0.391838497033619,2.4752861703901963,-3.4598606396581713,7.925786436451144
0.39983520105471326,2.4706615704743826,-3.424405373636934,7.918464153251106
0.4078319050758075,2.4660369705585694,-3.3889501076156967,7.911141870051068
0.4158286090969018,2.4614123706427558,-3.3534948415944594,7.90381958685103
0.4238253131179961,2.5672228081740274,-2.3415932762030165,7.4980863546473255
0.43182201713909035,2.396886183536935,-1.7777468127182707,6.423025189694104
0.4398187211601846,2.2442682365811573,-1.7499284912831876,6.362624552939031
0.44781542518127887,2.0916502896253797,-1.7221101698481045,6.302223916183957
0.45581212920237313,1.9390323426696021,-1.6942918484130212,6.241823279428884
0.4638088332234674,1.7864143957138245,-1.666473526977938,6.18142264267381
0.47180553724456165,1.633796448758047,-1.6386552055428547,6.121022005918737
0.47980224126565596,1.4811785018022683,-1.6108368841077714,6.060621369163663
0.4877989452867502,1.3285605548464907,-1.5830185626726883,6.0002207324085886
0.4957956493078445,1.175942607890713,-1.555200241237605,5.9398200956535145
0.5037923533289387,1.0233246609349365,-1.527381919802522,5.879419458898441
0.511789057350033,0.8707067139791578,-1.4995635983674385,5.819018822143367
0.5197857613711273,0.7180887670233791,-1.4717452769323551,5.758618185388293
0.5277824653922215,-1.9245696869174445,-3.1356045605007052,1.4540237806650083
0.5357791694133158,-1.9099520559111431,-3.1315632154577866,1.3009685854225577
0.54377587343441,-1.8953344249048418,-3.127521870414868,1.1479133901801095
0.5517725774555043,-1.8807167938985405,-3.1234805253719493,0.9948581949376591
0.5597692814765985,-1.8660991628922392,-3.119439180329031,0.8418029996952109
0.5677659854976929,-1.8514815318859377,-3.1153978352861125,0.6887478044527605
0.5757626895187871,-1.8368639008796366,-3.111356490243194,0.5356926092103123
0.5837593935398814,-1.822246269873335,-3.107315145200275,0.3826374139678619
0.5917560975609757,-1.8076286388670337,-3.1032738001573565,0.2295822187254115
0.5997528015820699,-1.7930110078607324,-3.099232455114438,0.07652702348296336
0.6077495056031642,-1.778393376854431,-3.0951911100715193,-0.07652817175948701
0.6157462096242584,-1.7637757458481298,-3.0911497650286006,-0.22958336700193538
0.6237429136453527,-1.9007284113381817,-2.6583286090969165,-5.017525379037615
0.6317396176664469,-2.5163261105322476,-4.870516894549939,-6.912746549854338
0.6397363216875412,-1.9297291768558453,-4.814024050013821,-7.126593892870054
0.6477330257086356,-1.343132243179443,-4.7575312054777035,-7.34044123588577
0.6557297297297298,-0.7565353095030485,-4.7010383609415864,-7.554288578901483
0.6637264337508241,-0.1699383758266464,-4.6445455164054685,-7.768135921917199
0.6717231377719183,0.41665855784974815,-4.5880526718693515,-7.981983264932912
0.6797198417930126,1.0032554915261502,-4.531559827333234,-8.195830607948627
0.6877165458141068,1.5898524252025448,-4.475066982797117,-8.40967795096434
0.6957132498352011,2.176449358878947,-4.418574138260999,-8.623525293980055
0.7037099538562954,2.76304629255535,-4.362081293724881,-8.837372636995772
0.7117066578773896,3.349643226231744,-4.305588449188763,-9.051219980011485
0.7197033618984839,3.936240159908146,-4.249095604652645,-9.2650673230272
0.7277000659195781,4.579539504661463,-4.494787173933512,-12.284080892739441
0.7356967699406725,5.905849985874391,-3.805357048686309,-14.298679112910843
0.7436934739617667,9.386730792948732,-2.74670842282093,-16.784997618389433
0.751690177982861,9.829258075148323,-1.8193487145682194,-16.062585695451542
0.7596868820039552,10.271785357347907,-0.8919890063155216,-15.340173772513662
0.7676835860250495,10.714312639547497,0.035370701937189164,-14.617761849575773
0.7756802900461438,11.156839921747085,0.9627304101898999,-13.895349926637882
0.783676994067238,11.59936720394667,1.8900901184425973,-13.1729380037
0.7916736980883323,12.041894486146258,2.817449826695308,-12.45052608076211
0.7996704021094265,12.484421768345843,3.7448095349480064,-11.72811415782423
0.8076671061305208,9.25970006591958,0.5246433750823618,-10.99698286090969
0.815663810151615,9.111330268259165,0.38142355004859985,-11.042777527010267
0.8236605141727094,8.930116822899791,0.7773281677709133,-11.104108180731371
0.8316572181938036,8.748903377540419,1.1732327854932212,-11.165438834452475
0.8396539222148979,8.567689932181045,1.5691374032155347,-11.22676948817358
0.8476506262359922,8.38647648682167,1.965042020937848,-11.288100141894684
0.8556473302570864,8.205263041462297,2.360946638660156,-11.349430795615788
0.8636440342781807,8.024049596102923,2.756851256382469,-11.410761449336894
0.8716407382992749,7.842836150743551,3.1527558741047774,-11.472092103057998
0.8796374423203692,7.661622705384176,3.5486604918270905,-11.533422756779101
0.8876341463414634,7.480409260024804,3.9445651095493988,-11.594753410500205
0.8956308503625577,7.299195814665429,4.340469727271712,-11.65608406422131
0.903627554383652,7.1179823693060555,4.736374344994026,-11.717414717942415
0.9116242584047463,6.936768923946683,5.132278962716334,-11.778745371663518
0.9196209624258406,6.755555478587309,5.528183580438647,-11.840076025384624
0.9276176664469348,5.008167435728417,6.9716611733684815,-11.275636123928814
0.9356143704680291,4.451280932045513,8.272627067151989,-10.202667048809147
0.9436110744891233,4.556802656845605,8.628828078874207,-9.848030609612795
0.9516077785102176,4.662324381645697,8.98502909059643,-9.493394170416437
0.9596044825313119,4.7678461064457895,9.341230102318654,-9.13875773122008
0.9676011865524061,4.873367831245881,9.697431114040873,-8.784121292023729
0.9755978905735004,4.978889556045973,10.053632125763096,-8.429484852827372
0.9835945945945946,5.084411280846065,10.409833137485315,-8.07484841363102
0.991591298615689,5.189933005646157,10.766034149207538,-7.720211974434662
0.9995880026367832,5.295454730446249,11.122235160929757,-7.36557553523831
1.0075847066578774,5.400976455246339,11.478436172651975,-7.010939096041958
1.0155814106789718,5.506498180046433,11.834637184374204,-6.656302656845596
1.023578114700066,4.880318391562203,12.898462425840451,-5.73174522083054
1.0315748187211602,4.20103358236285,12.045668146194977,-6.1414338313923675
1.0395715227422546,4.373851241485391,11.906880905295537,-6.082702482970774
1.0475682267633488,4.546668900607926,11.768093664396103,-6.023971134549183
1.055564930784443,4.719486559730462,11.629306423496667,-5.965239786127591
1.0635616348055372,4.892304218852997,11.490519182597232,-5.906508437705999
1.0715583388266317,5.065121877975538,11.351731941697794,-5.847777089284405
1.0795550428477259,5.2379395370980735,11.212944700798358,-5.7890457408628135
1.08755174686882,5.41075719622061,11.074157459898924,-5.730314392441222
1.0955484508899145,5.58357485534315,10.935370218999486,-5.671583044019629
1.1035451549110087,5.756392514465686,10.79658297810005,-5.612851695598037
1.1115418589321029,5.9292101735882214,10.657795737200615,-5.554120347176445
1.119538562953197,6.102027832710757,10.519008496301181,-5.495388998754853
1.1275352669742915,5.619748846407389,12.057964403427835,-6.97253724456164
1.1355319709953857,5.801073507994668,11.172923303337367,-7.417710475080861
1.14352867501648,5.911074680749952,11.031586209011051,-7.19696425012647
1.1515253790375741,6.021075853505236,10.890249114684734,-6.976218025172079
1.1595220830586686,6.131077026260523,10.748912020358414,-6.755471800217682
1.1675187870797628,6.241078199015807,10.607574926032099,-6.534725575263291
1.175515491100857,6.351079371771092,10.466237831705783,-6.3139793503089
1.1835121951219514,6.461080544526379,10.324900737379462,-6.093233125354503
1.1915088991430456,6.571081717281663,10.183563643053146,-5.872486900400112
1.1995056031641398,6.681082890036947,10.04222654872683,-5.651740675445722
1.207502307185234,6.7910840627922315,9.900889454400515,-5.430994450491331
1.2154990112063284,6.9010852355475185,9.759552360074196,-5.210248225536933
1.2234957152274226,6.22385234014503,8.701586025049444,-5.017521423862887
1.2314924192485168,5.69773626309236,7.017550853292317,-5.791227100271003
1.2394891232696112,5.589158792939278,6.999069581776898,-5.79780216802168
1.2474858272907055,5.4805813227861995,6.9805883102614805,-5.804377235772358
1.2554825313117997,5.372003852633121,6.962107038746063,-5.8109523035230355
1.2634792353328939,5.263426382480041,6.943625767230645,-5.817527371273712
1.2714759393539883,5.154848912326959,6.925144495715227,-5.82410243902439
1.2794726433750825,5.046271442173881,6.906663224199809,-5.830677506775068
1.2874693473961767,4.937693972020802,6.888181952684391,-5.8372525745257455
1.2954660514172711,4.82911650186772,6.869700681168974,-5.843827642276422
1.3034627554383653,4.720539031714641,6.851219409653556,-5.8504027100271
1.3114594594594595,4.611961561561562,6.832738138138138,-5.856977777777778
1.3194561634805537,4.503384091408483,6.814256866622721,-5.863552845528455
1.3274528675016481,4.256628999004193,4.563166902761609,-5.96435701762998
1.3354495715227424,4.19954614370468,4.542069215557021,-5.949809822017139
1.3434462755438366,4.1424632884051675,4.520971528352431,-5.935262626404297
1.351442979564931,4.0853804331056525,4.499873841147842,-5.920715430791455
1.3594396835860252,4.02829757780614,4.478776153943253,-5.906168235178614
1.3674363876071194,3.9712147225066268,4.457678466738664,-5.891621039565772
1.3754330916282136,3.914131867207114,4.436580779534075,-5.877073843952931
1.383429795649308,3.8570490119075993,4.415483092329485,-5.862526648340088
1.3914264996704022,3.7999661566080865,4.394385405124896,-5.847979452727247
1.3994232036914964,3.742883301308573,4.373287717920308,-5.8334322571144055
1.4074199077125908,3.6858004460090585,4.352190030715717,-5.818885061501564
1.415416611733685,3.6287175907095457,4.331092343511129,-5.804337865888722
1.4234133157547793,3.7439103493737704,4.206929466051412,-5.54569017798285
1.4314100197758735,4.094084377059988,3.0250731707317104,-5.832581410678977
1.4394067237969679,4.052854236258731,2.8340167613489062,-5.531258538066704
1.447403427818062,4.063905860917097,2.77911804048499,-5.5153549806314945
1.4554001318391563,4.074957485575463,2.7242193196210733,-5.499451423196285
1.4633968358602505,4.086009110233829,2.669320598757157,-5.483547865761075
1.471393539881345,4.097060734892195,2.614421877893239,-5.467644308325864
1.4793902439024391,4.108112359550562,2.559523157029323,-5.451740750890655
1.4873869479235333,4.119163984208928,2.504624436165406,-5.435837193455445
1.4953836519446277,4.130215608867294,2.449725715301488,-5.419933636020235
1.503380355965722,4.14126723352566,2.394826994437572,-5.404030078585025
1.5113770599868162,4.152318858184026,2.3399282735736557,-5.388126521149815
1.5193737640079104,4.163370482842392,2.285029552709739,-5.372222963714606
1.5273704680290048,4.880826777997517,1.7578617886178816,-4.831431040796877
1.535367172050099,4.593246868820123,1.1169232036916195,-4.18115062623592
1.5433638760711932,5.40148216597438,2.3695731826448867,-3.423907021626385
1.5513605800922876,5.482509010332698,2.5638063791090593,-3.281796920046695
1.5593572841133818,5.563535854691013,2.7580395755732265,-3.1396868184670095
1.567353988134476,5.644562699049329,2.9522727720373934,-2.9975767168873233
1.5753506921555702,5.725589543407645,3.1465059685015606,-2.8554666153076376
1.5833473961766646,5.806616387765963,3.3407391649657336,-2.713356513727948
1.5913441001977588,5.887643232124279,3.5349723614299005,-2.571246412148262
1.599340804218853,5.968670076482595,3.7292055578940677,-2.4291363105685764
1.6073375082399475,6.049696920840913,3.9234387543582403,-2.2870262089888866
1.6153342122610417,6.130723765199228,4.117671950822407,-2.144916107409201
1.6233309162821359,6.2321318391562865,5.089063282794963,-1.1943414634145841
1.63132762030323,7.356559587090985,4.1211116986212994,-1.4220884724890954
1.6393243243243245,7.436951983898795,4.163307073030479,-1.4372311673375509
1.6473210283454187,7.517344380706604,4.205502447439657,-1.4523738621860058
1.655317732366513,7.597736777514412,4.247697821848835,-1.4675165570344608
1.6633144363876071,7.678129174322221,4.289893196258013,-1.4826592518829158
1.6713111404087015,7.758521571130032,4.332088570667191,-1.4978019467313712
1.6793078444297957,7.838913967937841,4.374283945076369,-1.5129446415798262
1.68730454845089,7.919306364745649,4.416479319485547,-1.528087336428281
1.6953012524719844,7.99969876155346,4.458674693894727,-1.5432300312767364
1.7032979564930786,8.080091158361268,4.500870068303905,-1.5583727261251914
1.7112946605141728,8.160483555169078,4.5430654427130825,-1.5735154209736464
1.719291364535267,8.240875951976886,4.58526081712226,-1.5886581158221014
1.7272880685563614,5.881330649335084,6.525283530456479,-0.05892780444221985
1.7352847725774556,5.889591707208115,6.489794025833937,-0.18264540714873514
1.7432814765985498,5.897852765081146,6.4543045212113945,-0.3063630098552504
1.7512781806196442,5.906113822954178,6.418815016588852,-0.4300806125617691
1.7592748846407384,5.914374880827209,6.3833255119663095,-0.5537982152682844
1.7672715886618326,5.92263593870024,6.347836007343767,-0.6775158179747998
1.7752682926829269,5.930896996573272,6.312346502721225,-0.8012334206813151
1.7832649967040213,5.9391580544463025,6.276856998098682,-0.9249510233878337
1.7912617007251155,5.947419112319334,6.24136749347614,-1.048668626094349
1.7992584047462097,5.955680170192365,6.205877988853598,-1.1723862288008642
1.807255108767304,5.963941228065397,6.170388484231055,-1.296103831507383
1.8152518127883983,5.972202285938428,6.134898979608513,-1.4198214342138982
1.8232485168094925,5.980463343811459,6.099409474985971,-1.5435390369204136
1.8312452208305867,5.9887244016844905,6.063919970363429,-1.6672566396269288
1.8392419248516811,5.996985459557521,6.028430465740886,-1.7909742423334476
1.8472386288727753,5.958825313117965,6.27796835860269,-1.5569940672377383
1.8552353328938695,2.740411997363217,10.47034266547753,3.429657334522471
1.863232036914964,2.7883922214897834,10.491980805769902,3.4080191942300977
1.8712287409360582,2.836372445616349,10.513618946062275,3.386381053937725
1.8792254449571524,2.8843526697429143,10.535257086354648,3.3647429136453524
1.8872221489782466,2.9323328938694795,10.55689522664702,3.3431047733529797
1.895218852999341,2.980313117996046,10.578533366939393,3.3214666330606066
1.9032155570204352,3.0282933421226117,10.600171507231765,3.299828492768234
1.9112122610415294,3.076273566249177,10.621809647524138,3.2781903524758613
1.9192089650626238,3.1242537903757435,10.64344778781651,3.2565522121834882
1.927205669083718,3.7789836665934446,10.694958983373619,2.8579964110451783
1.9352023731048122,4.010356624917605,10.086836849044184,1.6839937376400815
1.9431990771259064,4.285178015820699,10.118847157218195,0.8551574571522739
1.9511957811470009,4.302370929466052,10.100154861568885,0.8338662326961099
1.959192485168095,4.319563843111404,10.081462565919578,0.8125750082399467
1.9671891891891893,4.336756756756757,10.06277027027027,0.7912837837837833
1.9751858932102835,4.35394967040211,10.044077974620963,0.7699925593276199
1.983182597231378,4.371142584047463,10.025385678971654,0.748701334871456
1.9911793012524721,4.3883354976928155,10.006693383322347,0.7274101104152926
1.9991760052735663,4.405528411338167,9.98800108767304,0.7061188859591292
2.0071727092946605,4.42272132498352,9.969308792023732,0.6848276615029659
2.0151694133157547,4.439914238628873,9.950616496374424,0.6635364370468025
2.0231661173368494,4.770819627554417,10.252029746209656,0.8000055207646818
2.0311628213579436,2.350574579013598,12.738090959029996,2.3290361459020135
2.0391595253790378,2.2269891532330517,13.02682043906435,2.65823379477039
2.047156229400132,2.1034037274525055,13.315549919098705,2.987431443638767
2.055152933421226,1.9798183016719595,13.604279399133059,3.316629092507143
2.0631496374423204,1.856232875891413,13.893008879167414,3.64582674137552
2.0711463414634146,1.7326474501108668,14.181738359201768,3.9750243902438966
2.0791430454845092,1.609062024330314,14.47046783923614,4.304222039112291
2.0871397495056034,1.4854765985497678,14.759197319270493,4.633419687980668
2.0951364535266976,1.192205009887899,15.063604482531316,4.909104812129192
2.103133157547792,0.9500423857253206,12.337916248330876,4.588878651634742
2.111129861568886,1.3288264343142444,12.0264548788939,4.251034993717916
2.1191265655899802,1.707610482903168,11.71499350945692,3.91319133580109
2.1271232696110745,2.0863945314920915,11.403532140019944,3.575347677884264
2.135119973632169,2.4651785800810364,11.09207077058295,3.237504019967419
2.1431166776532633,2.84396262866996,10.780609401145973,2.899660362050593
2.1511133816743575,3.2227466772588835,10.469148031708997,2.5618167041337667
2.1591100856954517,3.601530725847808,10.15768666227202,2.223973046216941
2.167106789716546,3.9803147744367315,9.846225292835044,1.8861293883001147
2.17510349373764,4.359098823025655,9.534763923398067,1.5482857303832884
2.1831001977587343,4.737882871614579,9.22330255396109,1.2104420724664622
2.191096901779829,5.1166669202035235,8.911841184524096,0.8725984145496177
2.199093605800923,5.495450968792448,8.60037981508712,0.5347547566327915
2.2070903098220174,5.8742350173813715,8.288918445650143,0.19691109871596524
2.2150870138431116,6.253019065970295,7.977457076213166,-0.140932559200861
2.2230837178642058,5.002004397529751,12.372435693716822,2.116774849946225
2.2310804218853,5.0250475314852725,11.856016965617739,2.587949068452275
2.239077125906394,5.048090665440794,11.339598237518656,3.059123286958325
2.247073829927489,5.071133799396317,10.823179509419544,3.5302975054644015
2.255070533948583,5.094176933351838,10.306760781320461,4.001471723970452
2.2630672379696772,5.117220067307359,9.790342053221378,4.472645942476502
2.2710639419907714,5.14026320126288,9.273923325122295,4.943820160982552
2.2790606460118656,5.163306335218402,8.757504597023212,5.414994379488602
2.28705735003296,5.186349469173924,8.241085868924129,5.8861685979946525
2.295054054054054,5.209392603129444,7.724667140825046,6.357342816500703
2.3030507580751483,3.048914831905075,11.262421489782465,5.834161239288068
2.311047462096243,1.572676334871323,7.448062623599062,4.702940672379835
2.319044166117337,3.193896278079213,11.265859819481769,6.880545940875178
2.3270408701384313,3.4072442404881498,11.249763889593156,6.092665551104549
2.3350375741595255,3.620592202897087,11.233667959704544,5.30478516133392
2.3430342781806197,3.8339401653060237,11.217572029815932,4.516904771563292
2.351030982201714,4.04728812771496,11.20147609992732,3.7290243817926623
2.359027686222808,4.2606360901238975,11.185380170038707,2.941143992022033
2.3670243902439028,4.473984052532845,11.169284240150093,2.15326360225136
2.375021094264997,4.6873320149417825,11.15318831026148,1.3653832124807312
2.383017798286091,4.90067997735072,11.137092380372868,0.5775028227101018
2.3910145023071854,5.114027939759656,11.120996450484256,-0.2103775670605268
2.3990112063282796,4.001106460118656,5.67518653867282,-0.20906116787519258
2.407007910349374,4.077075148319051,5.80829834102395,-0.2527098439903317
2.415004614370468,4.153043836519446,5.941410143375081,-0.29635852010547087
2.4230013183915626,4.229012524719845,6.074521945726219,-0.3400071962206125
2.430998022412657,4.304981212920239,6.207633748077349,-0.3836558723357516
2.438994726433751,4.380949901120634,6.34074555042848,-0.4273045484508908
2.4469914304548452,4.456918589321029,6.473857352779611,-0.47095322456602995
2.4549881344759394,4.532887277521424,6.606969155130741,-0.5146019006811691
2.4629848384970336,4.608855965721819,6.7400809574818705,-0.5582505767963082
2.470981542518128,4.684824653922214,6.873192759833001,-0.6018992529114474
2.4789782465392225,4.760793342122613,7.006304562184139,-0.645547929026589
2.4869749505603167,4.836762030323008,7.13941636453527,-0.6891966051417281
2.494971654581411,4.912730718523402,7.2725281668864,-0.7328452812568672
2.502968358602505,7.255037223523471,6.662096312711255,-0.11086785228404472
2.5109650626235993,7.234875320831988,6.589360334647048,-0.15501986703880938
2.5189617666446935,7.214713418140507,6.51662435658284,-0.19917188179357403
2.5269584706657877,7.1945515154490245,6.443888378518633,-0.2433238965483387
2.5349551746868824,7.174389612757541,6.371152400454421,-0.2874759113031058
2.5429518787079766,7.154227710066059,6.298416422390213,-0.3316279260578705
2.5509485827290708,7.134065807374577,6.225680444326006,-0.3757799408126351
2.558945286750165,7.113903904683094,6.152944466261798,-0.4199319555673998
2.566941990771259,7.093742001991613,6.080208488197591,-0.4640839703221644
2.5749386947923534,7.0735800993001305,6.007472510133383,-0.5082359850769291
2.5829353988134476,7.053418196608648,5.934736532069175,-0.5523879998316937
2.5909321028345422,7.033256293917165,5.862000554004964,-0.5965400145864609
2.5989288068556364,6.745626235992075,5.933435069215562,-0.9843790375741778
2.6069255108767306,6.830828305422439,5.702282024693913,-2.5630031700651017
2.614922214897825,6.803423870293971,5.592394732359102,-2.493908053298569
2.622918918918919,6.776019435165502,5.48250744002429,-2.4248129365320357
2.6309156229400132,6.748615000037033,5.372620147689479,-2.3557178197655024
2.6389123269611074,6.721210564908564,5.262732855354668,-2.2866227029989696
2.646909030982202,6.693806129780093,5.15284556301985,-2.2175275862324324
2.6549057350032963,6.666401694651625,5.042958270685038,-2.1484324694658996
2.6629024390243905,6.638997259523156,4.933070978350227,-2.0793373526993664
2.6708991430454847,6.611592824394687,4.823183686015416,-2.010242235932833
2.678895847066579,6.584188389266218,4.713296393680604,-1.9411471191663001
2.686892551087673,6.556783954137749,4.603409101345793,-1.872052002399767
2.6948892551087673,6.52937951900928,4.493521809010982,-1.8029568856332339
2.702885959129862,7.3649116677653526,6.551987768256127,-0.8048642789130278
2.710882663150956,6.881116880482735,5.197031692104871,-1.1236560012169745
2.7188793671720504,6.911346179199838,5.43078150195224,-1.0542340652096729
2.7268760711931446,6.941575477916942,5.66453131179961,-0.9848121292023715
2.7348727752142388,6.971804776634046,5.8982811216469795,-0.91539019319507
2.742869479235333,7.0020340753511485,6.1320309314943495,-0.8459682571877685
2.750866183256427,7.032263374068252,6.365780741341719,-0.776546321180467
2.758862887277522,7.062492672785357,6.599530551189101,-0.7071243851731617
2.766859591298616,7.092721971502461,6.833280361036471,-0.63770244916586
2.7748562953197102,7.1229512702195645,7.06703017088384,-0.5682805131585587
2.7828529993408044,7.153180568936667,7.30077998073121,-0.49885857715125714
2.7908497033618986,7.183409867653771,7.5345297905785795,-0.42943664114395563
2.798846407382993,7.213639166370875,7.76827960042595,-0.3600147051366541
2.806843111404087,8.162870138431149,6.140763348714572,-1.3503394858272735
2.8148398154251817,8.190731089321025,6.196738876071196,-1.2817807350032941
2.822836519446276,8.14353625576796,6.245433091628216,-1.2499367172050082
2.83083322346737,8.096341422214897,6.294127307185236,-1.2180926994067225
2.8388299274884643,8.04914658866183,6.342821522742256,-1.1862486816084366
2.8468266315095585,8.001951755108767,6.391515738299276,-1.1544046638101508
2.8548233355306527,7.954756921555701,6.4402099538562965,-1.122560646011865
2.862820039551747,7.907562088002637,6.488904169413316,-1.0907166282135792
2.870816743572841,7.860367254449572,6.5375983849703365,-1.0588726104152935
2.8788134475939358,7.813172420896504,6.586292600527359,-1.0270285926170057
2.88681015161503,7.765977587343439,6.634986816084379,-0.99518457481872
2.894806855636124,7.718782753790374,6.683681031641399,-0.9633405570204342
2.9028035596572184,7.671587920237309,6.732375247198419,-0.9314965392221484
2.9108002636783126,7.624393086684244,6.78106946275544,-0.8996525214238625
2.9187969676994068,7.577198253131179,6.829763678312459,-0.8678085036255767
2.926793671720501,6.967908857509628,6.413321777746938,-2.594791895361344
2.9347903757415956,6.93676379974326,6.466941782604172,-2.562468375949761
2.94278707976269,6.905618741976893,6.520561787461404,-2.5301448565381803
2.950783783783784,6.874473684210526,6.574181792318636,-2.4978213371265996
2.9587804878048782,6.843328626444158,6.627801797175867,-2.465497817715019
2.9667771918259724,6.812183568677792,6.681421802033099,-2.4331742983034377
2.9747738958470666,6.781038510911425,6.735041806890331,-2.400850778891857
2.982770599868161,6.749893453145058,6.788661811747563,-2.368527259480276
2.9907673038892555,6.7187483953786895,6.842281816604798,-2.3362037400686937
2.9987640079103497,6.687603337612322,6.895901821462029,-2.3038802206571125
3.006760711931444,6.656458279845955,6.949521826319261,-2.2715567012455318
3.014757415952538,6.625313222079588,7.003141831176492,-2.239233181833951
3.0227541199736323,6.7700982201715805,6.125704680290044,-2.2742083058667864
3.0307508239947265,7.485683915622947,6.591128543177337,-1.795614260602055
3.0387475280158207,6.732908503625561,6.3251438365194375,-2.544348450889931
3.0467442320369154,6.398533160972193,6.0883360100677155,-2.9160834011077847
3.0547409360580096,6.519106841082458,6.063618924911606,-2.818461300071051
3.0627376400791038,6.639680521192721,6.038901839755497,-2.720839199034317
3.070734344100198,6.760254201302986,6.014184754599388,-2.623217097997583
3.078731048121292,6.88082788141325,5.989467669443279,-2.525594996960849
3.0867277521423864,7.0014015615235135,5.964750584287169,-2.427972895924115
3.0947244561634806,7.121975241633778,5.940033499131061,-2.330350794887381
3.102721160184575,7.242548921744048,5.91531641397495,-2.2327286938506417
3.1107178642056694,7.363122601854312,5.8905993288188405,-2.1351065928139077
3.1187145682267636,7.483696281964576,5.865882243662732,-2.0374844917771737
3.126711272247858,6.705019095413275,6.729510571940939,-2.6423900525230186
3.134707976268952,6.727719416505413,6.679036751936829,-2.646775341824909
3.1427046802900462,6.750419737597551,6.628562931932718,-2.6511606311267997
3.1507013843111404,6.773120058689689,6.578089111928607,-2.6555459204286898
3.158698088332235,6.795820379781829,6.527615291924494,-2.6599312097305807
3.1666947923533293,6.818520700873967,6.477141471920383,-2.664316499032471
3.1746914963744235,6.841221021966105,6.426667651916272,-2.6687017883343613
3.1826882003955177,6.863921343058244,6.376193831912162,-2.673087077636252
3.190684904416612,6.886621664150383,6.325720011908051,-2.677472366938142
3.198681608437706,6.909321985242521,6.275246191903941,-2.6818576562400325
3.2066783124588003,6.932022306334659,6.22477237189983,-2.686242945541923
3.214675016479895,6.954722627426799,6.174298551895716,-2.6906282348438135
3.222671720500989,6.771241924851612,6.949909690178067,-1.6967870797625788
3.2306684245220834,7.031835889877271,6.101697029174972,-2.481104345507467
3.2386651285431776,7.01790904579559,6.205744032056176,-2.4105716190292763
3.2466618325642718,7.003982201713909,6.309791034937379,-2.3400388925510858
3.254658536585366,6.990055357632228,6.413838037818582,-2.2695061660728957
3.26265524060646,6.976128513550547,6.5178850406997855,-2.198973439594705
3.270651944627555,6.9622016694688655,6.621932043580995,-2.1284407131165106
3.278648648648649,6.948274825387185,6.725979046462198,-2.05790798663832
3.2866453526697432,6.934347981305503,6.8300260493434015,-1.9873752601601296
3.2946420566908374,6.920421137223823,6.934073052224605,-1.916842533681939
3.3026387607119316,6.906494293142142,7.038120055105808,-1.8463098072037487
3.310635464733026,6.8925674490604605,7.142167057987011,-1.7757770807255582
3.31863216875412,6.87864060497878,7.246214060868215,-1.7052443542473679
3.3266288727752142,6.036381036425883,7.010295170859294,-1.9317334509962358
3.334625576796309,6.079374068797359,6.975900744962113,-1.991923696316303
3.342622280817403,6.122367101168834,6.941506319064933,-2.052113941636367
3.3506189848384973,6.165360133540308,6.9071118931677535,-2.1123041869564307
3.3586156888595915,6.208353165911782,6.872717467270575,-2.1724944322764945
3.3666123928806857,6.251346198283256,6.838323041373395,-2.2326846775965583
3.37460909690178,6.294339230654731,6.803928615476216,-2.2928749229166225
3.382605800922874,6.337332263026205,6.769534189579036,-2.3530651682366863
3.3906025049439688,6.3803252953976815,6.735139763681856,-2.4132554135567537
3.398599208965063,6.423318327769156,6.700745337784676,-2.4734456588768174
3.406595912986157,6.46631136014063,6.666350911887497,-2.5336359041968812
3.4145926170072514,6.509304392512104,6.631956485990317,-2.5938261495169455
3.4225893210283456,6.970020105471372,6.903039222148955,-1.8416015161503108
3.4305860250494398,7.371411118435513,6.7970125247198405,-1.2040008789276966
3.438582729070534,8.165872147039435,6.569003714762108,-0.43795351506456187
3.4465794330916286,8.10632022179999,6.5847148861917875,-0.4692817790530856
3.454576137112723,8.046768296560547,6.600426057621466,-0.5006100430416076
3.462572841133817,7.987216371321105,6.616137229051146,-0.5319383070301297
3.4705695451549112,7.927664446081661,6.631848400480825,-0.5632665710186516
3.4785662491760054,7.868112520842219,6.647559571910504,-0.5945948350071737
3.4865629531970996,7.808560595602777,6.663270743340184,-0.6259230989956956
3.494559657218194,7.749008670363334,6.678981914769863,-0.6572513629842177
3.5025563612392885,7.689456745123888,6.6946930861995435,-0.6885796269727414
3.5105530652603827,7.6299048198844455,6.710404257629222,-0.7199078909612635
3.518549769281477,7.570352894645002,6.726115429058901,-0.7512361549497855
3.526546473302571,6.783558998022343,6.022694133157517,-0.2312333553065008
3.5345431773236653,7.39472731267853,5.718940892111625,-0.5194045264776982
3.5425398813447595,7.323645499157693,5.749150662857981,-0.5531683879000958
3.5505365853658537,7.252563685636856,5.779360433604337,-0.5869322493224934
3.5585332893869484,7.181481872116015,5.8095702043506945,-0.620696110744893
3.5665299934080426,7.110400058595178,5.83977997509705,-0.6544599721672906
3.5745266974291368,7.039318245074341,5.869989745843405,-0.6882238335896882
3.582523401450231,6.968236431553503,5.900199516589761,-0.7219876950120858
3.590520105471325,6.897154618032666,5.930409287336117,-0.7557515564344834
3.5985168094924194,6.8260728045118295,5.9606190580824725,-0.7895154178568811
3.6065135135135136,6.754990990990992,5.990828828828828,-0.8232792792792788
3.614510217534608,6.683909177470151,6.021038599575186,-0.8570431407016783
3.6225069215557024,7.170476598549822,6.063425181278842,-0.8768767303889256
3.6305036255767966,7.72812920237286,5.7150665787741675,0.4790032959788405
3.638500329597891,7.403644723437402,6.123374827710202,0.36906633906633646
3.646497033618985,7.330765670881521,6.257047005153719,0.32435749385749163
3.6544937376400792,7.25788661832564,6.390719182597237,0.2796486486486468
3.6624904416611734,7.185007565769759,6.524391360040755,0.234939803439802
3.670487145682268,7.112128513213873,6.65806353748428,0.1902309582309547
3.6784838497033623,7.0392494606579925,6.791735714927798,0.14552211302210988
3.6864805537244565,6.966370408102111,6.925407892371315,0.10081326781326505
3.6944772577455507,6.89349135554623,7.059080069814833,0.05610442260442022
3.702473961766645,6.820612302990348,7.192752247258351,0.011395577395575451
3.710470665787739,6.747733250434467,7.326424424701869,-0.033313267813269376
3.7184673698088333,6.674854197878586,7.460096602145386,-0.0780221130221142
3.726464073829928,6.568649690603268,7.656715567652625,0.8850718523401441
3.734460777851022,6.528150254109339,7.651814361962277,0.8690784442979557
3.7424574818721164,6.48765081761541,7.646913156271928,0.8530850362557673
3.7504541858932106,6.447151381121482,7.642011950581581,0.8370916282135789
3.7584508899143048,6.406651944627553,7.637110744891232,0.8210982201713904
3.766447593935399,6.3661525081336245,7.632209539200884,0.8051048121292019
3.774444297956493,6.325653071639695,7.627308333510536,0.7891114040870135
3.782441001977588,6.285153635145765,7.622407127820188,0.7731179960448242
3.790437705998682,6.244654198651836,7.61750592212984,0.7571245880026358
3.798434410019776,6.204154762157907,7.612604716439492,0.7411311799604474
3.8064311140408704,6.163655325663978,7.607703510749143,0.725137771918259
3.8144278180619646,6.123155889170049,7.602802305058796,0.7091443638760706
3.822424522083059,6.397343953709807,7.348031861129422,1.219031861129422
3.830421226104153,6.229,7.032551746868854,0.8824904416612028
3.8384179301252477,6.144403342510373,7.732346256155718,1.9019774865252657
3.846414634146342,6.146943472022955,7.58454835007173,1.9580484935437614
3.854411338167436,6.149483601535539,7.436750443987742,2.0141195005622574
3.8624080421885303,6.152023731048121,7.288952537903754,2.070190507580753
3.8704047462096245,6.154563860560704,7.141154631819765,2.126261514599249
3.8784014502307187,6.157103990073287,6.993356725735777,2.1823325216177447
3.886398154251813,6.15964411958587,6.845558819651789,2.2384035286362405
3.894394858272907,6.162184249098453,6.697760913567801,2.2944745356547367
3.9023915622940017,6.1647243786110355,6.549963007483804,2.3505455426732356
3.910388266315096,6.167264508123619,6.402165101399816,2.4066165496917313
3.91838497033619,6.169804637636202,6.254367195315828,2.462687556710227
3.9263816743572844,6.19966357044405,7.275892311380123,2.736870138431119
3.9343783783783786,5.973574938574935,7.473628992628996,2.880810810810813
3.9423750823994728,5.853478250161176,7.533898853289098,2.7600589654248173
3.950371786420567,5.74231527668113,7.582582084362572,2.616997051728758
3.9583684904416616,5.631152303201078,7.63126531543605,2.473935138032691
3.966365194462756,5.519989329721032,7.679948546509524,2.3308732243366315
3.97436189848385,5.4088263562409855,7.728631777582999,2.187811310640572
3.9823586025049442,5.297663382760939,7.7773150086564735,2.0447493969445127
3.9903553065260384,5.186500409280893,7.825998239729948,1.9016874832484536
3.9983520105471326,5.075337435800847,7.874681470803423,1.7586255695523942
4.006348714568227,4.964174462320801,7.923364701876897,1.6155636558563349
4.014345418589321,4.853011488840755,7.972047932950373,1.4725017421602755
4.022342122610415,4.741848515360708,8.020731164023847,1.3294398284642162
4.030338826631509,5.013445484508902,9.037751746868807,1.8313897165458126
4.0383355306526045,4.060896168625509,8.996126999694518,1.447439747897809
4.046332234673699,4.18601533032141,8.984912109908837,1.4500728089779253
4.054328938694793,4.3111344920173105,8.973697220123155,1.4527058700580417
4.062325642715887,4.436253653713212,8.962482330337474,1.455338931138158
4.070322346736981,4.561372815409113,8.951267440551794,1.4579719922182743
4.0783190507580755,4.686491977105014,8.940052550766113,1.4606050532983907
4.08631575477917,4.811611138800915,8.928837660980431,1.4632381143785071
4.094312458800264,4.936730300496816,8.91762277119475,1.4658711754586236
4.102309162821358,5.061849462192717,8.90640788140907,1.46850423653874
4.110305866842452,5.1869686238886175,8.89519299162339,1.4711372976188564
4.118302570863547,5.312087785584519,8.883978101837707,1.4737703586989728
4.126299274884641,3.4252497510483955,8.876487117631383,0.15206945398953492
4.134295978905735,3.592244750978268,8.889503029495504,0.20736581158220793
4.142292682926829,3.7592397509081406,8.902518941359626,0.26266216917488094
4.150289386947923,3.926234750838013,8.915534853223747,0.317958526767554
4.1582860909690185,4.093229750767904,8.92855076508787,0.37325488436023313
4.166282794990113,4.260224750697777,8.941566676951991,0.42855124195290617
4.174279499011207,4.427219750627649,8.954582588816113,0.4838475995455792
4.182276203032301,4.594214750557521,8.967598500680234,0.5391439571382522
4.190272907053395,4.761209750487394,8.980614412544355,0.5944403147309253
4.1982696110744895,4.928204750417267,8.993630324408478,0.6497366723235982
4.206266315095584,5.095199750347139,9.0066462362726,0.7050330299162714
4.214263019116678,5.262194750277011,9.019662148136721,0.7603293875089443
4.222259723137772,5.3404210942649915,9.11102794990113,0.5814847725774295
4.230256427158866,5.207616018457472,9.391743572841134,-0.1754620962425746
4.2382531311799605,4.488238652989694,7.610889005900605,0.2736078347830291
4.246249835201055,4.45147331864881,7.833528948341557,0.10518944643632527
4.254246539222149,4.414707984307925,8.056168890782509,-0.06322894191037859
4.262243243243243,4.377942649967041,8.278808833223462,-0.23164733025708245
4.270239947264338,4.341177315626153,8.50144877566444,-0.40006571860380497
4.278236651285432,4.304411981285268,8.724088718105392,-0.5684841069505089
4.286233355306527,4.2676466469443834,8.946728660546343,-0.7369024952972125
4.294230059327621,4.2308813126035,9.169368602987296,-0.9053208836439164
4.302226763348715,4.194115978262615,9.392008545428249,-1.0737392719906202
4.310223467369809,4.15735064392173,9.614648487869202,-1.242157660337324
4.318220171390903,4.1205853095808465,9.837288430310153,-1.410576048684028
4.326216875411998,3.0410630191166836,8.78609057350033,-0.5912359920896559
4.334213579433092,3.1567206120112465,8.80806046560039,-0.693088748568856
4.342210283454186,3.272378204905809,8.830030357700448,-0.7949415050480562
4.35020698747528,3.388035797800372,8.852000249800508,-0.8967942615272563
4.358203691496374,3.503693390694935,8.873970141900566,-0.9986470180064564
4.366200395517469,3.6193509835894977,8.895940034000624,-1.1004997744856566
4.374197099538563,3.73500857648406,8.917909926100684,-1.2023525309648566
4.382193803559658,3.850666169378636,8.939879818200746,-1.3042052874440682
4.390190507580752,3.966323762273199,8.961849710300804,-1.4060580439232682
4.398187211601846,4.081981355167762,8.983819602400864,-1.5079108004024682
4.4061839156229405,4.197638948062324,9.005789494500922,-1.6097635568816684
4.414180619644035,4.3132965409568875,9.02775938660098,-1.7116163133608686
4.422177323665129,4.2860428477260255,7.127916941332126,-2.7163734344100567
4.430174027686223,4.5570606163850895,7.603102827135169,-2.282788820335819
4.438170731707317,4.5598459852014255,7.653778569471092,-2.2730849547821315
4.4461674357284116,4.562631354017761,7.704454311807014,-2.263381089228444
4.454164139749506,4.565416722834098,7.755130054142937,-2.2536772236747566
4.4621608437706,4.568202091650434,7.805805796478859,-2.2439733581210692
4.470157547791694,4.57098746046677,7.856481538814782,-2.2342694925673823
4.478154251812788,4.573772829283106,7.907157281150704,-2.224565627013695
4.486150955833883,4.576558198099442,7.957833023486627,-2.2148617614600075
4.494147659854978,4.579343566915779,8.008508765822555,-2.205157895906319
4.502144363876072,4.582128935732115,8.059184508158477,-2.1954540303526318
4.510141067897166,4.584914304548451,8.1098602504944,-2.1857501647989444
4.51813777191826,4.587699673364788,8.160535992830322,-2.1760462992452574
4.5261344759393545,4.0667139090309705,9.593514172708549,-1.6998470665792516
4.534131179960449,4.34852201366964,7.503533560004166,-3.465037352114629
4.542127883981543,4.351468167782674,7.630386538528261,-3.3992960274780546
4.550124588002637,4.3544143218957085,7.757239517052356,-3.33355470284148
4.558121292023731,4.357360476008743,7.88409249557645,-3.2678133782049055
4.5661179960448255,4.360306630121778,8.010945474100545,-3.2020720535683305
4.57411470006592,4.363252784234812,8.13779845262464,-3.136330728931756
4.582111404087014,4.366198938347847,8.264651431148735,-3.0705894042951813
4.590108108108108,4.369145092460882,8.391504409672828,-3.004848079658607
4.598104812129202,4.372091246573916,8.518357388196923,-2.9391067550220322
4.6061015161502965,4.375037400686951,8.645210366721019,-2.8733654303854577
4.614098220171392,4.377983554799986,8.772063345245128,-2.8076241057488756
4.622094924192486,4.380929708913021,8.898916323769223,-2.741882781112301
4.63009162821358,4.187592377299675,8.972772517528618,-2.8105750584287263
4.638088332234674,4.093795319710223,8.537893210283519,-2.7074044166116025
4.646085036255768,4.440841611733683,8.10504845088991,-2.911070418589331
4.654081740276863,4.396559863216874,8.039075642715884,-3.099892592287418
4.662078444297957,4.352278114700065,7.973102834541857,-3.2887147659855045
4.670075148319051,4.307996366183255,7.907130026367829,-3.477536939683591
4.678071852340145,4.263714617666446,7.8411572181938025,-3.6663591133816777
4.686068556361239,4.219432869149637,7.775184410019776,-3.8551812870797644
4.694065260382334,4.175151120632828,7.709211601845748,-4.0440034607778514
4.702061964403428,4.130869372116019,7.643238793671721,-4.232825634475938
4.710058668424522,4.086587623599209,7.577265985497694,-4.421647808174025
4.718055372445616,4.0423058750824,7.511293177323667,-4.610469981872111
4.726052076466711,3.8246875411997308,7.374060646011835,-4.511120632827976
4.7340487804878055,4.683209222560988,6.109842987804869,-4.264156250000009
4.7420454845089,4.812281023401462,6.0123831575477835,-4.356368243243251
4.750042188529994,4.941352824241935,5.914923327290698,-4.448580236486494
4.758038892551088,5.070424625082409,5.8174634970336125,-4.540792229729736
4.766035596572182,5.199496425922883,5.720003666776527,-4.633004222972978
4.7740323005932765,5.328568226763355,5.622543836519441,-4.725216216216221
4.782029004614371,5.457640027603829,5.525084006262356,-4.817428209459464
4.790025708635465,5.586711828444303,5.42762417600527,-4.909640202702706
4.798022412656559,6.526656558998057,7.011663150955811,-5.06728345418591
4.806019116677653,7.400714568226764,6.193824653922215,-5.994141067897164
4.814015820698748,7.245714624328533,6.080424585197549,-6.244505960812913
4.822012524719842,7.090714680430302,5.967024516472883,-6.494870853728662
4.830009228740936,6.935714736532071,5.853624447748216,-6.74523574664441
4.838005932762031,6.780714792633822,5.740224379023537,-6.9956006395601875
4.846002636783125,6.625714848735591,5.626824310298871,-7.245965532475935
4.8539993408042195,6.47071490483736,5.513424241574205,-7.496330425391685
4.861996044825314,6.315714960939129,5.400024172849538,-7.746695318307434
4.869992748846408,6.160715017040897,5.286624104124872,-7.997060211223182
4.877989452867502,6.0057150731426665,5.173224035400206,-8.24742510413893
4.885986156888596,5.850715129244435,5.059823966675539,-8.49778999705468
4.8939828609096905,5.695715185346204,4.946423897950873,-8.74815488997043
4.901979564930785,7.717230171531155,1.339723572560629,-5.618414318573894
4.909976268951879,7.835309162821356,1.03159525379038,-5.531216216216217
4.917972972972973,7.953388154111557,0.7234669350201313,-5.44401811385854
4.925969676994067,8.071467145401757,0.41533861624988244,-5.356820011500864
4.9339663810151615,8.189546136691957,0.10721029747963384,-5.269621909143187
4.941963085036256,8.307625127982158,-0.20091802129061498,-5.18242380678551
4.949959789057351,8.425704119272371,-0.509046340060898,-5.095225704427825
4.957956493078445,8.543783110562572,-0.8171746588311466,-5.008027602070148
4.965953197099539,8.66186210185277,-1.1253029776013954,-4.920829499712471
4.973949901120633,8.779941093142972,-1.4334312963716442,-4.833631397354795
4.981946605141728,8.898020084433172,-1.741559615141893,-4.746433294997118
4.989943309162822,9.016099075723371,-2.049687933912142,-4.659235192639441
4.997940013183916,9.236107808473685,-2.1064251213519363,-4.500023251632991
5.00593671720501,9.782470665787772,-0.7777112722477137,-5.330009228741066
5.013933421226104,7.759227182836919,-0.38183148558758573,-6.148676694432787
5.021930125247199,7.148864831905074,-0.5507963085036284,-6.013495880026367
5.029926829268293,6.927436097560975,-0.82588292682927,-5.973912195121951
5.037923533289387,6.706007363216876,-1.1009695451549115,-5.934328510217534
5.045920237310481,6.484578628872776,-1.376056163480553,-5.894744825313118
5.053916941331575,6.263149894528677,-1.6511427818061946,-5.855161140408701
5.0619136453526705,6.041721160184553,-1.9262294001318665,-5.815577455504281
5.069910349373765,5.820292425840454,-2.2013160184575082,-5.7759937705998645
5.077907053394859,5.598863691496354,-2.47640263678315,-5.736410085695448
5.085903757415953,5.377434957152255,-2.7514892551087913,-5.696826400791031
5.093900461437047,5.156006222808156,-3.026575873434433,-5.657242715886615
5.1018971654581415,4.934577488464056,-3.3016624917600743,-5.617659030982199
5.109893869479236,4.713148754119957,-3.576749110085716,-5.5780753460777825
5.11789057350033,4.491720019775858,-3.851835728411358,-5.538491661173366
5.125887277521424,3.9795166896386105,-4.08284377059988,-4.7403369688978945
5.133883981542518,2.334736321687426,-4.260244891232735,-4.103588661832589
5.1418806855636126,1.667322379289859,-4.63343518315063,-4.143595774636425
5.149877389584707,1.643233542485575,-4.629091294546579,-4.197993106928066
5.157874093605801,1.6191447056812913,-4.624747405942528,-4.252390439219707
5.165870797626895,1.5950558688770073,-4.6204035173384765,-4.306787771511348
5.173867501647989,1.5709670320727234,-4.616059628734425,-4.361185103802989
5.1818642056690845,1.5468781952684367,-4.611715740130374,-4.4155824360946365
5.189860909690179,1.522789358464153,-4.607371851526323,-4.469979768386278
5.197857613711273,1.498700521659869,-4.603027962922272,-4.524377100677919
5.205854317732367,1.474611684855585,-4.5986840743182205,-4.57877443296956
5.213851021753461,1.450522848051301,-4.594340185714169,-4.633171765261201
5.2218477257745555,1.4744976928147673,-5.515786750164828,-4.602938694792352
5.22984442979565,0.4177410459239651,-10.193204460558192,-6.967033179521081
5.237841133816744,0.20203614211349893,-10.657113540790558,-8.06626558770717
5.245837837837838,-0.04567785026407256,-10.374839080459752,-8.509393289841594
5.253834541858932,-0.2933918426416441,-10.092564620128947,-8.952520991976018
5.2618312458800265,-0.5411058350192155,-9.81029015979814,-9.395648694110442
5.269827949901121,-0.7888198273967871,-9.528015699467334,-9.838776396244864
5.277824653922215,-1.0365338197743585,-9.245741239136528,-10.28190409837929
5.285821357943309,-1.2842478121519298,-8.963466778805723,-10.725031800513712
5.293818061964404,-1.5319618045295291,-8.681192318474885,-11.168159502648185
5.301814765985498,-1.7796757969071004,-8.39891785814408,-11.61128720478261
5.309811470006593,-2.027389789284672,-8.116643397813274,-12.054414906917033
5.317808174027687,-2.2751037816622435,-7.834368937482467,-12.497542609051457
5.325804878048781,-4.568658536585951,-6.370365853657796,-13.831682926829057
5.333801582069875,-4.980253790375752,-5.451651285431745,-13.455234344100186
5.341798286090969,-5.0244018155681385,-4.620531573889479,-13.375876007656203
5.349794990112064,-4.98220234133634,-3.7592961854007836,-13.392254799024709
5.357791694133158,-4.940002867104541,-2.8980607969120884,-13.408633590393215
5.365788398154252,-4.897803392872742,-2.0368254084233937,-13.425012381761722
5.373785102175346,-4.855603918640944,-1.175590019934698,-13.441391173130228
5.38178180619644,-4.813404444409145,-0.31435463144600373,-13.457769964498734
5.389778510217535,-4.7712049701773465,0.5468807570426915,-13.47414875586724
5.397775214238629,-4.729005495945548,1.4081161455313866,-13.490527547235747
5.405771918259724,-4.686806021713744,2.2693515340201778,-13.506906338604255
5.413768622280818,-4.644606547481946,3.130586922508873,-13.523285129972761
5.421765326301912,-3.279607778509623,3.9240019775874235,-13.48297231377731
5.4297620303230065,-4.040175074644223,8.449145100624316,-9.562061053162173
5.437758734344101,-3.9512705417038223,8.770424444530631,-9.079671642948517
5.445755438365195,-3.8623660087634213,9.091703788436947,-8.59728223273486
5.453752142386289,-3.7734614758230207,9.412983132343264,-8.114892822521206
5.461748846407383,-3.68455694288262,9.73426247624958,-7.63250341230755
5.4697455504284775,-3.595652409942219,10.055541820155895,-7.150114002093893
5.477742254449572,-3.5067478770018186,10.37682116406221,-6.667724591880237
5.485738958470666,-3.417843344061418,10.698100507968526,-6.185335181666582
5.49373566249176,-3.328938811121017,11.019379851874843,-5.702945771452926
5.501732366512854,-3.092936827070994,8.337600417490622,-4.823572621401891
5.509729070533949,-3.366608275798263,7.773164532954005,-4.885386890099343
5.517725774555044,-3.404838132741218,7.646620199146501,-4.960443673455235
5.525722478576138,-3.4430679896841685,7.52007586533901,-5.0355004568111195
5.533719182597232,-3.4812978466271187,7.393531531531519,-5.110557240167004
5.541715886618326,-3.519527703570069,7.266987197724028,-5.185614023522888
5.5497125906394205,-3.5577575605130196,7.140442863916537,-5.260670806878772
5.557709294660515,-3.59598741745597,7.013898530109046,-5.335727590234656
5.565705998681609,-3.63421727439892,6.887354196301555,-5.410784373590541
5.573702702702703,-3.6724471313418707,6.760809862494064,-5.485841156946425
5.581699406723797,-3.710676988284821,6.634265528686573,-5.5608979403023096
5.5896961107448915,-3.748906845227771,6.507721194879082,-5.635954723658194
5.597692814765986,-3.787136702170722,6.381176861071591,-5.711011507014078
5.60568951878708,-3.825366559113672,6.254632527264101,-5.786068290369962
5.613686222808174,-3.8635964160566227,6.12808819345661,-5.861125073725846
5.621682926829268,-2.759902439024441,5.753463414634146,-6.3090975609755935
5.629679630850363,-2.4330222098270786,5.766141050994711,-6.411251238104899
5.637676334871458,-2.351824907459046,5.776700801176412,-6.434421175396788
5.645673038892552,-2.2706276050910126,5.787260551358114,-6.457591112688676
5.653669742913646,-2.1894303027229793,5.797820301539815,-6.480761049980564
5.66166644693474,-2.108233000354946,5.808380051721516,-6.503930987272453
5.669663150955834,-2.0270356979869133,5.818939801903217,-6.5271009245643405
5.677659854976929,-1.94583839561888,5.829499552084918,-6.550270861856229
5.685656558998023,-1.8646410932508468,5.84005930226662,-6.573440799148117
5.693653263019117,-1.7834437908828136,5.850619052448321,-6.596610736440005
5.701649967040211,-1.3551822676334275,6.04874620962429,-6.785771588661861
5.709646671061305,-1.3940220830586763,7.133910019775875,-7.585378048780492
5.7176433750824,-1.5532663150955925,7.225225444957179,-7.753855636123968
5.725640079103494,-1.4495733205489352,7.237102055492303,-8.064110085695448
5.733636783124588,-1.2732304188889616,7.103546713010132,-8.217189848384965
5.741633487145682,-1.096887517228988,6.9699913705279615,-8.370269611074482
5.749630191166777,-0.9205446155689949,6.836436028045776,-8.523349373764017
5.7576268951878715,-0.7442017139090213,6.702880685563605,-8.676429136453535
5.765623599208966,-0.5678588122490478,6.5693253430814345,-8.829508899143052
5.77362030323006,-0.3915159105890742,6.4357700005992635,-8.98258866183257
5.781617007251154,-0.21517300892910063,6.302214658117093,-9.135668424522088
5.789613711272248,-0.03883010726912706,6.1686593156349225,-9.288748187211606
5.7976104152933425,0.2509634146341765,5.872776203032262,-10.153401450230868
5.805607119314437,0.23444880824341652,4.873908739548278,-10.98674049196822
5.813603823335531,0.383860909690177,4.586953328938696,-11.023946209624258
5.821600527356625,0.5332730111369375,4.299997918329115,-11.061151927280296
5.829597231377719,0.682685112583698,4.013042507719534,-11.098357644936334
5.8375939353988135,0.8320972140304584,3.7260870971099527,-11.135563362592373
5.845590639419908,0.981509315477219,3.439131686500372,-11.172769080248411
5.853587343441002,1.1309214169239794,3.152176275890791,-11.209974797904449
5.861584047462097,1.2803335183707565,2.8652208652811777,-11.247180515560492
5.869580751483191,1.4297456198175171,2.5782654546715964,-11.28438623321653
5.8775774555042855,1.5791577212642776,2.291310044062015,-11.32159195087257
5.88557415952538,1.728569822711038,2.0043546334524343,-11.358797668528608
5.893570863546474,1.8779819241577986,1.717399222842853,-11.396003386184645
5.901567567567568,2.1915830115830537,1.754108108108147,-11.004965250965236
5.909564271588662,2.1289945466530815,2.7429768232755958,-10.909147060586086
5.9175609756097565,2.091555432372504,2.5838605875831417,-10.918961197339247
5.925557679630851,2.0541163180919266,2.424744351890688,-10.928775334092409
5.933554383651945,2.016677203811349,2.2656281161982346,-10.938589470845569
5.941551087673039,1.979238089530772,2.1065118805057805,-10.94840360759873
5.949547791694133,1.9417989752501945,1.9473956448133265,-10.958217744351892
5.9575444957152275,1.904359860969617,1.7882794091208727,-10.968031881105052
5.965541199736322,1.8669207466890398,1.6291631734284189,-10.977846017858212
5.973537903757417,1.8294816324084584,1.4700469377359475,-10.987660154611374
5.981534607778511,1.792042518127881,1.3109307020434937,-10.997474291364536
5.989531311799605,1.7546034038473035,1.1518144663510397,-11.007288428117697
5.997528015820699,1.6166838685374982,1.002190601751567,-11.05192023731049
6.005524719841794,1.4352748846409042,-1.3450408701382897,-11.243129861568972
6.013521423862888,1.6351711939020444,-1.2636155373203557,-11.364927458156215
6.021518127883982,1.4759724425855494,-1.5083882132763753,-11.303527477856319
6.029514831905076,1.3167736912690544,-1.7531608892323949,-11.242127497556424
6.03751153592617,1.1575749399525594,-1.9979335651884145,-11.18072751725653
6.045508239947265,0.9983761886360646,-2.2427062411444343,-11.119327536956634
6.053504943968359,0.8391774373195696,-2.4874789171004537,-11.05792755665674
6.061501647989453,0.6799786860030748,-2.732251593056473,-10.996527576356844
6.069498352010547,0.5207799346865798,-2.977024269012493,-10.93512759605695
6.077495056031641,0.3615811833700848,-3.2217969449685127,-10.873727615757053
6.0854917600527365,0.20238243205357231,-3.466569620924559,-10.812327635457152
6.093488464073831,0.043183680737077346,-3.711342296880579,-10.750927655157255
6.101485168094925,1.2020224126565777,-2.424371786420494,-10.488170072511558
6.109481872116019,1.4479425900401566,-1.4747734164319513,-10.782427113921017
6.117478576137113,1.5133701683945635,-1.4544181698328025,-10.789515101576077
6.1254752801582075,1.5787977467489707,-1.4340629232336535,-10.796603089231139
6.133471984179302,1.6442253251033776,-1.4137076766345047,-10.8036910768862
6.141468688200396,1.7096529034577848,-1.393352430035356,-10.81077906454126
6.14946539222149,1.775080481812192,-1.372997183436207,-10.81786705219632
6.157462096242584,1.8405080601665988,-1.3526419368370581,-10.824955039851382
6.1654588002636785,1.905935638521006,-1.3322866902379094,-10.832043027506442
6.173455504284773,1.971363216875413,-1.3119314436387604,-10.839131015161502
6.181452208305867,2.03679079522982,-1.2915761970396116,-10.846219002816563
6.189448912326961,2.1022183735842273,-1.2712209504404628,-10.853306990471625
6.197445616348055,2.1776655680070283,-1.2231834761590925,-10.834748406943534
6.20544232036915,2.5702359920898927,-1.2237732366514713,-9.589993408041883
6.213439024390245,4.082006239364723,-1.6187651730005719,-8.558249574588762
6.221435728411339,4.145235992089655,-1.6831107448912375,-8.4645207646671
6.229432432432433,4.208465744814586,-1.7474563167819028,-8.370791954745435
6.237429136453527,4.271695497539518,-1.8118018886725682,-8.277063144823773
6.2454258404746215,4.334925250264449,-1.8761474605632338,-8.18333433490211
6.253422544495716,4.39815500298938,-1.9404930324538991,-8.089605524980447
6.26141924851681,4.461384755714312,-2.0048386043445645,-7.995876715058785
6.269415952537904,4.524614508439243,-2.06918417623523,-7.902147905137122
6.277412656558998,4.587844261164175,-2.1335297481258952,-7.808419095215458
6.2854093605800925,4.651074013889106,-2.1978753200165606,-7.714690285293796
6.293406064601187,4.714303766614037,-2.2622208919072264,-7.620961475372132
6.301402768622281,4.876368820039556,-2.934590969017802,-6.529125906394204
6.309399472643375,4.401579425684933,-3.1372324146563666,-6.107395369334805
6.31739617666447,4.406880611496671,-3.122766466932813,-6.109461933295313
6.325392880685564,4.412181797308407,-3.1083005192092603,-6.1115284972558195
6.333389584706659,4.417482983120144,-3.093834571485708,-6.113595061216327
6.341386288727753,4.422784168931881,-3.0793686237621554,-6.115661625176835
6.349382992748847,4.428085354743617,-3.064902676038603,-6.117728189137342
6.357379696769941,4.433386540555354,-3.0504367283150504,-6.11979475309785
6.365376400791035,4.438687726367091,-3.035970780591498,-6.121861317058357
6.37337310481213,4.443988912178828,-3.0215048328679455,-6.123927881018864
6.381369808833224,4.449290097990564,-3.007038885144393,-6.125994444979372
6.389366512854318,4.4545912838023005,-2.9925729374208405,-6.12806100893988
6.397363216875412,4.279786420566885,-2.3285570204349915,-6.734284113381779
6.405359920896506,6.205790924148168,-1.810947026140718,-5.6486830708552365
6.413356624917601,6.239793716036183,-1.6273588296228236,-5.678049118394885
6.421353328938695,6.273796507924197,-1.4437706331049296,-5.707415165934533
6.42935003295979,6.307799299812214,-1.260182436587015,-5.736781213474185
6.437346736980884,6.341802091700228,-1.0765942400691206,-5.766147261013834
6.445343441001978,6.375804883588243,-0.8930060435512266,-5.795513308553482
6.4533401450230725,6.409807675476257,-0.7094178470333323,-5.82487935609313
6.461336849044167,6.443810467364271,-0.5258296505154383,-5.854245403632779
6.469333553065261,6.477813259252285,-0.342241453997544,-5.883611451172428
6.477330257086355,6.511816051140299,-0.15865325747964998,-5.912977498712076
6.485326961107449,6.5458188430283135,0.024934939038244286,-5.942343546251725
6.4933236651285435,6.579821634916327,0.20852313555613855,-5.971709593791373
6.501320369149638,6.613824426804341,0.3921113320740328,-6.001075641331022
6.509317073170732,6.647827218692355,0.5756995285919266,-6.0304416888706704
6.517313777191826,6.681830010580369,0.7592877251098209,-6.059807736410319
6.52531048121292,7.679920237310405,1.6400059327620402,-5.893675675675652
6.5333071852340145,7.847780158207009,2.3342231377719544,-6.142323994726451
6.54130388925511,7.555686405476885,3.39406505388727,-6.0507920356442035
6.549300593276204,7.552506993034763,3.4014836829188875,-5.776784490632254
6.557297297297298,7.5493275805926405,3.4089023119505053,-5.502776945620304
6.565294001318392,7.546148168150519,3.4163209409821227,-5.228769400608353
6.5732907053394865,7.542968755708397,3.42373957001374,-4.954761855596403
6.581287409360581,7.539789343266276,3.4311581990453575,-4.680754310584453
6.589284113381675,7.536609930824154,3.4385768280769753,-4.406746765572503
6.597280817402769,7.533430518382032,3.4459954571085927,-4.132739220560553
6.605277521423863,7.53025110593991,3.45341408614021,-3.8587316755486025
6.6132742254449575,7.527071693497788,3.4608327151718274,-3.5847241305366526
6.621270929466052,7.780841133816707,3.802868820039504,-3.3037442320369172
6.629267633487146,7.940403427818071,3.9538852999340786,-4.616058009228743
6.63726433750824,7.5820094560498195,3.629105312208775,-5.531111358625229
6.645261041529334,7.457463088824732,3.904210313762048,-5.396086551648363
6.6532577455504285,7.332916721599646,4.179315315315321,-5.261061744671498
6.661254449571524,7.208370354374544,4.454420316868625,-5.126036937694617
6.669251153592618,7.083823987149458,4.729525318421898,-4.991012130717752
6.677247857613712,6.959277619924371,5.004630319975171,-4.855987323740886
6.685244561634806,6.834731252699284,5.279735321528445,-4.720962516764021
6.6932412656559,6.710184885474197,5.554840323081718,-4.585937709787155
6.701237969676995,6.585638518249111,5.829945324634991,-4.450912902810289
6.709234673698089,6.461092151024023,6.105050326188264,-4.315888095833424
6.717231377719183,6.336545783798936,6.380155327741538,-4.180863288856559
6.725228081740277,6.7356248755241905,6.956728888203194,-3.3198089594524403
6.733224785761371,6.617290670275872,6.877102133269745,-3.242989558058312
6.741221489782466,6.498956465027552,6.797475378336297,-3.166170156664184
6.74921819380356,6.3806222597792335,6.7178486234028485,-3.089350755270056
6.757214897824654,6.262288054530914,6.6382218684694,-3.0125313538759277
6.765211601845748,6.143953849282595,6.558595113535952,-2.9357119524817996
6.773208305866843,6.025619644034262,6.478968358602494,-2.858892551087663
6.7812050098879375,5.9072854387859435,6.399341603669046,-2.782073149693535
6.789201713909032,5.788951233537624,6.319714848735598,-2.705253748299407
6.797198417930126,5.670617028289305,6.240088093802149,-2.6284343469052787
6.80519512195122,5.552282823040986,6.160461338868701,-2.5516149455111505
6.813191825972314,5.433948617792667,6.0808345839352524,-2.4747955441170224
6.8211885299934085,6.145158112816654,5.796412562388225,-2.1384578585554213
6.829185234014503,5.407116018457312,6.829170731707436,-3.0397771918261647
6.837181938035597,4.65309074928587,7.712154880700723,-3.2542988657286296
6.845178642056691,4.642428477257745,7.797269224649381,-3.1158731616393434
6.853175346077785,4.631766205229619,7.88238356859804,-2.977447457550057
6.8611720500988795,4.621103933201494,7.967497912546698,-2.839021753460771
6.869168754119974,4.610441661173368,8.052612256495356,-2.7005960493714847
6.877165458141068,4.599779389145242,8.137726600444013,-2.5621703452821984
6.885162162162163,4.589117117117115,8.222840944392681,-2.4237446411928967
6.893158866183257,4.57845484508899,8.30795528834134,-2.2853189371036104
6.901155570204351,4.567792573060864,8.393069632289997,-2.1468932330143238
6.909152274225446,4.557130301032738,8.478183976238656,-2.0084675289250375
6.91714897824654,4.546468029004613,8.563298320187315,-1.8700418248357515
6.925145682267634,4.444439947264328,8.443493012524707,-1.4784775873434086
6.933142386288728,4.885313871362584,9.293918071381459,-1.699816931914492
6.9411390903098225,4.18168013792404,9.00504523097206,-1.683420668323107
6.949135794330917,4.20751564322296,9.033443782431586,-1.6302118300289028
6.957132498352011,4.23335114852188,9.061842333891114,-1.5770029917346986
6.965129202373105,4.2591866538208,9.090240885350642,-1.5237941534404946
6.973125906394199,4.28502215911972,9.118639436810168,-1.4705853151462904
6.9811226104152935,4.31085766441864,9.147037988269696,-1.4173764768520862
6.989119314436388,4.3366931697175595,9.175436539729223,-1.364167638557882
6.997116018457483,4.362528675016483,9.203835091188754,-1.310958800263672
7.005112722478577,4.388364180315403,9.23223364264828,-1.2577499619694679
7.013109426499671,4.414199685614323,9.260632194107808,-1.2045411236752637
7.021106130520765,5.4213733245443105,9.020191166776467,0.02127180839406595
7.02910283454186,4.656972577455504,9.225978510217528,-0.7666572181938012
7.037099538562954,4.654840123049879,9.146544583607993,-0.7400015381234871
7.045096242584048,4.652707668644254,9.067110656998455,-0.7133458580531731
7.053092946605142,4.6505752142386285,8.98767673038892,-0.686690177982859
7.061089650626236,4.648442759833004,8.908242803779384,-0.660034497912545
7.069086354647331,4.646310305427378,8.828808877169848,-0.6333788178422308
7.077083058668425,4.6441778510217535,8.749374950560313,-0.6067231377719169
7.085079762689519,4.642045396616128,8.669941023950777,-0.5800674577016027
7.093076466710613,4.639912942210503,8.590507097341241,-0.5534117776312888
7.101073170731707,4.637780487804878,8.511073170731704,-0.5267560975609746
7.1090698747528025,4.635648033399253,8.43163924412216,-0.5001004174906576
7.117066578773897,4.633515578993627,8.352205317512624,-0.4734447374203436
7.125063282794991,4.376189518787113,8.919889255108474,-0.551075807514845
7.133059986816085,4.523511320971031,8.517570519618237,-0.37047145395659586
7.141056690837179,4.645287215900955,8.466113467656413,-0.1478675518041792
7.1490533948582735,4.767063110830879,8.41465641569459,0.07473635034823745
7.157050098879368,4.888839005760803,8.363199363732766,0.2973402525006541
7.165046802900462,5.010614900690728,8.311742311770942,0.5199441546530708
7.173043506921556,5.132390795620651,8.260285259809118,0.7425480568054874
7.18104021094265,5.2541666905505755,8.208828207847295,0.9651519589579043
7.1890369149637445,5.3759425854805,8.157371155885471,1.187755861110321
7.197033618984839,5.497718480410424,8.105914103923647,1.4103597632627376
7.205030323005933,5.619494375340349,8.054457051961823,1.632963665415154
7.213027027027027,5.741270270270272,8.003,1.8555675675675707
7.221023731048121,5.898044166117335,7.484279169413292,1.9323048780487846
7.229020435069216,5.341707022538891,8.344116193775509,1.9919681622463281
7.237017139090311,5.376926548759455,8.356281392445897,2.079421478562124
7.245013843111405,5.4121460749800185,8.368446591116285,2.16687479487792
7.253010547132499,5.447365601200582,8.380611789786673,2.2543281111937157
7.261007251153593,5.482585127421146,8.392776988457062,2.3417814275095115
7.2690039551746874,5.51780465364171,8.40494218712745,2.4292347438253077
7.277000659195782,5.553024179862273,8.417107385797838,2.5166880601411035
7.284997363216876,5.588243706082837,8.429272584468226,2.6041413764568992
7.29299406723797,5.623463232303401,8.441437783138614,2.6915946927726955
7.300990771259064,5.658682758523964,8.453602981809002,2.7790480090884913
7.3089874752801585,5.693902284744528,8.46576818047939,2.866501325404287
7.316984179301253,5.7291218109650925,8.477933379149778,2.953954641720083
7.324980883322347,5.824360140628441,6.573614260602051,2.6558610195561423
7.332977587343441,6.217895966920353,8.02563462575659,2.4246618924911667
7.340974291364536,6.330697958490649,7.745144174107571,2.285810031761242
7.34897099538563,6.443499950060933,7.464653722458585,2.1469581710313337
7.356967699406725,6.556301941631216,7.184163270809598,2.0081063103014247
7.364964403427819,6.6691039332015,6.903672819160611,1.869254449571516
7.372961107448913,6.781905924771784,6.623182367511624,1.7304025888416072
7.380957811470007,6.8947079163420675,6.342691915862638,1.5915507281116983
7.388954515491101,7.007509907912351,6.062201464213651,1.4526988673817895
7.396951219512196,7.120311899482635,5.781711012564664,1.3138470066518808
7.40494792353329,7.666122355726003,5.705498996224611,1.196465122550483
7.412944627554384,7.481562061784613,5.777196717504648,1.1075926619524135
7.420941331575478,7.297001767843223,5.8488944387846855,1.018720201354344
7.428938035596572,7.112441473901833,5.920592160064723,0.9298477407562743
7.436934739617667,6.927881179960443,5.992289881344761,0.8409752801582047
7.444931443638761,6.743320886019053,6.063987602624799,0.7521028195601351
7.452928147659856,6.558760592077643,6.135685323904845,0.6632303589620556
7.46092485168095,6.3742002981362536,6.207383045184883,0.5743578983639861
7.468921555702044,6.189640004194863,6.27908076646492,0.48548543776591646
7.4769182597231385,6.005079710253473,6.350778487744957,0.3966129771678468
7.484914963744233,5.8205194163120835,6.422476209024995,0.3077405165697773
7.492911667765327,5.898136123928996,7.189351680949795,0.8735491100862018
7.500908371786421,7.226258515491101,7.0727612762030265,1.2559561555702001
7.508905075807515,7.222548044825313,6.977696458800259,1.1773965352669706
7.5169017798286095,7.218837574159525,6.8826316413974915,1.0988369149637411
7.524898483849704,7.215127103493738,6.787566823994723,1.0202772946605116
7.532895187870798,7.21141663282795,6.692502006591956,0.9417176743572823
7.540891891891892,7.207706162162162,6.597437189189187,0.8631580540540529
7.548888595912986,7.203995691496375,6.50237237178642,0.7845984337508234
7.5568852999340805,7.200285220830587,6.407307554383651,0.7060388134475939
7.564882003955176,7.196574750164799,6.312242736980873,0.6274791931443557
7.57287870797627,7.192864279499011,6.217177919578106,0.5489195728411264
7.580875411997364,7.189153808833224,6.122113102175337,0.47035995253789686
7.588872116018458,7.185443338167436,6.02704828477257,0.39180033223466737
7.596868820039552,7.181732867501648,5.931983467369802,0.313240711931438
7.604865524060647,7.1780223968358605,5.836918649967034,0.2346810916282085
7.612862228081741,7.1743119261700725,5.741853832564266,0.156121471324979
7.620858932102835,6.705458800263616,5.9885477916941765,0.1959433091628358
7.628855636123929,7.273612603262318,6.266994726433751,0.2024958554818448
7.6368523401450235,7.280928736728425,6.294983190507581,0.2486895819015701
7.644849044166118,7.288244870194533,6.322971654581411,0.2948833083212954
7.652845748187212,7.295561003660641,6.350960118655241,0.3410770347410207
7.660842452208306,7.302877137126748,6.378948582729071,0.387270761160746
7.6688391562294,7.310193270592856,6.4069370468029,0.4334644875804713
7.676835860250495,7.317509404058964,6.434925510876734,0.47965821400020175
7.68483256427159,7.324825537525071,6.462913974950563,0.5258519404199271
7.692829268292684,7.332141670991179,6.490902439024394,0.5720456668396523
7.700825972313778,7.339457804457287,6.518890903098224,0.6182393932593777
7.708822676334872,7.346773937923394,6.546879367172053,0.664433119679103
7.716819380355966,7.354090071389502,6.574867831245883,0.7106268460988283
7.724816084377061,7.3295483190507555,6.64090336189849,0.8595158866183396
7.732812788398155,7.48508147659856,6.499166908371775,0.8953642715886558
7.740809492419249,8.025282794990185,5.73038365194456,0.19557547791683993
7.748806196440343,7.989066279139444,5.792061964403436,-0.015537681171845397
7.756802900461437,7.933816324084612,5.872029004614378,-0.20662775128630437
7.764799604482532,7.8785663690297785,5.95199604482532,-0.3977178214007634
7.772796308503626,7.823316413974946,6.031963085036262,-0.5888078915152223
7.78079301252472,7.768066458920114,6.111930125247204,-0.7798979616296813
7.788789716545814,7.712816503865281,6.191897165458146,-0.9709880317441404
7.796786420566909,7.6575665488104425,6.271864205669097,-1.1620781018586206
7.8047831245880035,7.602316593755609,6.351831245880039,-1.3531681719730795
7.812779828609098,7.547066638700777,6.431798286090981,-1.5442582420875386
7.820776532630192,7.421783124587857,6.363327620303113,-0.6103988134472786
7.828773236651286,7.24214601186551,7.172690978434874,-0.7765384216969563
7.83676994067238,7.13876005273565,7.119896412091528,-0.7607898107166382
7.8447666446934745,7.035374093605791,7.067101845748182,-0.7450411997363202
7.852763348714569,6.93198813447593,7.014307279404836,-0.7292925887560021
7.860760052735663,6.82860217534607,6.96151271306149,-0.713543977775684
7.868756756756757,6.725216216216211,6.908718146718144,-0.697795366795366
7.876753460777851,6.6218302570863505,6.855923580374798,-0.6820467558150479
7.8847501647989455,6.518444297956491,6.803129014031452,-0.6662981448347298
7.89274686882004,6.415058338826631,6.750334447688106,-0.6505495338544118
7.900743572841134,6.311672379696771,6.69753988134476,-0.6348009228740937
7.908740276862229,6.2082864205669,6.6447453150014075,-0.619052311893774
7.916736980883323,6.1049004614370395,6.5919507486580615,-0.6033037009134559
7.924733684904417,6.011,6.448620962425772,-0.47161041529325853
7.932730388925512,5.200850885368144,8.37448175846157,-0.5688729343304636
7.940727092946606,5.408121776949377,8.339737458231989,-0.5913923881829701
7.9487237969677,5.615392668530611,8.304993158002407,-0.6139118420354766
7.956720500988794,5.822663560111844,8.270248857772826,-0.6364312958879831
7.9647172050098884,6.0299344516930775,8.235504557543244,-0.6589507497404896
7.972713909030983,6.237205343274311,8.200760257313663,-0.6814702035929961
7.980710613052077,6.444476234855544,8.166015957084081,-0.7039896574455027
7.988707317073171,6.651747126436778,8.1312716568545,-0.7265091112980091
7.996704021094265,6.859018018018011,8.096527356624918,-0.7490285651505156
8.00470072511536,7.066288909599244,8.061783056395337,-0.7715480190030222
8.012697429136454,7.273559801180477,8.027038756165755,-0.7940674728555287
8.020694133157548,7.894435398813756,4.756363876070974,-1.6882870797626695
8.028690837178642,6.563877455504153,7.398899208965135,-1.89261957811468
8.036687541199736,5.311518387118279,8.04825012406212,-1.7290859991260137
8.04468424522083,5.336496855858326,7.936026715945866,-1.7921611252249812
8.052680949241925,5.361475324598373,7.823803307829612,-1.8552362513239486
8.060677653263019,5.386453793338419,7.711579899713358,-1.9183113774229161
8.068674357284113,5.411432262078467,7.599356491597105,-1.9813865035218836
8.076671061305209,5.436410730818519,7.487133083480826,-2.044461629620865
8.084667765326303,5.461389199558567,7.374909675364571,-2.1075367557198326
8.092664469347397,5.486367668298613,7.262686267248317,-2.1706118818188003
8.100661173368492,5.51134613703866,7.150462859132063,-2.2336870079177675
8.108657877389586,5.536324605778708,7.0382394510158095,-2.296762134016735
8.11665458141068,5.561303074518754,6.926016042899555,-2.3598372601157025
8.124651285431774,7.126663810152189,6.118714568226557,-1.56503032300582
8.132647989452868,7.7126914371208795,4.67170111026347,-1.6317328775747368
8.140644693473963,7.764625087954502,4.749960988941819,-1.5456559960892515
8.148641397495057,7.816558738788125,4.828220867620167,-1.4595791146037658
8.156638101516151,7.868492389621747,4.906480746298516,-1.3735022331182805
8.164634805537245,7.92042604045537,4.9847406249768635,-1.2874253516327947
8.17263150955834,7.972359691288993,5.063000503655212,-1.2013484701473094
8.180628213579434,8.024293342122615,5.141260382333561,-1.1152715886618236
8.188624917600528,8.076226992956238,5.219520261011909,-1.0291947071763383
8.196621621621622,8.128160643789862,5.297780139690258,-0.9431178256908527
8.204618325642716,8.180094294623483,5.376040018368606,-0.8570409442053672
8.21261502966381,8.232027945457107,5.454299897046955,-0.7709640627198817
8.220611733684905,8.016435069215555,5.048499670402109,-0.33345286750164865
8.228608437705999,5.732879037574154,6.854658206987486,-1.2100926170072575
8.236605141727093,5.657263145139395,7.004596407383004,-1.2922940304005646
8.244601845748187,5.581647252704636,7.154534607778521,-1.3744954437938717
8.252598549769282,5.506031360269877,7.304472808174038,-1.4566968571871788
8.260595253790376,5.430415467835118,7.454411008569555,-1.5388982705804857
8.26859195781147,5.354799575400359,7.604349208965072,-1.6210996839737928
8.276588661832564,5.2791836829656,7.75428740936059,-1.7033010973671
8.284585365853658,5.203567790530841,7.904225609756106,-1.785502510760407
8.292582069874753,5.127951898096082,8.054163810151623,-1.8677039241537141
8.300578773895847,8.878403098220637,5.6518259723137465,-4.510392551087819
8.308575477916943,8.262967069508528,6.236013550135592,-4.021485915183426
8.316572181938037,8.24182022998608,6.8113319783198705,-3.7021508679410635
8.324568885959131,8.22067339046363,7.386650406504148,-3.3828158206987013
8.332565589980225,8.199526550941181,7.961968834688427,-3.063480773456339
8.34056229400132,8.178379711418733,8.537287262872706,-2.7441457262139766
8.348558998022414,8.157232871896284,9.112605691056984,-2.424810678971614
8.356555702043508,8.136086032373834,9.687924119241263,-2.105475631729252
8.364552406064602,8.114939192851386,10.263242547425541,-1.7861405844868896
8.372549110085696,8.093792353328936,10.83856097560982,-1.4668055372445274
8.38054581410679,8.072645513806487,11.413879403794098,-1.1474704900021648
8.388542518127885,8.051498674284039,11.989197831978377,-0.8281354427598027
8.396539222148979,3.036023203691464,4.458124851680886,-3.2906648648649783
8.404535926170073,2.6474810055327835,3.694872093798339,-4.628545028997238
8.412532630191167,2.4606815936243027,3.305010310118254,-4.964945701525065
8.420529334212262,2.2738821817158223,2.9151485264381685,-5.301346374052891
8.428526038233356,2.0870827698073415,2.525286742758083,-5.637747046580718
8.43652274225445,1.9002833578988612,2.135424959077998,-5.974147719108545
8.444519446275544,1.7134839459903803,1.7455631753979126,-6.310548391636371
8.452516150296638,1.5266845340818997,1.3557013917178273,-6.646949064164198
8.460512854317733,1.3398851221734192,0.9658396080377418,-6.983349736692023
8.468509558338827,1.1530857102649386,0.5759778243576568,-7.31975040921985
8.476506262359921,0.966286298356458,0.18611604067757126,-7.656151081747677
8.484502966381015,0.7794868864479774,-0.2037457430025138,-7.992551754275503
8.49249967040211,0.5926874745394968,-0.5936075266825993,-8.32895242680333
8.500496374423204,1.419193357007678,-4.581980160333425,-8.19846586003785
8.508493078444298,1.277316350181813,-4.613880990353059,-8.238191421949091
8.516489782465392,1.135439343355948,-4.645781820372693,-8.277916983860335
8.524486486486486,0.9935623365300832,-4.677682650392327,-8.317642545771577
8.532483190507582,0.8516853297041868,-4.709583480411967,-8.357368107682827
8.540479894528676,0.7098083228783217,-4.741484310431601,-8.397093669594069
8.54847659854977,0.5679313160524568,-4.773385140451236,-8.436819231505313
8.556473302570865,0.4260543092265918,-4.8052859704708695,-8.476544793416554
8.564470006591959,0.284177302400727,-4.837186800490503,-8.516270355327796
8.572466710613053,0.142300295574862,-4.869087630510137,-8.555995917239038
8.580463414634147,0.00042328874899721924,-4.900988460529771,-8.59572147915028
8.588460118655242,-0.1414537180768678,-4.932889290549404,-8.635447041061523
8.596456822676336,1.1275458141068375,-6.770552406064317,-7.995746209624359
8.60445352669743,0.5067926247625009,-4.771333708170158,-7.820817015006399
8.612450230718524,0.5441628429002939,-4.833687093118952,-7.825311894390805
8.620446934739618,0.581533061038087,-4.896040478067745,-7.829806773775211
8.628443638760713,0.6189032791758801,-4.958393863016538,-7.834301653159616
8.636440342781807,0.6562734973136731,-5.020747247965331,-7.8387965325440225
8.644437046802901,0.6936437154514662,-5.083100632914125,-7.843291411928428
8.652433750823995,0.7310139335892593,-5.145454017862917,-7.8477862913128345
8.66043045484509,0.7683841517270523,-5.207807402811711,-7.85228117069724
8.668427158866184,0.8057543698648454,-5.270160787760505,-7.8567760500816455
8.676423862887278,0.8431245880026383,-5.332514172709297,-7.861270929466052
8.684420566908372,0.8804948061404314,-5.394867557658091,-7.865765808850457
8.692417270929466,0.9178650242782245,-5.457220942606884,-7.870260688234863
8.70041397495056,0.9552352424160175,-5.519574327555677,-7.874755567619269
8.708410678971655,0.9926054605538106,-5.58192771250447,-7.879250447003675
8.716407382992749,1.0299756786916037,-5.644281097453264,-7.883745326388081
8.724404087013843,1.0673458968293967,-5.706634482402056,-7.888240205772487
8.732400791034937,1.1047161149671898,-5.76898786735085,-7.892735085156892
8.740397495056031,1.1420863331049829,-5.831341252299643,-7.897229964541299
8.748394199077126,1.179456551242776,-5.893694637248436,-7.901724843925704
8.75639090309822,1.131542188530058,-6.141415293341977,-7.833292023731104
8.764387607119316,0.7937886861524117,-7.204766343895382,-7.939133560745207
8.77238431114041,0.8098597320977176,-7.11121267063889,-7.916851482550507
8.780381015161504,0.8259307780430234,-7.0176589973824,-7.894569404355808
8.788377719182598,0.8420018239883293,-6.924105324125909,-7.872287326161108
8.796374423203693,0.8580728699336352,-6.830551650869419,-7.850005247966409
8.804371127224787,0.874143915878941,-6.736997977612928,-7.827723169771709
8.812367831245881,0.8902149618242469,-6.6434443043564375,-7.80544109157701
8.820364535266975,0.9062860077695527,-6.549890631099947,-7.783159013382311
8.82836123928807,0.9223570537148587,-6.456336957843456,-7.7608769351876115
8.836357943309164,0.9384280996601645,-6.362783284586966,-7.738594856992912
8.844354647330258,0.9544991456054703,-6.269229611330474,-7.716312778798212
8.852351351351352,0.9705701915507762,-6.175675938073984,-7.694030700603513
8.860348055372446,0.986641237496082,-6.082122264817493,-7.671748622408813
8.86834475939354,1.0253555262579754,-6.993764667106494,-6.726693693693348
8.876341463414635,1.682104878048772,-6.9243756097561215,-7.839692682926796
8.884338167435729,0.5074428497233414,-6.594165947544018,-6.666185124148524
8.892334871456823,0.5465782345538475,-6.8101981182956965,-6.51291496374422
8.900331575477917,0.5857136193843535,-7.026230289047375,-6.359644803339916
8.908328279499012,0.6248490042148596,-7.242262459799054,-6.206374642935612
8.916324983520106,0.6639843890453656,-7.458294630550733,-6.0531044825313085
8.9243216875412,0.7031197738758717,-7.674326801302412,-5.899834322127004
8.932318391562294,0.7422551587063777,-7.890358972054091,-5.7465641617227
8.940315095583388,0.7813905435368838,-8.10639114280577,-5.593294001318396
8.948311799604483,0.5508523401452174,-8.177119973632268,-5.378963085036304
8.956308503625577,0.8211368430514768,-7.061352190327815,-6.643555492299384
8.964305207646671,0.8258621681548506,-6.87960891712113,-6.77695505483309
8.972301911667765,0.8305874932582243,-6.6978656439144455,-6.910354617366797
8.98029861568886,1.0152440707443324,-6.811966479193254,-7.326169623697396
8.988295319709955,0.9818961135499745,-6.845824864303852,-7.20051928498294
8.99629202373105,0.948548156355624,-6.879683249414443,-7.074868946268512
9.004288727752144,0.9152001991612735,-6.913541634525034,-6.9492186075540845
9.012285431773238,0.881852241966923,-6.947400019635624,-6.823568268839656
9.020282135794332,0.8485042847725726,-6.981258404746215,-6.697917930125229
9.028278839815426,0.815156327578222,-7.015116789856805,-6.572267591410801
9.03627554383652,0.7818083703838715,-7.048975174967396,-6.446617252696373
9.044272247857615,0.748460413189521,-7.082833560077986,-6.3209669139819455
9.052268951878709,0.7151124559951705,-7.116691945188577,-6.195316575267517
9.060265655899803,0.68176449880082,-7.1505503302991675,-6.06966623655309
9.068262359920897,0.6484165416064696,-7.184408715409758,-5.944015897838662
9.076259063941992,0.8663955174686876,-7.90381630410899,-6.135348275104374
9.084255767963086,0.8793172929026576,-7.853925071412882,-6.192782685124148
9.09225247198418,0.9852544852037268,-7.878075611537706,-5.776464207450694
9.100249176005274,0.9779061625897483,-7.838524345703645,-5.780894813732652
9.108245880026368,0.9705578399757698,-7.798973079869585,-5.785325420014609
9.116242584047463,0.9632095173617914,-7.759421814035524,-5.789756026296566
9.124239288068557,0.955861194747813,-7.719870548201463,-5.7941866325785245
9.132235992089651,0.9485128721338344,-7.680319282367403,-5.798617238860482
9.140232696110745,0.941164549519856,-7.640768016533342,-5.80304784514244
9.14822940013184,0.9338162269058775,-7.601216750699281,-5.807478451424397
9.156226104152934,0.9264679042918991,-7.561665484865221,-5.811909057706355
9.164222808174028,0.6082524719841067,-7.609976928147539,-6.208313117995628
9.172219512195122,0.9712124958235883,-7.478837621115939,-6.288970932175074
9.180216216216216,0.9684738985560902,-7.558256941873381,-6.244496112550906
9.18821292023731,0.9657353012885923,-7.637676262630823,-6.200021292926738
9.196209624258405,0.9629967040210943,-7.717095583388264,-6.1555464733025715
9.204206328279499,0.9602581067535962,-7.796514904145707,-6.111071653678404
9.212203032300593,0.9575195094860983,-7.8759342249031485,-6.066596834054236
9.220199736321689,0.9547809122185996,-7.955353545660608,-6.022122014430059
9.228196440342783,0.9520423149511017,-8.03477286641805,-5.977647194805892
9.236193144363877,0.9493037176836037,-8.114192187175492,-5.933172375181724
9.244189848384972,1.0433190507580954,-7.986850142825717,-6.127777191826018
9.252186552406066,1.2021582069874113,-7.691592287409404,-6.475526697428951
9.26018325642716,1.0102179836251923,-7.76605735958651,-5.962488683805761
9.268179960448254,0.9988603460300153,-7.7040539298577375,-5.9838132278620115
9.276176664469348,0.9875027084348382,-7.642050500128964,-6.005137771918263
9.284173368490443,0.9761450708396611,-7.580047070400191,-6.026462315974514
9.292170072511537,0.9647874332444839,-7.518043640671418,-6.047786860030764
9.300166776532631,0.9534297956493069,-7.4560402109426445,-6.069111404087016
9.308163480553725,0.9420721580541297,-7.394036781213871,-6.090435948143266
9.31616018457482,0.9307145204589526,-7.332033351485098,-6.111760492199518
9.324156888595914,0.8365471324982874,-7.864964073830376,-5.998114700065819
9.332153592617008,-0.9968532752832264,-8.430330126780214,-5.691971424629394
9.340150296638102,-0.8850853888488613,-8.343389216783432,-5.690483665741748
9.348147000659196,-0.7733175024144963,-8.25644830678665,-5.688995906854103
9.35614370468029,-0.6615496159801312,-8.16950739678987,-5.687508147966458
9.364140408701385,-0.5497817295457661,-8.082566486793088,-5.686020389078813
9.372137112722479,-0.438013843111401,-7.995625576796306,-5.684532630191167
9.380133816743573,-0.32624595667703593,-7.908684666799525,-5.6830448713035215
9.388130520764667,-0.21447807024267085,-7.821743756802743,-5.681557112415876
9.396127224785761,-0.10271018380830577,-7.7348028468059615,-5.68006935352823
9.404123928806856,0.009057702626059316,-7.64786193680918,-5.678581594640585
9.41212063282795,0.12082558906042429,-7.560921026812398,-5.67709383575294
9.420117336849044,1.4863190507580124,-8.956009887936682,-5.749277521423838
9.428114040870138,0.9516417481311101,-6.718732899479646,-7.155253313510715
9.436110744891232,0.9481538240368032,-6.815629132245884,-7.091705037938827
9.444107448912328,0.9446658999424953,-6.912525365012143,-7.028156762366926
9.452104152933423,0.9411779758481882,-7.009421597778381,-6.964608486795039
9.460100856954517,0.9376900517538811,-7.106317830544619,-6.901060211223152
9.468097560975611,0.9342021276595741,-7.203214063310856,-6.837511935651264
9.476094264996705,0.930714203565267,-7.3001102960770945,-6.773963660079377
9.4840909690178,0.9272262794709599,-7.397006528843332,-6.71041538450749
9.492087673038894,0.9237383553766529,-7.49390276160957,-6.646867108935602
9.500084377059988,0.9202504312823458,-7.590798994375808,-6.583318833363715
9.508081081081082,0.9167625071880388,-7.687695227142045,-6.519770557791828
9.516077785102176,0.9132745830937317,-7.784591459908284,-6.45622228221994
9.52407448912327,-0.09275477916918373,-6.043397495054724,-7.6607943309169775
9.532071193144365,0.1311659472218184,-5.425874582686576,-8.368309099028197
9.540067897165459,0.2077795309077855,-5.694409062878804,-8.20012035639099
9.548064601186553,0.28439311459375255,-5.962943543071032,-8.031931613753782
9.556061305207647,0.36100669827971965,-6.23147802326326,-7.8637428711165756
9.564058009228741,0.4376202819656867,-6.500012503455488,-7.695554128479368
9.572054713249836,0.5142338656516537,-6.768546983647716,-7.527365385842161
9.58005141727093,0.5908474493376208,-7.037081463839944,-7.359176643204954
9.588048121292024,0.6674610330235878,-7.305615944032173,-7.190987900567746
9.596044825313118,0.7440746167095549,-7.5741504242244,-7.02279915793054
9.604041529334213,0.8206882003955219,-7.842684904416628,-6.854610415293332
9.612038233355307,0.8973017840814891,-8.111219384608855,-6.686421672656126
9.620034937376401,1.155359920896576,-8.263964403427789,-6.589366512854336
9.628031641397495,2.6339504943969256,-7.6378224785760995,-6.970809294660538
9.63602834541859,2.0228752110230364,-3.79300315127742,-8.042629781179146
9.644025049439684,1.9876702091740732,-4.076008456999556,-7.9381850250011965
9.652021753460778,1.95246520732511,-4.359013762721692,-7.833740268823248
9.660018457481872,1.9172602054761467,-4.642019068443829,-7.729295512645299
9.668015161502968,1.8820552036271758,-4.925024374166028,-7.624850756467327
9.676011865524062,1.8468502017782127,-5.208029679888163,-7.520406000289379
9.684008569545156,1.8116451999292493,-5.4910349856103,-7.415961244111429
9.69200527356625,1.7764401980802862,-5.774040291332436,-7.31151648793348
9.700001977587345,1.741235196231323,-6.0570455970545725,-7.207071731755532
9.707998681608439,1.7060301943823597,-6.340050902776708,-7.102626975577583
9.715995385629533,1.6708251925333966,-6.623056208498845,-6.998182219399634
9.723992089650627,1.993062953197125,-5.604937705998599,-7.987659195781224
9.731988793671722,3.236281027146886,-0.019674147540000818,-8.406819709953835
9.739985497692816,3.2709031206927595,-0.017038870078503895,-8.267876977587326
9.74798220171391,3.305525214238633,-0.01440359261700697,-8.128934245220815
9.755978905735004,3.3401473077845063,-0.011768315155510045,-7.989991512854305
9.763975609756098,3.3747694013303793,-0.009133037694013121,-7.851048780487795
9.771972313777193,3.4093914948762527,-0.006497760232516197,-7.712106048121284
9.779969017798287,3.444013588422126,-0.003862482771019273,-7.573163315754774
9.787965721819381,3.4786356819679995,-0.0012272053095223473,-7.434220583388264
9.795962425840475,3.513257775513873,0.001408072151974575,-7.295277851021754
9.80395912986157,3.5478798690597464,0.004043349613471501,-7.156335118655243
9.811955833882664,3.58250196260562,0.006678627074968423,-7.0173923862887335
9.819952537903758,3.1910257086354443,2.49702900461449,-6.270135135135105
9.827949241924852,4.776779053084713,6.288190546356983,-6.2535868781263
9.835945945945946,5.525176470588239,6.387914149443562,-5.864570747217805
9.84394264996704,7.1752354185037195,5.63756033353595,-5.391472532082247
9.851939353988135,7.254683192219786,5.693433408384633,-5.012304137523611
9.859936058009229,7.334130965935851,5.749306483233318,-4.633135742964975
9.867932762030323,7.413578739651917,5.805179558082002,-4.25396734840634
9.875929466051417,7.493026513367983,5.8610526329306865,-3.874798953847704
9.883926170072511,7.572474287084049,5.91692570777937,-3.495630559289068
9.891922874093606,7.651922060800114,5.972798782628055,-3.1164621647304322
9.899919578114702,7.731369834516197,6.028671857476751,-2.7372937701717124
9.907916282135796,7.810817608232264,6.084544932325436,-2.358125375613077
9.91591298615689,7.890265381948329,6.1404180071741195,-1.978956981054441
9.923909690177984,6.860885036255999,6.768268160844076,-2.9567049439683055
9.931906394199078,7.1617852035900755,7.309280882597963,-2.1183556759654243
9.939903098220173,7.114420110542056,7.365082059008895,-2.05605168529558
9.947899802241267,7.067055017494036,7.4208832354198275,-1.9937476946257355
9.955896506262361,7.019689924446016,7.47668441183076,-1.9314437039558912
9.963893210283455,6.972324831397996,7.532485588241693,-1.8691397132860468
9.97188991430455,6.924959738349976,7.588286764652626,-1.8068357226162024
9.979886618325644,6.877594645301956,7.644087941063558,-1.7445317319463582
9.987883322346738,6.830229552253936,7.69988911747449,-1.6822277412765139
9.995880026367832,6.782864459205917,7.755690293885423,-1.6199237506066695
10.003876730388926,6.735499366157897,7.811491470296356,-1.5576197599368253
10.01187343441002,6.688134273109877,7.867292646707289,-1.495315769266981
10.019870138431115,6.640769180061857,7.92309382311822,-1.4330117785971366
10.027866842452209,6.259938082681985,7.96627898107165,-1.784186955995342
10.035863546473303,6.259366889537621,7.876601657406523,-1.9335131637361815
10.043860250494397,6.258795696393257,7.786924333741395,-2.082839371477021
10.051856954515491,6.2582245032488935,7.697247010076268,-2.232165579217861
10.059853658536586,6.257653310104529,7.607569686411141,-2.3814917869587005
10.06785036255768,6.257082116960166,7.5178923627460135,-2.53081799469954
10.075847066578774,6.256510923815802,7.428215039080887,-2.6801442024403794
10.083843770599868,6.255939730671438,7.338537715415759,-2.829470410181219
10.091840474620962,6.255368537527074,7.2488603917506325,-2.9787966179220584
10.099837178642057,6.25479734438271,7.159183068085505,-3.1281228256628983
10.10783388266315,6.254226151238346,7.069505744420378,-3.2774490334037374
10.115830586684245,6.253654958093983,6.979828420755251,-3.4267752411445773
10.123827290705341,6.2530837649496185,6.890151097090103,-3.57610144888545
10.131823994726435,4.153582948802804,5.35919094704495,-5.262072950999469
10.13982069874753,4.414357954481981,5.6863684457504515,-5.186182764823569
10.147817402768624,4.44526047171604,5.794662793425946,-5.345845770532871
10.155814106789718,4.476162988950097,5.90295714110144,-5.505508776242173
10.163810810810812,4.507065506184156,6.011251488776934,-5.665171781951474
10.171807514831906,4.537968023418214,6.119545836452428,-5.824834787660776
10.179804218853,4.568870540652273,6.227840184127922,-5.984497793370078
10.187800922874095,4.599773057886331,6.336134531803416,-6.14416079907938
10.195797626895189,4.6688042188530945,4.329646671061868,-6.956608437705312
10.203794330916283,4.165953490075437,4.689407371724437,-6.302048076218809
10.211791034937377,4.137520764667102,4.6283726991531795,-6.313803914608794
10.219787738958471,4.109088039258768,4.567338026581923,-6.325559752998778
10.227784442979566,4.080655313850433,4.506303354010666,-6.337315591388763
10.23578114700066,4.052222588442098,4.4452686814394085,-6.349071429778747
10.243777851021754,4.023789863033763,4.384234008868152,-6.360827268168732
10.251774555042848,3.995357137625429,4.323199336296895,-6.372583106558716
10.259771259063942,3.9669244122170944,4.262164663725638,-6.384338944948701
10.267767963085037,3.9384916868087596,4.201129991154381,-6.396094783338686
10.275764667106131,3.910058961400425,4.140095318583124,-6.40785062172867
10.283761371127225,3.88162623599209,4.079060646011867,-6.419606460118655
10.29175807514832,3.8531935105837554,4.01802597344061,-6.431362298508639
10.299754779169414,3.8247607851754206,3.956991300869353,-6.443118136898624
10.307751483190508,3.796328059767086,3.895956628298096,-6.454873975288608
10.315748187211602,3.767895334358751,3.834921955726839,-6.466629813678593
10.323744891232696,5.727537459809233,3.3259863586832186,-6.45846556711017
10.33174159525379,5.632964194906702,3.2035878277481045,-6.5443077368059965
10.339738299274885,5.53839093000417,3.08118929681299,-6.630149906501823
10.347735003295979,5.443817665101639,2.9587907658778754,-6.71599207619765
10.355731707317075,5.349244400199086,2.8363922349427337,-6.801834245893496
10.363728411338169,5.254671135296554,2.7139937040076196,-6.887676415589323
10.371725115359263,5.160097870394022,2.591595173072505,-6.97351858528515
10.379721819380357,5.065524605491491,2.4691966421373905,-7.059360754980976
10.387718523401452,4.970951340588959,2.3467981112022764,-7.145202924676804
10.395715227422546,4.876378075686427,2.224399580267162,-7.2310450943726305
10.40371193144364,4.781804810783895,2.1020010493320473,-7.316887264068457
10.411708635464734,4.687231545881364,1.9796025183969332,-7.402729433764284
10.419705339485828,4.354836519445944,1.9156104152934064,-7.361444957152114
10.427702043506923,5.7142587709660395,-0.3187656192778369,-8.547650406504083
10.435698747528017,5.281811022695171,-0.5569770458612264,-8.702352858084565
10.443695451549111,5.295043663872934,-0.7263358131651115,-8.699306494647956
10.451692155570205,5.308276305050697,-0.8956945804689966,-8.69626013121135
10.4596888595913,5.32150894622846,-1.0650533477728816,-8.693213767774742
10.467685563612394,5.3347415874062225,-1.2344121150767666,-8.690167404338135
10.475682267633488,5.347974228583986,-1.4037708823806518,-8.687121040901529
10.483678971654582,5.361206869761749,-1.573129649684537,-8.68407467746492
10.491675675675676,5.374439510939512,-1.7424884169884218,-8.681028314028314
10.49967237969677,5.387672152117275,-1.911847184292307,-8.677981950591706
10.507669083717865,5.400904793295037,-2.0812059515961923,-8.6749355871551
10.515665787738959,5.4141374344728,-2.2505647189000775,-8.671889223718491
10.523662491760053,7.061847890573896,-2.411552406065364,-10.62779169413284
10.531659195781147,9.139248038711445,-6.510239990727798,-8.957620774084194
10.539655899802241,9.06587168862778,-6.527815164400532,-9.006743384499487
10.547652603823336,8.992495338544114,-6.5453903380732665,-9.055865994914779
10.55564930784443,8.919118988460449,-6.562965511746,-9.104988605330071
10.563646011865524,8.845742638376782,-6.580540685418735,-9.154111215745363
10.571642715886618,8.772366288293117,-6.598115859091469,-9.203233826160655
10.579639419907714,8.698989938209435,-6.615691032764207,-9.252356436575958
10.587636123928808,8.625613588125768,-6.633266206436942,-9.301479046991252
10.595632827949903,8.552237238042103,-6.650841380109676,-9.350601657406544
10.603629531970997,8.478860887958437,-6.668416553782411,-9.399724267821837
10.611626235992091,8.405484537874772,-6.685991727455145,-9.448846878237129
10.619622940013185,7.1809176005260325,-0.3437554383579764,-9.7728259723141
10.62761964403428,5.621888404533548,3.079494106222648,-8.103183008342727
10.635616348055374,5.505549258936339,2.9558461451222877,-8.11289943365868
10.643613052076468,5.38921011333913,2.832198184021928,-8.122615858974633
10.651609756097562,5.2728709677419205,2.708550222921568,-8.132332284290586
10.659606460118656,5.156531822144712,2.5849022618212083,-8.142048709606538
10.66760316413975,5.040192676547502,2.4612543007208485,-8.151765134922492
10.675599868160845,4.923853530950293,2.3376063396204887,-8.161481560238444
10.683596572181939,4.807514385353084,2.213958378520129,-8.171197985554398
10.691593276203033,4.691175239755875,2.0903104174197686,-8.18091441087035
10.699589980224127,4.574836094158665,1.9666624563194088,-8.190630836186305
10.707586684245221,4.458496948561456,1.843014495219049,-8.200347261502257
10.715583388266316,4.3421578029642465,1.7193665341186892,-8.210063686818211
10.72358009228741,2.890170491999769,1.3860549529574164,-8.751545814106825
10.731576796308504,3.0115749985018434,1.7364559836999323,-9.255338167435795
10.739573500329598,3.1865462232627926,2.208151546836996,-9.761364580728753
10.747570204350692,3.1653135953447147,2.22901651020238,-9.76789062653907
10.755566908371787,3.144080967426637,2.249881473567764,-9.774416672349389
10.76356361239288,3.122848339508559,2.270746436933148,-9.780942718159707
10.771560316413975,3.1016157115904814,2.2916114002985313,-9.787468763970026
10.77955702043507,3.0803830836724035,2.312476363663915,-9.793994809780344
10.787553724456163,3.0591504557543256,2.333341327029299,-9.800520855590662
10.795550428477258,3.0379178278362478,2.354206290394683,-9.80704690140098
10.803547132498352,3.01668519991817,2.375071253760067,-9.813572947211298
10.811543836519448,2.9954525720000875,2.3959362171254552,-9.820098993021618
10.819540540540542,2.9742199440820096,2.416801180490839,-9.826625038831937
10.827537244561636,2.756568556361495,0.32411074489111436,-8.95864568226756
10.83553394858273,3.203514601953031,0.07556013245234436,-8.777506078398329
10.843530652603825,3.080960463583239,0.0007072634176837483,-8.866585641796098
10.851527356624919,2.958406325213447,-0.07414560561697683,-8.955665205193869
10.859524060646013,2.835852186843655,-0.14899847465163746,-9.044744768591638
10.867520764667107,2.7132980484738622,-0.22385134368629805,-9.133824331989409
10.875517468688201,2.59074391010407,-0.29870421272095865,-9.222903895387178
10.883514172709296,2.468189771734278,-0.37355708175561925,-9.31198345878495
10.89151087673039,2.345635633364486,-0.4484099507902798,-9.401063022182718
10.899507580751484,2.2230814949946938,-0.5232628198249404,-9.490142585580488
10.907504284772578,2.1005273566249016,-0.598115688859601,-9.579222148978259
10.915500988793672,1.9779732182551097,-0.6729685578942616,-9.668301712376028
10.923497692814767,2.4584291364534363,-1.0813029004616364,-9.494354976928125
10.93149439683586,1.9409526393184966,-1.542954667613211,-9.465410374727453
10.939491100856955,1.9693365447999625,-1.5998103544445066,-9.507063536331833
10.94748780487805,1.9977204502814283,-1.656666041275802,-9.548716697936214
10.955484508899143,2.0261043557628944,-1.7135217281070974,-9.590369859540594
10.963481212920238,2.05448826124436,-1.7703774149383928,-9.632023021144974
10.971477916941332,2.082872166725826,-1.8272331017696883,-9.673676182749356
10.979474620962426,2.111256072207292,-1.8840887886009838,-9.715329344353735
10.98747132498352,2.139639977688758,-1.9409444754322793,-9.756982505958115
10.995468029004615,2.168023883170224,-1.9978001622635748,-9.798635667562495
11.003464733025709,2.1964077886516895,-2.0546558490948703,-9.840288829166877
11.011461437046803,2.2247916941331556,-2.111511535926166,-9.881941990771256
11.019458141067897,2.4988002636781985,-2.1879960448252995,-10.100975609756015
11.027454845088991,4.380767963084995,-2.4173645352669744,-11.443760052735644
11.035451549110087,5.716891619842798,-1.6638345837127566,-12.541843969404958
11.043448253131182,5.567112084209607,-2.1168542130982315,-12.588554875432935
11.051444957152276,5.417332548576415,-2.569873842483707,-12.635265781460914
11.05944166117337,5.267553012943224,-3.022893471869182,-12.681976687488893
11.067438365194464,5.117773477310032,-3.4759131012546574,-12.728687593516872
11.075435069215558,4.96799394167684,-3.9289327306401325,-12.775398499544849
11.083431773236653,4.81821440604365,-4.381952360025608,-12.822109405572828
11.091428477257747,4.668434870410458,-4.834971989411082,-12.868820311600807
11.099425181278841,3.8977328059765335,-8.047898483849998,-10.423302351131195
11.107421885299935,3.8356755593470093,-8.169203594555821,-10.117765888557113
11.11541858932103,3.8417906859513753,-8.176965101399823,-9.965593314979236
11.123415293342124,3.8479058125557413,-8.184726608243826,-9.813420741401357
11.131411997363218,3.8540209391601072,-8.192488115087828,-9.66124816782348
11.139408701384312,4.108141567287856,-8.726763658336905,-8.886102584846368
11.147405405405406,3.83164946764942,-9.12502375102382,-8.264661752661645
11.1554021094265,3.555157368010984,-9.523283843710734,-7.643220920476923
11.163398813447595,3.2786652683725483,-9.921543936397649,-7.0217800882922
11.171395517468689,3.002173168734112,-10.319804029084564,-6.400339256107477
11.179392221489783,2.7256810690956765,-10.718064121771476,-5.778898423922754
11.187388925510877,2.44918896945724,-11.116324214458391,-5.15745759173803
11.195385629531971,2.1726968698188047,-11.514584307145306,-4.536016759553307
11.203382333553066,0.6867676334872506,-11.651855636123946,-3.768341793012546
11.21137903757416,0.2228047462096321,-10.331054263445656,-1.8491710264066106
11.219375741595254,0.08366209624259144,-10.322022691845362,-1.794699360192333
11.227372445616348,-0.055480553724449155,-10.312991120245066,-1.7402276939780554
11.235369149637442,-0.19462320369148983,-10.303959548644771,-1.6857560277637778
11.243365853658537,-0.33376585365853045,-10.294927977044477,-1.6312843615495003
11.25136255767963,-0.4729085036255711,-10.285896405444182,-1.5768126953352226
11.259359261700727,-0.6120511535926425,-10.276864833843886,-1.522341029120933
11.267355965721821,-0.7511938035596832,-10.26783326224359,-1.4678693629066555
11.275352669742915,-0.890336453526724,-10.258801690643296,-1.4133976966923778
11.28334937376401,-1.0294791034937645,-10.249770119043001,-1.3589260304781003
11.291346077785104,-1.1686217534608052,-10.240738547442707,-1.3044543642638229
11.299342781806198,-0.3983737640078761,-9.179572746962853,1.8118433939171248
11.307339485827292,0.7059322922586043,-7.996692837496876,2.3202663302495194
11.315336189848386,0.6577682358556929,-8.000829063714683,2.3576761984861316
11.32333289386948,0.6096041794527816,-8.00496528993249,2.3950860667227443
11.331329597890575,0.5614401230498701,-8.009101516150297,2.4324959349593565
11.339326301911669,0.5132760666469588,-8.013237742368105,2.469905803195969
11.347323005932763,0.4651120102440474,-8.017373968585913,2.5073156714325817
11.355319709953857,0.41694795384113603,-8.021510194803719,2.544725539669194
11.363316413974951,0.36878389743822465,-8.025646421021527,2.5821354079058065
11.371313117996046,0.32061984103531327,-8.029782647239335,2.6195452761424187
11.37930982201714,0.2724557846324019,-8.033918873457141,2.6569551443790314
11.387306526038234,0.2242917282294905,-8.03805509967495,2.694365012615644
11.395303230059328,0.7327617007251184,-8.484309162821354,3.44045319709955
11.403299934080422,0.20481294105401293,-6.737522679804312,3.6162467820837647
11.411296638101517,0.16727052007077092,-6.667825091073091,3.687375359955602
11.41929334212261,0.12972809908752891,-6.59812750234187,3.7585039378274394
11.427290046143705,0.0921856781042869,-6.528429913610649,3.8296325156992768
11.4352867501648,0.0546432571210449,-6.458732324879429,3.9007610935711146
11.443283454185893,0.01710083613780289,-6.389034736148209,3.971889671442952
11.451280158206988,-0.020441584845439092,-6.319337147416988,4.043018249314789
11.459276862228082,-0.0579840058286811,-6.249639558685767,4.114146827186627
11.467273566249176,-0.09552642681192311,-6.179941969954546,4.185275405058464
11.47527027027027,-0.13306884779516512,-6.110244381223326,4.256403982930301
11.483266974291364,-0.17061126877840713,-6.040546792492106,4.327532560802139
11.49126367831246,-0.20815368976165746,-5.970849203760869,4.398661138673992
11.499260382333555,0.1957468688201365,-5.856940672379599,5.067079762689629
11.507257086354649,0.6680931820322306,-5.375804830963341,5.546118608155185
11.515253790375743,0.7665288005776049,-5.269753303826449,5.51203741720814
11.523250494396837,0.8649644191229792,-5.163701776689556,5.477956226261096
11.531247198417931,0.9634000376683535,-5.057650249552664,5.4438750353140515
11.539243902439026,1.0618356562137277,-4.951598722415771,5.409793844367007
11.54724060646012,1.372030982201971,-4.809274225444898,5.230266315095412
11.555237310481214,1.5284086657521094,-4.7717187193785735,5.150127385130683
11.563234014502308,1.5476439808298765,-4.765883286714532,5.163527267544408
11.571230718523402,1.5668792959076436,-4.76004785405049,5.176927149958134
11.579227422544497,1.586114610985411,-4.754212421386448,5.190327032371859
11.58722412656559,1.605349926063178,-4.7483769887224065,5.203726914785585
11.595220830586685,1.6245852411409454,-4.742541556058365,5.21712679719931
11.60321753460778,1.6438205562187125,-4.736706123394323,5.230526679613035
11.611214238628873,1.6630558712964798,-4.730870690730281,5.24392656202676
11.619210942649968,1.682291186374247,-4.72503525806624,5.257326444440486
11.627207646671062,2.5191252471984207,-4.445005273566251,6.036812129202386
11.635204350692156,2.65209267045556,-4.399574230789783,6.546280220563348
11.64320105471325,2.69326488980741,-4.302533146858126,6.604310356500207
11.651197758734344,2.73443710915926,-4.205492062926469,6.662340492437067
11.659194462755439,2.77560932851111,-4.108450978994812,6.720370628373926
11.667191166776533,2.8167815478629596,-4.011409895063156,6.778400764310786
11.675187870797627,2.8579537672148096,-3.9143688111314985,6.836430900247645
11.683184574818721,2.8991259865666597,-3.8173277271998414,6.894461036184504
11.691181278839816,2.9402982059185097,-3.7202866432681847,6.952491172121364
11.69917798286091,2.9814704252703597,-3.6232455593365276,7.010521308058223
11.707174686882004,3.13055965721816,-4.168577455504235,7.171600527356516
11.7151713909031,3.2660362480127203,-3.9763948350071656,7.686134398386911
11.723168094924194,3.2776079491255983,-3.9311428981348557,7.697894257241462
11.731164798945288,3.289179650238476,-3.8858909612625454,7.7096541160960115
11.739161502966382,3.3007513513513533,-3.8406390243902355,7.721413974950562
11.747158206987477,3.312323052464231,-3.7953870875179256,7.733173833805113
11.755154911008571,3.323894753577109,-3.7501351506456153,7.7449336926596635
11.763151615029665,3.3354664546899864,-3.7048832137733054,7.756693551514213
11.77114831905076,3.347038155802864,-3.6596312769009955,7.768453410368764
11.779145023071854,3.3586098569157414,-3.614379340028685,7.780213269223315
11.787141727092948,3.3701815580286194,-3.5691274031563753,7.791973128077865
11.795138431114042,3.381753259141497,-3.5238754662840654,7.803732986932415
11.803135135135136,3.501957207207208,-3.797104627354626,8.10088963963964
11.81113183915623,3.5092875192265445,-3.786260612053294,8.10422159964843
11.819128543177325,3.5166178312458807,-3.7754165967519615,8.107553559657218
11.827125247198419,3.523948143265217,-3.7645725814506292,8.110885519666008
11.835121951219513,3.5312784552845535,-3.753728566149297,8.114217479674796
11.843118655240607,3.5386087673038897,-3.7428845508479647,8.117549439683586
11.851115359261701,3.5459390793232264,-3.7320405355466324,8.120881399692376
11.859112063282796,3.5532693913425626,-3.7211965202452997,8.124213359701164
11.86710876730389,3.560599703361899,-3.7103525049439674,8.127545319709954
11.875105471324984,3.5679300153812354,-3.699508489642635,8.130877279718742
11.883102175346078,3.5752603274005716,-3.688664474341303,8.134209239727532
11.891098879367172,3.582590639419908,-3.6778204590399706,8.13754119973632
11.899095583388267,3.5899209514392445,-3.6669764437386383,8.14087315974511
11.90709228740936,3.5972512634585807,-3.656132428437306,8.1442051197539
11.915088991430455,3.6045815754779174,-3.6452884131359737,8.147537079762689
11.92308569545155,3.6119118874972536,-3.6344443978346415,8.150869039771479
11.931082399472643,3.6192421995165898,-3.623600382533309,8.154200999780267
11.939079103493738,3.6128343221270045,-3.809431333772796,8.002517908152054
11.947075807514834,3.6671694133158894,-3.884711272247816,8.0282775214241
11.955072511535928,3.888051606902592,-3.7637405297044504,8.325121373294442
11.963069215557022,3.886189360760693,-3.798575486947026,8.303760314607956
11.971065919578116,3.8843271146187948,-3.8334104441896013,8.28239925592147
11.97906262359921,3.882464868476896,-3.8682454014321768,8.261038197234987
11.987059327620305,3.8806026223349974,-3.9030803586747522,8.239677138548501
11.995056031641399,3.8787403761930985,-3.9379153159173277,8.218316079862015
12.003052735662493,3.8768781300512,-3.972750273159903,8.196955021175532
12.011049439683587,3.875015883909301,-4.007585230402478,8.175593962489046
12.019046143704681,3.8731536377674027,-4.042420187645054,8.154232903802562
12.027042847725776,3.7542646671060584,-3.9722211601846253,8.810265985497372
12.03503955174687,3.5885575782161134,-3.9828956949444745,8.492993849920678
12.043036255767964,3.5768700877237447,-3.977359515237563,8.485085021767949
12.051032959789058,3.5651825972313764,-3.971823335530652,8.477176193615218
12.059029663810152,3.5534951067390077,-3.9662871558237405,8.469267365462487
12.067026367831247,3.541807616246639,-3.960750976116829,8.461358537309756
12.07502307185234,3.5301201257542707,-3.955214796409918,8.453449709157026
12.083019775873435,3.518432635261902,-3.9496786167030065,8.445540881004295
12.09101647989453,3.5067451447695337,-3.944142436996095,8.437632052851564
12.099013183915623,3.495057654277165,-3.9386062572891833,8.429723224698835
12.107009887936718,3.4833701637847967,-3.933070077582272,8.421814396546104
12.115006591957812,3.471682673292428,-3.9275338978753607,8.413905568393373
12.123003295978906,3.460241705119824,-3.9220362557679738,8.405981322786197
12.131,3.407,-3.903,8.276
