accel_time_list,accel_x_list,accel_y_list,accel_z_list
0.0,-1.5,-2.9,9.1
0.008,-1.6500000000000001,-3.1999999999999997,9.3
0.016,-1.7594202898550726,-3.0898550724637683,9.4
0.024,-1.7130434782608697,-3.0782608695652174,9.4
0.032,-1.6666666666666667,-3.066666666666667,9.4
0.04,-1.6202898550724638,-3.055072463768116,9.4
0.048,-1.5739130434782609,-3.0434782608695654,9.4
0.056,-1.527536231884058,-3.0318840579710145,9.4
0.064,-1.481159420289855,-3.020289855072464,9.4
0.07200000000000001,-1.434782608695652,-3.008695652173913,9.4
0.08,-1.5,-3.0,9.4
0.088,-1.9921052631578948,-2.610526315789474,9.294736842105264
0.096,-1.9710526315789474,-2.6385964912280704,9.280701754385966
0.10400000000000001,-1.95,-2.666666666666667,9.266666666666667
0.112,-1.9289473684210527,-2.694736842105263,9.25263157894737
0.12,-1.9078947368421053,-2.7228070175438597,9.238596491228071
0.128,-1.8868421052631579,-2.7508771929824563,9.224561403508773
0.136,-1.8657894736842104,-2.778947368421053,9.210526315789474
0.14400000000000002,-1.844736842105263,-2.807017543859649,9.196491228070176
0.152,-1.8236842105263158,-2.8350877192982455,9.182456140350878
0.16,-1.8026315789473684,-2.863157894736842,9.16842105263158
0.168,-1.781578947368421,-2.8912280701754387,9.154385964912281
0.176,-1.7605263157894737,-2.919298245614035,9.140350877192983
0.184,-1.7394736842105263,-2.9473684210526314,9.126315789473685
0.192,-1.7184210526315788,-2.975438596491228,9.112280701754386
0.2,-1.7,-3.0,9.116666666666667
0.20800000000000002,-1.5,-2.9,9.3
0.216,-1.5,-2.9,9.3
0.224,-1.5,-2.9,9.3
0.232,-1.5,-2.9,9.3
0.24,-1.5,-2.9,9.3
0.248,-1.5,-2.9,9.3
0.256,-1.5,-2.9,9.3
0.264,-1.5,-2.9,9.3
0.272,-1.5,-2.9,9.3
0.28,-1.5,-2.9,9.3
0.28800000000000003,-1.5,-2.9,9.3
0.296,-1.5,-2.9,9.3
0.304,-1.46,-2.86,9.26
0.312,-1.3,-3.2,9.0
0.32,-1.2333333333333334,-2.6666666666666665,9.200000000000001
0.328,-1.309090909090909,-2.379220779220779,9.315584415584416
0.336,-1.5272727272727273,-2.3376623376623376,9.346753246753247
0.34400000000000003,-1.7454545454545456,-2.296103896103896,9.377922077922078
0.352,-1.9636363636363625,-2.254545454545455,9.40909090909091
0.36,-2.1818181818181808,-2.2129870129870133,9.44025974025974
0.368,-2.399999999999999,-2.1714285714285717,9.471428571428572
0.376,-2.6181818181818173,-2.12987012987013,9.502597402597402
0.384,-2.836363636363636,-2.0883116883116886,9.533766233766233
0.392,-3.054545454545454,-2.046753246753247,9.564935064935066
0.4,-3.2727272727272725,-2.0051948051948054,9.596103896103896
0.40800000000000003,-1.8200000000000034,-2.519999999999999,9.48
0.41600000000000004,-1.88876404494382,-2.8,9.39438202247191
0.424,-1.8707865168539324,-2.8,9.385393258426967
0.432,-1.8528089887640449,-2.8,9.376404494382022
0.44,-1.8348314606741571,-2.8,9.367415730337079
0.448,-1.8168539325842696,-2.8,9.358426966292136
0.456,-1.798876404494382,-2.8,9.34943820224719
0.464,-1.7808988764044942,-2.8,9.340449438202247
0.47200000000000003,-1.7629213483146067,-2.8,9.331460674157304
0.48,-1.7449438202247192,-2.8,9.32247191011236
0.488,-1.7269662921348314,-2.8,9.313483146067416
0.496,-1.7089887640449437,-2.8,9.304494382022472
0.504,-1.8,-2.9,9.3
0.512,-1.79468085106383,-2.7946808510638297,9.2
0.52,-1.7861702127659576,-2.786170212765957,9.2
0.528,-1.7776595744680852,-2.777659574468085,9.2
0.536,-1.7691489361702128,-2.769148936170213,9.2
0.544,-1.7606382978723403,-2.7606382978723403,9.2
0.552,-1.752127659574468,-2.752127659574468,9.2
0.56,-1.7436170212765956,-2.7436170212765956,9.2
0.5680000000000001,-1.7351063829787232,-2.7351063829787234,9.2
0.5760000000000001,-1.7265957446808509,-2.726595744680851,9.2
0.584,-1.7180851063829787,-2.7180851063829787,9.2
0.592,-1.7095744680851064,-2.7095744680851066,9.2
0.6,-1.701063829787234,-2.701063829787234,9.2
0.608,-1.4989247311827958,-2.6010752688172043,9.5
0.616,-1.4903225806451612,-2.609677419354839,9.5
0.624,-1.4817204301075269,-2.6182795698924735,9.5
0.632,-1.4731182795698925,-2.6268817204301076,9.5
0.64,-1.464516129032258,-2.635483870967742,9.5
0.648,-1.4559139784946236,-2.6440860215053767,9.5
0.656,-1.4473118279569892,-2.652688172043011,9.5
0.664,-1.4387096774193546,-2.6612903225806455,9.5
0.672,-1.4301075268817203,-2.6698924731182796,9.5
0.68,-1.421505376344086,-2.678494623655914,9.5
0.6880000000000001,-1.4129032258064513,-2.6870967741935488,9.5
0.6960000000000001,-1.404301075268817,-2.695698924731183,9.5
0.704,-1.4,-2.7,9.45
0.712,-1.3,-2.716666666666667,9.266666666666667
0.72,-1.3,-2.783333333333333,9.133333333333333
0.728,-1.1948051948051948,-2.5844155844155843,8.88961038961039
0.736,-1.1844155844155844,-2.553246753246753,8.86883116883117
0.744,-1.174025974025974,-2.522077922077922,8.848051948051948
0.752,-1.1636363636363636,-2.4909090909090907,8.827272727272728
0.76,-1.1532467532467532,-2.4597402597402596,8.806493506493506
0.768,-1.1428571428571428,-2.4285714285714284,8.785714285714285
0.776,-1.1324675324675324,-2.397402597402597,8.764935064935065
0.784,-1.1220779220779222,-2.366233766233766,8.744155844155843
0.792,-1.1116883116883118,-2.335064935064935,8.723376623376623
0.8,-1.1012987012987014,-2.3038961038961037,8.702597402597402
0.808,-2.8,-3.3,7.3
0.8160000000000001,-2.782608695652174,-3.5,7.2043478260869565
0.8240000000000001,-2.765217391304348,-3.7,7.108695652173913
0.8320000000000001,-2.7478260869565214,-3.9000000000000004,7.013043478260869
0.84,-2.730434782608696,-4.099999999999998,6.917391304347827
0.848,-2.7130434782608694,-4.299999999999998,6.821739130434783
0.856,-2.6956521739130435,-4.499999999999998,6.72608695652174
0.864,-2.6782608695652175,-4.699999999999998,6.630434782608696
0.872,-2.6608695652173915,-4.899999999999999,6.534782608695653
0.88,-2.6434782608695655,-5.1,6.439130434782609
0.888,-2.626086956521739,-5.299999999999999,6.343478260869565
0.896,-2.608695652173913,-5.5,6.247826086956522
0.904,-2.6,-5.6,-1.1999999999999993
0.912,-2.891666666666667,-4.899999999999999,1.208333333333336
0.92,-3.183333333333334,-4.199999999999998,3.6166666666666716
0.928,-3.475000000000001,-3.4999999999999973,6.025000000000008
0.936,-3.766666666666668,-2.7999999999999967,8.433333333333344
0.9440000000000001,-4.058333333333335,-2.099999999999996,10.841666666666681
0.9520000000000001,-4.350000000000001,-1.399999999999995,13.250000000000018
0.96,-4.641666666666665,-0.7000000000000046,15.65833333333332
0.968,-4.933333333333332,-3.552713678800501e-15,18.066666666666656
0.976,-5.224999999999999,0.6999999999999975,20.47499999999999
0.984,-5.516666666666666,1.3999999999999977,22.88333333333333
0.992,-5.808333333333332,2.0999999999999988,25.291666666666664
1.0,-6.1,2.799999999999999,27.7
1.008,0.11999999999996258,-5.359999999999976,5.700000000000248
1.016,-15.713333333333331,18.326666666666664,26.279999999999998
1.024,-14.797777777777776,17.828888888888887,23.453333333333333
1.032,-13.882222222222222,17.33111111111111,20.626666666666665
1.04,-12.966666666666665,16.833333333333332,17.8
1.048,-12.05111111111111,16.335555555555555,14.973333333333334
1.056,-11.135555555555555,15.837777777777777,12.146666666666668
1.064,-10.219999999999999,15.34,9.32
1.072,-9.304444444444444,14.842222222222222,6.493333333333336
1.08,-8.38888888888889,14.344444444444445,3.666666666666668
1.088,-7.473333333333333,13.846666666666666,0.8400000000000034
1.096,-6.557777777777778,13.348888888888888,-1.9866666666666646
1.104,-7.833333333333333,2.2,7.3
1.112,-3.2199999999999998,-2.7199999999999998,11.74
1.12,-1.7,-1.4,10.5
1.1280000000000001,-1.9000000000000006,-0.9999999999999989,10.26
1.1360000000000001,-2.100000000000001,-0.5999999999999978,10.019999999999998
1.1440000000000001,-2.3000000000000016,-0.19999999999999662,9.779999999999998
1.1520000000000001,-2.500000000000002,0.2000000000000044,9.539999999999997
1.16,-2.699999999999997,0.5999999999999945,9.300000000000002
1.168,-2.8999999999999977,0.9999999999999956,9.060000000000002
1.176,-3.0999999999999983,1.3999999999999968,8.820000000000002
1.184,-3.299999999999999,1.7999999999999976,8.580000000000002
1.192,-3.499999999999999,2.199999999999999,8.34
1.2,-3.7,2.6,8.1
1.208,-4.5,1.2200000000000109,10.379999999999946
1.216,-4.746666666666667,1.5133333333333332,11.299999999999999
1.224,-4.808888888888889,1.6644444444444444,11.433333333333332
1.232,-4.871111111111111,1.8155555555555556,11.566666666666666
1.24,-4.933333333333334,1.9666666666666668,11.7
1.248,-4.995555555555556,2.1177777777777775,11.833333333333332
1.256,-5.057777777777778,2.268888888888889,11.966666666666667
1.264,-5.12,2.42,12.1
1.272,-5.182222222222222,2.571111111111111,12.233333333333333
1.28,-5.2444444444444445,2.7222222222222223,12.366666666666665
1.288,-5.306666666666667,2.8733333333333335,12.5
1.296,-5.36888888888889,3.0244444444444447,12.633333333333333
1.304,-3.499999999999889,2.049999999999928,9.199999999999811
1.312,1.3387096774193628,-4.024731182795709,0.8279569892473078
1.32,1.8806451612903312,-4.704301075268829,0.5526881720430064
1.328,2.4225806451612995,-5.383870967741947,0.27741935483870495
1.336,2.964516129032268,-6.063440860215067,0.0021505376344035376
1.344,3.5064516129032364,-6.7430107526881855,-0.27311827956989787
1.352,4.048387096774205,-7.422580645161305,-0.5483870967741993
1.36,4.590322580645173,-8.102150537634424,-0.8236559139785007
1.368,5.132258064516142,-8.781720430107542,-1.098924731182802
1.3760000000000001,5.67419354838711,-9.461290322580663,-1.3741935483871037
1.3840000000000001,6.2161290322580784,-10.140860215053781,-1.649462365591405
1.3920000000000001,6.758064516129047,-10.820430107526901,-1.9247311827957065
1.4000000000000001,7.2999999999987235,-11.499999999998913,-2.1999999999981794
1.408,-1.3860215053763456,-1.5139784946236543,8.811827956989246
1.416,-1.274193548387098,-1.6258064516129018,8.906451612903226
1.424,-1.1623655913978506,-1.7376344086021493,9.001075268817203
1.432,-1.0505376344086033,-1.8494623655913967,9.095698924731183
1.44,-0.9387096774193558,-1.961290322580644,9.19032258064516
1.448,-0.8268817204301084,-2.0731182795698917,9.28494623655914
1.456,-0.715053763440861,-2.184946236559139,9.379569892473118
1.464,-0.6032258064516136,-2.2967741935483863,9.474193548387097
1.472,-0.4913978494623661,-2.408602150537634,9.568817204301075
1.48,-0.3795698924731188,-2.520430107526881,9.663440860215054
1.488,-0.26774193548387126,-2.6322580645161286,9.758064516129032
1.496,-0.15591397849462396,-2.744086021505376,9.852688172043012
1.504,-0.9846153846153844,-3.4999999999999982,9.453846153846154
1.512,-0.9230769230769225,-2.6999999999999913,9.269230769230766
1.52,-0.9833333333333352,-2.1499999999999946,8.783333333333323
1.528,-2.068749999999999,-2.41875,9.83125
1.536,-2.0187499999999994,-2.4487500000000004,9.881250000000001
1.544,-1.9687499999999993,-2.4787500000000002,9.931250000000002
1.552,-1.9187499999999993,-2.5087500000000005,9.981250000000001
1.56,-1.8687499999999995,-2.5387500000000003,10.031250000000002
1.568,-1.8187499999999994,-2.5687500000000005,10.08125
1.576,-1.7687499999999994,-2.5987500000000003,10.131250000000001
1.584,-1.7187499999999993,-2.6287500000000006,10.181250000000002
1.592,-1.6687499999999993,-2.6587500000000004,10.231250000000001
1.6,-1.6187499999999995,-2.6887500000000006,10.281250000000002
1.608,-0.7,-2.8,10.3
1.616,-1.2066666666666666,-2.9466666666666663,10.966666666666667
1.624,-1.0822222222222218,-2.875555555555555,10.922222222222222
1.6320000000000001,-0.957777777777777,-2.804444444444444,10.877777777777778
1.6400000000000001,-0.8333333333333321,-2.7333333333333325,10.833333333333332
1.6480000000000001,-0.7088888888888875,-2.6622222222222214,10.788888888888888
1.6560000000000001,-0.5844444444444427,-2.5911111111111103,10.744444444444444
1.6640000000000001,-0.45999999999999786,-2.5199999999999987,10.7
1.672,-0.3355555555555566,-2.44888888888889,10.655555555555557
1.68,-0.2111111111111117,-2.377777777777778,10.61111111111111
1.688,-0.08666666666666711,-2.306666666666667,10.566666666666666
1.696,0.03777777777777769,-2.235555555555556,10.522222222222222
1.704,0.6400000000000036,-1.5200000000000062,8.340000000000012
1.712,0.10444444444444445,-0.9711111111111111,8.811111111111112
1.72,0.12222222222222223,-1.2555555555555555,8.855555555555556
1.728,0.14,-1.54,8.9
1.736,0.1577777777777778,-1.8244444444444445,8.944444444444445
1.744,0.17555555555555558,-2.108888888888889,8.988888888888889
1.752,0.19333333333333333,-2.393333333333333,9.033333333333333
1.76,0.2111111111111111,-2.6777777777777776,9.07777777777778
1.768,0.2288888888888889,-2.962222222222222,9.122222222222224
1.776,0.24666666666666667,-3.2466666666666666,9.166666666666668
1.784,0.2644444444444444,-3.5311111111111106,9.211111111111112
1.792,0.2822222222222222,-3.815555555555555,9.255555555555556
1.8,0.3,-4.1,9.3
1.808,1.480000000000007,1.060000000000032,8.999999999999991
1.816,1.768181818181818,2.3272727272727267,8.39090909090909
1.824,1.7045454545454544,1.9818181818181806,7.972727272727271
1.832,1.6409090909090907,1.6363636363636342,7.554545454545452
1.84,1.5772727272727267,1.290909090909088,7.136363636363632
1.848,1.513636363636363,0.9454545454545416,6.718181818181813
1.856,1.4499999999999993,0.5999999999999952,6.299999999999994
1.864,1.3863636363636354,0.2545454545454491,5.881818181818175
1.872,1.3227272727272716,-0.09090909090909749,5.463636363636356
1.8800000000000001,1.259090909090908,-0.4363636363636436,5.045454545454536
1.8880000000000001,1.195454545454544,-0.7818181818181902,4.627272727272717
1.8960000000000001,1.13181818181818,-1.1272727272727363,4.209090909090898
1.9040000000000001,0.4333333333333046,-3.433333333333425,4.577777777777802
1.9120000000000001,-2.000000000000122,-9.299999999999711,13.550000000000328
1.92,0.24883720930232558,2.3232558139534887,14.209302325581396
1.928,0.313953488372093,1.8209302325581396,13.688372093023256
1.936,0.3790697674418605,1.3186046511627907,13.167441860465116
1.944,0.44418604651162796,0.816279069767442,12.646511627906976
1.952,0.5093023255813953,0.31395348837209314,12.125581395348837
1.96,0.5744186046511628,-0.18837209302325597,11.604651162790697
1.968,0.6395348837209303,-0.6906976744186046,11.083720930232557
1.976,0.7046511627906977,-1.1930232558139537,10.56279069767442
1.984,0.7697674418604652,-1.6953488372093029,10.04186046511628
1.992,0.8348837209302327,-2.1976744186046515,9.52093023255814
2.0,0.9000000000000001,-2.7,9.0
2.008,1.0,-1.6978494623655915,9.71827956989247
2.016,1.0,-1.6806451612903228,9.864516129032255
2.024,1.0,-1.6634408602150539,10.01075268817204
2.032,1.0,-1.6462365591397852,10.156989247311826
2.04,1.0,-1.6290322580645162,10.30322580645161
2.048,1.0,-1.6118279569892473,10.449462365591396
2.056,1.0,-1.5946236559139786,10.595698924731181
2.064,1.0,-1.5774193548387097,10.741935483870966
2.072,1.0,-1.560215053763441,10.888172043010751
2.08,1.0,-1.543010752688172,11.034408602150537
2.088,1.0,-1.5258064516129033,11.180645161290322
2.096,1.0,-1.5086021505376344,11.326881720430107
2.104,1.2,-1.25,9.799999999999999
2.112,1.1,-1.1022471910112357,9.60561797752809
2.12,1.1,-1.1202247191011234,9.650561797752808
2.128,1.1,-1.1382022471910112,9.695505617977528
2.136,1.1,-1.1561797752808989,9.740449438202246
2.144,1.1,-1.1741573033707864,9.785393258426966
2.152,1.1,-1.1921348314606741,9.830337078651684
2.16,1.1,-1.2101123595505618,9.875280898876404
2.168,1.1,-1.2280898876404494,9.920224719101123
2.176,1.1,-1.246067415730337,9.965168539325843
2.184,1.1,-1.2640449438202248,10.010112359550561
2.192,1.1,-1.2820224719101123,10.055056179775281
2.2,1.1,-1.3,10.1
2.208,1.0,-1.8,10.2
2.216,0.2945054945054941,-1.5219780219780235,10.478021978021976
2.224,0.28571428571428537,-1.5571428571428585,10.442857142857141
2.232,0.2769230769230766,-1.5923076923076935,10.407692307692306
2.24,0.2681318681318678,-1.6274725274725288,10.372527472527471
2.248,0.25934065934065903,-1.6626373626373638,10.337362637362636
2.2560000000000002,0.2505494505494502,-1.6978021978021989,10.302197802197801
2.2640000000000002,0.24175824175824145,-1.7329670329670341,10.267032967032966
2.2720000000000002,0.2329670329670327,-1.7681318681318692,10.231868131868131
2.2800000000000002,0.2241758241758239,-1.8032967032967044,10.196703296703296
2.2880000000000003,0.21538461538461512,-1.8384615384615395,10.161538461538461
2.2960000000000003,0.20659340659340636,-1.8736263736263745,10.126373626373624
2.3040000000000003,-8.881784196998286e-14,-2.400000000000222,9.700000000000221
2.312,-1.6098901098901088,-3.113186813186812,9.783516483516486
2.32,-1.6362637362637353,-3.148351648351647,9.739560439560442
2.328,-1.6626373626373618,-3.1835164835164824,9.695604395604398
2.336,-1.6890109890109883,-3.218681318681318,9.651648351648353
2.344,-1.7153846153846146,-3.253846153846153,9.607692307692309
2.352,-1.7417582417582411,-3.2890109890109884,9.563736263736265
2.36,-1.7681318681318676,-3.3241758241758235,9.519780219780221
2.368,-1.7945054945054941,-3.359340659340659,9.475824175824178
2.376,-1.8208791208791206,-3.394505494505494,9.431868131868134
2.384,-1.847252747252747,-3.4296703296703295,9.387912087912088
2.392,-1.8736263736263734,-3.4648351648351645,9.343956043956045
2.4,-1.9,-3.5,9.3
2.408,-0.6,-3.2,8.3
2.416,-1.5066666666666664,-3.086666666666671,8.739999999999995
2.424,-1.5155555555555553,-2.9355555555555592,8.926666666666662
2.432,-1.5244444444444443,-2.7844444444444476,9.11333333333333
2.44,-1.5333333333333332,-2.6333333333333364,9.299999999999995
2.448,-1.5422222222222222,-2.4822222222222248,9.486666666666663
2.456,-1.551111111111111,-2.331111111111113,9.67333333333333
2.464,-1.56,-2.1800000000000015,9.859999999999998
2.472,-1.5688888888888888,-2.0288888888888903,10.046666666666665
2.48,-1.5777777777777777,-1.8777777777777787,10.23333333333333
2.488,-1.5866666666666667,-1.7266666666666672,10.419999999999998
2.496,-1.5955555555555556,-1.5755555555555556,10.606666666666666
2.504,-3.25,-1.4,9.1
2.512,-0.46451612903226025,-1.2354838709677465,9.548387096774192
2.52,-0.550537634408604,-1.4161290322580684,9.479569892473117
2.528,-0.6365591397849478,-1.5967741935483906,9.410752688172042
2.536,-0.7225806451612915,-1.7774193548387123,9.341935483870968
2.544,-0.8086021505376353,-1.9580645161290344,9.273118279569891
2.552,-0.8946236559139791,-2.1387096774193566,9.204301075268816
2.56,-0.9806451612903229,-2.3193548387096783,9.135483870967741
2.568,-1.0666666666666667,-2.5,9.066666666666666
2.576,-1.1526881720430104,-2.680645161290322,8.997849462365592
2.584,-1.2387096774193542,-2.8612903225806443,8.929032258064517
2.592,-1.324731182795698,-3.041935483870966,8.860215053763442
2.6,-1.5499999999999998,-2.6500000000000004,9.05
2.608,-4.204166666666667,-2.845833333333333,9.387500000000001
2.616,-4.2125,-2.7375,9.3625
2.624,-4.220833333333333,-2.6291666666666664,9.3375
2.632,-4.229166666666667,-2.520833333333333,9.3125
2.64,-4.2375,-2.4125,9.2875
2.648,-4.245833333333334,-2.3041666666666667,9.2625
2.656,-4.254166666666666,-2.1958333333333333,9.2375
2.664,-4.2625,-2.0875,9.2125
2.672,-4.270833333333333,-1.9791666666666665,9.1875
2.68,-4.279166666666667,-1.8708333333333333,9.1625
2.688,-4.2875,-1.7625,9.1375
2.696,-4.295833333333333,-1.6541666666666666,9.112499999999999
2.704,-2.6,-1.3833333333333875,9.316666666666642
2.712,-2.622222222222225,-0.4288888888888922,9.097777777777777
2.72,-2.711111111111114,-0.5444444444444481,9.088888888888889
2.728,-2.800000000000003,-0.6600000000000039,9.08
2.736,-2.888888888888892,-0.7755555555555597,9.07111111111111
2.744,-2.9777777777777814,-0.8911111111111155,9.062222222222221
2.7520000000000002,-3.0666666666666704,-1.0066666666666713,9.053333333333333
2.7600000000000002,-3.1555555555555594,-1.1222222222222271,9.044444444444444
2.7680000000000002,-3.2444444444444485,-1.237777777777783,9.035555555555556
2.7760000000000002,-3.3333333333333375,-1.3533333333333388,9.026666666666666
2.7840000000000003,-3.422222222222227,-1.4688888888888947,9.017777777777777
2.7920000000000003,-3.511111111111116,-1.5844444444444505,9.008888888888889
2.8000000000000003,-3.6000000000000445,-1.7000000000000222,9.00000000000011
2.8080000000000003,-3.699999999999926,-2.199999999999919,9.999999999999993
2.816,-2.702325581395349,-1.1209302325581374,9.897674418604652
2.824,-2.711627906976744,-1.2046511627906957,9.888372093023257
2.832,-2.7209302325581395,-1.288372093023254,9.87906976744186
2.84,-2.7302325581395346,-1.3720930232558124,9.869767441860466
2.848,-2.73953488372093,-1.4558139534883707,9.860465116279071
2.856,-2.7488372093023257,-1.539534883720929,9.851162790697675
2.864,-2.7581395348837208,-1.6232558139534874,9.84186046511628
2.872,-2.7674418604651163,-1.7069767441860457,9.832558139534884
2.88,-2.7767441860465114,-1.7906976744186043,9.82325581395349
2.888,-2.786046511627907,-1.8744186046511624,9.813953488372094
2.896,-2.795348837209302,-1.958139534883721,9.804651162790698
2.904,-3.3,-2.0,8.799999999999999
2.912,-3.3617021276595755,-1.7297872340425557,9.087234042553192
2.92,-3.3106382978723414,-1.6361702127659596,9.070212765957447
2.928,-3.2595744680851073,-1.5425531914893638,9.053191489361703
2.936,-3.208510638297873,-1.4489361702127677,9.036170212765958
2.944,-3.157446808510639,-1.3553191489361718,9.019148936170213
2.952,-3.106382978723405,-1.261702127659576,9.002127659574468
2.96,-3.055319148936171,-1.1680851063829798,8.985106382978724
2.968,-3.0042553191489363,-1.0744680851063837,8.96808510638298
2.976,-2.953191489361702,-0.9808510638297878,8.951063829787234
2.984,-2.902127659574468,-0.8872340425531919,8.934042553191489
2.992,-2.851063829787234,-0.7936170212765958,8.917021276595746
3.0,-2.8,-0.7,8.9
3.008,-3.1,-0.45000000000000007,9.65
3.016,-3.8541666666666643,0.08333333333333148,9.479166666666663
3.024,-3.687499999999998,-0.050000000000001876,9.112499999999995
3.032,-3.5208333333333313,-0.18333333333333524,8.745833333333328
3.04,-3.378666666666665,-0.30266666666666814,8.718666666666666
3.048,-3.2399999999999984,-0.4200000000000013,8.74
3.056,-3.101333333333332,-0.5373333333333346,8.761333333333333
3.064,-2.9626666666666654,-0.6546666666666676,8.782666666666666
3.072,-2.823999999999999,-0.7720000000000009,8.804
3.08,-2.685333333333333,-0.889333333333334,8.825333333333333
3.088,-2.5466666666666664,-1.006666666666667,8.846666666666668
3.096,-2.408,-1.1240000000000003,8.868
3.104,-2.2693333333333334,-1.2413333333333334,8.889333333333333
3.112,-2.1,0.19999999999999996,9.3
3.12,-3.511764705882353,-1.2764705882352947,10.241176470588238
3.128,-3.5305882352941174,-1.238823529411765,10.147058823529413
3.136,-3.5494117647058823,-1.2011764705882357,10.05294117647059
3.144,-3.568235294117647,-1.1635294117647064,9.958823529411767
3.152,-3.5870588235294116,-1.1258823529411768,9.864705882352943
3.16,-3.6058823529411765,-1.0882352941176474,9.770588235294118
3.168,-3.624705882352941,-1.0505882352941178,9.676470588235295
3.176,-3.643529411764706,-1.0129411764705885,9.582352941176472
3.184,-3.662352941176471,-0.975294117647059,9.488235294117649
3.192,-3.6811764705882353,-0.9376470588235295,9.394117647058824
3.2,-3.7,-0.9,9.3
3.208,-5.050000000000145,-0.5500000000000037,7.8000000000000815
3.216,-6.7134831460673965,-0.6,9.074157303370798
3.224,-6.255056179775261,-0.6,9.352808988764057
3.232,-5.796629213483126,-0.6,9.631460674157315
3.24,-5.33820224719099,-0.6,9.910112359550574
3.248,-4.879775280898855,-0.6,10.188764044943834
3.2560000000000002,-4.421348314606719,-0.6,10.467415730337093
3.2640000000000002,-3.962921348314584,-0.6,10.746067415730352
3.2720000000000002,-3.5044943820224486,-0.6,11.02471910112361
3.2800000000000002,-3.046067415730313,-0.6,11.303370786516869
3.2880000000000003,-2.5876404494381777,-0.6,11.582022471910127
3.2960000000000003,-2.1292134831460423,-0.6,11.860674157303386
3.3040000000000003,-3.3000000000002663,-1.3,9.700000000000177
3.3120000000000003,-3.038297872340427,-1.248936170212764,9.191489361702123
3.3200000000000003,-3.089361702127661,-1.180851063829785,9.046808510638293
3.3280000000000003,-3.1404255319148953,-1.1127659574468063,8.902127659574465
3.336,-3.1914893617021267,-1.044680851063831,8.757446808510641
3.344,-3.242553191489361,-0.9765957446808522,8.612765957446811
3.352,-3.293617021276595,-0.9085106382978734,8.468085106382981
3.36,-3.344680851063829,-0.8404255319148946,8.32340425531915
3.368,-3.395744680851063,-0.7723404255319156,8.17872340425532
3.376,-3.4468085106382977,-0.7042553191489367,8.03404255319149
3.384,-3.497872340425532,-0.6361702127659579,7.88936170212766
3.392,-3.548936170212766,-0.5680851063829789,7.74468085106383
3.4,-3.6,-0.5000000000000001,7.6
3.408,-2.513333333333335,-1.713333333333329,9.13333333333333
3.416,-2.140000000000004,-2.939999999999986,10.199999999999989
3.424,0.9797468354430409,-3.7962025316455694,18.46455696202531
3.432,1.1924050632911418,-3.7860759493670884,17.836708860759487
3.44,1.4050632911392427,-3.7759493670886073,17.208860759493664
3.448,1.6177215189873437,-3.7658227848101262,16.58101265822784
3.456,1.8303797468354448,-3.7556962025316456,15.95316455696202
3.464,2.043037974683546,-3.7455696202531645,15.325316455696198
3.472,2.2556962025316465,-3.7354430379746835,14.697468354430377
3.48,2.4683544303797476,-3.7253164556962024,14.069620253164555
3.488,2.6810126582278486,-3.7151898734177218,13.441772151898732
3.496,2.8936708860759497,-3.7050632911392407,12.813924050632911
3.504,2.4857142857142938,-2.2714285714285944,6.728571428571521
3.512,-3.2,-2.5,3.8000000000000003
3.52,-3.0454545454545454,-1.6727272727272728,5.254545454545454
3.528,-2.890909090909091,-0.8454545454545457,6.709090909090909
3.536,-2.7363636363636363,-0.01818181818181852,8.163636363636364
3.544,-2.581818181818182,0.8090909090909086,9.618181818181817
3.552,-2.4272727272727272,1.6363636363636358,11.072727272727274
3.56,-2.272727272727273,2.463636363636363,12.527272727272727
3.568,-2.118181818181818,3.29090909090909,13.981818181818184
3.576,-1.9636363636363636,4.118181818181817,15.436363636363637
3.584,-1.809090909090909,4.945454545454544,16.89090909090909
3.592,-1.6545454545454545,5.772727272727272,18.345454545454547
3.6,-1.5,6.6,19.8
3.608,-10.400000000000231,17.400000000000126,11.060000000000075
3.616,-12.69999999999999,17.74666666666663,11.40666666666665
3.624,-12.29999999999999,16.34222222222219,10.748888888888875
3.632,-11.899999999999991,14.937777777777749,10.091111111111097
3.64,-11.499999999999993,13.533333333333307,9.433333333333321
3.648,-11.099999999999994,12.128888888888866,8.775555555555545
3.656,-10.699999999999996,10.724444444444426,8.11777777777777
3.664,-10.299999999999995,9.319999999999984,7.459999999999993
3.672,-9.899999999999997,7.915555555555544,6.802222222222217
3.68,-9.499999999999998,6.511111111111102,6.144444444444441
3.688,-9.099999999999998,5.106666666666662,5.486666666666665
3.696,-8.7,3.70222222222222,4.828888888888889
3.704,-4.249999999999745,-1.9000000000000221,10.550000000000278
3.712,-4.163829787234045,3.02553191489363,11.497872340425527
3.72,-4.248936170212768,3.4595744680851204,11.36170212765957
3.728,-4.334042553191492,3.8936170212766106,11.225531914893612
3.736,-4.419148936170216,4.327659574468101,11.089361702127654
3.744,-4.504255319148939,4.761702127659591,10.953191489361696
3.7520000000000002,-4.589361702127663,5.195744680851082,10.817021276595739
3.7600000000000002,-4.674468085106386,5.629787234042572,10.680851063829781
3.7680000000000002,-4.75957446808511,6.063829787234063,10.544680851063823
3.7760000000000002,-4.844680851063834,6.497872340425553,10.408510638297866
3.7840000000000003,-4.929787234042557,6.931914893617043,10.272340425531908
3.7920000000000003,-5.014893617021281,7.365957446808533,10.13617021276595
3.8000000000000003,-5.099999999999973,7.799999999999893,9.999999999999911
3.8080000000000003,-4.907142857142863,6.064285714285686,9.150000000000007
3.8160000000000003,-5.192857142857153,4.635714285714235,9.550000000000013
3.8240000000000003,-5.903896103896093,0.020779220779200636,5.414285714285705
3.8320000000000003,-5.519480519480508,-0.6961038961039172,5.071428571428561
3.84,-5.135064935064944,-1.4129870129869955,4.728571428571437
3.848,-4.7506493506493594,-2.1298701298701133,4.385714285714293
3.856,-4.3662337662337745,-2.8467532467532313,4.042857142857151
3.864,-3.9818181818181895,-3.563636363636349,3.7000000000000073
3.872,-3.5974025974026045,-4.280519480519467,3.357142857142864
3.88,-3.2129870129870195,-4.997402597402584,3.0142857142857205
3.888,-2.8285714285714345,-5.714285714285703,2.671428571428577
3.896,-2.4441558441558495,-6.43116883116882,2.328571428571434
3.904,-0.7,4.200000000000001,14.6
3.912,-1.4322580645161278,2.445161290322586,9.954838709677421
3.92,-1.4752688172042998,2.2387096774193602,9.89462365591398
3.928,-1.518279569892472,2.0322580645161343,9.834408602150539
3.936,-1.561290322580644,1.8258064516129082,9.774193548387098
3.944,-1.604301075268816,1.619354838709682,9.713978494623657
3.952,-1.6473118279569883,1.4129032258064562,9.653763440860217
3.96,-1.6903225806451603,1.20645161290323,9.593548387096776
3.968,-1.7333333333333325,1.000000000000004,9.533333333333335
3.976,-1.7763440860215045,0.7935483870967781,9.473118279569894
3.984,-1.8193548387096765,0.5870967741935518,9.412903225806453
3.992,-1.8623655913978487,0.3806451612903259,9.352688172043012
4.0,-2.6999999999998225,-0.29999999999988897,10.499999999999734
4.008,-4.243749999999965,-1.412499999999971,11.437500000000012
4.016,-5.0937499999999645,-2.112499999999971,11.137500000000012
4.024,0.7443037974683486,-6.248101265822769,5.836708860759508
4.032,0.6329113924050583,-5.944303797468341,6.110126582278493
4.04,0.5215189873417679,-5.640506329113913,6.383544303797479
4.048,0.4101265822784776,-5.336708860759485,6.6569620253164645
4.056,0.29873417721518725,-5.032911392405056,6.93037974683545
4.064,0.18734177215189685,-4.729113924050628,7.203797468354436
4.072,0.07594936708860645,-4.4253164556961995,7.477215189873421
4.08,-0.035443037974683844,-4.121518987341771,7.750632911392406
4.088,-0.14683544303797424,-3.817721518987343,8.024050632911392
4.096,-0.25822784810126453,-3.5139240506329146,8.297468354430377
4.104,-1.2,-1.2,10.1
4.112,-0.4451612903225824,-2.0838709677419387,10.261290322580644
4.12,-0.5053763440860233,-2.195698924731186,10.209677419354838
4.128,-0.5655913978494642,-2.3075268817204337,10.15806451612903
4.136,-0.6258064516129052,-2.419354838709681,10.106451612903225
4.144,-0.6860215053763461,-2.5311827956989283,10.054838709677417
4.152,-0.746236559139787,-2.6430107526881756,10.003225806451612
4.16,-0.806451612903228,-2.7548387096774234,9.951612903225804
4.168,-0.8666666666666689,-2.8666666666666707,9.899999999999999
4.176,-0.9268817204301099,-2.978494623655918,9.848387096774191
4.184,-0.9870967741935508,-3.0903225806451653,9.796774193548384
4.192,-1.0473118279569917,-3.202150537634413,9.745161290322578
4.2,-1.044444444444428,-3.4222222222222585,9.622222222222199
4.208,-0.6,-4.4,9.0
4.216,-1.140000000000032,-3.3199999999999714,9.020000000000007
4.224,-1.5,-3.0095238095238104,9.142857142857148
4.232,-1.5,-3.0285714285714294,9.228571428571433
4.24,-1.5,-3.0476190476190483,9.314285714285718
4.248,-1.5,-3.0666666666666673,9.400000000000002
4.256,-1.5,-3.0857142857142863,9.485714285714288
4.264,-1.5,-3.1047619047619053,9.571428571428573
4.272,-1.5,-3.1238095238095243,9.657142857142858
4.28,-1.5,-3.1428571428571432,9.742857142857144
4.288,-1.5,-3.161904761904762,9.82857142857143
4.296,-1.5,-3.180952380952381,9.914285714285715
4.304,-1.5,-3.2,10.0
4.312,0.2067415730337101,-2.7224719101123673,8.83370786516855
4.32,0.23370786516854145,-2.812359550561805,8.968539325842707
4.328,0.26067415730337284,-2.902247191011243,9.103370786516864
4.336,0.28764044943820416,-2.992134831460681,9.23820224719102
4.344,0.31460674157303553,-3.0820224719101184,9.37303370786518
4.352,0.3415730337078669,-3.1719101123595563,9.507865168539336
4.36,0.3685393258426982,-3.2617977528089943,9.642696629213493
4.368,0.3955056179775296,-3.3516853932584323,9.77752808988765
4.376,0.42247191011236096,-3.4415730337078703,9.912359550561806
4.384,0.44943820224719233,-3.531460674157308,10.047191011235963
4.392,0.4764044943820237,-3.6213483146067458,10.18202247191012
4.4,0.48571428571428027,-3.857142857142917,10.3
4.408,1.0500000000000222,-3.199999999999645,9.24999999999989
4.416,0.06842105263157422,-2.484210526315802,9.273684210526312
4.424,0.017894736842100842,-2.6189473684210642,9.231578947368417
4.432,-0.032631578947372536,-2.753684210526327,9.189473684210524
4.44,-0.08315789473684593,-2.888421052631589,9.14736842105263
4.448,-0.13368421052631932,-3.0231578947368516,9.105263157894735
4.456,-0.18421052631579274,-3.157894736842114,9.06315789473684
4.464,-0.2347368421052661,-3.2926315789473763,9.021052631578945
4.472,-0.28526315789473944,-3.4273684210526385,8.978947368421052
4.48,-0.33578947368421286,-3.562105263157901,8.936842105263157
4.488,-0.3863157894736863,-3.6968421052631637,8.894736842105262
4.496,-0.4368421052631597,-3.831578947368426,8.852631578947367
4.5040000000000004,-0.4873684210526331,-3.966315789473688,8.810526315789474
4.5120000000000005,-0.19999999999982238,-4.099999999999289,9.799999999999912
4.5200000000000005,0.056976744186050886,-3.1941860465116196,9.70813953488372
4.5280000000000005,0.12209302325581815,-3.0732558139534802,9.717441860465117
4.5360000000000005,0.18720930232558544,-2.9523255813953413,9.726744186046512
4.5440000000000005,0.2523255813953527,-2.831395348837202,9.736046511627908
4.5520000000000005,0.31744186046511996,-2.710465116279063,9.745348837209303
4.5600000000000005,0.38255813953488726,-2.5895348837209236,9.754651162790699
4.5680000000000005,0.4476744186046545,-2.468604651162784,9.763953488372094
4.5760000000000005,0.5127906976744218,-2.347674418604645,9.773255813953488
4.5840000000000005,0.5779069767441891,-2.2267441860465063,9.782558139534885
4.5920000000000005,0.6430232558139564,-2.105813953488367,9.79186046511628
4.6000000000000005,0.8300000000000461,-1.9899999999999964,9.739999999999979
4.6080000000000005,1.8700000000000694,-1.9099999999999946,9.259999999999968
4.616,0.4714285714286657,-5.057142857142719,8.285714285714308
4.624,-0.2848101265822801,-6.09493670886076,8.71518987341772
4.632,-0.2544303797468369,-6.084810126582279,8.745569620253162
4.64,-0.22405063291139377,-6.074683544303798,8.775949367088606
4.648,-0.1936708860759506,-6.064556962025317,8.806329113924049
4.656,-0.16329113924050742,-6.054430379746836,8.836708860759492
4.664,-0.13291139240506425,-6.044303797468355,8.867088607594935
4.672,-0.1025316455696211,-6.034177215189874,8.897468354430378
4.68,-0.07215189873417793,-6.0240506329113925,8.927848101265822
4.688,-0.04177215189873473,-6.0139240506329115,8.958227848101265
4.696,-0.011392405063291589,-6.00379746835443,8.988607594936708
4.704,0.15,-4.15,9.25
4.712,0.7,-4.1,10.2
4.72,1.0,-3.993258426966293,9.273033707865173
4.728,1.0,-3.9842696629213488,9.237078651685396
4.736,1.0,-3.975280898876405,9.20112359550562
4.744,1.0,-3.9662921348314613,9.165168539325846
4.752,1.0,-3.9573033707865175,9.12921348314607
4.76,1.0,-3.9483146067415733,9.093258426966294
4.768,1.0,-3.9393258426966296,9.057303370786519
4.776,1.0,-3.930337078651686,9.021348314606744
4.784,1.0,-3.9213483146067416,8.985393258426967
4.792,1.0,-3.912359550561798,8.949438202247192
4.8,1.0,-3.903370786516854,8.913483146067417
4.808,0.019999999999989342,-3.880000000000117,9.139999999999926
4.816,0.3131868131868117,-3.204395604395604,9.897802197802198
4.824,0.3659340659340644,-3.2219780219780216,9.88901098901099
4.832,0.4186813186813171,-3.239560439560439,9.88021978021978
4.84,0.47142857142856975,-3.2571428571428567,9.871428571428572
4.848,0.5241758241758224,-3.274725274725274,9.862637362637363
4.856,0.5769230769230751,-3.2923076923076917,9.853846153846154
4.864,0.6296703296703279,-3.3098901098901092,9.845054945054946
4.872,0.6824175824175805,-3.3274725274725268,9.836263736263737
4.88,0.7351648351648332,-3.3450549450549443,9.827472527472528
4.888,0.787912087912086,-3.362637362637362,9.81868131868132
4.896,0.8406593406593386,-3.3802197802197793,9.80989010989011
4.904,0.8934065934065913,-3.397802197802197,9.801098901098902
4.912,0.597802197802197,-3.997802197802197,8.704395604395605
4.92,0.5802197802197795,-3.9802197802197794,8.73956043956044
4.928,0.562637362637362,-3.962637362637362,8.774725274725276
4.936,0.5450549450549443,-3.9450549450549444,8.80989010989011
4.944,0.5274725274725268,-3.927472527472527,8.845054945054946
4.952,0.5098901098901093,-3.9098901098901093,8.88021978021978
4.96,0.4923076923076917,-3.892307692307692,8.915384615384616
4.968,0.47472527472527415,-3.874725274725274,8.95054945054945
4.976,0.45714285714285663,-3.8571428571428563,8.985714285714286
4.984,0.439560439560439,-3.839560439560439,9.02087912087912
4.992,0.4219780219780215,-3.8219780219780213,9.056043956043958
5.0,0.40439560439560396,-3.8043956043956038,9.091208791208793
5.008,0.32500000000002777,-2.9250000000000274,10.174999999999994
5.016,0.7,-3.3,10.083146067415731
5.024,0.7,-3.3,10.0561797752809
5.032,0.7,-3.3,10.029213483146068
5.04,0.7,-3.3,10.002247191011236
5.048,0.7,-3.3,9.975280898876404
5.056,0.7,-3.3,9.948314606741572
5.064,0.7,-3.3,9.92134831460674
5.072,0.7,-3.3,9.894382022471909
5.08,0.7,-3.3,9.867415730337077
5.088,0.7,-3.3,9.840449438202246
5.096,0.7,-3.3,9.813483146067416
5.104,0.4,-3.2,9.0
5.112,0.3806451612903219,-3.4612903225806435,9.506451612903225
5.12,0.3548387096774186,-3.4096774193548374,9.51505376344086
5.128,0.3290322580645153,-3.358064516129031,9.523655913978494
5.136,0.30322580645161207,-3.306451612903224,9.53225806451613
5.144,0.27741935483870883,-3.2548387096774176,9.540860215053764
5.152,0.25161290322580554,-3.203225806451611,9.549462365591397
5.16,0.2258064516129023,-3.1516129032258045,9.558064516129033
5.168,0.19999999999999904,-3.099999999999998,9.566666666666666
5.176,0.17419354838709578,-3.0483870967741913,9.575268817204302
5.184,0.14838709677419248,-2.9967741935483847,9.583870967741936
5.192,0.12258064516128925,-2.9451612903225786,9.59247311827957
5.2,0.1,-2.7999999999999554,9.6
5.208,0.0021505376344083662,-3.5978494623655917,9.6
5.216,0.010752688172042786,-3.589247311827957,9.6
5.224,0.019354838709677205,-3.580645161290323,9.6
5.232,0.027956989247311624,-3.5720430107526884,9.6
5.24,0.03655913978494604,-3.563440860215054,9.6
5.248,0.04516129032258046,-3.5548387096774197,9.6
5.256,0.05376344086021488,-3.546236559139785,9.6
5.264,0.0623655913978493,-3.537634408602151,9.6
5.272,0.07096774193548372,-3.5290322580645164,9.6
5.28,0.07956989247311815,-3.520430107526882,9.6
5.288,0.08817204301075256,-3.5118279569892477,9.6
5.296,0.09677419354838698,-3.503225806451613,9.6
5.304,0.0,-3.3,9.5
5.312,-0.16000000000000356,-3.1399999999999966,9.660000000000004
5.32,-0.20705882352941204,-3.149411764705884,9.671764705882351
5.328,-0.21647058823529441,-3.215294117647061,9.634117647058822
5.336,-0.22588235294117676,-3.2811764705882376,9.596470588235293
5.344,-0.23529411764705913,-3.347058823529414,9.558823529411763
5.352,-0.2447058823529415,-3.4129411764705906,9.521176470588234
5.36,-0.2541176470588239,-3.478823529411767,9.483529411764705
5.368,-0.26352941176470623,-3.5447058823529436,9.445882352941176
5.376,-0.2729411764705886,-3.61058823529412,9.408235294117645
5.384,-0.2823529411764709,-3.6764705882352966,9.370588235294116
5.392,-0.2917647058823533,-3.742352941176473,9.332941176470587
5.4,-0.14999999999993338,-3.4999999999998668,9.249999999999979
5.408,-0.20425531914893758,-2.6978723404255316,9.702127659574469
5.416,-0.22127659574468223,-2.689361702127659,9.710638297872341
5.424,-0.23829787234042688,-2.680851063829787,9.719148936170212
5.432,-0.2553191489361715,-2.6723404255319143,9.727659574468085
5.44,-0.2723404255319162,-2.663829787234042,9.736170212765957
5.448,-0.28936170212766077,-2.6553191489361696,9.74468085106383
5.456,-0.3063829787234055,-2.6468085106382975,9.753191489361702
5.464,-0.32340425531915007,-2.638297872340425,9.761702127659575
5.472,-0.3404255319148947,-2.6297872340425528,9.770212765957448
5.48,-0.35744680851063937,-2.6212765957446806,9.77872340425532
5.488,-0.374468085106384,-2.612765957446808,9.787234042553193
5.496,-0.39148936170212867,-2.604255319148936,9.795744680851065
5.5040000000000004,-0.2285714285714014,-2.3714285714285355,9.742857142857133
5.5120000000000005,-0.700000000000002,-3.000000000000002,9.800000000000002
5.5200000000000005,-0.718390804597703,-3.0183908045977033,9.818390804597703
5.5280000000000005,-0.736781609195404,-3.0367816091954043,9.836781609195405
5.5360000000000005,-0.7551724137931051,-3.0551724137931053,9.855172413793106
5.5440000000000005,-0.7735632183908061,-3.0735632183908064,9.873563218390807
5.5520000000000005,-0.7919540229885071,-3.0919540229885074,9.891954022988507
5.5600000000000005,-0.8103448275862082,-3.1103448275862084,9.910344827586208
5.5680000000000005,-0.8287356321839092,-3.1287356321839095,9.92873563218391
5.5760000000000005,-0.8471264367816103,-3.1471264367816105,9.94712643678161
5.5840000000000005,-0.8655172413793113,-3.1655172413793116,9.965517241379311
5.5920000000000005,-0.8839080459770123,-3.1839080459770126,9.983908045977012
5.6000000000000005,-0.8666666666666568,-3.083333333333299,10.066666666666686
5.6080000000000005,-0.8499999999999779,-2.6499999999999333,9.399999999999823
5.6160000000000005,-0.547191011235957,-2.133707865168541,8.906741573033708
5.6240000000000006,-0.6101123595505642,-2.1786516853932603,8.915730337078653
5.632,-0.6730337078651644,-2.2235955056179746,8.924719101123594
5.64,-0.7359550561797715,-2.268539325842694,8.93370786516854
5.648,-0.7988764044943786,-2.3134831460674135,8.942696629213483
5.656,-0.8617977528089857,-2.3584269662921327,8.951685393258426
5.664,-0.9247191011235929,-2.4033707865168523,8.960674157303371
5.672,-0.9876404494382001,-2.4483146067415715,8.969662921348315
5.68,-1.050561797752807,-2.4932584269662907,8.978651685393258
5.688,-1.1134831460674142,-2.5382022471910104,8.987640449438203
5.696,-1.1764044943820213,-2.5831460674157296,8.996629213483146
5.704,-2.0666666666666833,-2.966666666666683,9.644444444444423
5.712,-1.8,-2.7,10.0
5.72,-1.257647058823534,-2.836470588235301,9.878823529411767
5.728,-1.20117647058824,-2.7517647058823598,9.85058823529412
5.736,-1.1447058823529457,-2.6670588235294184,9.822352941176472
5.744,-1.0882352941176514,-2.5823529411764774,9.794117647058826
5.752,-1.0317647058823574,-2.497647058823536,9.765882352941178
5.76,-0.9752941176470631,-2.4129411764705946,9.737647058823532
5.768,-0.9188235294117688,-2.328235294117653,9.709411764705884
5.776,-0.8623529411764748,-2.243529411764712,9.681176470588237
5.784,-0.8058823529411805,-2.158823529411771,9.65294117647059
5.792,-0.7494117647058863,-2.0741176470588294,9.624705882352943
5.8,-0.7199999999999893,-1.8600000000000745,9.560000000000022
5.808,-2.0833333333333406,-1.9333333333333629,9.649999999999933
5.816,-2.0,-1.6202247191011243,10.396629213483147
5.824,-2.0,-1.674157303370787,10.387640449438203
5.832,-2.0,-1.7280898876404498,10.378651685393258
5.84,-2.0,-1.7820224719101125,10.369662921348315
5.848,-2.0,-1.8359550561797753,10.360674157303372
5.856,-2.0,-1.889887640449438,10.351685393258428
5.864,-2.0,-1.9438202247191008,10.342696629213483
5.872,-2.0,-1.9977528089887635,10.33370786516854
5.88,-2.0,-2.0516853932584262,10.324719101123597
5.888,-2.0,-2.1056179775280888,10.315730337078653
5.896,-2.0,-2.1595505617977517,10.306741573033708
5.904,-2.0,-2.5,9.1
5.912,-1.9054347826086955,-0.45434782608695556,9.554347826086955
5.92,-1.9141304347826085,-0.5413043478260864,9.641304347826086
5.928,-1.9228260869565217,-0.6282608695652172,9.728260869565217
5.936,-1.9315217391304347,-0.7152173913043481,9.815217391304348
5.944,-1.940217391304348,-0.802173913043479,9.902173913043478
5.952,-1.9489130434782609,-0.8891304347826098,9.98913043478261
5.96,-1.957608695652174,-0.9760869565217406,10.07608695652174
5.968,-1.966304347826087,-1.0630434782608715,10.163043478260871
5.976,-1.9750000000000003,-1.1500000000000024,10.250000000000002
5.984,-1.9836956521739133,-1.2369565217391332,10.336956521739133
5.992,-1.9923913043478265,-1.323913043478264,10.423913043478263
6.0,-2.0,-1.5333333333333727,10.466666666666656
6.008,-1.8,-1.8,9.15
6.016,-2.4,-0.7202247191011242,9.020224719101124
6.024,-2.4,-0.7471910112359555,9.047191011235956
6.032,-2.4,-0.7741573033707869,9.074157303370788
6.04,-2.4,-0.8011235955056183,9.10112359550562
6.048,-2.4,-0.8280898876404497,9.12808988764045
6.056,-2.4,-0.855056179775281,9.155056179775281
6.064,-2.4,-0.8820224719101124,9.182022471910113
6.072,-2.4,-0.9089887640449438,9.208988764044944
6.08,-2.4,-0.9359550561797751,9.235955056179776
6.088,-2.4,-0.9629213483146064,9.262921348314608
6.096,-2.4,-0.9898876404494379,9.289887640449438
6.104,-2.0666666666666864,-1.955555555555572,10.266666666666657
6.112,-2.6,-2.4,10.0
6.12,-2.4931818181818177,-1.9454545454545435,9.26590909090909
6.128,-2.484090909090909,-1.8727272727272708,9.220454545454546
6.136,-2.4749999999999996,-1.799999999999998,9.174999999999999
6.144,-2.465909090909091,-1.7272727272727253,9.129545454545454
6.152,-2.4568181818181816,-1.6545454545454525,9.084090909090909
6.16,-2.4477272727272723,-1.5818181818181798,9.038636363636362
6.168,-2.4386363636363635,-1.509090909090907,8.993181818181817
6.176,-2.4295454545454542,-1.4363636363636343,8.947727272727272
6.184,-2.420454545454545,-1.3636363636363615,8.902272727272727
6.192,-2.411363636363636,-1.2909090909090888,8.85681818181818
6.2,-2.402272727272727,-1.218181818181816,8.811363636363636
6.208,-2.3499999999999335,-2.1500000000000665,10.400000000000222
6.216,-2.1455555555555517,-2.2299999999999947,10.829999999999995
6.224,-2.08333333333333,-2.1499999999999955,10.749999999999996
6.232,-2.021111111111108,-2.069999999999996,10.669999999999996
6.24,-1.9588888888888865,-1.9899999999999967,10.589999999999996
6.248,-1.8966666666666647,-1.9099999999999973,10.509999999999998
6.256,-1.834444444444443,-1.8299999999999979,10.429999999999998
6.264,-1.7722222222222213,-1.7499999999999982,10.349999999999998
6.272,-1.7099999999999993,-1.669999999999999,10.27
6.28,-1.6477777777777776,-1.5899999999999994,10.19
6.288,-1.5855555555555558,-1.5100000000000002,10.11
6.296,-1.5233333333333339,-1.4300000000000006,10.030000000000001
6.304,-2.6,-3.2,8.6
6.312,-3.1116666666666677,-3.3116666666666674,9.552500000000004
6.32,-3.125000000000001,-3.3250000000000006,9.612500000000004
6.328,-3.138333333333334,-3.3383333333333343,9.672500000000005
6.336,-3.1516666666666677,-3.3516666666666675,9.732500000000003
6.344,-3.165000000000001,-3.3650000000000007,9.792500000000004
6.352,-3.178333333333334,-3.3783333333333343,9.852500000000004
6.36,-3.1916666666666678,-3.3916666666666675,9.912500000000005
6.368,-3.205000000000001,-3.4050000000000007,9.972500000000004
6.376,-3.218333333333334,-3.4183333333333343,10.032500000000004
6.384,-3.2316666666666674,-3.4316666666666675,10.092500000000005
6.392,-3.245000000000001,-3.4450000000000007,10.152500000000005
6.4,-3.258333333333334,-3.4583333333333344,10.212500000000004
6.408,-3.2716666666666674,-3.4716666666666676,10.272500000000004
6.416,-3.2850000000000006,-3.4850000000000008,10.332500000000005
6.424,-3.2983333333333342,-3.4983333333333344,10.392500000000005
6.432,-0.9,-0.6,9.2
6.44,-1.003225806451613,-0.703225806451613,9.251612903225807
6.448,-1.106451612903226,-0.8064516129032261,9.303225806451612
6.456,-1.2096774193548392,-0.9096774193548391,9.35483870967742
6.464,-1.3129032258064521,-1.012903225806452,9.406451612903226
6.472,-1.4161290322580653,-1.1161290322580653,9.458064516129033
6.48,-1.5193548387096782,-1.2193548387096782,9.509677419354839
6.488,-1.6225806451612912,-1.3225806451612914,9.561290322580646
6.496,-1.7258064516129044,-1.4258064516129043,9.612903225806452
6.5040000000000004,-1.8290322580645175,-1.5290322580645173,9.66451612903226
6.5120000000000005,-1.9322580645161307,-1.6322580645161304,9.716129032258065
6.5200000000000005,-2.0354838709677434,-1.7354838709677436,9.767741935483873
6.5280000000000005,-2.422222222222231,-2.4666666666667325,9.855555555555538
6.5360000000000005,-2.5999999999998225,-3.7999999999996,9.499999999999556
6.5440000000000005,-1.8,-1.5000000000000089,8.600000000000124
6.5520000000000005,-1.8,-1.5800000000000036,9.72000000000005
6.5600000000000005,-1.8405405405405422,-1.5918918918918916,10.040540540540542
6.5680000000000005,-1.8945945945945963,-1.5810810810810807,10.094594594594597
6.5760000000000005,-1.9486486486486505,-1.57027027027027,10.148648648648651
6.5840000000000005,-2.0027027027027047,-1.559459459459459,10.202702702702705
6.5920000000000005,-2.056756756756759,-1.5486486486486482,10.25675675675676
6.6000000000000005,-2.110810810810813,-1.5378378378378375,10.310810810810814
6.6080000000000005,-2.1648648648648674,-1.5270270270270265,10.364864864864867
6.6160000000000005,-2.2189189189189213,-1.5162162162162156,10.418918918918921
6.6240000000000006,-2.2729729729729757,-1.505405405405405,10.472972972972975
6.632000000000001,-3.7499999999990896,-1.8000000000002663,7.850000000000067
6.640000000000001,-2.8261538461538427,-3.446153846153848,10.198461538461535
6.648000000000001,-2.7276923076923034,-3.5076923076923103,10.063076923076917
6.656000000000001,-2.629230769230764,-3.569230769230772,9.9276923076923
6.664,-2.530769230769236,-3.6307692307692276,9.792307692307698
6.672,-2.4323076923076967,-3.6923076923076894,9.656923076923082
6.68,-2.3338461538461575,-3.7538461538461516,9.521538461538466
6.688,-2.2353846153846177,-3.815384615384614,9.38615384615385
6.696,-2.136923076923079,-3.8769230769230756,9.250769230769233
6.704,-4.9,0.4,8.7
6.712,-6.337398373983743,-3.8113821138211375,6.7943089430894315
6.72,-6.265853658536589,-3.8243902439024384,6.787804878048781
6.728,-6.1943089430894345,-3.837398373983739,6.78130081300813
6.736,-6.12276422764228,-3.85040650406504,6.77479674796748
6.744,-6.051219512195125,-3.863414634146341,6.7682926829268295
6.752,-5.979674796747971,-3.8764227642276414,6.761788617886179
6.76,-5.908130081300817,-3.8894308943089424,6.755284552845529
6.768,-5.836585365853662,-3.9024390243902434,6.748780487804878
6.776,-5.765040650406508,-3.915447154471544,6.742276422764228
6.784,-5.693495934959353,-3.928455284552845,6.735772357723578
6.792,-5.621951219512199,-3.9414634146341454,6.729268292682927
6.8,-5.5504065040650445,-3.9544715447154464,6.722764227642277
6.808,-5.47886178861789,-3.9674796747967473,6.7162601626016265
6.816,-5.407317073170735,-3.980487804878048,6.709756097560976
6.824,-5.335772357723581,-3.993495934959349,6.703252032520326
6.832,-1.4500000000001998,-3.1000000000000885,8.749999999999712
6.84,-0.9849462365591405,-2.862365591397851,9.467741935483868
6.848,-0.9677419354838717,-2.819354838709679,9.545161290322579
6.856,-0.9505376344086028,-2.7763440860215067,9.622580645161287
6.864,-0.933333333333334,-2.7333333333333347,9.699999999999998
6.872,-0.9161290322580652,-2.6903225806451627,9.777419354838708
6.88,-0.8989247311827964,-2.6473118279569907,9.854838709677416
6.888,-0.8817204301075274,-2.6043010752688187,9.932258064516127
6.896,-0.8645161290322586,-2.5612903225806463,10.009677419354837
6.904,-0.8473118279569898,-2.5182795698924743,10.087096774193547
6.912,-0.830107526881721,-2.4752688172043023,10.164516129032256
6.92,-0.8129032258064521,-2.4322580645161302,10.241935483870966
6.928,-0.7454545454545521,-1.9636363636364165,10.481818181818161
6.936,-0.527272727272736,-0.21818181818188886,11.20909090909088
6.944,-1.3,-2.8,11.8
6.952,0.20394736842105277,-3.535526315789475,11.221052631578946
6.96,0.21447368421052637,-3.6302631578947375,11.010526315789473
6.968,0.225,-3.725,10.8
6.976,0.23552631578947364,-3.8197368421052627,10.589473684210528
6.984,0.24605263157894725,-3.914473684210525,10.378947368421056
6.992,0.25657894736842085,-4.009210526315788,10.168421052631583
7.0,0.2671052631578945,-4.103947368421051,9.95789473684211
7.008,0.2776315789473681,-4.198684210526313,9.747368421052638
7.016,0.2881578947368417,-4.293421052631576,9.536842105263165
7.024,0.29868421052631533,-4.388157894736839,9.326315789473693
7.032,-0.2,-2.4,11.3
7.04,-0.17714285714285702,-2.392380952380952,11.307619047619049
7.048,-0.15428571428571405,-2.3847619047619046,11.315238095238096
7.056,-0.13142857142857106,-2.377142857142857,11.322857142857144
7.064,-0.10857142857142808,-2.3695238095238094,11.33047619047619
7.072,-0.0857142857142851,-2.3619047619047615,11.338095238095239
7.08,-0.06285714285714211,-2.354285714285714,11.345714285714287
7.088,-0.03999999999999915,-2.3466666666666662,11.353333333333333
7.096,-0.017142857142856155,-2.3390476190476184,11.360952380952382
7.104,0.00571428571428681,-2.331428571428571,11.36857142857143
7.112,0.028571428571429802,-2.323809523809523,11.376190476190477
7.12,0.05142857142857277,-2.3161904761904757,11.383809523809525
7.128,0.07428571428571579,-2.308571428571428,11.391428571428571
7.136,0.09714285714285875,-2.3009523809523804,11.39904761904762
7.144,1.0,-0.5,8.3
7.152,0.14509803921568032,-2.301960784313737,7.294117647058834
7.16,0.03529411764705312,-2.505882352941187,7.48235294117648
7.168,-0.07450980392157408,-2.709803921568638,7.670588235294128
7.176,-0.1843137254902013,-2.9137254901960885,7.858823529411774
7.184,-0.2941176470588285,-3.1176470588235388,8.04705882352942
7.192,-0.4039215686274557,-3.3215686274509895,8.235294117647067
7.2,-0.4666666666666568,-3.6000000000000294,8.866666666666806
7.208,0.5466666666666714,1.2600000000000566,11.300000000000034
7.216,0.3333333333333333,-1.3000000000000003,9.7
7.224,0.22763157894736963,-2.8210526315789437,8.727631578947369
7.232,0.3013157894736858,-2.610526315789469,8.801315789473685
7.24,0.37500000000000205,-2.399999999999994,8.875000000000002
7.248,0.44868421052631824,-2.189473684210519,8.948684210526318
7.256,0.5223684210526345,-1.9789473684210441,9.022368421052635
7.264,0.5960526315789507,-1.7684210526315693,9.096052631578951
7.272,0.669736842105267,-1.5578947368420943,9.169736842105268
7.28,0.7434210526315832,-1.3473684210526196,9.243421052631582
7.288,0.8171052631578994,-1.1368421052631446,9.317105263157899
7.296,0.8907894736842155,-0.9263157894736698,9.390789473684215
7.304,1.5020618556701038,-1.7041237113402075,10.197938144329896
7.312,1.510309278350516,-1.7206185567010321,10.189690721649484
7.32,1.5185567010309284,-1.7371134020618568,10.181443298969072
7.328,1.5268041237113408,-1.7536082474226815,10.17319587628866
7.336,1.5350515463917531,-1.7701030927835062,10.164948453608247
7.344,1.5432989690721655,-1.7865979381443309,10.156701030927834
7.352,1.5515463917525778,-1.8030927835051556,10.148453608247422
7.36,1.5597938144329901,-1.8195876288659802,10.14020618556701
7.368,1.5680412371134025,-1.836082474226805,10.131958762886597
7.376,1.576288659793815,-1.8525773195876296,10.123711340206185
7.384,1.5845360824742274,-1.8690721649484543,10.115463917525773
7.392,1.5927835051546397,-1.885567010309279,10.10721649484536
7.4,1.349999999999889,-2.0500000000000664,10.150000000000022
7.408,1.4166666666666685,-1.8,9.093333333333332
7.416,1.4500000000000017,-1.8,9.079999999999998
7.424,1.4833333333333352,-1.8,9.066666666666666
7.432,1.5166666666666684,-1.8,9.053333333333333
7.44,1.5500000000000018,-1.8,9.04
7.448,1.583333333333335,-1.8,9.026666666666666
7.456,1.6166666666666685,-1.8,9.013333333333332
7.464,1.6500000000000017,-1.8,9.0
7.472,1.6833333333333351,-1.8,8.986666666666666
7.48,1.7166666666666686,-1.8,8.973333333333333
7.488,1.7500000000000018,-1.8,8.959999999999999
7.496,1.7833333333333352,-1.8,8.946666666666665
7.5040000000000004,1.8166666666666684,-1.8,8.933333333333334
7.5120000000000005,1.8500000000000019,-1.8,8.92
7.5200000000000005,1.883333333333335,-1.8,8.906666666666666
7.5280000000000005,1.9500000000001112,-2.1500000000001553,9.149999999999935
7.5360000000000005,2.1785714285714253,-1.8642857142857088,9.314285714285717
7.5440000000000005,2.1442857142857115,-1.8071428571428518,9.33714285714286
7.5520000000000005,2.109999999999997,-1.749999999999995,9.360000000000003
7.5600000000000005,2.075714285714283,-1.692857142857138,9.382857142857144
7.5680000000000005,2.0414285714285687,-1.6357142857142808,9.405714285714287
7.5760000000000005,2.0071428571428545,-1.5785714285714239,9.42857142857143
7.5840000000000005,1.9728571428571402,-1.521428571428567,9.451428571428574
7.5920000000000005,1.938571428571426,-1.46428571428571,9.474285714285717
7.6000000000000005,1.9042857142857117,-1.407142857142853,9.497142857142858
7.6080000000000005,2.2200000000000073,-2.729999999999975,8.83000000000001
7.6160000000000005,2.3800000000000106,-2.1699999999999626,9.070000000000016
7.6240000000000006,2.3461538461538414,-1.7769230769230486,9.261538461538477
7.632000000000001,2.291208791208788,-1.5021978021978029,9.4
7.640000000000001,2.256043956043953,-1.5109890109890116,9.4
7.648000000000001,2.220879120879118,-1.5197802197802206,9.4
7.656000000000001,2.185714285714283,-1.5285714285714294,9.4
7.664000000000001,2.150549450549448,-1.5373626373626381,9.4
7.672000000000001,2.1153846153846128,-1.5461538461538469,9.4
7.68,2.0802197802197813,-1.5549450549450547,9.4
7.688,2.0450549450549462,-1.5637362637362635,9.4
7.696,2.009890109890111,-1.5725274725274723,9.4
7.704,1.974725274725276,-1.581318681318681,9.4
7.712,1.9395604395604409,-1.5901098901098898,9.4
7.72,1.9043956043956058,-1.5989010989010985,9.4
7.728,2.103658536585366,-1.696341463414634,9.507317073170732
7.736,2.113414634146342,-1.6865853658536585,9.526829268292683
7.744,2.123170731707317,-1.6768292682926829,9.546341463414635
7.752,2.1329268292682926,-1.6670731707317075,9.565853658536584
7.76,2.142682926829268,-1.6573170731707318,9.585365853658535
7.768,2.152439024390244,-1.6475609756097565,9.604878048780487
7.776,2.1621951219512194,-1.6378048780487808,9.624390243902438
7.784,2.171951219512195,-1.6280487804878054,9.643902439024389
7.792,2.1817073170731702,-1.6182926829268298,9.66341463414634
7.8,2.191463414634146,-1.6085365853658544,9.682926829268292
7.808,2.3,-1.7,9.6
7.816,2.3,-1.9333333333333431,9.333333333333345
7.824,2.1952941176470597,-1.507058823529411,9.6
7.832,2.176470588235295,-1.535294117647058,9.6
7.84,2.15764705882353,-1.5635294117647052,9.6
7.848,2.1388235294117655,-1.5917647058823523,9.6
7.856,2.1200000000000006,-1.6199999999999994,9.6
7.864,2.1011764705882356,-1.6482352941176466,9.6
7.872,2.082352941176471,-1.6764705882352935,9.6
7.88,2.0635294117647063,-1.7047058823529406,9.6
7.888,2.0447058823529414,-1.7329411764705878,9.6
7.896,2.025882352941177,-1.761176470588235,9.6
7.904,2.007058823529412,-1.789411764705882,9.6
7.912,2.2,-2.0,9.5
