gyro_time_list,gyro_x_list,gyro_y_list,gyro_z_list
0.0,0.0,0.0,0.1
0.007994697773064687,-0.09968186638388127,0.10010604453870627,0.00031813361611876534
0.015989395546129374,-0.09348978744985938,0.3934897874498594,-0.09348978744985938
0.02398409331919406,-0.08479989856609342,0.3847998985660934,-0.08479989856609342
0.03197879109225875,-0.07611000968232745,0.37611000968232744,-0.07611000968232745
0.03997348886532344,-0.06742012079856148,0.3674201207985615,-0.06742012079856148
0.04796818663838812,-0.05873023191479552,0.3587302319147955,-0.05873023191479552
0.05596288441145281,-0.050040343031029555,0.35004034303102954,-0.050040343031029555
0.0639575821845175,-0.04135045414726359,0.3413504541472636,-0.04135045414726359
0.07195227995758219,-0.032660565263497615,0.33266056526349763,-0.032660565263497615
0.07994697773064688,-0.023970676379731645,0.32397067637973165,-0.023970676379731645
0.08794167550371156,-0.01528078749596569,0.31528078749596566,-0.01528078749596569
0.09593637327677625,-0.006590898612199719,0.30659089861219974,-0.006590898612199719
0.10393107104984094,0.04655355249204708,0.20689289501590585,0.1
0.11192576882290561,0.1,0.2,-0.09497816201448678
0.1199204665959703,0.1,0.2,-0.08820299441019466
0.127915164369035,0.1,0.2,-0.08142782680590255
0.13590986214209969,0.1,0.2,-0.07465265920161043
0.14390455991516438,0.1,0.2,-0.06787749159731833
0.15189925768822907,0.1,0.2,-0.06110232399302622
0.15989395546129376,0.1,0.2,-0.05432715638873411
0.16788865323435842,0.1,0.2,-0.04755198878444202
0.1758833510074231,0.1,0.2,-0.040776821180149914
0.1838780487804878,0.1,0.2,-0.0340016535758578
0.1918727465535525,0.1,0.2,-0.027226485971565698
0.19986744432661718,0.1,0.2,-0.020451318367273583
0.20786214209968187,0.1,0.2,-0.013676150762981468
0.21585683987274656,0.1,0.2,-0.006900983158689353
0.22385153764581123,0.1,0.2,-0.00012581555439727943
0.23184623541887592,0.0,0.06923193455537009,0.0
0.2398409331919406,0.0,0.2043612010738204,-0.1
0.2478356309650053,0.0,0.2115636315000048,-0.1
0.25583032873807,0.0,0.2187660619261892,-0.1
0.26382502651113465,0.0,0.2259684923523736,-0.1
0.27181972428419937,0.0,0.233170922778558,-0.1
0.27981442205726403,0.0,0.2403733532047424,-0.1
0.28780911983032875,0.0,0.2475757836309268,-0.1
0.2958038176033934,0.0,0.2547782140571112,-0.1
0.30379851537645813,0.0,0.2619806444832956,-0.1
0.3117932131495228,0.0,0.26918307490948,-0.1
0.3197879109225875,0.0,0.2763855053356644,-0.1
0.3277826086956522,0.0,0.2835879357618488,-0.1
0.33577730646871684,0.0,0.2907903661880332,-0.1
0.34377200424178156,0.0,0.2979927966142176,-0.1
0.3517667020148462,-0.11963002238718048,0.0,-0.041109932838458575
0.35976139978791094,-0.0857900318133569,0.0761399787910954,0.12386002120890462
0.3677560975609756,0.1563008130081301,0.2,0.0
0.3757507953340403,0.195633658199936,0.191267316399872,-0.004366341800064006
0.383745493107105,0.18294366173475402,0.165887323469508,-0.01705633826524601
0.39174019088016965,0.170253665269572,0.140507330539144,-0.029746334730428016
0.39973488865323437,0.1575636688043899,0.11512733760877979,-0.04243633119561011
0.40772958642629903,0.1448736723392079,0.08974734467841577,-0.05512632766079212
0.41572428419936375,0.1321836758740258,0.06436735174805158,-0.06781632412597421
0.4237189819724284,0.1194936794088438,0.038987358817687584,-0.08050632059115621
0.43171367974549313,0.1068036829436617,0.013607365887323392,-0.09319631705633831
0.4397083775185578,-0.22916224814422106,-0.05832449628844211,-0.029162248144221053
0.44770307529162245,0.11374235010029507,0.10687117505014754,-0.1
0.4556977730646872,0.13300668208358354,0.11650334104179177,-0.1
0.46369247083775184,0.15227101406687188,0.12613550703343596,-0.1
0.47168716861081655,0.17153534605016035,0.1357676730250802,-0.1
0.4796818663838812,0.1907996780334487,0.14539983901672435,-0.1
0.48767656415694594,0.21006401001673716,0.15503200500836858,-0.1
0.4956712619300106,0.2293283420000255,0.16466417100001277,-0.1
0.5036659597030753,0.24859267398331383,0.17429633699165692,-0.1
0.51166065747614,0.26785700596660234,0.18392850298330116,-0.1
0.5196553552492047,0.2871213379498908,0.1935606689749454,-0.1
0.5276500530222693,0.06749734888653597,0.08374867444326799,0.06749734888653597
0.535644750795334,-0.09732853455016768,0.1,-0.1
0.5436394485683987,-0.08925308225414272,0.1,-0.1
0.5516341463414635,-0.08117762995811775,0.1,-0.1
0.5596288441145281,-0.07310217766209288,0.1,-0.1
0.5676235418875928,-0.06502672536606792,0.1,-0.1
0.5756182396606575,-0.05695127307004295,0.1,-0.1
0.5836129374337221,-0.048875820774018086,0.1,-0.1
0.5916076352067868,-0.04080036847799312,0.1,-0.1
0.5996023329798515,-0.03272491618196814,0.1,-0.1
0.6075970307529163,-0.024649463885943176,0.1,-0.1
0.6155917285259809,-0.016574011589918322,0.1,-0.1
0.6235864262990456,-0.008498559293893343,0.1,-0.1
0.6315811240721103,-0.0004231069978683777,0.1,-0.1
0.639575821845175,-0.1,-0.026263697419583617,0.2
0.6475705196182396,-0.1047606928243195,-0.1,0.2047606928243195
0.6555652173913044,-0.11542028985507247,-0.1,0.21542028985507247
0.6635599151643691,-0.12607988688582544,-0.1,0.22607988688582542
0.6715546129374337,-0.13673948391657825,-0.1,0.23673948391657823
0.6795493107104984,-0.14739908094733123,-0.1,0.2473990809473312
0.6875440084835631,-0.15805867797808418,-0.1,0.2580586779780842
0.6955387062566278,-0.16871827500883713,-0.1,0.26871827500883716
0.7035334040296924,-0.17937787203958994,-0.1,0.27937787203958997
0.7115281018027572,-0.1900374690703429,-0.1,0.2900374690703429
0.7195227995758219,-0.2,-0.1,0.3261399787910954
0.7275174973488865,-0.15893184228284993,-0.05893184228284993,0.25893184228284993
0.7355121951219512,0.10115100027404769,0.10057550013702385,0.20057550013702385
0.7435068928950159,0.11911661324722683,0.10955830662361342,0.20955830662361344
0.7515015906680806,0.137082226220406,0.118541113110203,0.218541113110203
0.7594962884411453,0.1550478391935849,0.12752391959679246,0.22752391959679244
0.76749098621421,0.17301345216676403,0.13650672608338202,0.23650672608338202
0.7754856839872747,0.19097906513994317,0.1454895325699716,0.24548953256997158
0.7834803817603393,0.20894467811312206,0.15447233905656105,0.254472339056561
0.791475079533404,0.22691029108630123,0.16345514554315063,0.26345514554315064
0.7994697773064687,0.24487590405948037,0.17243795202974022,0.2724379520297402
0.8074644750795335,0.2628415170326595,0.18142075851632977,0.28142075851632975
0.8154591728525981,0.28080713000583846,0.19040356500291922,0.2904035650029192
0.8234538706256628,0.29877274297901757,0.1993863714895088,0.29938637148950875
0.8314485683987275,-0.2448568398727533,-0.02757158006362334,0.037857900318116755
0.8394432661717921,-0.2854053604474664,0.0,-0.07810804067119961
0.8474379639448568,-0.269729482461065,0.0,-0.05459422369159751
0.8554326617179215,-0.25405360447466363,0.0,-0.031080406711995412
0.8634273594909863,-0.23837772648826222,0.0,-0.007566589732393311
0.8714220572640509,-0.22270184850186103,0.0,0.015947227247208456
0.8794167550371156,-0.20702597051545962,0.0,0.03946104422681054
0.8874114528101803,-0.19135009252905827,0.0,0.06297486120641266
0.8954061505832449,-0.17567421454265708,0.0,0.08648867818601441
0.9034008483563096,-0.15999833655625567,0.0,0.11000249516561653
0.9113955461293743,-0.1443224585698543,0.0,0.1335163121452186
0.9193902439024391,-0.12864658058345288,0.0,0.1570301291248207
0.9273849416755037,-0.11297070259705172,0.0,0.18054394610442245
0.9353796394485684,0.037963944856833604,0.0689819724284168,0.2
0.9433743372216331,0.0,0.0,0.2
0.9513690349946978,0.0,0.0,0.2
0.9593637327677624,0.0,0.0,0.2
0.9673584305408272,0.0,0.0,0.2
0.9753531283138919,0.0,0.0,0.2
0.9833478260869565,0.0,0.0,0.2
0.9913425238600212,0.0,0.0,0.2
0.9993372216330859,0.0,0.0,0.2
1.0073319194061505,0.0,0.0,0.2
1.0153266171792152,0.0,0.0,0.2
1.02332131495228,0.0,0.0,0.2
1.0313160127253447,0.0,0.0,0.1
1.0393107104984094,0.0,0.0,0.1
1.0473054082714741,0.0,0.0,0.1
1.0553001060445386,0.0,0.0,0.1
1.0632948038176033,0.0,0.0,0.1
1.071289501590668,0.0,0.0,0.1
1.0792841993637328,0.0,0.0,0.1
1.0872788971367975,0.0,0.0,0.1
1.0952735949098622,0.0,0.0,0.1
1.103268292682927,0.0,0.0,0.1
1.1112629904559914,0.0,0.0,0.1
1.1192576882290561,0.0,0.0,0.1
1.1272523860021209,0.0,0.0,0.1
1.1352470837751856,0.0,0.0,0.1
1.1432417815482503,0.0,0.0,0.1
1.151236479321315,-0.1,0.0,0.09701802757158003
1.1592311770943797,-0.1,0.0,0.08635843054082705
1.1672258748674442,-0.1,0.0,0.07569883351007439
1.175220572640509,-0.1,0.0,0.06503923647932142
1.1832152704135737,-0.1,0.0,0.05437963944856846
1.1912099681866384,-0.1,0.0,0.04372004241781549
1.199204665959703,-0.1,0.0,0.03306044538706253
1.2071993637327678,-0.1,0.0,0.022400848356309566
1.2151940615058325,-0.1,0.0,0.011741251325556604
1.223188759278897,-0.1,0.0,0.0010816542948039326
1.2311834570519617,-0.10917285259808275,0.1,-0.00917285259808275
1.2391781548250265,-0.3106766078866525,0.1,-0.1
1.2471728525980912,-0.3271605208208066,0.1,-0.1
1.255167550371156,-0.3436444337549607,0.1,-0.1
1.2631622481442206,-0.36012834668911475,0.1,-0.1
1.2711569459172853,-0.3766122596232688,0.1,-0.1
1.27915164369035,-0.39309617255742285,0.1,-0.1
1.2871463414634146,-0.40958008549157643,0.1,-0.1
1.2951410392364793,-0.4260639984257305,0.1,-0.1
1.303135737009544,-0.4425479113598846,0.1,-0.1
1.3111304347826087,-0.45903182429403866,0.1,-0.1
1.3191251325556734,-0.47551573722819274,0.1,-0.1
1.3271198303287381,-0.4919996501623468,0.1,-0.1
1.3351145281018029,-0.9222905620360563,0.12229056203605632,-0.2
1.3431092258748674,-1.1073158255879232,0.10365791279396151,-0.30731582558792303
1.351103923647932,-1.1261268791716048,0.11306343958580237,-0.3261268791716047
1.3590986214209968,-1.1449379327552864,0.1224689663776432,-0.3449379327552864
1.3670933191940615,-1.1637489863389683,0.13187449316948407,-0.3637489863389681
1.3750880169671262,-1.18256003992265,0.14128001996132492,-0.3825600399226498
1.383082714740191,-1.2013710935063315,0.15068554675316576,-0.4013710935063315
1.3910774125132557,-1.2201821470900134,0.16009107354500662,-0.4201821470900132
1.3990721102863202,-1.2389932006736943,0.16949660033684721,-0.4389932006736944
1.4070668080593849,-1.2578042542573762,0.17890212712868805,-0.4578042542573761
1.4150615058324496,-1.2766153078410578,0.1883076539205289,-0.47661530784105777
1.4230562036055143,-1.2954263614247394,0.19771318071236976,-0.4954263614247395
1.431050901378579,-1.4000446503320867,0.40004465033208686,-0.6
1.4390455991516438,-1.4070575431154768,0.407057543115477,-0.6
1.4470402969247085,-1.414070435898867,0.41407043589886705,-0.6
1.455034994697773,-1.4210833286822568,0.421083328682257,-0.6
1.4630296924708377,-1.428096221465647,0.4280962214656471,-0.6
1.4710243902439024,-1.435109114249037,0.4351091142490372,-0.6
1.4790190880169671,-1.4421220070324272,0.4421220070324273,-0.6
1.4870137857900319,-1.4491348998158173,0.44913489981581745,-0.6
1.4950084835630966,-1.4561477925992075,0.45614779259920757,-0.6
1.5030031813361613,-1.4631606853825976,0.46316068538259764,-0.6
1.5109978791092258,-1.4701735781659875,0.4701735781659876,-0.6
1.5189925768822905,-1.4771864709493776,0.47718647094937766,-0.6
1.5269872746553552,-1.4841993637327677,0.4841993637327678,-0.6
1.53498197242842,-1.4912122565161579,0.4912122565161579,-0.6
1.5429766702014847,-1.498225149299548,0.498225149299548,-0.6
1.5509713679745494,-1.4502863202545067,0.5,-0.6
1.558966065747614,-1.1033934252385849,0.5983032873807076,-0.5016967126192924
1.5669607635206786,-1.0755053430132966,0.6,-0.5
1.5749554612937433,-1.0509062729423282,0.6,-0.5
1.582950159066808,-1.02630720287136,0.6,-0.5
1.5909448568398727,-1.0017081328003916,0.6,-0.5
1.5989395546129375,-0.9771090627294233,0.6,-0.5
1.6069342523860022,-0.952509992658455,0.6,-0.5
1.614928950159067,-0.9279109225874868,0.6,-0.5
1.6229236479321314,-0.9033118525165191,0.6,-0.5
1.6309183457051961,-0.20272180982679264,0.7486390950866036,-0.6
1.6389130434782608,0.10425330812854437,0.8,-0.6
1.6469077412513256,0.11294319701231037,0.8,-0.6
1.6549024390243903,0.12163308589607635,0.8,-0.6
1.662897136797455,0.13032297477984234,0.8,-0.6
1.6708918345705197,0.13901286366360835,0.8,-0.6
1.6788865323435842,0.14770275254737408,0.8,-0.6
1.686881230116649,0.15639264143114007,0.8,-0.6
1.6948759278897136,0.16508253031490605,0.8,-0.6
1.7028706256627784,0.17377241919867206,0.8,-0.6
1.710865323435843,0.18246230808243805,0.8,-0.6
1.7188600212089078,0.19115219696620406,0.8,-0.6
1.7268547189819725,0.19984208584997004,0.8,-0.6
1.734849416755037,0.5150583244963071,0.7,-0.5150583244963071
1.7428441145281017,0.5065664208180917,0.6065664208180916,-0.4
1.7508388123011664,0.5155492273046813,0.6155492273046813,-0.4
1.7588335100742312,0.5245320337912709,0.6245320337912709,-0.4
1.7668282078472959,0.5335148402778604,0.6335148402778604,-0.4
1.7748229056203606,0.54249764676445,0.64249764676445,-0.4
1.7828176033934253,0.5514804532510396,0.6514804532510395,-0.4
1.7908123011664898,0.5604632597376289,0.6604632597376289,-0.4
1.7988069989395545,0.5694460662242185,0.6694460662242184,-0.4
1.8068016967126193,0.578428872710808,0.678428872710808,-0.4
1.814796394485684,0.5874116791973976,0.6874116791973977,-0.4
1.8227910922587487,0.5963944856839872,0.6963944856839872,-0.4
1.8307857900318134,0.5,0.7464298338635557,-0.2535701661364444
1.8387804878048781,0.5018941359626363,0.9,0.10378827192527268
1.8467751855779428,0.5103991335935563,0.9,0.12079826718711249
1.8547698833510073,0.5189041312244759,0.9,0.13780826244895183
1.862764581124072,0.5274091288553958,0.9,0.15481825771079163
1.8707592788971368,0.5359141264863158,0.9,0.17182825297263143
1.8787539766702015,0.5444191241172356,0.9,0.18883824823447126
1.8867486744432662,0.5529241217481555,0.9,0.20584824349631106
1.894743372216331,0.5614291193790755,0.9,0.22285823875815086
1.9027380699893957,0.5699341170099953,0.9,0.2398682340199907
1.9107327677624601,0.578439114640915,0.9,0.25687822928183
1.9187274655355249,0.5869441122718349,0.9,0.2738882245436698
1.9267221633085896,0.5954491099027548,0.9,0.2908982198055097
1.9347168610816543,0.5628313891834574,0.9,0.374337221633085
1.942711558854719,0.44865323435843113,0.8657688229056207,0.5171155885471896
1.9507062566277837,0.2088123011664898,0.7058748674443265,0.5970625662778367
1.9587009544008485,-0.3,0.3949452103216683,0.5
1.966695652173913,-0.3,0.3863487611033194,0.5
1.9746903499469777,-0.3,0.37775231188497027,0.5
1.9826850477200424,-0.3,0.3691558626666211,0.5
1.9906797454931071,-0.3,0.36055941344827197,0.5
1.9986744432661718,-0.3,0.35196296422992285,0.5
2.0066691410392363,-0.3,0.3433665150115739,0.5
2.014663838812301,-0.3,0.33477006579322477,0.5
2.0226585365853658,-0.3,0.32617361657487565,0.5
2.0306532343584305,-0.3,0.31757716735652647,0.5
2.038647932131495,-0.3,0.30898071813817735,0.5
2.04664262990456,-0.3,0.30038426891982817,0.5
2.0546373276776246,-0.49635812755642966,0.0018209362217851655,0.09908953188910742
2.0626320254506894,-0.4506741402817743,0.02466292985911284,0.08766853507044359
2.070626723223754,-0.40499015300711894,0.04750492349644052,0.07624753825177974
2.078621420996819,-0.35930616573246366,0.07034691713376819,0.06482654143311592
2.0866161187698835,-0.31362217845780826,0.09318891077109587,0.05340554461445207
2.0946108165429482,-0.26793819118315293,0.11603090440842354,0.04198454779578824
2.102605514316013,-0.2222542039084976,0.1388728980457512,0.030563550977124404
2.110600212089077,-0.17657021663384476,0.16171489168307762,0.019142554158461195
2.118594909862142,-0.13088622935918942,0.1845568853204053,0.007721557339797361
2.1265896076352067,-0.07688229056204993,0.3589607635206833,0.0589607635206833
2.1345843054082714,-1.4827007343084095,0.18702555073130717,0.20432481642289763
2.142579003181336,-1.452532063466656,0.164399047599992,0.21186698413333602
2.150573700954401,-1.4223633926249024,0.14177254446867682,0.2194091518437744
2.1585683987274655,-1.392194721783149,0.11914604133736165,0.2269513195542128
2.1665630965005302,-1.3620260509413953,0.09651953820604647,0.2344934872646512
2.174557794273595,-1.3318573800996418,0.0738930350747313,0.24203565497508958
2.1825524920466597,-1.3016887092578882,0.05126653194341613,0.24957782268552797
2.1905471898197244,-1.2715200384161347,0.028640028812100954,0.25711999039596634
2.198541887592789,-1.241351367574381,0.006013525680785781,0.26466215810640475
2.206536585365854,-1.2111826967326276,-0.016612977450529393,0.2722043258168431
2.2145312831389186,-1.181014025890874,-0.039239480581844594,0.27974649352728154
2.222525980911983,-1.150845355049122,-0.06186598371315849,0.2872886612377195
2.2305206786850476,-1.1206766842073685,-0.08449248684447369,0.2948308289481579
2.2385153764581123,-0.6061505832448898,-0.2,0.6
2.246510074231177,-1.351022941830697,-0.1,0.28163360318651137
2.2545047720042417,-1.195028838941629,-0.1,0.22313581460311088
2.2624994697773064,-1.0390347360525611,-0.1,0.16463802601971042
2.270494167550371,-0.883040633163493,-0.1,0.10614023743630993
2.278488865323436,-0.7270465302744251,-0.1,0.04764244885290947
2.2864835630965006,-0.5710524273853571,-0.1,-0.01085533973049102
2.2944782608695653,-0.4150583244962892,-0.1,-0.06935312831389151
2.30247295864263,-0.2590642216072212,-0.1,-0.127850916897292
2.3104676564156947,-0.1030701187181533,-0.1,-0.1863487054806925
2.3184623541887595,0.052923984170914595,-0.1,-0.24484649406409292
2.326457051961824,0.6570519618241568,-0.07714740190879217,-0.4142629904560392
2.3344517497348884,3.735524920466527,0.5081124072109482,-0.36447507953347297
2.342446447507953,5.400600534833328,1.9560560652865504,0.3859859836783624
2.350441145281018,4.905276868458666,2.0255751763566785,0.36860620591083043
2.3584358430540826,4.409953202084004,2.0950942874268064,0.3512264281432984
2.3664305408271473,3.9146295357093432,2.1646133984969342,0.33384665037576644
2.374425238600212,3.4193058693346816,2.234132509567062,0.3164668726082345
2.3824199363732768,2.9239822029600204,2.30365162063719,0.2990870948407025
2.3904146341463415,2.428658536585359,2.3731707317073183,0.28170731707317054
2.398409331919406,1.9333348702106972,2.442689842777446,0.26432753930563857
2.406404029692471,1.4380112038360355,2.512208953847574,0.24694776153810655
2.4143987274655356,0.9426875374613743,2.581728064917702,0.22956798377057458
2.4223934252386004,0.44736387108671316,2.65124717598783,0.21218820600304258
2.430388123011665,2.4881230116651305,3.117921527041398,-0.2179215270413979
2.43838282078473,5.506222498506819,-0.08569495739934534,1.4809266098657938
2.446377518557794,4.964053339184071,-0.0029911873331633643,1.3706549164442179
2.454372216330859,4.4218841798612925,0.0797125827330232,1.2603832230226357
2.4623669141039235,3.8797150205385136,0.16241635279920977,1.1501115296010536
2.470361611876988,3.337545861215735,0.24512012286539633,1.0398398361794716
2.478356309650053,2.7953767018929563,0.32782389293158287,0.9295681427578896
2.4863510074231177,2.253207542570178,0.41052766299776944,0.8192964493363074
2.4943457051961824,1.7110383832473994,0.493231433063956,0.7090247559147254
2.502340402969247,1.168869223924621,0.5759352031301426,0.5987530624931433
2.510335100742312,0.6267000646018426,0.6586389731963291,0.48848136907156126
2.5183297985153765,0.08453090527906326,0.7413427432625157,0.3782096756499791
2.5263244962884412,-1.6662248144220593,-0.032449628844118644,0.1635737009544153
2.534319194061506,-0.5319194061505899,-0.3297985153764746,0.7680805938494102
2.5423138918345707,-0.6678608520733349,-0.5603207573985199,0.65475943195111
2.5503085896076354,-0.7420384602770282,-0.6262564091351361,0.6053076931486479
2.5583032873807,-0.8162160684807215,-0.6921920608717524,0.5558559543461856
2.5662979851537644,-0.8903936766844107,-0.758127712608365,0.5064042155437262
2.574292682926829,-0.964571284888104,-0.8240633643449813,0.45695247674126405
2.582287380699894,-1.0387488930917972,-0.8899990160815976,0.4075007379388018
2.5902820784729585,-1.1129265012954905,-0.9559346678182138,0.35804899913633964
2.5982767762460233,-1.1871041094991837,-1.02187031955483,0.30859726033387747
2.606271474019088,-1.261281717702877,-1.0878059712914463,0.2591455215314153
2.6142661717921527,-1.3354593259065703,-1.1537416230280626,0.20969378272895312
2.6222608695652174,-1.4096369341102637,-1.219677274764679,0.16024204392649088
2.630255567338282,-1.483814542313957,-1.2856129265012952,0.11079030512402877
2.638250265111347,-2.5779364980350556,-1.1926454993450184,-0.4
2.6462449628844116,-2.436853596157442,-1.145617865385814,-0.4
2.6542396606574763,-2.298056805479921,-1.0996761342466537,-0.39967613424665355
2.662234358430541,-2.2332349316442612,-1.088872488607377,-0.38887248860737694
2.6702290562036057,-2.1684130578086016,-1.0780688429681005,-0.37806884296810034
2.67822375397667,-2.103591183972946,-1.0672651973288243,-0.36726519732882434
2.6862184517497347,-2.0387693101372864,-1.0564615516895477,-0.35646155168954774
2.6942131495227994,-1.9739474363016267,-1.045657906050271,-0.34565790605027114
2.702207847295864,-1.909125562465967,-1.0348542604109945,-0.33485426041099453
2.710202545068929,-1.8443036886303075,-1.0240506147717179,-0.3240506147717179
2.7181972428419936,-1.7794818147946478,-1.0132469691324413,-0.3132469691324413
2.7261919406150583,-1.7146599409589882,-1.0024433234931647,-0.30244332349316466
2.734186638388123,-3.3058199067264176,-0.8024082372661039,-0.40100343219421
2.7421813361611878,-3.5551169340585433,-0.9055656278862938,-0.4439856782859558
2.7501760339342525,-3.804413961390669,-1.0087230185064837,-0.4869679243777016
2.758170731707317,-4.053710988722795,-1.1118804091266736,-0.5299501704694474
2.766165429480382,-4.30300801605492,-1.2150377997468635,-0.5729324165611932
2.7741601272534466,-4.5523050433870464,-1.3181951903670535,-0.615914662652939
2.7821548250265113,-4.801602070719172,-1.4213525809872436,-0.6588969087446848
2.7901495227995756,-5.050899098051284,-1.5245099716074277,-0.7018791548364283
2.7981442205726403,-5.30019612538341,-1.6276673622276177,-0.744861400928174
2.806138918345705,-5.549493152715535,-1.7308247528478076,-0.7878436470199199
2.8141336161187698,-5.798790180047661,-1.8339821434679975,-0.8308258931116657
2.8221283138918345,-6.048087207379787,-1.9371395340881874,-0.8738081392034115
2.830123011664899,-3.5962354188760557,-0.6246023329798311,-0.6192470837752111
2.838117709437964,-0.7780972902235965,-0.2912389160894386,-0.7
2.8461124072110286,-0.7355723020689969,-0.27422892082759875,-0.7
2.8541071049840934,-0.6930473139143972,-0.25721892556575887,-0.7
2.862101802757158,-0.6505223257597976,-0.24020893030391902,-0.7
2.870096500530223,-0.607997337605198,-0.22319893504207916,-0.7
2.8780911983032875,-0.5654723494505984,-0.20618893978023933,-0.7
2.8860858960763522,-0.5229473612959987,-0.18917894451839948,-0.7
2.894080593849417,-0.48042237314139913,-0.17216894925655962,-0.7
2.9020752916224812,-0.43789738498680186,-0.1551589539947207,-0.7
2.910069989395546,-0.3953723968322022,-0.13814895873288086,-0.7
2.9180646871686107,-0.3528474086776026,-0.12113896347104103,-0.7
2.9260593849416754,-0.31032242052300296,-0.10412896820920117,-0.7
2.93405408271474,-0.2003154825026497,0.10009013785789991,0.1
2.942048780487805,-0.246951219512194,0.11341463414634115,0.1
2.9500434782608695,-0.29358695652173833,0.12673913043478238,0.1
2.9580381760339343,-0.34022269353128265,0.14006362672322362,0.1
2.966032873806999,-0.3868584305408269,0.15338812301166485,0.1
2.9740275715800637,-0.4334941675503713,0.16671261930010609,0.1
2.9820222693531284,-0.4801299045599156,0.18003711558854732,0.1
2.990016967126193,-0.5267656415694599,0.19336161187698855,0.1
2.998011664899258,-0.5734013785790042,0.20668610816542976,0.1
3.0060063626723226,-0.6200371155885485,0.220010604453871,0.1
3.014001060445387,-0.6666728525980903,0.2333351007423115,0.1
3.0219957582184516,-0.7133085896076345,0.24665959703075274,0.1
3.0299904559915163,-0.7599443266171788,0.259984093319194,0.1
3.037985153764581,-0.8065800636267233,0.2733085896076352,0.1
3.0459798515376457,-0.8532158006362676,0.28663308589607644,0.1
3.0539745493107104,-0.8998515376458118,0.2999575821845177,0.1
3.061969247083775,0.3,0.2,-0.7
3.06996394485684,0.28099408203058235,0.19683234700509708,-0.696832347005097
3.0779586426299046,0.20362603906543972,0.1839376731775733,-0.6839376731775733
3.0859533404029693,0.1262579961002971,0.17104299935004952,-0.6710429993500495
3.093948038176034,0.04888995313515443,0.15814832552252575,-0.6581483255225257
3.1019427359490988,-0.028478089829988174,0.14525365169500198,-0.6452536516950019
3.1099374337221635,-0.10584613279513083,0.1323589778674782,-0.6323589778674782
3.117932131495228,-0.1832141757602735,0.11946430403995442,-0.6194643040399543
3.125926829268293,-0.26058221872541615,0.10656963021243065,-0.6065696302124306
3.133921527041357,0.7146871686107734,-0.04607635206786372,-0.9
3.141916224814422,2.642749780994973,0.2946562773756284,-0.9
3.1499109225874866,2.712268892065101,0.2859663884918624,-0.9
3.1579056203605513,2.7817880031352287,0.2772764996080964,-0.9
3.165900318133616,2.8513071142053565,0.26858661072433043,-0.9
3.1738950159066808,2.9208262252754844,0.25989672184056445,-0.9
3.1818897136797455,2.9903453363456127,0.2512068329567984,-0.9
3.18988441145281,3.0598644474157406,0.24251694407303245,-0.9
3.197879109225875,3.1293835584858685,0.23382705518926644,-0.9
3.2058738069989396,3.1989026695559963,0.22513716630550046,-0.9
3.2138685047720044,3.268421780626124,0.21644727742173447,-0.9
3.221863202545069,3.337940891696252,0.2077573885379685,-0.9
3.229857900318134,3.4,0.02841993637323939,-0.9857900318133803
3.2378525980911985,-0.3064103327892104,0.29679483360539477,0.571153502448553
3.245847295864263,-0.3243759457623886,0.2878120271188057,0.49030824406925133
3.2538419936373275,-0.3423415587355677,0.2788292206322161,0.4094629856899452
3.2618366914103922,-0.3603071717087469,0.26984641414562655,0.32861772731063904
3.269831389183457,-0.37827278468192604,0.260863607659037,0.24777246893133287
3.2778260869565217,-0.39623839765510516,0.25188080117244743,0.1669272105520267
3.2858207847295864,-0.4142040106282843,0.24289799468585785,0.08608195217272052
3.293815482502651,-0.4321696236014635,0.23391518819926826,0.005236693793414404
3.301810180275716,-0.4501352365746426,0.2249323817126787,-0.07560856458589182
3.3098048780487805,-0.4681008495478218,0.21594957522608912,-0.15645382296519794
3.3177995758218453,-0.48606646252100094,0.20696676873949954,-0.23729908134450406
3.32579427359491,0.35295157299398855,0.21323789324849715,-0.6
3.3337889713679747,-0.4155885471898393,0.2,-0.34220572640508035
3.3417836691410394,-0.4920574804683272,0.21588503906334564,-0.2841149609366544
3.349778366914104,-0.483899625597853,0.23220074880429406,-0.26779925119570597
3.3577730646871684,-0.4757417707273792,0.24851645854524157,-0.25148354145475843
3.365767762460233,-0.467583915856905,0.26483216828619,-0.23516783171381
3.373762460233298,-0.4594260609864308,0.2811478780271384,-0.21885212197286158
3.3817571580063626,-0.4512682061159566,0.29746358776808685,-0.20253641223191315
3.3897518557794273,-0.44311035124548237,0.31377929750903527,-0.18622070249096473
3.397746553552492,-0.43495249637500816,0.3300950072499837,-0.1699049927500163
3.4057412513255567,-0.42679464150453394,0.3464107169909321,-0.15358928300906788
3.4137359490986214,-0.41863678663405973,0.36272642673188055,-0.13727357326811945
3.421730646871686,-0.4104789317635855,0.37904213647282897,-0.12095786352717103
3.429725344644751,-0.4023210768931113,0.3953578462137774,-0.1046421537862226
3.4377200424178156,-0.3360021208907798,0.17279957582184405,-0.4455991516436881
3.4457147401908803,-0.7714740190880389,0.02852598091196104,-0.19278897136794154
3.453709437963945,-0.8832264050901376,-0.0916132025450688,0.03354718981972479
3.4617041357370097,-0.8632396606574758,-0.08161983032873792,0.07352067868504834
3.469698833510074,-0.8432529162248151,-0.07162645811240759,0.11349416755036969
3.4776935312831387,-0.8232661717921533,-0.061633085896076696,0.15346765641569324
3.4856882290562035,-0.8032794273594916,-0.051639713679745805,0.1934411452810168
3.493682926829268,-0.7832926829268299,-0.041646341463414914,0.23341463414634037
3.501677624602333,-0.7633059384941681,-0.03165296924708402,0.27338812301166393
3.5096723223753976,-0.7433191940615063,-0.02165959703075314,0.31336161187698747
3.5176670201484623,-0.7233324496288445,-0.011666224814422255,0.353335100742311
3.525661717921527,-0.7033457051961827,-0.0016728525980913567,0.3933085896076346
3.5336564156945918,-0.7,-0.04141039236479346,0.0
3.5416511134676565,-0.6805134018356674,-0.1,0.0064955327214441866
3.549645811240721,-0.6529454784802718,-0.1,0.015684840506576026
3.557640509013786,-0.6253775551248764,-0.1,0.02487414829170787
3.5656352067868506,-0.5978096317694809,-0.1,0.03406345607683971
3.5736299045599154,-0.5702417084140854,-0.1,0.04325276386197155
3.5816246023329796,-0.5426737850586913,-0.1,0.05244207164710288
3.5896193001060444,-0.5151058617032959,-0.1,0.06163137943223471
3.597613997879109,-0.4875379383479003,-0.1,0.07082068721736656
3.605608695652174,-0.4599700149925048,-0.1,0.08000999500249839
3.6136033934252385,-0.4324020916371093,-0.1,0.08919930278763023
3.6215980911983032,-0.40483416828171376,-0.1,0.09838861057276208
3.629592788971368,-0.2,0.017697655237420548,-0.017697655237420548
3.6375874867444327,-0.2,0.10067527212003753,-0.1
3.6455821845174974,-0.2,0.10986457990516937,-0.1
3.653576882290562,-0.2,0.11905388769030122,-0.1
3.661571580063627,-0.2,0.12824319547543306,-0.1
3.6695662778366915,-0.2,0.1374325032605649,-0.1
3.6775609756097563,-0.2,0.14662181104569674,-0.1
3.685555673382821,-0.2,0.15581111883082857,-0.1
3.6935503711558857,-0.2,0.16500042661596043,-0.1
3.70154506892895,-0.2,0.17418973440109176,-0.1
3.7095397667020147,-0.2,0.18337904218622358,-0.1
3.7175344644750794,-0.2,0.1925683499713554,-0.1
3.725529162248144,-0.2,0.2,-0.17645811240720455
3.733523860021209,-0.0023810000200084535,0.2,-0.09761899997999156
3.7415185577942736,-0.009923167730446845,0.2,-0.09007683226955315
3.7495132555673383,-0.017465335440885237,0.2,-0.08253466455911476
3.757507953340403,-0.025007503151323628,0.2,-0.07499249684867637
3.7655026511134677,-0.03254967086176202,0.2,-0.06745032913823798
3.7734973488865324,-0.04009183857220041,0.2,-0.059908161427799596
3.781492046659597,-0.0476340062826388,0.2,-0.052365993717361205
3.789486744432662,-0.05517617399307719,0.2,-0.044823826006922814
3.7974814422057266,-0.06271834170351559,0.2,-0.037281658296484416
3.8054761399787913,-0.07026050941395398,0.2,-0.029739490586046025
3.8134708377518556,-0.07780267712439196,0.2,-0.02219732287560805
3.8214655355249203,-0.08534484483483035,0.2,-0.014655155165169659
3.829460233297985,-0.09288701254526874,0.2,-0.007112987454731268
3.8374549310710497,-0.1,0.17725344644752017,0.0
3.8454496288441145,-0.1403101802757155,0.1,-0.080620360551431
3.853444326617179,-0.19027704135736995,0.1,-0.18055408271473988
3.861439024390244,-0.1947091932457788,0.0,-0.08941838649155755
3.8694337221633086,-0.1824096582102946,0.0,-0.06481931642058916
3.8774284199363733,-0.1701101231748104,0.0,-0.04022024634962078
3.885423117709438,-0.1578105881393262,0.0,-0.015621176278652393
3.8934178154825028,-0.14551105310384202,0.0,0.008977893792315991
3.9014125132555675,-0.13321151806835782,0.0,0.033576963863284376
3.909407211028632,-0.12091198303287362,0.0,0.058176033934252774
3.917401908801697,-0.10861244799738944,0.0,0.08277510400522115
3.925396606574761,-0.07004241781548565,0.0,0.07004241781548565
3.933391304347826,0.0,0.0,0.0
3.9413860021208906,-0.1,0.0,-0.005854350131402944
3.9493806998939553,-0.1,0.0,-0.014544239015168978
3.95737539766702,-0.1,0.0,-0.02323412789893501
3.965370095440085,-0.1,0.0,-0.03192401678270104
3.9733647932131495,-0.1,0.0,-0.040613905666467075
3.9813594909862142,-0.1,0.0,-0.049303794550233114
3.989354188759279,-0.1,0.0,-0.057993683433999146
3.9973488865323437,-0.1,0.0,-0.06668357231776517
4.005343584305408,-0.1,0.0,-0.07537346120153121
4.013338282078473,-0.1,0.0,-0.08406335008529676
4.021332979851538,-0.1,0.0,-0.09275323896906328
4.029327677624602,-0.1,0.0,-0.1
4.037322375397667,-0.06776246023327784,0.0,-0.06776246023327784
4.0453170731707315,0.0,-0.008130081300812535,0.0
4.053311770943797,0.0,-0.017013078826440507,0.0
4.061306468716861,0.0,-0.025896076352067494,0.0
4.069301166489926,0.0,-0.034779073877695466,0.0
4.07729586426299,0.0,-0.043662071403322456,0.0
4.085290562036056,0.0,-0.052545068928950424,0.0
4.09328525980912,0.0,-0.061428066454577414,0.0
4.101279957582184,0.0,-0.0703110639802044,0.0
4.109274655355249,0.0,-0.07919406150583237,0.0
4.1172693531283135,0.0,-0.08807705903145936,0.0
4.125264050901379,0.0,-0.09696005655708732,0.0
4.133258748674443,-0.08706256627784974,-0.1,0.0
4.141253446447508,0.006012929276450341,-0.1,0.006012929276450341
4.149248144220572,0.013700138673627522,-0.1,0.013700138673627522
4.157242841993638,0.021387348070805556,-0.1,0.021387348070805556
4.165237539766702,0.029074557467982737,-0.1,0.029074557467982737
4.173232237539767,0.03676176686516077,-0.1,0.03676176686516077
4.181226935312831,0.04444897626233795,-0.1,0.04444897626233795
4.1892216330858965,0.052136185659515985,-0.1,0.052136185659515985
4.197216330858961,0.059823395056693165,-0.1,0.059823395056693165
4.205211028632026,0.0675106044538712,-0.1,0.0675106044538712
4.21320572640509,0.07519781385104839,-0.1,0.07519781385104839
4.221200424178154,0.08288502324822557,-0.1,0.08288502324822557
4.22919512195122,0.0905722326454036,-0.1,0.0905722326454036
4.237189819724284,0.09825944204258077,-0.1,0.09825944204258077
4.245184517497349,0.017539766702009407,-0.14123011664899532,0.1
4.253179215270413,-0.08905620360551653,-0.19452810180275826,0.1
4.2611739130434785,-0.1,-0.14710144927536084,0.052898550724639185
4.269168610816543,-0.1,-0.11360160741195423,0.11360160741195423
4.277163308589608,-0.1,-0.13464028576212606,0.13464028576212606
4.285158006362672,-0.1,-0.15567896411229556,0.15567896411229556
4.293152704135737,-0.1,-0.1767176424624674,0.1767176424624674
4.301147401908802,-0.1,-0.1977563208126369,0.1977563208126369
4.309142099681867,0.40198626031629037,-0.1,0.2
4.317136797454931,0.4158900825303152,-0.1,0.2
4.325131495227995,0.42979390474434,-0.1,0.2
4.3331261930010605,0.4436977269583663,-0.1,0.2
4.341120890774125,0.4576015491723911,-0.1,0.2
4.34911558854719,0.47150537138641746,-0.1,0.2
4.357110286320254,0.48540919360044227,-0.1,0.2
4.365104984093319,0.4993130158144686,-0.1,0.2
4.373099681866384,0.5132168380284934,-0.1,0.2
4.381094379639449,0.5271206602425197,-0.1,0.2
4.389089077412513,0.5410244824565446,-0.1,0.2
4.397083775185578,0.5549283046705709,-0.1,0.2
4.4050784729586425,0.5688321268845957,-0.1,0.2
4.413073170731708,0.582735949098622,-0.1,0.2
4.421067868504772,0.5966397713126468,-0.1,0.2
4.429062566277837,1.0969677561605575,0.0,0.2
4.437057264050901,1.089052213810989,0.0,0.2
4.445051961823966,1.0811366714614203,0.0,0.2
4.453046659597031,1.073221129111851,0.0,0.2
4.461041357370095,1.0653055867622823,0.0,0.2
4.46903605514316,1.057390044412713,0.0,0.2
4.4770307529162245,1.0494745020631442,0.0,0.2
4.48502545068929,1.0415589597135748,0.0,0.2
4.493020148462354,1.0336434173640061,0.0,0.2
4.501014846235419,1.0257278750144367,0.0,0.2
4.509009544008483,1.017812332664868,0.0,0.2
4.517004241781549,1.0098967903152987,0.0,0.2
4.524998939554613,1.00198124796573,0.0,0.2
4.532993637327678,0.6004241781547935,0.05010604453869838,0.30021208907739677
4.540988335100742,0.2,0.0,0.2
4.548983032873807,0.2,0.0,0.2
4.556977730646872,0.2,0.0,0.2
4.564972428419936,0.2,0.0,0.2
4.572967126193001,0.2,0.0,0.2
4.580961823966065,0.2,0.0,0.2
4.588956521739131,0.2,0.0,0.2
4.596951219512195,0.2,0.0,0.2
4.60494591728526,0.2,0.0,0.2
4.612940615058324,0.2,0.0,0.2
4.6209353128313895,0.2,0.0,0.2
4.628930010604454,0.2,0.0,0.2
4.636924708377519,0.17103112719106392,0.0,0.2
4.644919406150583,0.12400349323186326,0.0,0.2
4.652914103923648,-0.09570519618243789,0.0,0.3
4.660908801696713,0.0,0.0,0.3
4.668903499469777,0.0,0.0,0.3
4.676898197242842,0.0,0.0,0.3
4.684892895015906,0.0,0.0,0.3
4.6928875927889715,0.0,0.0,0.3
4.700882290562036,0.0,0.0,0.3
4.708876988335101,0.0,0.0,0.3
4.716871686108165,0.0,0.0,0.3
4.72486638388123,0.0,0.0,0.3
4.732861081654295,-0.031018027571578354,0.0,0.3
4.74085577942736,-0.1,0.0,0.4
4.748850477200424,-0.1,0.0,0.4
4.756845174973489,-0.1,0.0,0.4
4.7648398727465535,-0.1,0.0,0.4
4.772834570519619,-0.1,0.0,0.4
4.780829268292683,-0.1,0.0,0.4
4.788823966065747,-0.1,0.0,0.4
4.796818663838812,-0.1,0.0,0.4
4.804813361611877,-0.1,0.0,0.4
4.812808059384942,-0.1,0.0,0.4
4.820802757158006,-0.1,0.0,0.4
4.828797454931071,-0.13987274655355306,0.0,0.4
4.8367921527041355,-0.1,0.0,0.5
4.844786850477201,-0.1,0.0,0.5
4.852781548250265,-0.1,0.0,0.5
4.86077624602333,-0.1,0.0,0.5
4.868770943796394,-0.1,0.0,0.5
4.87676564156946,-0.1,0.0,0.5
4.884760339342524,-0.1,0.0,0.5
4.892755037115588,-0.1,0.0,0.5
4.900749734888653,-0.1,0.0,0.5
4.908744432661718,-0.1,0.0,0.5
4.916739130434783,-0.1,0.0,0.5
4.924733828207847,-0.1,0.0,0.5
4.932728525980912,-0.1,0.0,0.5
4.940723223753976,-0.1,0.03616118769880615,0.5
4.948717921527042,0.20429480381760384,0.20214740190880193,0.4
4.956712619300106,0.2242815482502645,0.21214077412513227,0.4
4.964707317073171,0.24426829268292738,0.2221341463414637,0.4
4.972702014846235,0.26425503711558807,0.23212751855779404,0.4
4.9806967126193005,0.28424178154825097,0.24212089077412546,0.4
4.988691410392365,0.3042285259809116,0.2521142629904558,0.4
4.99668610816543,0.3242152704135745,0.26210763520678726,0.4
5.004680805938494,0.34420201484623514,0.2721010074231176,0.4
5.0126755037115585,0.3641887592788958,0.28209437963944795,0.4
5.020670201484624,0.38417550371155873,0.29208775185577934,0.4
5.028664899257688,0.4,0.3,0.4
5.036659597030753,0.20848807563006355,0.3028293585433545,0.40282935854335455
5.044654294803817,0.23400306852282177,0.3113343561742739,0.41133435617427394
5.0526489925768825,0.25951806141558287,0.3198393538051943,0.41983935380519427
5.060643690349947,0.2850330543083411,0.3283443514361137,0.4283443514361137
5.068638388123012,0.3105480472011022,0.33684934906703407,0.43684934906703404
5.076633085896076,0.3360630400938604,0.34535434669795345,0.4453543466979535
5.084627783669141,0.3615780329866215,0.35385934432887384,0.4538593443288738
5.092622481442206,0.3870930258793797,0.3623643419597932,0.46236434195979326
5.100617179215271,0.4126080187721408,0.3708693395907136,0.4708693395907136
5.108611876988335,0.43812301166489903,0.37937433722163305,0.47937433722163303
5.1166065747614,0.46363800455766013,0.3878793348525534,0.48787933485255336
5.1246012725344645,0.48915299745041835,0.3963843324834728,0.4963843324834728
5.132595970307529,0.6162248144220556,0.3,0.4837751855779444
5.140590668080594,0.6661916755037127,0.3,0.4338083244962872
5.148585365853658,0.16219512195127636,0.14146341463418427,0.5
5.156580063626723,0.05262460233297901,0.09052492046659581,0.4905249204665958
5.164574761399788,0.002657741251327339,0.08053154825026547,0.48053154825026545
5.172569459172853,-0.04730911983032987,0.07053817603393403,0.47053817603393405
5.180564156945917,-0.09727598091198156,0.060544803817603694,0.4605448038176037
5.188558854718982,-0.14724284199363877,0.05055143160127225,0.45055143160127226
5.1965535524920465,-0.19720970307529043,0.04055805938494192,0.4405580593849419
5.204548250265112,-0.2471765641569477,0.030564687168610466,0.43056468716861046
5.212542948038176,-0.2971434252385994,0.020571314952280137,0.4205713149522802
5.220537645811241,-0.34711028632025653,0.010577942735948698,0.4105779427359487
5.228532343584305,-0.39707714740190825,0.0005845705196183548,0.4005845705196184
5.23652704135737,-0.18423471191232005,-0.1,0.4
5.244521739130435,-0.18495652173913046,-0.09247826086956523,0.3924782608695652
5.252516436903499,-0.16896712619300186,-0.08448356309650093,0.38448356309650095
5.260511134676564,-0.15297773064687148,-0.07648886532343574,0.37648886532343573
5.268505832449629,-0.13698833510074288,-0.06849416755037144,0.36849416755037145
5.276500530222694,-0.1209989395546125,-0.06049946977730625,0.36049946977730624
5.284495227995758,-0.10500954400848389,-0.052504772004241945,0.35250477200424196
5.292489925768823,-0.08902014846235351,-0.044510074231176755,0.34451007423117674
5.300484623541887,-0.0730307529162249,-0.03651537645811245,0.33651537645811247
5.308479321314953,-0.057041357370094525,-0.028520678685047263,0.32852067868504725
5.316474019088017,-0.04105196182396592,-0.02052598091198296,0.3205259809119829
5.324468716861082,-0.02506256627783554,-0.01253128313891777,0.31253128313891776
5.332463414634146,-0.009073170731706937,-0.004536585365853468,0.30453658536585343
5.3404581124072115,-0.15418875927885448,0.14581124072114554,0.2541887592788545
5.348452810180276,-0.1,0.2,0.2
5.35644750795334,-0.09608781634232544,0.2,0.1980439081711627
5.364442205726405,-0.0744805250637709,0.2,0.18724026253188544
5.3724369034994695,-0.05287323378521876,0.2,0.1764366168926094
5.380431601272535,-0.031265942506664215,0.2,0.16563297125333212
5.388426299045599,-0.009658651228112075,0.2,0.15482932561405605
5.396420996818664,0.011948640050442466,0.2,0.14402567997477878
5.404415694591728,0.03355593132899459,0.2,0.13322203433550273
5.4124103923647935,0.055163222607549134,0.2,0.12241838869622544
5.420405090137858,0.07677051388610129,0.2,0.11161474305694936
5.428399787910923,0.0983778051646558,0.2,0.10081109741767211
5.436394485683987,0.20042417815482502,0.0,0.0
5.444389183457052,0.20902062737317464,0.0,0.0
5.452383881230117,0.21761707659152335,0.0,0.0
5.460378579003181,0.22621352580987203,0.0,0.0
5.468373276776246,0.23480997502822165,0.0,0.0
5.47636797454931,0.24340642424657033,0.0,0.0
5.4843626723223755,0.25200287346492,0.0,0.0
5.49235737009544,0.2605993226832687,0.0,0.0
5.500352067868505,0.2691957719016183,0.0,0.0
5.508346765641569,0.277792221119967,0.0,0.0
5.516341463414634,0.2863886703383166,0.0,0.0
5.524336161187699,0.2949851195566653,0.0,0.0
5.532330858960764,0.4330858960763828,0.1,-0.08345705196180862
5.540325556733828,0.6451825480987727,0.14518254809877273,0.0
5.548320254506893,0.7,0.2,0.000400318133616517
5.5563149522799575,0.7,0.2,0.010393690349946852
5.564309650053023,0.7,0.2,0.020387062566278296
5.572304347826087,0.7,0.2,0.03038043478260863
5.580299045599151,0.7,0.2,0.040373806998938964
5.588293743372216,0.7,0.2,0.05036717921527041
5.596288441145281,0.7,0.2,0.06036055143160074
5.604283138918346,0.7,0.2,0.07035392364793218
5.61227783669141,0.7,0.2,0.08034729586426252
5.620272534464475,0.7,0.2,0.09034066808059396
5.6282672322375396,0.6732767762460413,0.2,0.07327677624604133
5.636261930010605,0.1,0.0,0.19769190815244453
5.644256627783669,0.1,0.0,0.18953405328197076
5.652251325556734,0.1,0.0,0.1813761984114961
5.660246023329798,0.1,0.0,0.17321834354102233
5.668240721102864,0.1,0.0,0.16506048867054768
5.676235418875928,0.1,0.0,0.1569026338000739
5.684230116648993,0.1,0.0,0.14874477892959925
5.692224814422057,0.1,0.0,0.14058692405912548
5.700219512195122,0.1,0.0,0.13242906918865172
5.708214209968187,0.1,0.0,0.12427121431817706
5.716208907741251,0.1,0.0,0.1161133594477033
5.724203605514316,0.1,0.0,0.10795550457722863
5.7321983032873804,0.1,0.0033050547896705663,0.10330505478967057
5.740193001060446,1.9034059010666835,0.7784292932443374,0.0
5.74818769883351,2.044488802944293,-0.11509575198052169,0.0
5.756182396606575,2.185571704821918,-1.0086207972054801,0.0
5.764177094379639,1.8764316012725641,1.5815913308589808,0.4433755302226987
5.7721717921527045,1.3767629904559922,1.2443150185577945,0.35593352332979855
5.780166489925769,0.8770943796394752,0.9070387062566457,0.26849151643690816
5.788161187698834,0.377425768822903,0.5697623939554595,0.18104950954400806
5.796155885471898,-0.12224284199361346,0.23248608165431062,0.09360750265111761
5.8041505832449625,-0.6219114528101302,-0.10479023064683823,0.006165495758227224
5.812145281018028,-1.1215800636267024,-0.44206654294802417,-0.08127651113467294
5.820139978791092,-1.621248674443219,-0.7793428552491732,-0.16871851802756332
5.828134676564157,0.5775539059738714,0.08204312477909707,0.4775539059738713
5.836129374337221,0.2866835134586333,0.19001263509397498,0.2033291216353417
5.8441240721102865,0.25266352293495153,0.16449764220121366,0.2118341192662621
5.852118769883351,0.21864353241127354,0.13898264930845516,0.2203391168971816
5.860113467656416,0.18462354188759178,0.11346765641569385,0.22884411452810205
5.86810816542948,0.15060355136391382,0.08795266352293536,0.23734911215902155
5.876102863202545,0.11658356084023205,0.06243767063017405,0.245854109789942
5.88409756097561,0.08256357031655409,0.03692267773741556,0.2543591074208615
5.892092258748675,0.04854357979287233,0.011407684844654237,0.2628641050517819
5.900086956521739,0.014523589269194337,-0.014107308048104256,0.2713691026827014
5.908081654294804,-0.019496401254487428,-0.03962230094086555,0.2798741003136218
5.9160763520678685,-0.05351639177816536,-0.06513729383362404,0.2883790979445413
5.924071049840933,-0.08753638230184335,-0.09065228672638254,0.2968840955754608
5.932065747613998,-0.1844291268999695,0.15328738069990852,0.2155708731000305
5.940060445387062,-0.2999271742324556,0.1998543484649112,0.3000728257675444
5.948055143160127,-0.2902950082408107,0.1805900164816215,0.30970499175918925
5.956049840933192,-0.28066284224916693,0.16132568449833393,0.31933715775083305
5.964044538706257,-0.2710306762575221,0.14206135251504423,0.3289693237424779
5.972039236479321,-0.26139851026587835,0.12279702053175665,0.3386014897341217
5.980033934252386,-0.2517663442742335,0.10353268854846694,0.34823365572576653
5.9880286320254505,-0.24213417828258968,0.08426835656517936,0.3578658217174103
5.996023329798516,-0.23250201229094483,0.06500402458188964,0.3674979877090552
6.00401802757158,-0.22286984629930107,0.04573969259860208,0.37713015370069897
6.012012725344645,-0.2132376803076562,0.02647536061531236,0.3867623196923438
6.020007423117709,-0.20360551431601243,0.007211028632024802,0.3963944856839876
6.028002120890774,-0.5,0.2,0.4
6.035996818663839,-0.7,0.10172139539986125,0.2982786046001388
6.043991516436903,-0.7,0.10861337623870973,0.29138662376129026
6.051986214209968,-0.7,0.11550535707755898,0.28449464292244103
6.059980911983033,-0.7,0.12239733791640744,0.2776026620835925
6.067975609756098,-0.7,0.1292893187552567,0.2707106812447433
6.075970307529162,-0.7,0.1361812995941052,0.26381870040589483
6.083965005302227,-0.7,0.14307328043295442,0.2569267195670456
6.091959703075291,-0.7,0.1499652612718029,0.2500347387281971
6.099954400848357,-0.7,0.15685724211065216,0.24314275788934786
6.107949098621421,-0.7,0.16374922294950062,0.23625077705049938
6.115943796394486,-0.7,0.17064120378834988,0.22935879621165012
6.12393849416755,-0.7,0.17753318462719836,0.22246681537280166
6.1319331919406155,-0.7,0.1844251654660476,0.21557483453395243
6.13992788971368,-0.7,0.1913171463048961,0.20868285369510392
6.147922587486744,-0.7,0.19820912714374456,0.20179087285625547
6.155917285259809,-0.4524814422057152,0.15082714740190506,0.05082714740190506
6.1639119830328735,-0.3291198303287368,-0.016479321314947212,-0.05823966065747361
6.171906680805939,-0.41026431101062305,-0.3051321555053115,-0.203421437003541
6.179901378579003,-0.5007703235358791,-0.35038516176793955,-0.23359010784529305
6.187896076352068,-0.5912763360611452,-0.39563816803057256,-0.2637587786870484
6.195890774125132,-0.6817823485864012,-0.44089117429320057,-0.2939274495288004
6.2038854718981975,-0.7722883611116673,-0.48614418055583364,-0.3240961203705558
6.211880169671262,-0.8627943736369234,-0.5313971868184617,-0.3542647912123078
6.219874867444327,-0.9533003861621895,-0.5766501930810948,-0.38443346205406315
6.227869565217391,-1.0,-0.6773913043478219,-0.47739130434782195
6.235864262990456,1.5884684763476926,0.29807807939128206,-0.29423423817384625
6.243858960763521,1.5390167375452333,0.2898361229242055,-0.26950836877261664
6.251853658536586,1.4895649987427686,0.2815941664571281,-0.24478249937138427
6.25984835630965,1.4401132599403095,0.27335220999005155,-0.22005662997015468
6.267843054082714,1.3906615211378501,0.265110253522975,-0.19533076056892507
6.2758377518557795,1.3412097823353855,0.2568682970558976,-0.1706048911676927
6.283832449628844,1.2917580435329263,0.24862634058882105,-0.1458790217664631
6.291827147401909,1.2423063047304614,0.2403843841217436,-0.12115315236523075
6.299821845174973,1.1928545659280023,0.23214242765466706,-0.09642728296400116
6.307816542948038,1.1434028271255376,0.2239004711875896,-0.0717014135627688
6.315811240721103,1.0939510883230783,0.21565851472051306,-0.04697554416153921
6.323805938494168,1.0444993495206136,0.20741655825343563,-0.022249674760306815
6.331800636267232,0.5196182396607123,-0.040190880169643894,0.0
6.339795334040297,-1.0968940732885584,0.20621185342288342,-0.29689407328855827
6.3477900318133615,-1.0880110757629313,0.22397784847413738,-0.2880110757629313
6.355784729586427,-1.0791280782373034,0.24174384352539333,-0.27912807823730335
6.363779427359491,-1.0702450807116763,0.2595098385766473,-0.27024508071167636
6.371774125132555,-1.0613620831860495,0.27727583362790126,-0.26136208318604937
6.37976882290562,-1.0524790856604214,0.29504182867915724,-0.2524790856604214
6.387763520678685,-1.0435960881347945,0.31280782373041116,-0.24359608813479441
6.39575821845175,-1.0347130906091664,0.33057381878166714,-0.23471309060916645
6.403752916224814,-1.0258300930835396,0.3483398138329211,-0.22583009308353946
6.411747613997879,-1.0169470955579114,0.3661058088841771,-0.21694709555791147
6.419742311770944,-1.0080640980322846,0.383871803935431,-0.20806409803228448
6.427737009544009,-0.926299045599112,0.436850477200444,-0.16314952279955602
6.435731707317073,0.4016651031894931,1.2016651031894932,0.4016651031894931
6.443726405090138,0.40935231258667115,1.2093523125866712,0.40935231258667115
6.451721102863202,0.41703952198384836,1.2170395219838483,0.41703952198384836
6.459715800636268,0.4247267313810264,1.2247267313810264,0.4247267313810264
6.467710498409332,0.43241394077820355,1.2324139407782035,0.43241394077820355
6.475705196182397,0.4401011501753816,1.2401011501753816,0.4401011501753816
6.483699893955461,0.44778835957255875,1.2477883595725587,0.44778835957255875
6.491694591728526,0.45547556896973596,1.2554755689697359,0.45547556896973596
6.499689289501591,0.463162778366914,1.263162778366914,0.463162778366914
6.507683987274655,0.47084998776409115,1.270849987764091,0.47084998776409115
6.51567868504772,0.4785371971612692,1.2785371971612691,0.4785371971612692
6.5236733828207845,0.48622440655844634,1.2862244065584465,0.48622440655844634
6.53166808059385,0.4939116159556244,1.2939116159556245,0.4939116159556244
6.539662778366914,0.5831389183456912,1.2168610816543086,0.5
6.547657476139979,0.7640887744281192,1.0906074837145872,0.5
6.555652173913043,1.1753623188405002,1.0,0.5
6.5636468716861085,1.7323435843054127,1.0,0.5
6.571641569459173,1.9304365210437546,0.9923908697390613,0.5
6.579636267232238,1.9828607687359854,0.9792848078160037,0.5
6.587630965005302,2.03528501642821,0.9661787458929475,0.5
6.5956256627783665,2.0877092641204347,0.9530726839698913,0.5
6.603620360551432,2.1401335118126656,0.9399666220468336,0.5
6.611615058324496,2.1925577595048904,0.9268605601237774,0.5
6.619609756097561,2.244982007197121,0.9137544982007197,0.5
6.627604453870625,2.2974062548893457,0.9006484362776636,0.5
6.6355991516436905,1.2700424178154601,-0.07004241781546011,0.1
6.643593849416755,1.2,-0.007326499351950191,0.1
6.65158854718982,1.2,-0.016209496877578077,0.1
6.659583244962884,1.2,-0.025092494403204976,0.1
6.667577942735949,1.2,-0.03397549192883286,0.1
6.675572640509014,1.2,-0.04285848945445976,0.1
6.683567338282079,1.2,-0.051741486980087646,0.1
6.691562036055143,1.2,-0.060624484505714546,0.1
6.699556733828208,1.2,-0.06950748203134244,0.1
6.7075514316012725,1.2,-0.07839047955696933,0.1
6.715546129374337,1.2,-0.08727347708259624,0.1
6.723540827147402,1.2,-0.09615647460822412,0.1
6.731535524920466,0.17741251325565616,-0.43806998939547503,0.5535524920466063
6.739530222693531,-0.3941157611778342,-0.697057880588917,0.002942119411082914
6.747524920466596,-0.3755234407753592,-0.6877617203876796,0.01223827961232041
6.755519618239661,-0.35693112037288216,-0.678465560186441,0.02153443981355894
6.763514316012725,-0.33833879997040717,-0.6691693999852035,0.030830600014796438
6.77150901378579,-0.3197464795679301,-0.6598732397839651,0.040126760216034965
6.779503711558855,-0.30115415916545507,-0.6505770795827275,0.04942292041727246
6.78749840933192,-0.282561838762978,-0.641280919381489,0.05871908061851099
6.795493107104984,-0.26396951836050303,-0.6319847591802514,0.0680152408197485
6.803487804878049,-0.24537719795802598,-0.622688598979013,0.07731140102098702
6.811482502651113,-0.226784877555551,-0.6133924387777755,0.08660756122222452
6.819477200424179,-0.20819255715307394,-0.6040962785765369,0.09590372142346304
6.827471898197243,-0.2447189819724257,-0.5552810180275742,0.1447189819724257
6.835466595970307,-0.819989395546054,-0.7466595970307026,0.0266702014846487
6.843461293743372,-0.894798767863455,-0.694798767863455,-0.1
6.851455991516437,-0.8871847699843461,-0.6871847699843461,-0.1
6.859450689289502,-0.8795707721052365,-0.6795707721052364,-0.1
6.867445387062566,-0.8719567742261276,-0.6719567742261275,-0.1
6.875440084835631,-0.8643427763470178,-0.6643427763470178,-0.1
6.8834347826086955,-0.856728778467909,-0.6567287784679089,-0.1
6.891429480381761,-0.8491147805887993,-0.6491147805887992,-0.1
6.899424178154825,-0.8415007827096904,-0.6415007827096904,-0.1
6.90741887592789,-0.8338867848305808,-0.6338867848305807,-0.1
6.915413573700954,-0.8262727869514719,-0.6262727869514718,-0.1
6.9234082714740195,-0.8186587890723621,-0.618658789072362,-0.1
6.931402969247084,-0.8110447911932532,-0.6110447911932533,-0.1
6.939397667020148,-0.8034307933141445,-0.6034307933141444,-0.1
6.947392364793213,-0.8,-0.5511959467420731,-0.1
6.9553870625662775,-0.9193531283138725,-0.38064687168612754,-0.11935312831387251
6.963381760339343,-0.9825157250976911,-0.2825157250976911,-0.2
6.971376458112407,-0.9606124435276521,-0.2606124435276521,-0.2
6.979371155885472,-0.9387091619576107,-0.23870916195761066,-0.2
6.987365853658536,-0.9168058803875717,-0.21680588038757168,-0.2
6.9953605514316015,-0.8949025988175303,-0.19490259881753025,-0.2
7.003355249204666,-0.8729993172474912,-0.17299931724749126,-0.2
7.011349946977731,-0.85109603567745,-0.15109603567744986,-0.2
7.019344644750795,-0.8291927541074109,-0.12919275410741088,-0.2
7.02733934252386,-0.8072894725373695,-0.10728947253736945,-0.2
7.035334040296925,-0.5,-0.2666808059384941,-0.1666808059384941
7.04332873806999,-0.3035412107127551,-0.2,-0.1
7.051323435843054,-0.31204620834367447,-0.2,-0.1
7.059318133616118,-0.3205512059745939,-0.2,-0.1
7.0673128313891835,-0.32905620360551424,-0.2,-0.1
7.075307529162248,-0.3375612012364337,-0.2,-0.1
7.083302226935313,-0.346066198867354,-0.2,-0.1
7.091296924708377,-0.35457119649827346,-0.2,-0.1
7.099291622481442,-0.3630761941291938,-0.2,-0.1
7.107286320254507,-0.3715811917601132,-0.2,-0.1
7.115281018027572,-0.3800861893910336,-0.2,-0.1
7.123275715800636,-0.388591187021953,-0.2,-0.1
7.131270413573701,-0.3970961846528734,-0.2,-0.1
7.139265111346766,-0.8088370448921771,-0.15441852244608856,0.0
7.147259809119831,-0.191872199226898,-0.1,0.1
7.155254506892895,-0.14029350391680587,-0.1,0.1
7.163249204665959,-0.08871480860671375,-0.1,0.1
7.171243902439024,-0.0371361132966159,-0.1,0.1
7.179238600212089,0.014442582013476202,-0.1,0.1
7.187233297985154,0.06602127732357405,-0.1,0.1
7.195227995758218,0.11759997263366617,-0.1,0.1
7.203222693531283,0.16917866794376402,-0.1,0.1
7.211217391304348,0.22075736325385614,-0.1,0.1
7.219212089077413,0.272336058563954,-0.1,0.1
7.227206786850477,0.32391475387404606,-0.1,0.1
7.235201484623542,0.3754934491841439,-0.1,0.1
7.2431961823966065,1.2373276776243645,-0.38038176033937654,-0.019618239660623475
7.251190880169672,2.512977200424178,-0.2,-0.1
7.259185577942736,2.532963944856839,-0.2,-0.1
7.267180275715801,2.552950689289502,-0.2,-0.1
7.275174973488865,2.572937433722163,-0.2,-0.1
7.28316967126193,2.592924178154824,-0.2,-0.1
7.291164369034995,2.612910922587487,-0.2,-0.1
7.299159066808059,2.632897667020148,-0.2,-0.1
7.307153764581124,2.652884411452811,-0.2,-0.1
7.3151484623541885,2.672871155885472,-0.2,-0.1
7.323143160127254,2.692857900318135,-0.2,-0.1
7.331137857900318,2.3379639448571155,-0.21378579003175216,-0.5310710498412393
7.339132555673383,2.5731972428420047,0.05994167550371632,-0.1365986214210022
7.347127253446447,2.9139255760146527,0.15822327195604216,-0.14681866383882122
7.3551219512195125,2.9320953436807096,0.10371396895787063,0.053048780487807645
7.363116648992577,2.950265111346765,0.049204665959705185,0.2529162248144143
7.371111346765642,2.968434879012822,-0.005304637038466342,0.4527836691410431
7.379106044538706,2.9866046466788774,-0.05981394003663182,0.6526511134676498
7.387100742311771,3.0047744143449346,-0.11432324303480335,0.8525185577942787
7.395095440084836,3.0229441820109897,-0.16883254603296882,1.0523860021208853
7.4030901378579,3.0411139496770447,-0.22334184903113424,1.252253446447492
7.411084835630965,3.059283717343102,-0.27785115202930577,1.4521208907741208
7.419079533404029,3.077453485009157,-0.3323604550274713,1.6519883351007274
7.4270742311770945,3.0956232526752143,-0.3868697580256428,1.8518557794273562
7.435068928950159,0.12587486744443377,-1.1206786850476282,0.9
7.443063626723224,-0.8509971607429911,-1.472776200412773,0.9727762004127729
7.451058324496288,-0.773629117777853,-1.4297939543210294,0.9297939543210294
7.459053022269353,-0.6962610748127063,-1.3868117082292812,0.8868117082292812
7.467047720042418,-0.618893031847568,-1.3438294621375377,0.8438294621375378
7.475042417815483,-0.5415249888824213,-1.3008472160457896,0.8008472160457896
7.483037115588547,-0.4641569459172831,-1.2578649699540463,0.7578649699540462
7.491031813361612,-0.3867889029521364,-1.214882723862298,0.714882723862298
7.4990265111346766,-0.3094208599869982,-1.1719004777705546,0.6719004777705546
7.507021208907741,-0.23205281702185998,-1.1289182316788111,0.6289182316788111
7.515015906680806,-0.15468477405671321,-1.085935985587063,0.585935985587063
7.52301060445387,-0.07731673109157511,-1.0429537394953194,0.5429537394953196
7.531005302226935,0.0007953340403596529,-0.9997348886532135,0.49867444326606725
7.539,-0.2,-1.0,0.3
