accel_time_list,vertical_Accel_x,vertical_Accel_y,vertical_Accel_z
0.0,2.098,-6.984,7.435
0.007997542997542998,2.3255547790711724,-5.894979316872759,8.198000402787288
0.015995085995085995,2.2806505417489022,-5.908942240302896,8.08996801868933
0.023992628992628995,2.235746304426632,-5.9229051637330326,7.981935634591373
0.03199017199017199,2.190842067104362,-5.936868087163169,7.873903250493415
0.03998771498771499,2.145937829782092,-5.950831010593306,7.765870866395457
0.04798525798525799,2.101033592459822,-5.964793934023442,7.6578384822975
0.055982800982800986,2.0561293551375517,-5.978756857453579,7.549806098199541
0.06398034398034398,2.0112251178152816,-5.992719780883715,7.441773714101584
0.07197788697788698,1.9663208804930115,-6.006682704313852,7.333741330003625
0.07997542997542997,1.9214166431707416,-6.020645627743988,7.225708945905668
0.08797297297297298,1.8765124058484715,-6.0346085511741245,7.117676561807709
0.09597051597051598,1.8316081685262011,-6.048571474604262,7.009644177709752
0.10396805896805897,1.7867039312039312,-6.062534398034398,6.901611793611794
0.11196560196560197,1.7417996938816611,-6.076497321464535,6.7935794095138355
0.11996314496314496,1.696895456559391,-6.090460244894671,6.685547025415878
0.12796068796068796,1.8282493857493858,-6.012681818181818,7.245315724815725
0.13595823095823095,1.7890292333149476,-5.929936168079025,7.148744020458307
0.14395577395577397,1.7971083838940982,-5.901128691771549,7.18408010329439
0.15195331695331696,1.8051875344732489,-5.872321215464073,7.219416186130472
0.15995085995085995,1.8132666850523993,-5.843513739156596,7.254752268966555
0.16794840294840296,1.82134583563155,-5.81470626284912,7.290088351802638
0.17594594594594595,1.8294249862107006,-5.785898786541644,7.3254244346387205
0.18394348894348894,1.837504136789851,-5.757091310234167,7.360760517474803
0.19194103194103196,1.8455832873690017,-5.7282838339266915,7.396096600310886
0.19993857493857495,1.8536624379481523,-5.699476357619215,7.431432683146969
0.20793611793611794,1.8617415885273028,-5.670668881311739,7.466768765983052
0.21593366093366093,1.8698207391064534,-5.641861405004263,7.502104848819135
0.22393120393120394,1.877899889685604,-5.613053928696786,7.537440931655217
0.23192874692874693,1.9382966830466832,-5.4997285012285015,7.623082923832924
0.23992628992628992,2.0944597737272157,-5.890012456431061,7.447649620021713
0.24792383292383294,2.08116153362665,-5.898753956916748,7.470526312782127
0.2559213759213759,2.0678632935260843,-5.907495457402434,7.4934030055425405
0.26391891891891894,2.0545650534255184,-5.91623695788812,7.516279698302954
0.2719164619164619,2.041266813324953,-5.924978458373808,7.539156391063368
0.2799140049140049,2.027968573224387,-5.933719958859494,7.562033083823781
0.28791154791154794,2.0146703331238216,-5.94246145934518,7.584909776584196
0.2959090909090909,2.0013720930232557,-5.951202959830867,7.6077864693446084
0.3039066339066339,1.9880738529226902,-5.959944460316553,7.630663162105023
0.31190417690417693,1.9747756128221245,-5.968685960802239,7.6535398548654365
0.3199017199017199,1.9614773727215589,-5.977427461287926,7.67641654762585
0.3278992628992629,2.0515749385749387,-6.056061425061425,7.814508599508599
0.33589680589680593,2.081292874692875,-5.754850286650286,8.37371001911002
0.3438943488943489,2.074095085995086,-5.745786404586404,8.35140576030576
0.3518918918918919,2.0668972972972974,-5.7367225225225225,8.329101501501501
0.3598894348894349,2.0596995085995085,-5.727658640458641,8.306797242697243
0.3678869778869779,2.05250171990172,-5.718594758394758,8.284492983892983
0.3758845208845209,2.0453039312039314,-5.709530876330876,8.262188725088725
0.3838820638820639,2.0381061425061424,-5.7004669942669945,8.239884466284465
0.3918796068796069,2.030908353808354,-5.691403112203112,8.217580207480207
0.3998771498771499,2.023710565110565,-5.68233923013923,8.195275948675949
0.40787469287469286,2.0165127764127764,-5.673275348075348,8.172971689871689
0.4158722358722359,2.0093149877149874,-5.664211466011467,8.150667431067431
0.4238697788697789,2.002117199017199,-5.655147583947584,8.128363172263173
0.43186732186732185,2.309099024644479,-5.562118978482615,8.765129923311742
0.43986486486486487,2.317742833742834,-5.551294021294021,8.71528665028665
0.4478624078624079,2.326386642841188,-5.5404690641054275,8.665443377261559
0.45585995085995085,2.335030451939543,-5.529644106916834,8.615600104236467
0.46385749385749386,2.3436742610378976,-5.518819149728241,8.565756831211376
0.4718550368550369,2.352318070136252,-5.507994192539647,8.515913558186286
0.47985257985257984,2.3609618792346065,-5.497169235351054,8.466070285161194
0.48785012285012286,2.369605688332961,-5.48634427816246,8.416227012136103
0.4958476658476659,2.3782494974313155,-5.475519320973866,8.366383739111011
0.5038452088452089,2.3868933065296702,-5.464694363785273,8.31654046608592
0.5118427518427519,2.3955371156280245,-5.45386940659668,8.26669719306083
0.5198402948402948,2.4041809247263792,-5.443044449408086,8.216853920035739
0.5278378378378379,2.4128247338247335,-5.432219492219493,8.167010647010647
0.5358353808353808,2.534412366912366,-5.402378378378378,8.459420147420147
0.5438329238329238,2.2796210816210816,-5.352419688419689,8.087935361935363
0.5518304668304669,2.2756662526662526,-5.3470586980586985,8.098393687393688
0.5598280098280098,2.2717114237114235,-5.341697707697708,8.108852012852013
0.5678255528255528,2.2677565947565945,-5.336336717336717,8.119310338310338
0.5758230958230959,2.263801765801766,-5.330975726975727,8.129768663768663
0.5838206388206388,2.259846936846937,-5.325614736614737,8.14022698922699
0.5918181818181818,2.255892107892108,-5.320253746253747,8.150685314685315
0.5998157248157249,2.251937278937279,-5.314892755892756,8.16114364014364
0.6078132678132678,2.24798244998245,-5.309531765531766,8.171601965601965
0.6158108108108108,2.244027621027621,-5.304170775170776,8.182060291060292
0.6238083538083539,2.240072792072792,-5.298809784809785,8.192518616518617
0.6318058968058968,2.3815372645372643,-5.2034774774774775,7.918092547092546
0.6398034398034398,2.3848754026754024,-5.21577229047229,7.70740171990172
0.6478009828009829,2.384519956319956,-5.223680971880972,7.711400491400492
0.6557985257985258,2.38416450996451,-5.231589653289653,7.715399262899263
0.6637960687960688,2.383809063609063,-5.239498334698335,7.719398034398035
0.6717936117936119,2.383453617253617,-5.247407016107016,7.723396805896806
0.6797911547911548,2.3830981708981707,-5.255315697515697,7.727395577395578
0.6877886977886978,2.3827427245427244,-5.263224378924379,7.731394348894349
0.6957862407862409,2.382387278187278,-5.27113306033306,7.7353931203931205
0.7037837837837838,2.3820318318318314,-5.279041741741741,7.739391891891892
0.7117813267813268,2.381676385476385,-5.286950423150423,7.743390663390664
0.7197788697788698,2.381320939120939,-5.294859104559104,7.747389434889436
0.7277764127764128,2.3460614250614227,-5.253862407862405,7.843393120393126
0.7357739557739558,2.3734496314496316,-5.231324324324325,8.021235872235872
0.7437714987714988,2.444642791840466,-5.316403348380093,7.9423525512827835
0.7517690417690418,2.3993543797497283,-5.319379178332667,7.911292326152791
0.7597665847665848,2.354065967658991,-5.322355008285241,7.8802321010227985
0.7677641277641278,2.308777555568253,-5.325330838237815,7.8491718758928055
0.7757616707616708,2.2634891434775155,-5.32830666819039,7.8181116507628134
0.7837592137592138,2.2182007313867778,-5.331282498142964,7.787051425632821
0.7917567567567567,2.1729123192960405,-5.334258328095538,7.755991200502828
0.7997542997542998,2.1276239072053023,-5.337234158048112,7.7249309753728355
0.8077518427518428,2.082335495114565,-5.340209988000686,7.693870750242843
0.8157493857493857,2.037047083023827,-5.34318581795326,7.662810525112851
0.8237469287469288,1.991758670933089,-5.346161647905834,7.631750299982858
0.8317444717444717,2.153628148034398,-5.484566492628993,7.591403255528256
0.8397420147420147,2.1603760749385748,-5.501394656019656,7.595735257985258
0.8477395577395578,2.167124001842752,-5.518222819410319,7.600067260442261
0.8557371007371007,2.173871928746929,-5.535050982800983,7.604399262899263
0.8637346437346437,2.1806198556511056,-5.551879146191646,7.6087312653562655
0.8717321867321868,2.1873677825552824,-5.568707309582309,7.613063267813268
0.8797297297297297,2.1941157094594597,-5.585535472972973,7.61739527027027
0.8877272727272727,2.2008636363636365,-5.602363636363636,7.621727272727273
0.8957248157248158,2.2076115632678133,-5.619191799754299,7.626059275184275
0.9037223587223587,2.21435949017199,-5.636019963144963,7.6303912776412774
0.9117199017199017,2.221107417076167,-5.652848126535626,7.63472328009828
0.9197174447174448,2.227855343980344,-5.669676289926289,7.639055282555282
0.9277149877149877,2.070982800982809,-5.8144127764127695,7.528601965601971
0.9357125307125307,1.8552076167076132,-5.866694103194102,7.690461916461918
0.9437100737100738,1.8504113943488945,-5.8621292997543,7.6810646498771495
0.9517076167076167,1.8321669993857497,-5.853965141277642,7.67698257063882
0.9597051597051597,1.8139226044226047,-5.845800982800983,7.672900491400491
0.9677027027027028,1.7956782094594594,-5.837636824324324,7.668818412162162
0.9757002457002457,1.7774338144963147,-5.829472665847666,7.664736332923833
0.9836977886977887,1.7591894195331697,-5.821308507371008,7.660654253685504
0.9916953316953317,1.7409450245700246,-5.813144348894349,7.656572174447175
0.9996928746928747,1.7227006296068796,-5.804980190417691,7.6524900952088455
1.0076904176904178,1.7044562346437346,-5.796816031941032,7.648408015970516
1.0156879606879607,1.6862118396805896,-5.7886518734643735,7.644325936732187
1.0236855036855037,1.6679674447174448,-5.780487714987715,7.640243857493857
1.0316830466830467,1.6497230497542998,-5.772323556511057,7.636161778255528
1.0396805896805896,1.7900376110376108,-5.762541107541107,7.677705726705727
1.0476781326781326,1.805329616329616,-5.774581364581364,7.674893403893404
1.0556756756756758,1.8206216216216218,-5.786621621621621,7.672081081081081
1.0636732186732187,1.835913626913627,-5.798661878661878,7.669268758268759
1.0716707616707617,1.8512056322056323,-5.810702135702136,7.6664564354564355
1.0796683046683047,1.8664976374976374,-5.822742392742392,7.663644112644113
1.0876658476658476,1.8817896427896428,-5.83478264978265,7.66083178983179
1.0956633906633906,1.897081648081648,-5.846822906822907,7.658019467019467
1.1036609336609338,1.9123736533736535,-5.858863163863164,7.655207144207145
1.1116584766584767,1.9276656586656589,-5.870903420903421,7.652394821394822
1.1196560196560197,1.942957663957664,-5.882943677943678,7.6495824985824985
1.1276535626535626,1.9864103194103222,-5.933867321867326,7.569226044226037
1.1356511056511056,1.8000108108108093,-5.986369533169534,7.275513513513512
1.1436486486486486,1.6889540229885056,-6.064483069276174,7.434853681267474
1.1516461916461918,1.6957565308254965,-5.981014459600666,7.48449360332119
1.1596437346437347,1.702559038662487,-5.89754584992516,7.534133525374905
1.1676412776412777,1.7093615464994776,-5.814077240249654,7.583773447428619
1.1756388206388206,1.716164054336468,-5.730608630574148,7.6334133694823345
1.1836363636363636,1.7229665621734587,-5.647140020898642,7.68305329153605
1.1916339066339066,1.7297690700104493,-5.563671411223137,7.732693213589765
1.1996314496314497,1.73657157784744,-5.4802028015476285,7.782333135643481
1.2076289926289927,1.7433740856844304,-5.396734191872122,7.831973057697196
1.2156265356265357,1.750176593521421,-5.313265582196617,7.881612979750911
1.2236240786240786,1.7569791013584117,-5.22979697252111,7.931252901804626
1.2316216216216216,2.077849076799572,-4.9752740165908484,7.762403264650789
1.2396191646191645,2.0630417447150124,-4.99166502055611,7.780457124090788
1.2476167076167077,2.0482344126304524,-5.008056024521371,7.798510983530786
1.2556142506142507,2.0334270805458927,-5.024447028486633,7.8165648429707835
1.2636117936117937,2.0186197484613326,-5.0408380324518935,7.834618702410782
1.2716093366093366,2.003812416376773,-5.057229036417155,7.852672561850779
1.2796068796068796,1.9890050842922133,-5.0736200403824165,7.870726421290778
1.2876044226044225,1.9741977522076535,-5.090011044347678,7.888780280730775
1.2956019656019657,1.9593904201230934,-5.1064020483129395,7.906834140170774
1.3035995085995087,1.9445830880385335,-5.122793052278201,7.924887999610772
1.3115970515970516,1.9297757559539739,-5.1391840562434625,7.942941859050769
1.3195945945945946,1.914968423869414,-5.155575060208723,7.960995718490768
1.3275921375921376,1.9001610917848542,-5.171966064173985,7.979049577930765
1.3355896805896805,1.647142506142507,-5.610041769041765,8.217176904176902
1.3435872235872237,1.6010451269451267,-5.840639120939121,8.27390212940213
1.3515847665847667,1.5853166257166256,-5.862054763854765,8.272569205569205
1.3595823095823096,1.5695881244881245,-5.883470406770408,8.271236281736282
1.3675798525798526,1.5538596232596233,-5.90488604968605,8.269903357903358
1.3755773955773956,1.5381311220311222,-5.926301692601693,8.268570434070433
1.3835749385749385,1.522402620802621,-5.947717335517336,8.26723751023751
1.3915724815724817,1.5066741195741193,-5.969132978432979,8.265904586404586
1.3995700245700247,1.4909456183456182,-5.990548621348622,8.264571662571662
1.4075675675675676,1.4752171171171171,-6.011964264264265,8.263238738738739
1.4155651105651106,1.459488615888616,-6.033379907179907,8.261905814905814
1.4235626535626535,1.443760114660115,-6.05479555009555,8.260572891072892
1.4315601965601965,1.4525806715806713,-6.045759213759214,8.289641277641277
1.4395577395577397,1.478,-6.016,8.338
1.4475552825552827,1.5360142625996285,-6.0028753520704745,8.161657038413136
1.4555528255528256,1.5548377479475042,-6.002485228021813,8.126155749985019
1.4635503685503686,1.5736612332953797,-6.0020951039731525,8.0906544615569
1.4715479115479115,1.5924847186432551,-6.001704979924492,8.055153173128783
1.4795454545454545,1.6113082039911308,-6.001314855875831,8.019651884700666
1.4875429975429977,1.6301316893390068,-6.000924731827171,7.9841505962725465
1.4955405405405406,1.6489551746868825,-6.00053460777851,7.94864930784443
1.5035380835380836,1.667778660034758,-6.00014448372985,7.913148019416312
1.5115356265356266,1.6866021453826334,-5.999754359681189,7.877646730988194
1.5195331695331695,1.7054256307305091,-5.999364235632528,7.842145442560077
1.5275307125307125,1.7099680589680581,-5.994046683046682,7.80534398034398
1.5355282555282557,1.5135839475839448,-5.919402948402947,7.750249795249794
1.5435257985257986,1.7249787695904202,-5.819410510245461,7.703219698957564
1.5515233415233416,1.7214070513585076,-5.8006978125521815,7.703607929200163
1.5595208845208846,1.7178353331265952,-5.781985114858901,7.703996159442761
1.5675184275184275,1.7142636148946828,-5.763272417165621,7.7043843896853605
1.5755159705159705,1.7106918966627704,-5.744559719472341,7.70477261992796
1.5835135135135134,1.707120178430858,-5.725847021779061,7.705160850170559
1.5915110565110566,1.7035484601989457,-5.70713432408578,7.705549080413158
1.5995085995085996,1.6999767419670333,-5.6884216263925005,7.705937310655758
1.6075061425061425,1.696405023735121,-5.66970892869922,7.706325540898357
1.6155036855036855,1.6928333055032085,-5.65099623100594,7.706713771140956
1.6235012285012285,1.689261587271296,-5.63228353331266,7.707102001383555
1.6314987714987714,1.6856898690393836,-5.613570835619379,7.707490231626154
1.6394963144963146,1.6821181508074712,-5.594858137926099,7.707878461868753
1.6474938574938576,1.6322951099658416,-5.518427608317852,7.819325462935219
1.6554914004914005,1.6370741295619344,-5.525352310181578,7.8084019895727215
1.6634889434889435,1.641853149158027,-5.532277012045305,7.797478516210224
1.6714864864864865,1.6466321687541199,-5.539201713909031,7.786555042847726
1.6794840294840294,1.6514111883502127,-5.546126415772757,7.7756315694852285
1.6874815724815726,1.6561902079463056,-5.553051117636484,7.764708096122731
1.6954791154791156,1.6609692275423982,-5.55997581950021,7.753784622760232
1.7034766584766585,1.665748247138491,-5.566900521363936,7.742861149397735
1.7114742014742015,1.6705272667345838,-5.573825223227662,7.731937676035237
1.7194717444717444,1.6753062863306765,-5.580749925091388,7.721014202672739
1.7274692874692874,1.6800853059267693,-5.587674626955115,7.710090729310242
1.7354668304668306,1.5272923832923821,-5.62823832923833,7.685307125307126
1.7434643734643736,1.586,-5.735,7.849
1.7514619164619165,1.586,-5.735,7.849
1.7594594594594595,1.586,-5.735,7.849
1.7674570024570024,1.586,-5.735,7.849
1.7754545454545454,1.586,-5.735,7.849
1.7834520884520886,1.586,-5.735,7.849
1.7914496314496315,1.586,-5.735,7.849
1.7994471744471745,1.586,-5.735,7.849
1.8074447174447175,1.586,-5.735,7.849
1.8154422604422604,1.586,-5.735,7.849
1.8234398034398034,1.586,-5.735,7.849
1.8314373464373466,1.4117359194859198,-5.891339775089775,7.781285957285957
1.8394348894348895,1.4251933235683238,-5.879266561141561,7.78651512001512
1.8474324324324325,1.4386507276507279,-5.867193347193347,7.791744282744283
1.8554299754299755,1.452108131733132,-5.8551201332451335,7.796973445473445
1.8634275184275184,1.465565535815536,-5.84304691929692,7.802202608202608
1.8714250614250614,1.47902293989794,-5.830973705348706,7.807431770931771
1.8794226044226046,1.4924803439803442,-5.818900491400491,7.812660933660934
1.8874201474201475,1.5059377480627483,-5.806827277452277,7.817890096390096
1.8954176904176905,1.5193951521451523,-5.7947540635040635,7.8231192591192595
1.9034152334152334,1.5328525562275563,-5.78268084955585,7.828348421848422
1.9114127764127764,1.5463099603099604,-5.770607635607636,7.833577584577585
1.9194103194103194,1.5597673643923644,-5.758534421659422,7.838806747306747
1.9274078624078625,1.5732247684747687,-5.746461207711208,7.8440359100359105
1.9354054054054055,1.586,-5.735,7.849
1.9434029484029485,1.5484864572364574,-5.6998037908037915,7.718317333567334
1.9514004914004914,1.5569600444600444,-5.710086346086347,7.720126301626301
1.9593980343980344,1.5654336316836317,-5.720368901368902,7.72193526968527
1.9673955773955774,1.573907218907219,-5.730651456651457,7.723744237744238
1.9753931203931205,1.5823808061308062,-5.740934011934012,7.725553205803206
1.9833906633906635,1.5908543933543935,-5.751216567216567,7.727362173862174
1.9913882063882065,1.5993279805779808,-5.7614991224991225,7.729171141921142
1.9993857493857494,1.607801567801568,-5.771781677781679,7.73098010998011
2.0073832923832926,1.6162751550251553,-5.782064233064234,7.732789078039078
2.0153808353808356,1.6247487422487426,-5.792346788346789,7.734598046098046
2.0233783783783785,1.6332223294723298,-5.802629343629344,7.736407014157014
2.0313759213759215,1.4701130221130216,-5.853425412425413,7.467879606879607
2.0393734643734645,1.505188878533706,-5.745433364398882,7.641103024654749
2.0473710073710074,1.509233612923268,-5.733299161230196,7.643309243412691
2.0553685503685504,1.51327834731283,-5.72116495806151,7.645515462170635
2.0633660933660933,1.517323081702392,-5.709030754892824,7.647721680928577
2.0713636363636363,1.521367816091954,-5.696896551724138,7.649927899686521
2.0793611793611793,1.525412550481516,-5.684762348555452,7.652134118444463
2.087358722358722,1.529457284871078,-5.672628145386766,7.654340337202406
2.095356265356265,1.53350201926064,-5.66049394221808,7.656546555960349
2.1033538083538086,1.5375467536502019,-5.648359739049394,7.658752774718292
2.1113513513513515,1.5415914880397639,-5.636225535880708,7.6609589934762345
2.1193488943488945,1.5456362224293259,-5.624091332712022,7.663165212234178
2.1273464373464375,1.5404725634725622,-5.5866224406224365,7.623709254709249
2.1353439803439804,1.3410447993447994,-5.39246137046137,7.252417089817089
2.1433415233415234,1.3413113841113842,-5.3773549003548995,7.242997761397761
2.1513390663390664,1.3415779688779688,-5.36224843024843,7.233578432978432
2.1593366093366093,1.3418445536445536,-5.347141960141959,7.224159104559104
2.1673341523341523,1.3421111384111384,-5.33203549003549,7.214739776139776
2.1753316953316952,1.3423777231777232,-5.31692901992902,7.205320447720448
2.183329238329238,1.342644307944308,-5.30182254982255,7.195901119301119
2.191326781326781,1.3429108927108928,-5.28671607971608,7.186481790881791
2.1993243243243246,1.3431774774774776,-5.271609609609609,7.177062462462462
2.2073218673218675,1.3434440622440622,-5.256503139503139,7.167643134043134
2.2153194103194105,1.343710647010647,-5.241396669396669,7.1582238056238054
2.2233169533169534,1.3439772317772318,-5.226290199290199,7.148804477204477
2.2313144963144964,0.5133983073983097,-4.297684411684414,6.915561561561562
2.2393120393120394,-0.14071211249934581,-3.5530316796487016,6.386499660201787
2.2473095823095823,-0.05971571958805953,-3.6263708505410635,6.334685791207067
2.2553071253071253,0.02128067332322675,-3.6997100214334258,6.2828719222123475
2.2633046683046683,0.10227706623451308,-3.773049192325788,6.231058053217628
2.271302211302211,0.18327345914579932,-3.84638836321815,6.179244184222908
2.279299754299754,0.26426985205708564,-3.9197275341105122,6.127430315228187
2.287297297297297,0.3452662449683719,-3.993066705002874,6.075616446233467
2.2952948402948405,0.4262626378796627,-4.06640587589524,6.023802577238745
2.3032923832923835,0.5072590307909489,-4.139745046787603,5.971988708244025
2.3112899262899265,0.5882554237022353,-4.213084217679965,5.920174839249305
2.3192874692874694,0.6692518166135215,-4.286423388572327,5.868360970254585
2.3272850122850124,0.7502482095248079,-4.359762559464689,5.816547101259865
2.3352825552825554,0.5200769860769681,-4.163099918099902,5.75864537264537
2.3432800982800983,-0.15704832104833533,-3.5786128173628047,5.691999180999179
2.3512776412776413,-0.4684528375382037,-3.0497348235153114,4.13277698208186
2.3592751842751842,-0.572128303469767,-3.1053275004494516,3.9809211961407085
2.367272727272727,-0.6758037694013301,-3.1609201773835918,3.829065410199557
2.37527027027027,-0.7794792353328933,-3.216512854317732,3.677209624258406
2.383267813267813,-0.8831547012644565,-3.272105531251872,3.5253538383172542
2.3912653562653565,-0.9868301671960256,-3.3276982081860154,3.3734980523760942
2.3992628992628995,-1.0905056331275886,-3.3832908851201555,3.221642266434943
2.4072604422604424,-1.194181099059152,-3.438883562054296,3.0697864804937915
2.4152579852579854,-1.297856564990715,-3.494476238988436,2.9179306945526404
2.4232555282555284,-1.4015320309222783,-3.5500689159225765,2.766074908611489
2.4312530712530713,-2.0753169533170195,-3.1354428746928242,2.2520104422603975
2.4392506142506143,-3.524896554612465,-1.265004523118161,0.7843158364976509
2.4472481572481573,-3.6205944270717003,-1.397872794281886,0.4578706723252158
2.4552457002457,-3.716292299530936,-1.530741065445611,0.13142550815278076
2.463243243243243,-3.8119901719901716,-1.663609336609336,-0.19501965601965443
2.471240786240786,-3.907688044449407,-1.796477607773061,-0.5214648201920895
2.479238329238329,-4.003385916908643,-1.929345878936786,-0.8479099843645246
2.4872358722358725,-4.099083789367883,-2.0622141501005187,-1.1743551485369779
2.4952334152334155,-4.194781661827119,-2.1950824212642432,-1.5008003127094127
2.5032309582309584,-4.290479534286354,-2.3279506924279687,-1.827245476881848
2.5112285012285014,-4.38617740674559,-2.4608189635916933,-2.1536906410542827
2.5192260442260443,-4.481875279204826,-2.5936872347554187,-2.480135805226718
2.5272235872235873,-5.85986486486489,3.071432432432541,-9.42357985257998
2.5352211302211303,-12.199533611241474,1.354060099936507,-18.205039781354387
2.5432186732186732,-11.098478618557273,2.2579621787262223,-18.709154570300637
2.551216216216216,-9.997423625873072,3.161864257515938,-19.213269359246883
2.559213759213759,-8.89636863318887,4.065766336305653,-19.71738414819313
2.567211302211302,-7.795313640504668,4.969668415095368,-20.22149893713938
2.575208845208845,-6.694258647820466,5.873570493885084,-20.725613726085626
2.583206388206388,-5.593203655136265,6.7774725726747995,-21.229728515031873
2.5912039312039314,-4.492148662452003,7.681374651464565,-21.733843303978148
2.5992014742014744,-3.3910936697678,8.58527673025428,-22.237958092924394
2.6071990171990174,-2.290038677083599,9.489178809043995,-22.742072881870644
2.6151965601965603,-1.188983684399398,10.39308088783371,-23.24618767081689
2.6231941031941033,4.30757493857497,19.809322686322744,-21.80917854217853
2.6311916461916462,9.406348615719734,16.39324245801562,-9.953510043314164
2.639189189189189,8.973904151574244,15.41300752298688,-9.889612148230704
2.647186732186732,8.541459687428752,14.43277258795814,-9.825714253147241
2.655184275184275,8.109015223283262,13.4525376529294,-9.761816358063781
2.663181818181818,7.67657075913777,12.472302717900659,-9.697918462980319
2.671179361179361,7.244126294992279,11.492067782871917,-9.634020567896858
2.679176904176904,6.811681830846787,10.511832847843177,-9.570122672813396
2.6871744471744474,6.379237366701272,9.531597912814382,-9.50622477772993
2.6951719901719904,5.9467929025557815,8.551362977785642,-9.44232688264647
2.7031695331695333,5.51434843841029,7.5711280427569,-9.378428987563007
2.7111670761670763,5.081903974264799,6.59089310772816,-9.314531092479546
2.7191646191646193,4.649459510119308,5.61065817269942,-9.250633197396084
2.7271621621621622,3.305874822190639,5.631126600284479,-9.711621621621608
2.735159705159705,0.5690314237682599,7.181808095176519,-10.975233415233419
2.743157248157248,-1.90989189189177,8.540270270270174,-11.742570024569744
2.751154791154791,0.7452882882882821,6.3805719355719415,-6.197408044408045
2.759152334152334,1.0874054054053977,6.036973791973799,-6.170650832650833
2.767149877149877,1.4295225225225137,5.693375648375657,-6.143893620893621
2.77514742014742,1.7716396396396292,5.349777504777515,-6.1171364091364095
2.7831449631449634,2.1137567567567643,5.0061793611793535,-6.090379197379197
2.7911425061425064,2.4558738738738795,4.662581217581211,-6.063621985621985
2.7991400491400493,2.7979909909909955,4.31898307398307,-6.036864773864774
2.8071375921375923,3.1401081081081115,3.9753849303849274,-6.010107562107562
2.8151351351351352,3.4822252252252266,3.631786786786785,-5.98335035035035
2.823132678132678,3.8243423423423426,3.288188643188643,-5.9565931385931385
2.831130221130221,3.879046683046687,3.7616265356265384,-11.996491400491413
2.839127764127764,4.381597327664744,3.032562736382959,-9.010414929740776
2.847125307125307,4.411251138779229,2.9214957347541604,-9.113753968473072
2.85512285012285,4.4409049498937145,2.8104287331253612,-9.217093007205369
2.863120393120393,4.470558761008199,2.6993617314965626,-9.320432045937665
2.871117936117936,4.500212572122685,2.5882947298677634,-9.423771084669962
2.8791154791154794,4.529866383237171,2.477227728238958,-9.527110123402263
2.8871130221130223,4.559520194351657,2.3661607266101594,-9.63044916213456
2.8951105651105653,4.589174005466142,2.2550937249813607,-9.733788200866856
2.9031081081081083,4.618827816580627,2.1440267233525616,-9.837127239599154
2.9111056511056512,4.648481627695112,2.0329597217237625,-9.94046627833145
2.919103194103194,4.678135438809598,1.9218927200949638,-10.043805317063747
2.927100737100737,5.190171990172025,1.4394594594594317,-11.243194103194181
2.93509828009828,4.235637218245913,-1.873787950005339,-8.854848199978635
2.943095823095823,4.305181070398461,-2.2987878164725943,-8.782348734109604
2.951093366093366,4.3747249225510085,-2.72378768293985,-8.709849268240573
2.959090909090909,4.444268774703556,-3.1487875494071056,-8.637349802371542
2.967088452088452,4.513812626856104,-3.573787415874361,-8.564850336502513
2.9750859950859954,4.583356479008654,-3.99878728234164,-8.492350870633476
2.9830835380835383,4.652900331161202,-4.423787148808896,-8.419851404764447
2.9910810810810813,4.722444183313749,-4.848787015276151,-8.347351938895416
2.9990786240786242,4.7919880354662965,-5.273786881743407,-8.274852473026385
3.007076167076167,4.8615318876188445,-5.698786748210662,-8.202353007157354
3.01507371007371,4.931075739771392,-6.123786614677917,-8.129853541288323
3.023071253071253,4.962592137592177,-6.505312039312081,-8.07850307125305
3.031068796068796,3.1255733005733006,-3.8292626945126944,-9.041553849303849
3.039066339066339,3.192219492219492,-3.772613431613432,-9.07687633087633
3.047063882063882,3.1663624663624668,-3.7275691178191184,-9.11480572130572
3.055061425061425,3.128278928278929,-3.6840586755586764,-9.153079677079676
3.063058968058968,3.090195390195391,-3.6405482332982344,-9.191353632853632
3.0710565110565113,3.0521118521118513,-3.5970377910377898,-9.22962758862759
3.0790540540540543,3.0140283140283133,-3.5535273487773478,-9.267901544401544
3.0870515970515973,2.9759447759447752,-3.510016906516906,-9.3061755001755
3.0950491400491402,2.937861237861237,-3.466506464256464,-9.344449455949457
3.103046683046683,2.8997776997776996,-3.422996021996022,-9.382723411723413
3.111044226044226,2.8616941616941616,-3.37948557973558,-9.420997367497367
3.119041769041769,2.8236106236106235,-3.335975137475138,-9.459271323271324
3.127039312039312,2.394103194103157,-2.8717002457002314,-10.111734643734668
3.135036855036855,1.791231777231777,-2.7314226044226024,-10.537190827190829
3.143034398034398,1.7738607698607696,-2.641127764127763,-10.569266994266995
3.151031941031941,1.7564897624897624,-2.5508329238329233,-10.601343161343163
3.159029484029484,1.7391187551187552,-2.4605380835380837,-10.633419328419329
3.167027027027027,1.721747747747748,-2.3702432432432445,-10.665495495495495
3.1750245700245703,1.7043767403767398,-2.2799484029484,-10.697571662571665
3.1830221130221132,1.6870057330057326,-2.1896535626535605,-10.729647829647831
3.191019656019656,1.6696347256347255,-2.099358722358721,-10.761723996723997
3.199017199017199,1.6522637182637183,-2.0090638820638813,-10.793800163800164
3.207014742014742,1.634892710892711,-1.918769041769042,-10.825876330876332
3.215012285012285,1.6175217035217038,-1.8284742014742026,-10.857952497952498
3.223009828009828,1.6001506961506966,-1.738179361179363,-10.890028665028664
3.231007371007371,1.0267403503209909,-4.319032258064516,-13.882014107949592
3.239004914004914,0.7450204486010903,-4.3540322580645165,-13.897321233256717
3.247002457002457,0.4633005468811898,-4.389032258064517,-13.912628358563842
3.255,0.18158064516128924,-4.424032258064516,-13.927935483870968
3.262997542997543,-0.10013925655861122,-4.459032258064516,-13.943242609178093
3.2709950859950863,-0.38185915827852734,-4.494032258064518,-13.958549734485219
3.278992628992629,-0.6635790599984279,-4.529032258064518,-13.973856859792344
3.286990171990172,-0.9452989617183283,-4.564032258064517,-13.98916398509947
3.294987714987715,-1.2270188634382289,-4.5990322580645175,-14.004471110406595
3.302985257985258,-1.5087387651581292,-4.634032258064517,-14.019778235713721
3.310982800982801,-1.79045866687803,-4.669032258064517,-14.035085361020846
3.318980343980344,-2.0721785685979306,-4.704032258064517,-14.05039248632797
3.326977886977887,-2.187457002457001,-3.7135184275184088,-11.732285012284969
3.33497542997543,-2.2426990832474702,-3.029949169110459,-10.984882513011545
3.342972972972973,-2.1656474861958737,-2.969494623655914,-10.80962452775356
3.350970515970516,-2.088595889144277,-2.909040078201369,-10.634366542495576
3.358968058968059,-2.01154429209268,-2.848585532746824,-10.459108557237592
3.3669656019656022,-1.934492695041079,-2.7881309872922753,-10.283850571979597
3.374963144963145,-1.8574410979894824,-2.72767644183773,-10.108592586721613
3.382960687960688,-1.7803895009378856,-2.667221896383185,-9.933334601463628
3.390958230958231,-1.7033379038862888,-2.6067673509286395,-9.758076616205644
3.398955773955774,-1.6262863068346922,-2.5463128054740944,-9.58281863094766
3.406953316953317,-1.5492347097830954,-2.4858582600195493,-9.407560645689674
3.41495085995086,-1.4721831127314986,-2.4254037145650043,-9.23230266043169
3.422948402948403,-1.395131515679902,-2.364949169110459,-9.057044675173707
3.430945945945946,0.8520682788051205,-0.6326813655761043,-5.523652916073969
3.438943488943489,0.8886886072675538,-0.4617864994180822,-5.559431397905081
3.446941031941032,0.8452469287469416,-0.5081461916461583,-6.223843980343873
3.454938574938575,0.7576262769946981,-0.7061714729083153,-7.049938704254492
3.462936117936118,0.7548902754429069,-0.6787062265614886,-7.181266778740468
3.470933660933661,0.7521542738911159,-0.6512409802146635,-7.312594853226436
3.478931203931204,0.7494182723393249,-0.6237757338678384,-7.443922927712405
3.486928746928747,0.7466822707875339,-0.5963104875210132,-7.575251002198373
3.49492628992629,0.7439462692357429,-0.568845241174188,-7.706579076684342
3.502923832923833,0.7412102676839518,-0.5413799948273629,-7.8379071511703104
3.510921375921376,0.7384742661321608,-0.5139147484805378,-7.969235225656279
3.518918918918919,0.7357382645803698,-0.4864495021337126,-8.100563300142246
3.526916461916462,0.7094183924183931,-0.5644099684099658,-8.331073008073004
3.534914004914005,0.36049090909090836,-0.5340750204750224,-7.658206552006551
3.542911547911548,0.32103636363636323,-0.6397314496314508,-7.6162638820638815
3.550909090909091,0.2815818181818181,-0.745387878787879,-7.5743212121212125
3.558906633906634,0.24212727272727075,-0.8510443079443133,-7.53237854217854
3.566904176904177,0.20267272727272562,-0.9567007371007417,-7.490435872235871
3.57490171990172,0.16321818181818046,-1.0623571662571698,-7.448493202293201
3.582899262899263,0.12376363636363533,-1.1680135954135982,-7.406550532350531
3.590896805896806,0.08430909090909017,-1.2736700245700265,-7.364607862407862
3.598894348894349,0.044854545454545036,-1.379326453726455,-7.322665192465192
3.606891891891892,0.005399999999999905,-1.4849828828828833,-7.280722522522522
3.614889434889435,-0.034054545454545226,-1.5906393120393116,-7.238779852579853
3.622886977886978,-0.07350909090909041,-1.69629574119574,-7.196837182637183
3.630884520884521,-0.03569287469287468,-2.444586240786241,-7.98001031941032
3.638882063882064,-0.0006533141926399234,-2.393687877867653,-8.162414156751236
3.6468796068796068,0.02612497584407697,-2.398091019517986,-8.187664826215387
3.6548771498771497,0.05290326588079386,-2.4024941611683186,-8.21291549567954
3.662874692874693,0.07968155591751225,-2.4068973028186513,-8.238166165143696
3.670872235872236,0.10645984595422914,-2.411300444468984,-8.263416834607847
3.678869778869779,0.13323813599094603,-2.415703586119317,-8.288667504072
3.686867321867322,0.16001642602766292,-2.420106727769649,-8.313918173536152
3.694864864864865,0.1867947160643798,-2.424509869419982,-8.339168843000305
3.702862407862408,0.2135730061010967,-2.4289130110703145,-8.364419512464458
3.710859950859951,0.24035129613781359,-2.4333161527206473,-8.38967018192861
3.718857493857494,0.2671295861745305,-2.43771929437098,-8.414920851392763
3.726855036855037,0.5026646191646252,-1.9725767813267687,-8.686287469287477
3.73485257985258,0.6916893683456133,-2.213368396805894,-8.49623077907453
3.7428501228501228,0.8605541564291512,-2.318835995085992,-8.467322993447995
3.7508476658476657,1.0294189445126891,-2.42430359336609,-8.438415207821459
3.758845208845209,1.1982837325962366,-2.5297711916461942,-8.409507422194922
3.766842751842752,1.3671485206797744,-2.6352387899262926,-8.380599636568386
3.774840294840295,1.5360133087633123,-2.7407063882063905,-8.351691850941851
3.782837837837838,1.7048780968468504,-2.846173986486489,-8.322784065315314
3.790835380835381,1.873742884930388,-2.9516415847665867,-8.29387627968878
3.798832923832924,2.042607673013926,-3.057109183046685,-8.264968494062243
3.806830466830467,2.2114724610974643,-3.1625767813267833,-8.236060708435708
3.81482800982801,2.380337249181002,-3.268044379606881,-8.207152922809172
3.822825552825553,2.54920203726454,-3.373511977886979,-8.178245137182635
3.8308230958230958,3.489814431656536,-3.1621084960558665,-8.770908444329494
3.8388206388206387,3.771833053148838,-2.645635587740859,-9.431758049915935
3.8468181818181817,3.82250000000003,-1.995863636363664,-10.354318181818133
3.854815724815725,3.530619611346884,-1.3582427326972555,-10.884525798525802
3.862813267813268,3.531346660710297,-0.9255444972717489,-10.948506142506146
3.870810810810811,3.53207371007371,-0.4928462618462426,-11.01248648648649
3.878808353808354,3.532800759437123,-0.06014802642073591,-11.076466830466833
3.886805896805897,3.533527808800536,0.37255020900477054,-11.140447174447177
3.89480343980344,3.534254858163949,0.805248444430277,-11.20442751842752
3.902800982800983,3.534981907527362,1.2379466798557834,-11.268407862407864
3.910798525798526,3.535708956890775,1.6706449152812899,-11.332388206388208
3.918796068796069,3.536436006254188,2.103343150706796,-11.396368550368551
3.9267936117936117,3.8750958230958106,3.596776412776369,-11.976909090909071
3.9347911547911547,2.8066850763807283,1.317925328490547,-12.052280846063455
3.9427886977886977,2.851627790834312,0.9137016878538651,-11.924146298472387
3.950786240786241,2.8965705052878983,0.5094780472171607,-11.796011750881311
3.958783783783784,2.941513219741482,0.1052544065804788,-11.667877203290242
3.966781326781327,2.986455934195066,-0.29896923405620335,-11.539742655699174
3.97477886977887,3.0313986486486497,-0.7031928746928853,-11.411608108108105
3.982776412776413,3.0763413631022334,-1.1074165153295672,-11.283473560517036
3.990773955773956,3.121284077555817,-1.5116401559662491,-11.155339012925968
3.998771498771499,3.166226792009401,-1.915863796602931,-11.027204465334899
4.006769041769042,3.211169506462985,-2.320087437239613,-10.89906991774383
4.014766584766585,3.256112220916571,-2.7243110778763175,-10.770935370152754
4.022764127764128,3.301054935370152,-3.128534718512977,-10.642800822561693
4.030761670761671,2.7651351351350684,-4.1775945945945825,-13.022773955774094
4.038759213759214,3.0600235326235317,-3.839318209118209,-10.464151132951134
4.046756756756757,2.9743609609609556,-3.821368168168167,-10.518178978978982
4.0547542997543,2.888698389298389,-3.8034181272181273,-10.572206825006825
4.062751842751843,2.8030358176358128,-3.7854680862680854,-10.626234671034673
4.0707493857493855,2.717373245973246,-3.7675180453180452,-10.680262517062516
4.078746928746929,2.63171067431067,-3.7495680043680037,-10.734290363090366
4.086744471744471,2.546048102648103,-3.7316179634179636,-10.78831820911821
4.094742014742015,2.460385530985527,-3.7136679224679217,-10.842346055146058
4.102739557739558,2.3747229593229506,-3.6957178815178797,-10.896373901173906
4.110737100737101,2.289060387660384,-3.67776784056784,-10.950401747201749
4.118734643734644,2.203397815997808,-3.659817799617798,-11.004429593229597
4.126732186732187,0.35532514332509746,-3.399619983620064,-12.624633087633331
4.13472972972973,1.067954954954976,-2.1315585585585195,-8.788540540540424
4.142727272727273,0.9720755873340138,-2.089123595505618,-8.687678243105209
4.150724815724816,0.8624463462440934,-2.0644120862435456,-8.640771305524112
4.1587223587223585,0.7528171051541853,-2.039700576981476,-8.59386436794302
4.166719901719902,0.643187864064265,-2.0149890677194042,-8.546957430361923
4.174717444717444,0.5335586229743569,-1.9902775584573345,-8.500050492780831
4.182714987714988,0.4239293818844365,-1.9655660491952625,-8.453143555199734
4.19071253071253,0.3143001407945283,-1.940854539933193,-8.406236617618642
4.198710073710074,0.20467089970460806,-1.9161430306711207,-8.359329680037545
4.206707616707617,0.09504165861468772,-1.8914315214090485,-8.312422742456448
4.21470515970516,-0.014587582475220406,-1.8667200121469791,-8.265515804875356
4.222702702702703,-0.12421682356514085,-1.842008502884907,-8.21860886729426
4.230700245700246,0.2672530712530734,-1.2896679536679463,-7.286661284661278
4.238697788697789,0.3672223587223643,-0.9440598455598265,-6.956477009476991
4.2466953316953315,0.06292846451467077,-0.7034671693637203,-7.475783586093929
4.254692874692875,0.0771769606597194,-0.7183591459798357,-7.513748933886865
4.2626904176904175,0.09142545680476646,-0.7332511225959494,-7.551714281679797
4.270687960687961,0.1056739529498151,-0.7481430992120648,-7.589679629472733
4.278685503685503,0.11992244909486216,-0.7630350758281785,-7.627644977265665
4.286683046683047,0.1341709452399108,-0.7779270524442938,-7.665610325058601
4.29468058968059,0.14841944138495944,-0.7928190290604091,-7.703575672851537
4.302678132678133,0.1626679375300065,-0.8077110056765229,-7.741541020644469
4.310675675675676,0.17691643367505513,-0.8226029822926383,-7.7795063684374055
4.318673218673219,0.19116492982010216,-0.8374949589087519,-7.817471716230337
4.326670761670762,0.2054134259651508,-0.8523869355248673,-7.855437064023273
4.3346683046683046,0.06007329186052519,-0.48181760677505386,-7.753350567201631
4.342665847665848,0.037016545559096926,-0.4916018349103463,-7.733611950441736
4.3506633906633905,0.013959799257671233,-0.5013860630456376,-7.7138733336818435
4.358660933660934,-0.00909694704375702,-0.51117029118093,-7.694134716921949
4.366658476658476,-0.03215369334518273,-0.5209545193162214,-7.674396100162057
4.37465601965602,-0.05521043964661097,-0.5307387474515138,-7.654657483402163
4.382653562653562,-0.07826718594803667,-0.5405229755868052,-7.634918866642271
4.390651105651106,-0.10132393224946493,-0.5503072037220976,-7.615180249882377
4.398648648648649,-0.12438067855089319,-0.5600914318573901,-7.5954416331224825
4.406646191646192,-0.1474374248523189,-0.5698756599926814,-7.57570301636259
4.414643734643735,-0.17049417115374713,-0.5796598881279739,-7.555964399602696
4.422641277641278,-0.19355091745517283,-0.5894441162632652,-7.536225782842804
4.430638820638821,-0.35607616707620415,-0.8543710073710176,-7.182417690417705
4.4386363636363635,-0.8703181818181533,-0.9967272727272647,-7.387954545454535
4.446633906633907,-0.8950181758976941,-1.5092448121725233,-7.6351016547763555
4.454631449631449,-0.8964635149936355,-1.5181095586276308,-7.674993013824339
4.462628992628993,-0.8979088540895771,-1.5269743050827391,-7.714884372872326
4.470626535626535,-0.8993541931855185,-1.5358390515378464,-7.75477573192031
4.478624078624079,-0.90079953228146,-1.5447037979929548,-7.794667090968297
4.486621621621622,-0.9022448713774016,-1.5535685444480631,-7.834558450016285
4.494619164619165,-0.9036902104733431,-1.5624332909031704,-7.874449809064268
4.502616707616708,-0.9051355495692847,-1.5712980373582788,-7.914341168112255
4.510614250614251,-0.906580888665226,-1.5801627838133863,-7.954232527160238
4.518611793611794,-0.9080262277611676,-1.5890275302684944,-7.994123886208226
4.5266093366093365,-1.0471081081080988,-1.7471461916461755,-9.367457002456918
4.53460687960688,-1.0917079337401907,-1.814078069271618,-10.609452405484664
4.542604422604422,-0.9696809067131711,-1.8923335975271418,-10.655373781406038
4.550601965601966,-0.8476538796861377,-1.970589125782674,-10.701295157327415
4.558599508599508,-0.7256268526591181,-2.0488446540381977,-10.747216533248789
4.566597051597052,-0.6035998256320847,-2.12710018229373,-10.793137909170166
4.574594594594594,-0.48157279860506497,-2.205355710549253,-10.83905928509154
4.582592137592138,-0.3595457715780317,-2.283611238804786,-10.88498066101292
4.590589680589681,-0.23751874455099842,-2.361866767060318,-10.930902036934297
4.598587223587224,-0.11549171752397869,-2.4401222953158417,-10.976823412855671
4.606584766584767,0.006535309503054698,-2.518377823571374,-11.022744788777048
4.6145823095823095,0.12856233653007432,-2.596633351826897,-11.068666164698422
4.622579852579853,0.2505893635571077,-2.6748888800824293,-11.1145875406198
4.6305773955773954,0.3468462618462581,-2.8139498069498012,-11.203598806598803
4.638574938574939,0.4416742716742732,-2.9563822393822417,-11.294999297999299
4.646572481572481,0.9278869778869081,-3.5640663390662546,-9.23384520884556
4.654570024570025,-0.7919473319473381,-4.324806936306934,-13.295984974484984
4.662567567567567,-1.0919577269577139,-4.203920997921003,-13.788449064449043
4.670565110565111,-1.3919681219681233,-4.083035059535059,-14.280913154413156
4.678562653562653,-1.691978516978499,-3.962149121149128,-14.773377244377215
4.686560196560197,-1.9919889119889083,-3.8412631827631842,-15.265841334341328
4.69455773955774,-2.2919993069993176,-3.7203772443772403,-15.75830542430544
4.7025552825552825,-2.592009702009693,-3.599491305991309,-16.2507695142695
4.710552825552826,-2.8920200970201027,-3.478605367605365,-16.743233604233613
4.7185503685503685,-3.1920304920304785,-3.3577194292194346,-17.235697694197672
4.726547911547912,-3.492040887040888,-3.2368334908334906,-17.728161784161784
4.734545454545454,4.524248484848486,-1.8903030303030313,-12.010309090909095
4.742542997542998,4.454580999180997,-1.8360974610974592,-11.73625995085994
4.75054054054054,4.384913513513515,-1.7818918918918931,-11.462210810810816
4.758538083538084,4.315246027846026,-1.727686322686321,-11.188161670761662
4.766535626535626,4.245578542178544,-1.673480753480755,-10.914112530712538
4.77453316953317,4.175911056511055,-1.619275184275183,-10.640063390663384
4.782530712530713,4.106243570843565,-1.5650696150696108,-10.36601425061423
4.790528255528256,4.036576085176084,-1.5108640458640448,-10.091965110565106
4.798525798525799,3.966908599508595,-1.456658476658473,-9.817915970515951
4.8065233415233415,3.897241113841113,-1.4024529074529068,-9.543866830466827
4.814520884520885,3.827573628173624,-1.3482473382473348,-9.269817690417673
4.822518427518427,3.757906142506142,-1.2940417690417687,-8.995768550368549
4.830515970515971,0.3140221874767338,-1.0184273695182788,-7.111416275779912
4.838513513513513,0.3453660933660923,-1.0250515970515968,-7.102368550368551
4.846511056511057,0.37670999925545423,-1.0316758245849156,-7.093320824957188
4.854508599508599,0.40805390514481277,-1.0383000521182337,-7.084273099545827
4.862506142506143,0.43939781103417475,-1.0449242796515525,-7.075225374134465
4.870503685503685,0.47074171692353317,-1.0515485071848705,-7.066177648723104
4.878501228501229,0.5020856228128951,-1.0581727347181893,-7.0571299233117415
4.886498771498772,0.5334295287022571,-1.064796962251508,-7.04808219790038
4.8944963144963145,0.5647734345916156,-1.071421189784826,-7.039034472489019
4.902493857493858,0.5961173404809776,-1.0780454173181448,-7.029986747077656
4.9104914004914,0.6274612463703361,-1.0846696448514628,-7.020939021666295
4.918488943488944,0.658805152259698,-1.0912938723847816,-7.011891296254933
4.926486486486486,0.6901490581490566,-1.0979180999180997,-7.002843570843571
4.93448402948403,2.3767518427520953,-0.19711302211283144,-7.534737100737165
4.942481572481572,2.6816315297510944,0.08402921696399993,-7.65896821920735
4.950479115479116,2.6363410960367455,0.10437079371862107,-7.6963480397393464
4.958476658476658,2.591050662322402,0.12471237047323996,-7.733727860271339
4.966474201474202,2.545760228608053,0.14505394722786114,-7.771107680803334
4.974471744471745,2.500469794893704,0.16539552398248225,-7.808487501335331
4.9824692874692875,2.4551793611793604,0.18573710073710115,-7.845867321867322
4.990466830466831,2.4098889274650115,0.20607867749172232,-7.883247142399319
4.9984643734643734,2.3645984937506674,0.2264202542463412,-7.920626962931311
5.006461916461917,2.3193080600363185,0.24676183100096236,-7.958006783463307
5.014459459459459,2.274017626321975,0.2671034077555813,-7.995386603995299
5.022457002457003,2.228727192607626,0.2874449845102024,-8.032766424527296
5.030454545454545,2.0980363636363735,0.4297454545454502,-8.545890909090897
5.038452088452089,1.0234576650194647,0.846482400684648,-10.419341606161831
5.046449631449631,1.1496211523065405,0.8522334428401842,-10.471100985561659
5.054447174447175,1.2757846395936305,0.857984484995721,-10.52286036496149
5.062444717444717,1.4019481268807064,0.8637355271512572,-10.574619744361316
5.0704422604422605,1.5281116141677964,0.8694865693067941,-10.626379123761147
5.078439803439804,1.6542751014548864,0.875237611462331,-10.67813850316098
5.0864373464373465,1.7804385887419623,0.8809886536178673,-10.729897882560806
5.09443488943489,1.9066020760290523,0.8867396957734041,-10.781657261960637
5.102432432432432,2.032765563316128,0.8924907379289403,-10.833416641360463
5.110429975429976,2.158929050603218,0.8982417800844772,-10.885176020760294
5.118427518427518,2.2850925378902938,0.9039928222400134,-10.936935400160122
5.126425061425062,2.562795454545453,0.26407094594595604,-11.541542383292384
5.134422604422604,2.7110884520885237,-1.5071597051595724,-11.205437346437538
5.142420147420148,2.348386977886976,-2.0069650156354713,-10.480925452311814
5.15041769041769,2.1844373464373548,-2.094120058074599,-10.357508822872465
5.158415233415234,2.020487714987715,-2.1812751005137367,-10.234092193433103
5.166412776412776,1.8565380835380936,-2.268430142952865,-10.110675563993754
5.1744103194103195,1.692588452088454,-2.3555851853920027,-9.98725893455439
5.182407862407863,1.5286388206388142,-2.4427402278311403,-9.863842305115027
5.190405405405405,1.3646891891891928,-2.529895270270268,-9.740425675675677
5.198402948402949,1.2007395577395532,-2.617050312709406,-9.617009046236316
5.206400491400491,1.0367899262899318,-2.704205355148534,-9.493592416796966
5.214398034398035,0.8728402948402922,-2.7913603975876717,-9.370175787357603
5.222395577395577,0.7088906633906706,-2.8785154400268,-9.246759157918254
5.230393120393121,1.5354717444717858,-1.8802137592137587,-7.8586191646191415
5.238390663390663,2.632094137477855,-2.8140051711330796,-6.866432803839784
5.246388206388207,2.6749646877321287,-2.793639334895149,-6.834349637163592
5.254385749385749,2.7178352379863973,-2.773273498657221,-6.802266470487403
5.2623832923832925,2.760705788240671,-2.7529076624192905,-6.770183303811211
5.270380835380836,2.803576338494945,-2.73254182618136,-6.73810013713502
5.278378378378378,2.8464468887492136,-2.712175989943432,-6.7060169704588315
5.286375921375922,2.8893174390034875,-2.6918101537055015,-6.6739338037826395
5.294373464373464,2.9321879892577565,-2.6714443174675733,-6.641850637106451
5.302371007371008,2.97505853951203,-2.651078481229643,-6.60976747043026
5.31036855036855,3.017929089766299,-2.630712644991715,-6.577684303754071
5.318366093366094,3.060799640020573,-2.6103468087537847,-6.545601137077879
5.326363636363636,3.357272727272642,-1.3331818181820112,-7.144272727272487
5.33436117936118,3.733805896805897,-0.373440123918384,-8.017774276252537
5.342358722358722,3.77379361179361,-0.15020435850871594,-7.89050902681338
5.3503562653562655,3.813781326781328,0.07303140690097698,-7.76324377737421
5.358353808353808,3.8113672957289984,0.4616632338334338,-7.717795598306238
5.366351351351351,3.8052415181138586,0.8647734330074858,-7.679509488211615
5.374348894348895,3.799115740498719,1.2678836321815377,-7.641223378116992
5.382346437346437,3.79298996288358,1.670993831355545,-7.602937268022373
5.390343980343981,3.78686418526844,2.0741040305295972,-7.5646511579277504
5.398341523341523,3.961324324324399,2.8821228501230256,-7.373972972972909
5.406339066339067,4.68701249148308,1.8364590878120293,-5.651602461131872
5.414336609336609,4.696622984328867,1.8399538124832242,-5.636279437573555
5.422334152334153,4.706233477174655,1.8434485371544198,-5.620956414015237
5.430331695331695,4.71584397002044,1.8469432618256147,-5.60563339045692
5.4383292383292385,4.725454462866228,1.8504379864968101,-5.590310366898602
5.446326781326781,4.735064955712014,1.8539327111680053,-5.574987343340285
5.4543243243243245,4.7446754485578015,1.8574274358392007,-5.559664319781967
5.462321867321868,4.754285941403589,1.860922160510396,-5.544341296223648
5.47031941031941,4.763896434249375,1.864416885181591,-5.529018272665331
5.478316953316954,4.773506927095163,1.8679116098527866,-5.513695249107013
5.486314496314496,4.7831174199409485,1.8714063345239815,-5.498372225548696
5.49431203931204,4.792727912786736,1.874901059195177,-5.483049201990378
5.502309582309582,4.802338405632523,1.878395783866372,-5.467726178432061
5.510307125307126,4.81194889847831,1.8818905085375675,-5.452403154873743
5.518304668304668,4.821559391324096,1.8853852332087624,-5.437080131315426
5.5263022113022116,5.794336779623909,2.861837740530813,-2.717711922543609
5.534299754299754,5.784122095993384,2.6151808451115564,-2.4457162770331284
5.5422972972972975,5.773907412362858,2.368523949692272,-2.1737206315226176
5.55029484029484,5.763692728732334,2.1218670542730154,-1.9017249860121368
5.558292383292383,5.753478045101808,1.8752101588537309,-1.629729340501626
5.566289926289927,5.743263361471282,1.6285532634344466,-1.357733694991115
5.574287469287469,5.733048677840758,1.3818963680151897,-1.0857380494806341
5.582285012285013,5.722833994210232,1.1352394725959054,-0.8137424039701233
5.590282555282555,5.712619310579707,0.8885825771766482,-0.5417467584596425
5.598280098280099,5.702404626949181,0.641925681757364,-0.2697511129491317
5.606277641277641,5.692189943318657,0.39526878633810725,0.002244532561348933
5.614275184275185,5.681975259688131,0.148611890918823,0.2742401780718602
5.622272727272727,5.671760576057606,-0.09804500450043374,0.5462358235823408
5.6302702702702705,7.264585585585545,1.4388888888886253,4.3187597597598835
5.638267813267813,6.305109746110028,-2.1186371826370247,6.059950859950741
5.646265356265356,1.778475160304431,-4.609699526577573,7.806696440342775
5.654262899262899,1.9052654761191297,-4.478617846227607,7.500936717205021
5.662260442260442,2.0320557919338427,-4.347536165877627,7.195176994067233
5.670257985257986,2.158846107748555,-4.216454485527647,6.889417270929446
5.678255528255528,2.285636423563254,-4.085372805177682,6.583657547791692
5.686253071253072,2.412426739377967,-3.954291124827702,6.277897824653904
5.694250614250614,2.5392170551926654,-3.8232094444777367,5.972138101516149
5.702248157248158,2.666007371007378,-3.692127764127757,5.6663783783783614
5.7102457002457,2.7927976868220767,-3.561046083777791,5.360618655240607
5.7182432432432435,2.9195880026367895,-3.429964403427811,5.054858932102819
5.726240786240786,-25.288982800979596,-3.8317542997546594,-1.0001744471738503
5.734238329238329,-32.106705510705446,9.321331344331714,6.06321446121473
5.742235872235872,-30.431084167315888,20.251962455803902,13.83448471864324
5.750233415233415,-32.67712584646742,17.57912506741762,11.300921615628813
5.758230958230959,-34.92316752561894,14.90628767903134,8.767358512614383
5.766228501228501,-37.169209204770226,12.233450290645356,6.233795409600235
5.774226044226045,-39.41525088392176,9.560612902259074,3.700232306585807
5.782223587223587,-41.66129256307303,6.887775513873089,1.166669203571658
5.790221130221131,-43.907334242224564,4.214938125486807,-1.3668938994427702
5.798218673218673,-46.15337592137585,1.5421007371008244,-3.9004570024569194
5.8062162162162165,-48.39941760052737,-1.1307366512854564,-6.434020105471346
5.814213759213759,-50.645459279678654,-3.8035740396714424,-8.967583208485495
5.8222113022113025,-52.891500958830186,-6.476411428057723,-11.501146311499925
5.830208845208845,14.271928746930136,-29.197188779690375,-43.05201433251728
5.838206388206388,-10.938227597503467,0.6287142251969409,11.682137648620346
5.846203931203931,-10.543957920302777,3.422338727441973,15.59008647518964
5.854201474201474,-10.149688243102045,6.215963229687316,19.498035301759366
5.862199017199018,-9.75541856590131,9.009587731932658,23.405984128329095
5.87019656019656,-9.361148888700622,11.80321223417769,27.313932954898387
5.878194103194104,-8.966879211499888,14.596836736423034,31.221881781468113
5.886191646191646,-8.5726095342992,17.390461238668067,35.12983060803741
5.8941891891891895,-8.178339857098466,20.18408574091341,39.03777943460713
5.902186732186732,-7.784070179897777,22.97771024315844,42.94572826117643
5.9101842751842755,-7.389800502697044,25.771334745403784,46.85367708774615
5.918181818181818,-6.995530825496355,28.564959247648815,50.761625914315445
5.926179361179361,6.606358722356601,-1.8081941032037,-14.676009828017113
5.934176904176904,11.759582668470362,-0.6420940010490643,-17.420832454518013
5.942174447174447,10.791340805565522,-0.5107186318085191,-14.293883002512207
5.950171990171991,9.823098942660684,-0.37934326256797396,-11.166933550506398
5.958169533169533,8.854857079755952,-0.2479678933274434,-8.039984098500938
5.966167076167077,7.886615216851114,-0.11659252408689824,-4.913034646495129
5.974164619164619,6.918373353946382,0.014782845153632374,-1.7860851944896687
5.982162162162163,5.950131491041543,0.14615821439417753,1.3408642575161416
5.990159705159705,4.981889628136813,0.27753358363470815,4.4678137095216
5.9981572481572485,4.0136477652319735,0.4089089528752532,7.5947631615274105
6.006154791154791,3.045405902327243,0.5402843221157838,10.721712613532869
6.014152334152334,2.077164039422403,0.6716596913563291,13.84866206553868
6.022149877149877,1.1089221765176713,0.8030350605968595,16.97561151754414
6.03014742014742,-6.1284725370531845,-10.00016755171594,-10.159314020765628
6.038144963144963,-5.828607672188338,-9.900757232305626,-10.935849647301207
6.046142506142506,-5.528742807323457,-9.801346912895303,-11.712385273836874
6.05414004914005,-5.228877942458578,-9.701936593484978,-12.488920900372541
6.062137592137592,-4.92901307759373,-9.602526274074664,-13.265456526908121
6.070135135135136,-4.62914821272885,-9.50311595466434,-14.041992153443786
6.078132678132678,-4.329283347864003,-9.403705635254026,-14.818527779979366
6.0861302211302215,-4.029418482999123,-9.304295315843701,-15.595063406515035
6.094127764127764,-3.7295536181342754,-9.204884996433387,-16.371599033050614
6.102125307125307,-3.4296887532693954,-9.105474677023063,-17.14813465958628
6.11012285012285,-3.129823888404548,-9.00606435761275,-17.92467028612186
6.118120393120393,-2.829959023539668,-8.906654038202426,-18.701205912657528
6.126117936117936,-2.616336609336591,-12.626514742014404,-12.641965601966024
6.134115479115479,-2.1355935415935194,-12.798693225693146,-5.644754299754153
6.142113022113023,-1.5232689219152524,-10.60461619823812,-1.7353999520584789
6.150110565110565,-1.3671217714388428,-10.177918020015577,-1.594565170491998
6.158108108108109,-1.210974620962416,-9.751219841792985,-1.4537303889255018
6.166105651105651,-1.0548274704860061,-9.324521663570442,-1.312895607359021
6.1741031941031945,-0.8986803200095791,-8.89782348534785,-1.1720608257925247
6.182100737100737,-0.7425331695331695,-8.471125307125307,-1.0312260442260441
6.1900982800982804,-0.5863860190567425,-8.044427128902715,-0.8903912626595478
6.198095823095823,-0.4302388685803329,-7.617728950680172,-0.749556481093067
6.206093366093366,-0.27409171810390576,-7.191030772457581,-0.6087216995265707
6.214090909090909,-0.11794456762749617,-6.764332594235038,-0.4678869179600902
6.222088452088452,0.038202582848930966,-6.337634416012446,-0.3270521363935939
6.230085995085995,-2.928226535626465,-2.7751754299755396,-0.022060933660841497
6.238083538083538,-2.9067776412775075,-1.1745755528255317,-2.539078624078806
6.246081081081082,-0.3132333553065228,-1.0806638101516666,-6.071665787738965
6.254078624078624,-0.2821209624258394,-1.5743657937316646,-6.13252513933002
6.2620761670761675,-0.2510085695451525,-2.0680677773117178,-6.193384490921082
6.27007371007371,-0.21989617666446912,-2.561769760891716,-6.254243842512136
6.2780712530712535,-0.18878378378378224,-3.055471744471769,-6.315103194103197
6.286068796068796,-0.15767139090309884,-3.549173728051767,-6.375962545694252
6.294066339066339,-0.12655899802241197,-4.042875711631821,-6.436821897285314
6.302063882063882,-0.09544660514172854,-4.536577695211818,-6.497681248876368
6.310061425061425,-0.06433421226104169,-5.030279678791872,-6.558540600467429
6.318058968058968,-0.033221819380358286,-5.523981662371869,-6.619399952058484
6.326056511056511,-0.03429238329237161,-5.982061425061372,-9.068110565110686
6.334054054054054,0.4440198198198231,-4.828854954954961,-8.1922990990991
6.342051597051597,0.39105831285831333,-4.736705487305488,-8.164218837018836
6.350049140049141,0.3380968058968036,-4.644556019656016,-8.136138574938574
6.358046683046683,0.2851352989352997,-4.552406552006554,-8.108058312858313
6.3660442260442265,0.23217379197378996,-4.460257084357081,-8.079978050778049
6.374041769041769,0.1792122850122861,-4.3681076167076185,-8.051897788697788
6.382039312039312,0.12625077805077634,-4.275958149058146,-8.023817526617526
6.390036855036855,0.07328927108927247,-4.183808681408683,-7.995737264537265
6.398034398034398,0.02032776412776277,-4.091659213759211,-7.967657002457002
6.406031941031941,-0.0326337428337411,-3.999509746109749,-7.939576740376741
6.414029484029484,-0.08559524979525085,-3.9073602784602763,-7.911496478296478
6.422027027027027,-0.13855675675675477,-3.815210810810814,-7.883416216216217
6.43002457002457,1.3559550719550537,-7.632130572130644,-7.507477184977329
6.438022113022114,1.062330993330965,-8.790631800631912,-9.825050895051119
6.446019656019656,1.0083386468508446,-9.158580931263854,-10.766539252112427
6.4540171990171995,1.0965066818481526,-9.057538802660744,-10.891671540720333
6.462014742014742,1.1846747168454508,-8.956496674057647,-11.016803829328223
6.470012285012285,1.2728427518427587,-8.855454545454537,-11.141936117936128
6.478009828009828,1.361010786840057,-8.754412416851439,-11.26706840654402
6.486007371007371,1.449178821837365,-8.653370288248329,-11.392200695151924
6.494004914004914,1.537346856834663,-8.552328159645231,-11.517332983759815
6.502002457002457,1.6255148918319708,-8.451286031042121,-11.642465272367719
6.51,1.7136829268292693,-8.350243902439024,-11.767597560975611
6.517997542997543,1.801850961826577,-8.249201773835914,-11.892729849583516
6.525995085995086,0.20446973419707212,-9.507990842081824,-9.902161938798374
6.533992628992629,-0.707977216886353,-8.487213535849849,-8.898833817288313
6.5419901719901725,-0.5047092547092031,-5.8409213759210905,-7.618187960687838
6.549987714987715,-0.10828953316953321,-3.4285559377559376,-6.578685208845209
6.557985257985258,-0.25832343980344713,-3.3704404586404557,-6.54925425061425
6.565982800982801,-0.4083573464373444,-3.3123249795249805,-6.519823292383293
6.573980343980344,-0.5583912530712584,-3.2542095004094986,-6.490392334152333
6.581977886977887,-0.7084251597051555,-3.196094021294023,-6.460961375921377
6.58997542997543,-0.8584590663390694,-3.137978542178541,-6.431530417690417
6.597972972972973,-1.0084929729729668,-3.0798630630630655,-6.4020994594594605
6.605970515970516,-1.1585268796068806,-3.0217475839475836,-6.3726685012285005
6.613968058968059,-1.308560786240778,-2.963632104832108,-6.343237542997544
6.621965601965602,-1.4585946928746918,-2.905516625716626,-6.313806584766585
6.6299631449631455,-0.6662622850122618,-4.686433660933689,-8.445769656019937
6.637960687960688,-0.6510473963699767,-4.716247602441151,-8.439343504795117
6.6459582309582315,-0.637030197352777,-4.7446259808195315,-8.41758674803836
6.653955773955774,-0.6230129983355788,-4.773004359197908,-8.395829991281603
6.661953316953317,-0.608995799318379,-4.801382737576287,-8.374073234524847
6.66995085995086,-0.5949786003011809,-4.829761115954664,-8.35231647776809
6.677948402948403,-0.5809614012839811,-4.858139494333044,-8.330559721011333
6.685945945945946,-0.5669442022667829,-4.886517872711421,-8.308802964254577
6.693943488943489,-0.5529270032495832,-4.914896251089801,-8.28704620749782
6.701941031941032,-0.538909804232385,-4.943274629468178,-8.265289450741063
6.709938574938575,-0.5248926052151852,-4.971653007846557,-8.243532693984307
6.717936117936118,-0.5108754061979871,-5.000031386224934,-8.22177593722755
6.725933660933661,-0.29668632268631906,-5.195665028665057,-7.986900900900887
6.7339312039312045,-0.09578378378376468,-6.4790988943490095,-8.208590909090955
6.741928746928747,0.011894907303996387,-6.855880500335045,-8.379911547911547
6.74992628992629,0.06833211413893334,-6.884598950189861,-8.417899877149878
6.757923832923833,0.12476932097386398,-6.913317400044672,-8.455888206388204
6.765921375921376,0.18120652780880092,-6.9420358498994865,-8.493876535626535
6.773918918918919,0.2376437346437316,-6.970754299754298,-8.531864864864863
6.781916461916462,0.29408094147866853,-6.999472749609113,-8.569853194103194
6.789914004914005,0.35051814831359923,-7.028191199463925,-8.607841523341522
6.797911547911548,0.40695535514853615,-7.05690964931874,-8.645829852579853
6.805909090909091,0.46339256198346684,-7.085628099173552,-8.683818181818179
6.813906633906634,0.5198297688184037,-7.114346549028367,-8.72180651105651
6.821904176904177,0.5762669756533344,-7.143064998883179,-8.759794840294838
6.82990171990172,-0.2304414414414408,-6.883339066339055,-6.952656838656821
6.837899262899263,-0.2608518665292877,-6.795844416263768,-6.914169876621489
6.845896805896806,-0.29310002377744304,-6.733927954347309,-6.91434186679348
6.853894348894349,-0.3253481810256019,-6.672011492430844,-6.91451385696547
6.861891891891892,-0.35759633827375725,-6.610095030514386,-6.91468584713746
6.869889434889435,-0.38984449552191613,-6.548178568597921,-6.91485783730945
6.877886977886978,-0.42209265277007146,-6.486262106681463,-6.91502982748144
6.885884520884521,-0.45434081001823035,-6.424345644764998,-6.915201817653431
6.893882063882064,-0.4865889672663857,-6.3624291828485395,-6.9153738078254205
6.901879606879607,-0.5188371245145446,-6.300512720932074,-6.915545797997411
6.90987714987715,-0.5510852817626999,-6.238596259015615,-6.915717788169402
6.917874692874693,-0.5833334390108588,-6.176679797099151,-6.915889778341391
6.925872235872236,-0.5295428085427945,-5.975491967491936,-6.927709884709888
6.933869778869779,-0.32222188622188297,-5.525783972783965,-6.960315252315253
6.941867321867322,-0.09450073710071724,-5.438270270270274,-6.983668304668306
6.949864864864865,-0.0725202702702664,-5.769222972972961,-7.484837837837818
6.957862407862408,-0.07395361987142801,-5.772891521658645,-7.494137592137592
6.965859950859951,-0.07187206758439639,-5.765660866345798,-7.486140049140049
6.973857493857494,-0.06979051529736452,-5.758430211032951,-7.478142506142506
6.981855036855037,-0.0677089630103329,-5.751199555720104,-7.470144963144963
6.98985257985258,-0.06562741072330104,-5.743968900407257,-7.46214742014742
6.997850122850123,-0.0635458584362694,-5.7367382450944095,-7.454149877149877
7.005847665847666,-0.06146430614923755,-5.729507589781562,-7.446152334152334
7.013845208845209,-0.05938275386220593,-5.722276934468716,-7.438154791154791
7.021842751842752,-0.057301201575174064,-5.715046279155868,-7.430157248157248
7.029840294840295,0.3252248157248155,-5.873810913185915,-7.3862187755937745
7.037837837837838,0.3202263513513514,-5.909883164414413,-7.36430884009009
7.045835380835381,0.3152278869778868,-5.945955415642917,-7.342398904586404
7.053832923832924,0.3102294226044227,-5.982027666871415,-7.32048896908272
7.061830466830467,0.3052309582309581,-6.018099918099919,-7.298579033579033
7.06982800982801,0.300232493857494,-6.054172169328417,-7.276669098075349
7.077825552825553,0.29523402948402944,-6.090244420556921,-7.254759162571663
7.085823095823096,0.29023556511056536,-6.12631667178542,-7.2328492270679785
7.093820638820639,0.28523710073710073,-6.162388923013923,-7.210939291564292
7.101818181818182,0.28023863636363666,-6.198461174242422,-7.189029356060607
7.109815724815725,0.27524017199017203,-6.234533425470925,-7.16711942055692
7.117813267813268,0.2702417076167074,-6.270605676699428,-7.145209485053234
7.125810810810811,0.47827027027027225,-6.942432432432363,-7.813054054053978
7.133808353808354,0.471410345273503,-7.416928255528254,-8.20025278675805
7.141805896805897,0.46922154403207034,-7.386537592137592,-8.192339428423638
7.14980343980344,0.4670327427906374,-7.356146928746927,-8.184426070089227
7.157800982800983,0.4648439415492047,-7.325756265356266,-8.176512711754818
7.165798525798526,0.4626551403077718,-7.295365601965601,-8.168599353420406
7.173796068796069,0.4604663390663391,-7.264974938574939,-8.160685995085995
7.181793611793612,0.45827753782490616,-7.234584275184274,-8.152772636751584
7.189791154791155,0.4560887365834735,-7.204193611793612,-8.144859278417174
7.197788697788698,0.45389993534204054,-7.1738029484029475,-8.136945920082763
7.2057862407862405,0.4517111341006078,-7.143412285012286,-8.129032561748351
7.213783783783784,0.4495223328591749,-7.113021621621621,-8.12111920341394
7.221781326781327,0.447333531617742,-7.082630958230956,-8.113205845079529
7.22977886977887,-0.06519081856976632,-5.8605175998965455,-7.152344626923574
7.237776412776413,-0.07504042415621444,-5.822381947497734,-7.149398163713952
7.245773955773956,-0.08489002974266147,-5.784246295098926,-7.146451700504332
7.253771498771499,-0.0947396353291096,-5.746110642700114,-7.14350523729471
7.261769041769042,-0.10458924091555663,-5.707974990301306,-7.14055877408509
7.269766584766585,-0.11443884650200475,-5.669839337902494,-7.137612310875468
7.277764127764128,-0.1242884520884518,-5.631703685503687,-7.134665847665848
7.285761670761671,-0.13413805767489992,-5.593568033104875,-7.131719384456226
7.2937592137592135,-0.14398766326134696,-5.555432380706067,-7.128772921246606
7.301756756756757,-0.15383726884779508,-5.517296728307255,-7.125826458036984
7.3097542997542995,-0.16368687443424212,-5.479161075908447,-7.122879994827364
7.317751842751843,-0.17353648002069022,-5.441025423509635,-7.119933531617742
7.325749385749386,-0.18641523341523394,-5.429059582309583,-7.167259828009833
7.333746928746929,-0.20507616707616716,-5.467047911547912,-7.310549140049141
7.341744471744472,-0.10373862173862172,-5.850918392418392,-7.721488943488944
7.349742014742015,-0.102976950976951,-5.891477360477358,-7.737484029484029
7.357739557739558,-0.1022152802152802,-5.932036328536329,-7.753479115479116
7.365737100737101,-0.10145360945360948,-5.972595296595294,-7.769474201474201
7.373734643734644,-0.10069193869193868,-6.013154264654265,-7.7854692874692875
7.381732186732187,-0.09993026793026796,-6.05371323271323,-7.801464373464373
7.38972972972973,-0.09916859716859716,-6.094272200772201,-7.81745945945946
7.3977272727272725,-0.09840692640692644,-6.134831168831167,-7.833454545454545
7.405724815724816,-0.09764525564525564,-6.175390136890137,-7.849449631449632
7.413722358722359,-0.09688358488358484,-6.215949104949107,-7.865444717444719
7.421719901719902,-0.09612191412191412,-6.256508073008073,-7.881439803439804
7.429717444717445,0.05136855036854448,-6.529577395577403,-7.966346437346493
7.437714987714988,0.07820178132678106,-6.686066646191645,-8.324102886977887
7.445712530712531,0.08408435708435684,-6.705285246285246,-8.308724815724814
7.453710073710074,0.0794191236691237,-6.699667924417924,-8.260739557739559
7.461707616707617,0.07475389025389002,-6.694050602550602,-8.212754299754298
7.46970515970516,0.07008865683865687,-6.688433280683281,-8.164769041769041
7.477702702702703,0.0654234234234232,-6.682815958815959,-8.11678378378378
7.4857002457002455,0.060758190008190036,-6.677198636948637,-8.068798525798526
7.493697788697789,0.056092956592956364,-6.671581315081315,-8.020813267813265
7.501695331695331,0.051427723177723206,-6.665963993213993,-7.97282800982801
7.509692874692875,0.046762489762489534,-6.660346671346671,-7.924842751842749
7.517690417690418,0.04209725634725586,-6.654729349479349,-7.8768574938574885
7.525687960687961,-0.09220884520886188,-6.054894348894315,-7.0060024570023955
7.533685503685504,-0.30424487262381855,-5.45473438510281,-6.3017060131902305
7.541683046683047,-0.2905227725332983,-5.490933790249581,-6.364591956549853
7.54968058968059,-0.27680067244277656,-5.527133195396357,-6.4274778999094835
7.557678132678133,-0.26307857235225635,-5.563332600543128,-6.490363843269107
7.565675675675676,-0.24935647226173457,-5.599532005689903,-6.553249786628737
7.5736732186732185,-0.23563437217121436,-5.635731410836674,-6.616135729988361
7.581670761670762,-0.22191227208069259,-5.671930815983449,-6.679021673347991
7.589668304668304,-0.20819017199017237,-5.7081302211302205,-6.741907616707614
7.597665847665848,-0.19446807189965062,-5.744329626276995,-6.804793560067245
7.605663390663391,-0.18074597180912888,-5.780529031423771,-6.867679503426875
7.613660933660934,-0.16702387171860864,-5.816728436570542,-6.930565446786499
7.621658476658477,-0.1533017716280869,-5.8529278417173165,-6.993451390146129
7.62965601965602,0.3734768666972055,-6.08209078415858,-7.640623204097779
7.637653562653563,0.3950973431058185,-6.111505476200392,-7.730561674926085
7.645651105651106,0.41671781951442916,-6.140920168242201,-7.820500145754381
7.653648648648649,0.4383382959230422,-6.170334860284013,-7.910438616582686
7.6616461916461915,0.45995877233165283,-6.199749552325822,-8.000377087410982
7.669643734643735,0.48157924874026586,-6.2291642443676345,-8.090315558239288
7.6776412776412775,0.5031997251488765,-6.258578936409443,-8.180254029067584
7.685638820638821,0.5248202015574895,-6.287993628451255,-8.27019249989589
7.693636363636363,0.5464406779661002,-6.317408320493064,-8.360130970724185
7.701633906633907,0.5680611543747132,-6.346823012534876,-8.45006944155249
7.70963144963145,0.5896816307833262,-6.376237704576688,-8.540007912380796
7.717628992628993,0.6113021071919369,-6.405652396618497,-8.629946383209091
7.725626535626536,0.6329225836005499,-6.435067088660309,-8.719884854037398
7.733624078624079,0.6545430600091606,-6.464481780702118,-8.809823324865693
7.741621621621622,0.6761635364177736,-6.493896472743931,-8.899761795694
7.749619164619165,0.48869533169534846,-6.595275184275193,-8.408631449631482
7.757616707616708,0.45228674478674447,-6.057744975744976,-7.271126441126441
7.7656142506142505,0.40912051912052105,-5.9945848925848955,-7.1770015120015165
7.773611793611794,0.36595429345429287,-5.931424809424809,-7.082876582876581
7.781609336609336,0.32278806778806945,-5.868264726264729,-6.988751653751658
7.78960687960688,0.27962184212184127,-5.805104643104642,-6.894626724626723
7.797604422604422,0.23645561645561786,-5.741944559944562,-6.800501795501798
7.805601965601966,0.19328939078938961,-5.678784476784475,-6.706376866376864
7.813599508599509,0.15012316512316143,-5.615624393624388,-6.612251937251929
7.821597051597052,0.10695693945693802,-5.552464310464308,-6.5181270081270055
7.829594594594595,0.001594594594536508,-5.132486486486165,-6.57370270270283
7.837592137592138,-0.20272481572481763,-4.7112899262899255,-6.9480810810810745
7.845589680589681,-0.11690848356016603,-4.750109460839799,-7.219907682963872
7.8535872235872235,-0.03109215139552396,-4.788928995389669,-7.491734284846639
7.861584766584767,0.054724180769127606,-4.827748529939543,-7.763560886729436
7.869582309582309,0.14054051293376968,-4.866568064489412,-8.035387488612203
7.877579852579853,0.2263568450984213,-4.905387599039286,-8.307214090495
7.885577395577395,0.3121731772630634,-4.944207133589155,-8.579040692377767
7.893574938574939,0.39798950942771494,-4.983026668139029,-8.850867294260564
7.901572481572482,0.4838058415923665,-5.021846202688903,-9.12269389614336
7.909570024570025,0.5696221737570086,-5.060665737238773,-9.394520498026127
7.917567567567568,0.6554385059216602,-5.099485271788647,-9.666347099908924
7.925565110565111,0.6143316953316689,-5.255013513513536,-9.786528255528266
7.933562653562654,0.8058251597051607,-4.7191092137592126,-10.37936058968058
7.9415601965601965,0.8141426044226049,-4.710711793611793,-10.27987115479115
7.94955773955774,0.8224600491400501,-4.702314373464373,-10.18038171990171
7.957555282555282,0.8307774938574943,-4.693916953316953,-10.08089228501228
7.965552825552826,0.8390949385749394,-4.685519533169533,-9.98140285012284
7.973550368550368,0.8474123832923837,-4.677122113022113,-9.881913415233411
7.981547911547912,0.8557298280098289,-4.668724692874692,-9.782423980343971
7.989545454545454,0.8640472727272731,-4.660327272727272,-9.682934545454541
7.997542997542998,0.8723647174447183,-4.651929852579852,-9.583445110565101
8.00554054054054,0.8806821621621626,-4.6435324324324325,-9.483955675675672
8.013538083538084,0.8889996068796078,-4.635135012285012,-9.384466240786232
8.021535626535627,0.8973170515970529,-4.626737592137591,-9.284976805896791
8.02953316953317,0.6380196560189868,-4.211368550368277,-8.474167076166298
8.037530712530712,-0.12414717714717999,-3.9943453303453262,-7.6885708615708594
8.045528255528255,-0.07519518319518316,-4.062807813807814,-7.732777060777061
8.053525798525799,-0.026243189243186332,-4.1312702972703015,-7.776983259983263
8.061523341523342,0.02270880470881048,-4.199732780732789,-7.821189459189465
8.069520884520884,0.07166079866079644,-4.268195264195261,-7.865395658395657
8.077518427518427,0.12061279261279326,-4.336657747657749,-7.909601857601858
8.08551597051597,0.1695647865647901,-4.405120231120236,-7.95380805680806
8.093513513513514,0.21851678051678694,-4.473582714582723,-7.998014256014262
8.101511056511058,0.2674687744687838,-4.542045198045211,-8.042220455220463
8.1095085995086,0.3164207684207697,-4.610507681507683,-8.086426654426655
8.117506142506143,0.3653727623727665,-4.6789701649701705,-8.130632853632857
8.125503685503686,0.7349750204750274,-5.018602375102377,-10.013419737919738
8.13350122850123,0.33845159705162287,-4.937701719901723,-8.138701556101589
8.141498771498771,0.45734840294840623,-4.94889828009828,-8.293498443898448
8.149496314496314,0.576245208845216,-4.9600948402948415,-8.448295331695341
8.157493857493858,0.6951420147420259,-4.971291400491402,-8.603092219492234
8.165491400491401,0.8140388206388356,-4.982487960687962,-8.757889107289127
8.173488943488943,0.932935626535619,-4.99368452088452,-8.912685995085985
8.181486486486486,1.0518324324324289,-5.004881081081081,-9.067482882882878
8.18948402948403,1.1707292383292387,-5.016077641277641,-9.222279770679771
8.197481572481573,1.2896260442260485,-5.027274201474202,-9.377076658476664
8.205479115479116,1.4085228501228582,-5.038470761670762,-9.531873546273557
8.213476658476658,1.5274196560196416,-5.049667321867321,-9.686670434070415
8.221474201474201,1.6463164619164514,-5.060863882063881,-9.84146732186731
8.229471744471745,1.6458099314625518,-3.938673141083668,-9.000123057028317
8.237469287469288,1.5089256692098625,-3.9477650847019277,-8.95188524505366
8.24546683046683,1.3720414069572036,-3.9568570283201856,-8.903647433079016
8.253464373464373,1.2351571447045142,-3.9659489719384453,-8.855409621104359
8.261461916461917,1.0982728824518246,-3.975040915556705,-8.807171809129702
8.26945945945946,0.9613886201991354,-3.984132859174965,-8.758933997155046
8.277457002457002,0.8245043579464764,-3.9932248027932227,-8.710696185180401
8.285454545454545,0.687620095693787,-4.002316746411482,-8.662458373205745
8.293452088452089,0.5507358334410977,-4.011408690029742,-8.614220561231088
8.301449631449632,0.4138515711884083,-4.020500633648003,-8.565982749256431
8.309447174447175,0.27696730893571897,-4.029592577266262,-8.517744937281776
8.317444717444717,0.14008304668306004,-4.03868452088452,-8.46950712530713
8.32544226044226,0.2676093366092258,-4.144071253071404,-9.145088452088478
8.333439803439804,0.4913559808612451,-4.490824751066861,-8.751632277253334
8.341437346437347,0.5007004784689011,-4.528792034139409,-8.774614690288379
8.349434889434889,0.5100449760765549,-4.5667593172119485,-8.797597103323419
8.357432432432432,0.5193894736842108,-4.604726600284496,-8.820579516358466
8.365429975429976,0.5287339712918667,-4.642693883357044,-8.84356192939351
8.373427518427519,0.5380784688995226,-4.6806611664295925,-8.866544342428556
8.38142506142506,0.5474229665071765,-4.718628449502131,-8.889526755463597
8.389422604422604,0.5567674641148324,-4.75659573257468,-8.912509168498643
8.397420147420148,0.5661119617224883,-4.794563015647228,-8.935491581533688
8.405417690417691,0.5754564593301442,-4.832530298719775,-8.958473994568733
8.413415233415234,0.5848009569378001,-4.870497581792323,-8.98145640760378
8.421412776412776,0.594145454545454,-4.908464864864863,-9.00443882063882
8.42941031941032,0.9179664209664196,-3.769383292383299,-8.432186732186738
8.437407862407863,0.8747204477204458,-3.9631015561015652,-8.628570843570852
8.445405405405406,0.8314744744744719,-4.156819819819831,-8.824954954954967
8.453402948402948,0.7882285012285077,-4.350538083538055,-9.021339066339037
8.461400491400491,0.6787117829291844,-4.481155538938137,-9.124484136310215
8.469398034398035,0.5638485204572189,-4.606682192073494,-9.220106933019974
8.477395577395578,0.44898525798525335,-4.73220884520885,-9.315729729729734
8.485393120393121,0.3341219955132878,-4.857735498344208,-9.411352526439494
8.493390663390663,0.2192587330413478,-4.983262151479536,-9.50697532314923
8.501388206388206,0.10439547056938225,-5.1087888046148935,-9.60259811985899
8.50938574938575,-0.01046779190258329,-5.234315457750251,-9.69822091656875
8.517383292383293,-0.12533105437454883,-5.359842110885607,-9.79384371327851
8.525380835380835,-0.6052063882064292,-3.251415233415087,-7.938238329238576
8.533378378378378,0.8074918918918927,-6.200211711711714,-8.308185585585585
8.541375921375922,0.7291159705159672,-6.027375921375914,-8.425305159705164
8.549373464373465,0.6507400491400417,-5.854540131040115,-8.542424733824745
8.557371007371007,0.5723641277641336,-5.681704340704354,-8.6595443079443
8.56536855036855,0.4939882063882082,-5.508868550368555,-8.776663882063879
8.573366093366094,0.41561228501228265,-5.336032760032755,-8.89378345618346
8.581363636363637,0.3372363636363572,-5.163196969696956,-9.01090303030304
8.58936117936118,0.2588604422604317,-4.990361179361156,-9.12802260442262
8.597358722358722,0.1804845208845236,-4.817525389025395,-9.245142178542174
8.605356265356265,0.10210859950859807,-4.644689598689595,-9.362261752661755
8.613353808353809,0.023732678132672658,-4.471853808353796,-9.479381326781334
8.621351351351352,-0.05464324324325287,-4.299018018017997,-9.596500900900915
8.629348894348894,-0.10082626614884396,-4.502147974954411,-9.223620432749492
8.637346437346437,-0.14416778949036868,-4.738462471268915,-8.807490211619259
8.64534398034398,-0.18750931283189343,-4.974776967583419,-8.391359990489024
8.653341523341524,-0.10901146601138066,-5.11721294021288,-7.908074529074469
8.661339066339066,0.7894699300699297,-4.909161897561901,-7.759504328104324
8.669336609336609,0.7940223776223776,-4.856008996408997,-7.812042033642032
8.677334152334153,0.7985748251748254,-4.802856095256093,-7.8645797391797405
8.685331695331696,0.8031272727272731,-4.749703194103189,-7.91711744471745
8.69332923832924,0.807679720279721,-4.696550292950285,-7.969655150255158
8.701326781326781,0.8122321678321678,-4.643397391797392,-8.022192855792856
8.709324324324324,0.8167846153846156,-4.590244490644488,-8.074730561330563
8.717321867321868,0.8213370629370634,-4.537091589491584,-8.127268266868272
8.725319410319411,1.327176085175919,-5.607805077805255,-7.63165683865702
8.733316953316953,0.5140304615465934,-6.409767509444937,-8.502605532218434
8.741314496314496,0.45890761142374037,-6.243281022958442,-8.52195442656733
8.74931203931204,0.4037847613008875,-6.076794536471947,-8.541303320916224
8.757309582309583,0.34866191117803447,-5.910308049985452,-8.56065221526512
8.765307125307125,0.2935390610551938,-5.743821563498994,-8.580001109614011
8.773304668304668,0.23841621093234083,-5.577335077012499,-8.599350003962906
8.781302211302211,0.18329336080948788,-5.410848590526004,-8.618698898311802
8.789299754299755,0.12817051068663493,-5.244362104039509,-8.638047792660696
8.797297297297298,0.07304766056378198,-5.077875617553014,-8.657396687009593
8.80529484029484,0.017924810440941297,-4.9113891310665565,-8.676745581358484
8.813292383292383,-0.03719803968191171,-4.744902644580061,-8.69609447570738
8.821289926289927,-0.0923208898047646,-4.578416158093566,-8.715443370056274
8.82928746928747,-0.6040137074873987,-5.9421050045260655,-8.116818569765918
8.837285012285012,-0.803531359110278,-6.180768524505332,-7.564146256304229
8.845282555282555,-0.8417248157251589,-6.280742014742304,-7.050496314496271
8.853280098280099,0.1146047911547933,-5.633442260442277,-7.140739557739554
8.861277641277642,0.13829751228501563,-5.8173857493857755,-7.104750614250609
8.869275184275184,0.16199023341523267,-6.001329238329232,-7.068761670761671
8.877272727272727,0.18568295454545503,-6.18527272727273,-7.032772727272726
8.88527027027027,0.20937567567567733,-6.369216216216229,-6.996783783783781
8.893267813267814,0.23306839680589964,-6.553159705159727,-6.960794840294836
8.901265356265357,0.256761117936122,-6.737103194103225,-6.924805896805891
8.909262899262899,0.28045383906633903,-6.921046683046683,-6.888816953316954
8.917260442260442,0.30414656019656133,-7.10499017199018,-6.852828009828008
8.925257985257986,0.32783928132678364,-7.288933660933679,-6.816839066339063
8.933255528255529,1.8401326781326917,-7.531034398034605,-7.266120393120201
8.94125307125307,1.7604642427727735,-8.198278373150709,-6.727814156516275
8.949250614250614,1.6050226357886044,-8.230608866119502,-6.7979202781117625
8.957248157248157,1.4495810288044353,-8.262939359088294,-6.86802639970725
8.965245700245701,1.2941394218202662,-8.295269852057087,-6.938132521302737
8.973243243243244,1.1386978148360973,-8.32760034502588,-7.008238642898224
8.981240786240786,0.9832562078519627,-8.359930837994666,-7.078344764493696
8.98923832923833,0.8278146008677936,-8.392261330963459,-7.148450886089183
8.997235872235873,0.6723729938836245,-8.424591823932252,-7.21855700768467
9.005233415233416,0.5169313868994554,-8.456922316901045,-7.288663129280158
9.013230958230958,0.36148977991532094,-8.48925280986983,-7.358769250875629
9.021228501228501,0.20604817293115185,-8.521583302838623,-7.428875372471117
9.029226044226045,0.11987469287485447,-8.567466830466868,-7.32000737100693
9.037223587223588,-1.0009699153699176,-14.704402730002728,-7.907557521157521
9.04522113022113,-1.2514707343706941,-14.467231149331187,-7.926307316407314
9.053218673218673,-1.5019715533715263,-14.230059568659595,-7.9450571116571105
9.061216216216216,-1.7524723723723583,-13.992887987988002,-7.963806906906906
9.06921375921376,-2.0029731913731905,-13.75571640731641,-7.982556702156702
9.077211302211303,-2.2534740103740227,-13.518544826644815,-8.0013064974065
9.085208845208845,-2.5039748293747994,-13.281373245973274,-8.02005629265629
9.093206388206388,-2.7544756483756316,-13.044201665301681,-8.038806087906087
9.101203931203932,-3.0049764673764634,-12.807030084630089,-8.057555883155883
9.109201474201475,-3.2554772863772956,-12.569858503958496,-8.07630567840568
9.117199017199017,-3.5059781053780723,-12.332686923286955,-8.095055473655473
9.12519656019656,-4.227538083538095,-11.32870638820637,-5.7729213759213245
9.133194103194104,-3.428373386783922,-7.452395396353279,-1.5659413164360905
9.141191646191647,-3.5244280874175744,-7.327296986939075,-1.968175636880955
9.149189189189189,-3.620482788051205,-7.202198577524898,-2.3704099573257302
9.157186732186732,-3.7165374886848577,-7.077100168110694,-2.7726442777705946
9.165184275184275,-3.8125921893185097,-6.95200175869649,-3.1748785982154595
9.173181818181819,-3.908646889952162,-6.8269033492822855,-3.5771129186603243
9.181179361179362,-4.004701590585814,-6.701804939868081,-3.9793472391051887
9.189176904176904,-4.1007562912194455,-6.5767065304539045,-4.381581559549964
9.197174447174447,-4.196810991853098,-6.451608121039699,-4.783815879994829
9.20517199017199,-4.29286569248675,-6.326509711625495,-5.186050200439693
9.213169533169534,-4.388920393120402,-6.201411302211291,-5.588284520884558
9.221167076167076,-4.4849750937540325,-6.076312892797114,-5.990518841329333
9.229164619164619,-4.026639639639688,-5.268497133497208,-8.065428337428148
9.237162162162162,-2.3982027027024606,-4.857094594594743,-12.5016351351356
9.245159705159706,-0.589432183971501,-8.113430030643432,-13.383169450349229
9.253157248157247,-0.5210486983408364,-7.4817139938713275,-13.39503097479502
9.261154791154791,-0.4526652127101566,-6.849997957099081,-13.406892499240815
9.269152334152334,-0.38428172707947683,-6.218281920326836,-13.41875402368661
9.277149877149878,-0.31589824144879697,-5.58656588355459,-13.430615548132403
9.285147420147421,-0.24751475581811716,-4.954849846782344,-13.442477072578198
9.293144963144963,-0.17913127018745256,-4.323133810010239,-13.454338597023991
9.301142506142506,-0.11074778455677281,-3.691417773237993,-13.466200121469784
9.30914004914005,-0.04236429892609295,-3.0597017364657466,-13.478061645915579
9.317137592137593,0.026019186704586805,-2.427985699693501,-13.489923170361374
9.325135135135135,0.09440267233525146,-1.7962696629213957,-13.501784694807165
9.333132678132678,-1.0611031941033264,-0.8575036855037063,-12.346975429975567
9.341130221130221,-0.3489788532148113,-0.6424136874361681,-11.410826850343724
9.349127764127765,-0.2993761146233054,-0.4994463738508675,-11.08966708997046
9.357125307125306,-0.24977337603181046,-0.35647906026559867,-10.768507329597266
9.36512285012285,-0.20017063744030453,-0.21351174668029804,-10.447347569224
9.373120393120393,-0.1505678988487986,-0.07054443309499747,-10.126187808850736
9.381117936117937,-0.10096516025729263,0.0724228804903031,-9.805028048477471
9.38911547911548,-0.051362421665786695,0.21539019407560367,-9.483868288104206
9.397113022113022,-0.0017596830742918068,0.3583575076608725,-9.162708527731013
9.405110565110565,0.04784305551721413,0.5013248212461732,-8.841548767357748
9.413108108108108,0.09744579410872006,0.6442921348314736,-8.520389006984484
9.421105651105652,0.147048532700226,0.7872594484167743,-8.199229246611218
9.429103194103194,1.295285245053672,0.5183458683563837,-6.647743644122594
9.437100737100737,1.2398917367127917,0.6226506659769774,-6.627876063623432
9.44509828009828,1.1844982283719114,0.726955463597571,-6.608008483124272
9.453095823095824,1.1291047200310311,0.8312602612181647,-6.588140902625112
9.461093366093367,1.073711211690151,0.9355650588387583,-6.56827332212595
9.469090909090909,1.018317703349283,1.0398698564593287,-6.5484057416267945
9.477088452088452,0.9629241950084028,1.1441746540799225,-6.528538161127633
9.485085995085996,0.9075306866675226,1.2484794517005162,-6.508670580628473
9.493083538083539,0.8521371783266423,1.3527842493211097,-6.488803000129312
9.50108108108108,0.7967436699857744,1.4570890469416802,-6.468935419630156
9.509078624078624,0.7413501616448941,1.5613938445622737,-6.449067839130995
9.517076167076167,0.6859566533040139,1.6656986421828677,-6.429200258631835
9.52507371007371,1.3528452088453558,2.256815724815724,-7.0320958230959345
9.533071253071252,2.8398498713459213,2.1717025285844023,-7.392626845170151
9.541068796068796,2.940543345779559,2.297396196482802,-7.40465464605622
9.54906633906634,3.041236820213197,2.4230898643812018,-7.416682446942289
9.557063882063883,3.1419302946468353,2.548783532279602,-7.428710247828358
9.565061425061426,3.242623769080473,2.6744772001780017,-7.440738048714428
9.573058968058968,3.3433172435140888,2.8001708680763735,-7.452765849600494
9.581056511056511,3.4440107179477266,2.9258645359747733,-7.4647936504865635
9.589054054054055,3.5447041923813645,3.051558203873173,-7.476821451372633
9.597051597051598,3.6453976668150023,3.177251871771573,-7.488849252258702
9.60504914004914,3.746091141248618,3.3029455396699445,-7.500877053144769
9.613046683046683,3.846784615682256,3.4286392075683447,-7.512904854030838
9.621044226044226,3.9474780901158937,3.5543328754667445,-7.524932654916908
9.62904176904177,4.0481715645495315,3.6800265433651442,-7.536960455802977
9.637039312039311,4.148865038983147,3.805720211263516,-7.548988256689044
9.645036855036855,4.249558513416785,3.9314138791619158,-7.561016057575113
9.653034398034398,4.350251987850423,4.0571075470603155,-7.573043858461182
9.661031941031942,5.055402948403103,4.0656818181818135,-7.960837837837925
9.669029484029485,7.740187000223332,3.520146571364738,-8.710922582086235
9.677027027027027,7.24841081081086,3.2886540540540774,-8.961172972972948
9.68502457002457,6.7566346213982795,3.057161536743365,-9.211423363859717
9.693022113022113,6.264858431985699,2.8256690194326533,-9.461673754746485
9.701019656019657,5.7730822425731185,2.594176502121941,-9.711924145633253
9.709017199017199,5.281306053160647,2.36268398481128,-9.962174536519965
9.717014742014742,4.789529863748067,2.1311914675005683,-10.212424927406735
9.725012285012285,3.6154643734645435,1.862695331695347,-10.10706879606887
9.733009828009829,-0.22661637139531013,0.5459170567696584,-10.623139635329109
9.74100737100737,-0.1799780680201729,0.38419831889305456,-10.625412621233673
9.749004914004914,-0.1333397646450254,0.22247958101641474,-10.627685607138238
9.757002457002457,-0.08670146126987782,0.060760843139775034,-10.629958593042803
9.765,-0.04006315789473028,-0.10095789473686478,-10.63223157894737
9.772997542997544,0.006575145480417266,-0.2626766326135045,-10.634504564851934
9.780995085995086,0.05321344885555446,-0.42439537049010845,-10.636777550756497
9.788992628992629,0.09985175223070203,-0.5861141083667483,-10.639050536661063
9.796990171990172,0.14649005560584955,-0.7478328462433879,-10.641323522565628
9.804987714987716,0.19312835898099712,-0.9095515841200277,-10.643596508470193
9.812985257985257,0.2397666623561343,-1.0712703219966315,-10.645869494374757
9.8209828009828,0.2864049657312818,-1.2329890598732713,-10.648142480279322
9.828980343980344,2.238326781326666,-3.326289926289827,-9.888695331695326
9.836977886977888,2.3686992370360818,-3.134064425190737,-9.809053174705804
9.84497542997543,2.4927032458295444,-2.93564117418857,-9.728909375404124
9.852972972972973,2.6167072546230346,-2.7372179231863596,-9.648765576102424
9.860970515970516,2.740711263416525,-2.5387946721841486,-9.568621776800725
9.86896805896806,2.8647152722100153,-2.3403714211819375,-9.488477977499025
9.876965601965603,2.9887192810035055,-2.1419481701797265,-9.408334178197327
9.884963144963145,3.112723289796968,-1.94352491917756,-9.328190378895645
9.892960687960688,3.2367272985904583,-1.745101668175349,-9.248046579593947
9.900958230958231,3.360731307383949,-1.5466784171731383,-9.167902780292247
9.908955773955775,3.484735316177439,-1.3482551661709274,-9.087758980990548
9.916953316953316,3.6087393249709017,-1.1498319151687606,-9.007615181688866
9.92495085995086,3.7056388206388204,-1.0624791154791189,-8.608953316953304
9.932948402948403,4.277322462175094,-1.6517663519979315,-7.044586551144445
9.940945945945947,4.286077667140825,-1.7728238975818005,-6.974881650071119
9.94894348894349,4.294832872106557,-1.8938814431656694,-6.905176748997793
9.956941031941032,4.303588077072287,-2.0149389887495115,-6.835471847924482
9.964938574938575,4.312343282038019,-2.1359965343333807,-6.765766946851155
9.972936117936118,4.32109848700375,-2.2570540799172494,-6.696062045777828
9.980933660933662,4.3298536919694826,-2.378111625501118,-6.626357144704502
9.988931203931203,4.338608896935212,-2.4991691710849606,-6.556652243631191
9.996928746928747,4.347364101900944,-2.6202267166688293,-6.4869473425578645
10.00492628992629,4.356119306866676,-2.741284262252698,-6.417242441484538
10.012923832923834,4.364874511832408,-2.862341807836567,-6.347537540411212
10.020921375921375,4.3736297167981375,-2.9833993534204097,-6.277832639337901
10.028918918918919,5.0588783783783695,-0.9211891891892044,-6.902635135135156
10.036916461916462,5.062466162543832,-0.7646548984995529,-6.865088547506022
10.044914004914006,5.056875647050403,-0.6238826125330847,-6.851034612723931
10.052911547911549,5.051285131556975,-0.48311032656661645,-6.836980677941841
10.06090909090909,5.045694616063548,-0.34233804060017947,-6.822926743159753
10.068906633906634,5.04010410057012,-0.20156575463371118,-6.808872808377663
10.076904176904177,5.0345135850766916,-0.060793468667243,-6.794818873595571
10.08490171990172,5.028923069583263,0.07997881729922529,-6.780764938813481
10.092899262899262,5.023332554089836,0.22075110326566227,-6.766711004031393
10.100896805896806,5.017742038596408,0.36152338923213045,-6.752657069249302
10.10889434889435,5.012151523102979,0.5022956751985989,-6.738603134467211
10.116891891891893,5.006561007609551,0.643067961165067,-6.7245491996851205
10.124889434889434,5.0009704921161235,0.7838402471315039,-6.710495264903033
10.132886977886978,5.207544226044183,0.9427051597051528,-7.203133906633804
10.140884520884521,5.072862437112435,0.9808502691002612,-8.073811659061652
10.148882063882064,5.051059611559609,0.9038263133263028,-8.009355270855263
10.156879606879608,5.0292567860067825,0.8268023575523444,-7.944898882648872
10.16487714987715,5.007453960453961,0.749778401778403,-7.880442494442496
10.172874692874693,4.9856511349011345,0.6727544460044447,-7.815986106236105
10.180872235872236,4.963848309348308,0.5957304902304863,-7.7515297180297145
10.18886977886978,4.942045483795482,0.5187065344565278,-7.687073329823324
10.196867321867321,4.92024265824266,0.44168257868258654,-7.622616941616949
10.204864864864865,4.898439832689834,0.36465862290862816,-7.558160553410557
10.212862407862408,4.876637007137008,0.2876346671346697,-7.493704165204168
10.220859950859952,4.854834181584182,0.2106107113607113,-7.4292477769977765
10.228857493857493,4.3379163835014785,-1.8614978043807906,-7.657652360290656
10.236855036855037,4.579629358565531,-1.7075876418004066,-7.701043285064562
10.24485257985258,4.821342333629583,-1.5536774792200223,-7.7444342098384675
10.252850122850123,5.063055308693636,-1.3997673166396383,-7.7878251346123735
10.260847665847667,5.304768283757689,-1.2458571540592542,-7.831216059386279
10.268845208845208,5.546481258821688,-1.0919469914789042,-7.8746069841601765
10.276842751842752,5.78819423388574,-0.9380368288985201,-7.917997908934082
10.284840294840295,6.029907208949793,-0.7841266663181359,-7.961388833707988
10.292837837837839,6.2716201840138455,-0.6302165037377518,-8.004779758481895
10.30083538083538,6.513333159077845,-0.4763063411574018,-8.04817068325579
10.308832923832924,6.755046134141898,-0.32239617857701774,-8.091561608029696
10.316830466830467,6.99675910920595,-0.1684860159966337,-8.134952532803602
10.32482800982801,5.991095823095808,-1.0452928746928811,-7.121298560898555
10.332825552825552,5.84714004914006,-1.106074201474197,-7.066229764829768
10.340823095823096,5.703184275184278,-1.1668555282555269,-7.0111609687609695
10.348820638820639,5.559228501228498,-1.2276368550368564,-6.956092172692171
10.356818181818182,5.415272727272717,-1.2884181818181861,-6.901023376623373
10.364815724815726,5.271316953316936,-1.3491995085995159,-6.845954580554574
10.372813267813267,5.127361179361188,-1.4099808353808319,-6.790885784485788
10.38081081081081,4.983405405405406,-1.4707621621621616,-6.735816988416989
10.388808353808354,4.839449631449626,-1.5315434889434911,-6.68074819234819
10.396805896805898,4.695493857493846,-1.5923248157248207,-6.625679396279391
10.40480343980344,4.551538083538096,-1.6531061425061369,-6.570610600210605
10.412800982800983,4.407582309582316,-1.7138874692874666,-6.515541804141806
10.420798525798526,4.263626535626535,-1.7746687960687964,-6.4604730080730075
10.42879606879607,4.119670761670754,-1.8354501228501259,-6.405404212004209
10.436793611793613,6.131711413893581,0.8192046012959697,-7.014027250390992
10.444791154791154,5.150242936117861,-0.17484735872244572,-6.924828009827995
10.452788697788698,2.127671529483802,-3.658277180589942,-6.357002457002414
10.460786240786241,4.9768333238100775,-1.778881206788192,-7.934375178561211
10.468783783783785,4.741184789440597,-1.5640634820867318,-8.284035197988697
10.476781326781326,4.505536255071169,-1.3492457573853192,-8.633695217416104
10.48477886977887,4.269887720701687,-1.134428032683859,-8.98335523684359
10.492776412776413,4.034239186332207,-0.9196103079823987,-9.333015256271073
10.500773955773957,3.7985906519627264,-0.7047925832809385,-9.682675275698559
10.508771498771498,3.540616707616738,0.8199987714985391,-9.689579852579866
10.516769041769042,3.8900958230958897,-0.5831400491400005,-9.626236363636329
10.524766584766585,3.7689417156286718,-0.6828850977459668,-9.700296976818715
10.532764127764128,3.7712366627497063,-0.6945684649075956,-9.712467150945411
10.540761670761672,3.7735316098707403,-0.7062518320692244,-9.72463732507211
10.548759213759213,3.775826556991774,-0.7179351992308506,-9.736807499198802
10.556756756756757,3.7781215041128084,-0.7296185663924794,-9.748977673325498
10.5647542997543,3.7804164512338425,-0.7413019335541081,-9.761147847452195
10.572751842751844,3.7827113983548766,-0.7529853007157369,-9.773318021578893
10.580749385749385,3.7850063454759106,-0.7646686678773631,-9.785488195705586
10.588746928746929,3.7873012925969447,-0.7763520350389919,-9.797658369832282
10.596744471744472,3.7895962397179788,-0.7880354022006206,-9.80982854395898
10.604742014742015,3.7918911868390133,-0.7997187693622494,-9.821998718085677
10.612739557739557,3.794186133960047,-0.8114021365238756,-9.83416889221237
10.6207371007371,3.796481081081081,-0.8230855036855045,-9.846339066339068
10.628734643734644,3.7987760282021155,-0.8347688708471332,-9.858509240465764
10.636732186732187,4.532475094929636,2.6788964336236916,-8.292709924800837
10.64472972972973,4.431415233415223,2.295135544635504,-8.385529893529903
10.652727272727272,4.330355371900832,1.9113746556474018,-8.478349862258948
10.660724815724816,4.229295510386418,1.5276137666592144,-8.571169830988014
10.66872235872236,4.128235648872004,1.143852877671027,-8.66398979971708
10.676719901719903,4.02717578735759,0.7600919886828397,-8.756809768446146
10.684717444717444,3.926115925843199,0.37633109969473777,-8.84962973717519
10.692714987714988,3.8250560643287854,-0.00742978929344984,-8.942449705904256
10.700712530712531,4.089265356265437,0.9504938574941539,-8.997786240786235
10.708710073710074,3.8562343980343567,0.7059646191645351,-9.195714004914029
10.716707616707616,3.2403046683049648,-0.3346437346433802,-8.372909090910255
10.72470515970516,3.725704592704539,0.34604176904169565,-8.449464562464517
10.732702702702703,4.126079893079893,0.8879518859518871,-8.80358301158301
10.740700245700246,4.105602667602667,0.8463822393822381,-8.837858195858196
10.74869778869779,4.08512544212544,0.8048125928125891,-8.872133380133382
10.756695331695331,4.0646482166482185,0.7632429462429493,-8.906408564408562
10.764692874692875,4.044170991170992,0.7216732996733004,-8.940683748683748
10.772690417690418,4.023693765693765,0.6801036531036513,-8.974958932958934
10.780687960687962,4.003216540216538,0.6385340065340024,-9.00923411723412
10.788685503685503,3.982739314739316,0.5969643599643626,-9.0435093015093
10.796683046683047,3.9622620892620892,0.5553947133947135,-9.077784485784486
10.80468058968059,3.9417848637848625,0.5138250668250646,-9.112059670059672
10.812678132678133,3.9213076383076357,0.4722554202554155,-9.146334854334858
10.820675675675675,3.900830412830414,0.43068577368577576,-9.180610038610038
10.828673218673218,3.7444023914823976,0.1417921375921385,-9.200752825552831
10.836670761670762,3.6767964946764966,0.1321950859950863,-9.14317051597052
10.844668304668305,3.609190597870596,0.12259803439803413,-9.085588206388206
10.852665847665849,3.541584701064695,0.11300098280098195,-9.028005896805892
10.86066339066339,3.473978804258809,0.1034039312039319,-8.970423587223591
10.868660933660934,3.4063729074529085,0.09380687960687972,-8.912841277641279
10.876658476658477,3.3387670106470075,0.08420982800982754,-8.855258968058966
10.88465601965602,3.2711611138411065,0.07461277641277538,-8.797676658476652
10.892653562653562,3.2035552170352206,0.06501572481572533,-8.740094348894353
10.900651105651106,3.1359493202293196,0.05541867321867315,-8.682512039312039
10.908648648648649,3.956271309771313,-0.11444490644490453,-8.835871101871106
10.916646191646192,4.0691597051597155,-0.05354054054053506,-8.961371007371019
10.924643734643736,4.182048100548117,0.007363825363834425,-9.086870912870932
10.932641277641277,4.294936495936494,0.06826819126819036,-9.212370818370816
10.94063882063882,4.46228255528256,-0.169407862407864,-6.695501228501212
10.948636363636364,4.361983957219249,-0.12885561497326112,-7.125957219251347
10.956633906633908,4.26168535915594,-0.08830336753865822,-7.556413210001482
10.96463144963145,4.161386761092651,-0.04775112010406435,-7.986869200751522
10.972628992628993,4.061088163029341,-0.0071988726694614535,-8.417325191501657
10.980626535626536,3.960789564966031,0.03335337476514144,-8.847781182251792
10.98862407862408,3.860490966902721,0.07390562219974434,-9.278237173001926
10.996621621621621,3.7601923688394328,0.11445786963433818,-9.708693163751967
11.004619164619164,3.6598937707761228,0.15501011706894108,-10.139149154502102
11.012616707616708,3.5595951727128123,0.19556236450354397,-10.569605145252236
11.020614250614251,3.4829022659022932,0.20426672126667214,-10.822719355719109
11.028611793611795,3.689949767949798,-0.16984056784062188,-8.944185367185096
11.036609336609336,5.219599508599521,0.812729333439007,-9.096395339621154
11.04460687960688,5.1049680589680655,0.847987318696994,-9.024245462471274
11.052604422604423,4.990336609336611,0.883245303954981,-8.952095585321393
11.060601965601967,4.875705159705155,0.9185032892129681,-8.879945708171512
11.068599508599508,4.761073710073725,0.9537612744709474,-8.807795831021647
11.076597051597052,4.646442260442269,0.9890192597289345,-8.735645953871765
11.084594594594595,4.531810810810814,1.0242772449869215,-8.663496076721884
11.092592137592138,4.417179361179358,1.0595352302449086,-8.591346199572005
11.10058968058968,4.302547911547928,1.0947932155028877,-8.51919632242214
11.108587223587223,4.187916461916473,1.130051200760875,-8.447046445272258
11.116584766584767,4.073285012285018,1.1653091860188618,-8.374896568122377
11.12458230958231,3.967,0.9896302211302055,-8.30683538083538
11.132579852579854,4.396975429975709,-0.4123906633903148,-8.387154791154849
11.140577395577395,4.6564348894348955,-0.33636609336609374,-8.825702702702717
11.148574938574939,4.429560002586318,-0.17411470321996705,-9.12121253071253
11.156572481572482,4.412091684986422,-0.14422914780809454,-9.117213759213758
11.164570024570025,4.394623367386524,-0.11434359239622202,-9.113214987714986
11.172567567567567,4.377155049786631,-0.08445803698435614,-9.109216216216216
11.18056511056511,4.359686732186733,-0.05457248157248362,-9.105217444717445
11.188562653562654,4.342218414586836,-0.024686926160611106,-9.101218673218673
11.196560196560197,4.324750096986939,0.005198629251261411,-9.097219901719901
11.204557739557739,4.307281779387045,0.035084184663127294,-9.093221130221131
11.212555282555282,4.289813461787149,0.06496974007499981,-9.08922235872236
11.220552825552826,4.272345144187251,0.09485529548687233,-9.085223587223588
11.22855036855037,3.922877149877144,0.0928992628992627,-9.04831905931906
11.236547911547913,3.9270063424947086,-0.0118358950917109,-9.437344094623162
11.244545454545454,3.8960391120507394,-0.02132135306553931,-9.428788583509514
11.252542997542998,3.865071881606763,-0.03080681103936983,-9.420233072395863
11.260540540540541,3.834104651162787,-0.04029226901320035,-9.411677561282211
11.268538083538084,3.803137420718811,-0.04977772698703087,-9.40312205016856
11.276535626535626,3.7721701902748417,-0.05926318496085928,-9.39456653905491
11.28453316953317,3.741202959830866,-0.0687486429346898,-9.38601102794126
11.292530712530713,3.7102357293868895,-0.0782341009085203,-9.37745551682761
11.300528255528256,3.6792684989429136,-0.08771955888235082,-9.368900005713957
11.308525798525798,3.6483012684989444,-0.09720501685617923,-9.360344494600309
11.316523341523341,3.617334038054968,-0.10669047483000975,-9.351788983486657
11.324520884520885,3.423955773955733,-0.1841781326781494,-9.108460073710019
11.332518427518428,3.3253994383996046,-1.6870738153735794,-8.980568304668331
11.340515970515971,4.490755703755925,-0.035809687609373864,-9.162112530712566
11.348513513513513,5.656111969111986,1.6154544401544646,-9.34365675675676
11.356511056511057,6.821468234468306,3.2667185679186694,-9.525200982800994
11.3645085995086,7.9868244998246265,4.917982695682875,-9.706745208845229
11.372506142506143,9.152180765180947,6.56924682344708,-9.888289434889463
11.380503685503685,10.317537030537007,8.220510951210919,-10.069833660933657
11.388501228501228,11.482893295893328,9.871775078975123,-10.251377886977892
11.396498771498772,12.648249561249647,11.52303920673933,-10.432922113022126
11.404496314496315,2.302829416829421,-1.2112067452067439,-8.650626913626919
11.412493857493859,2.3484222474222536,-1.1984243474243457,-8.709070497070506
11.4204914004914,2.394015078015076,-1.1856419496419501,-8.76751408051408
11.428488943488944,2.4396079086079085,-1.1728595518595517,-8.825957663957665
11.436486486486487,2.4852007392007414,-1.1600771540771535,-8.88440124740125
11.44448402948403,2.5307935697935737,-1.147294756294755,-8.942844830844837
11.452481572481572,2.5763864003863963,-1.1345123585123595,-9.00128841428841
11.460479115479115,2.621979230979229,-1.1217299607299613,-9.059731997731996
11.468476658476659,2.6675720615720615,-1.108947562947563,-9.118175581175581
11.476474201474202,2.713164892164894,-1.0961651651651645,-9.176619164619167
11.484471744471744,2.7587577227577165,-1.0833827673827692,-9.23506274806274
11.492469287469287,2.8043505533505493,-1.0706003696003707,-9.293506331506327
11.50046683046683,2.8499433839433816,-1.0578179718179723,-9.351949914949913
11.508464373464374,2.8955362145362145,-1.0450355740355741,-9.410393498393498
11.516461916461918,2.941129045129047,-1.0322531762531757,-9.468837081837085
11.52445945945946,3.153278586278528,-0.8310041580042182,-9.36415384615389
11.532457002457003,3.583915516915484,-0.38252655452658846,-9.045482517482542
11.540454545454546,3.405405470635553,-0.9722212389380389,-9.465790828640388
11.54845208845209,3.3558631688808593,-0.8523288686916798,-9.481573590485098
11.556449631449631,3.3063208671261766,-0.7324364984453473,-9.497356352329804
11.564447174447174,3.2567785653714827,-0.6125441281989881,-9.513139114174514
11.572444717444718,3.207236263616789,-0.49265175795262894,-9.528921876019224
11.580442260442261,3.157693961862095,-0.3727593877062698,-9.544704637863934
11.588439803439803,3.108151660107412,-0.25286701745993734,-9.56048739970864
11.596437346437346,3.0586093583527183,-0.1329746472135782,-9.576270161553348
11.60443488943489,3.0090670565980244,-0.013082276967218975,-9.592052923398057
11.612432432432433,2.9595247548433306,0.10681009327914004,-9.607835685242767
11.620429975429976,2.9099824530886367,0.22670246352549928,-9.623618447087477
11.628427518427518,2.860440151333954,0.34659483377183165,-9.639401208932183
11.636425061425062,2.81089784957926,0.4664872040181909,-9.655183970776893
11.644422604422605,2.761355547824566,0.5863795742645501,-9.670966732621602
11.652420147420148,4.2303087633085905,1.0838583128581136,-9.87594021293956
11.66041769041769,4.481523341523367,0.33061965601968213,-9.3037312039312
11.668415233415233,4.336569692542663,0.1701421077096716,-9.278531243774484
11.676412776412777,4.268158277442055,0.08724865528918774,-9.242434225380167
11.68441031941032,4.1997468623414465,0.004355202868703889,-9.20633720698585
11.692407862407862,4.131335447240854,-0.07853824955176153,-9.17024018859154
11.700405405405405,4.062924032140246,-0.16143170197224538,-9.134143170197223
11.708402948402949,3.9945126170396383,-0.24432515439272923,-9.098046151802905
11.716400491400492,3.92610120193903,-0.32721860681321313,-9.061949133408588
11.724398034398035,3.857689786838422,-0.410112059233697,-9.02585211501427
11.732395577395577,3.7892783717378293,-0.4930055116541624,-8.98975509661996
11.74039312039312,3.736438984438982,-0.008552416052376999,-8.911484848484843
11.748390663390664,4.287250614250633,0.9986457002456703,-8.678958722358729
11.756388206388207,4.4152113022113255,0.7973208845208473,-8.716600491400499
11.764385749385749,4.54317199017199,0.5959960687960688,-8.754242260442261
11.772383292383292,4.6711326781326825,0.39467125307124573,-8.79188402948403
11.780380835380836,4.799093366093375,0.19334643734642254,-8.829525798525802
11.788378378378379,4.927054054054068,-0.007978378378400652,-8.867167567567572
11.79637592137592,5.055014742014732,-0.2093031941031791,-8.904809336609334
11.804373464373464,5.182975429975425,-0.4106280098280022,-8.942451105651104
11.812371007371008,5.310936117936118,-0.6119528255528253,-8.980092874692875
11.820368550368551,5.240616707616564,-0.7806584766584593,-9.03307616707618
11.828366093366094,3.8920059950859978,-0.5645246191646136,-9.161117346437347
11.836363636363636,3.929274545454542,-0.4907872727272795,-9.170234545454544
11.84436117936118,3.9665430958230945,-0.4170499262899291,-9.179351744471743
11.852358722358723,4.003811646191647,-0.3433125798525786,-9.188468943488942
11.860356265356266,4.041080196560199,-0.26957523341522815,-9.197586142506143
11.868353808353808,4.078348746928744,-0.19583788697789406,-9.20670334152334
11.876351351351351,4.1156172972972955,-0.12210054054054359,-9.21582054054054
11.884348894348895,4.152885847665848,-0.04836319410319312,-9.22493773955774
11.892346437346438,4.190154398034401,0.025374152334157296,-9.234054938574939
11.900343980343981,4.227422948402953,0.09911149877150771,-9.243172137592138
11.908341523341523,4.264691498771497,0.1728488452088418,-9.252289336609337
11.916339066339066,4.30196004914005,0.24658619164619233,-9.261406535626536
11.92433660933661,4.0215700245700114,0.411587223587228,-9.121972972972966
11.932334152334153,3.8744722709722668,0.17083731133728897,-8.945515444015435
11.940331695331695,3.8361983151983208,-0.022817479817453523,-8.863826254826265
11.948329238329238,4.077307944307959,0.06605241605242232,-9.005213486213494
11.956326781326782,4.138806771902663,0.08471323752145579,-9.042726734206187
11.964324324324325,4.1461469825990385,0.07803035912624832,-9.047437615697891
11.972321867321867,4.153487193295413,0.07134748073104234,-9.052148497189593
11.98031941031941,4.160827403991788,0.06466460233583488,-9.056859378681297
11.988316953316954,4.168167614688163,0.057981723940627415,-9.061570260173001
11.996314496314497,4.175507825384539,0.05129884554541995,-9.066281141664705
12.00431203931204,4.182848036080914,0.04461596715021248,-9.070992023156409
12.012309582309582,4.190188246777288,0.0379330887550065,-9.07570290464811
12.020307125307125,4.1975284574736635,0.03125021035979903,-9.080413786139815
12.028304668304669,4.2257985257983295,0.2916560196560223,-9.31081326781317
12.036302211302212,3.384674037674039,0.4821155883155857,-8.526136172536173
12.044299754299754,3.411332514332511,0.4219562926563002,-8.544441659841658
12.052297297297297,3.437990990990989,0.3617969969970014,-8.562747147147146
12.06029484029484,3.4646494676494672,0.30163770133770257,-8.581052634452634
12.068292383292384,3.491307944307945,0.24147840567840373,-8.599358121758122
12.076289926289926,3.517966420966417,0.18131911001911827,-8.617663609063607
12.084287469287469,3.544624897624895,0.12115981435981943,-8.635969096369095
12.092285012285013,3.5712833742833734,0.061000518700520645,-8.654274583674583
12.100282555282556,3.5979418509418513,0.0008412230412218058,-8.672580070980072
12.1082800982801,3.6246003276003296,-0.05931807261807698,-8.69088555828556
12.116277641277641,3.6512588042588017,-0.11947736827736244,-8.709191045591044
12.124275184275184,5.986649262899265,3.2037014742014778,-6.830218673218671
12.132272727272728,2.6072642045454835,-1.3832102272727191,-7.612622159090939
12.140270270270271,2.8294459459459858,-1.3197297297297184,-7.841635135135176
12.148267813267813,3.051627687346439,-1.2562492321867318,-8.070648111179363
12.156265356265356,3.2738094287469415,-1.192768734643731,-8.299661087223601
12.1642628992629,3.4959911701474438,-1.1292882371007302,-8.528674063267838
12.172260442260443,3.7181729115479465,-1.0658077395577297,-8.757687039312076
12.180257985257985,3.9403546529483995,-1.0023272420147429,-8.986700015356263
12.188255528255528,4.162536394348902,-0.9388467444717422,-9.2157129914005
12.196253071253071,4.384718135749405,-0.8753662469287414,-9.444725967444738
12.204250614250615,4.606899877149907,-0.8118857493857408,-9.673738943488974
12.212248157248158,4.8290816185504095,-0.7484052518427401,-9.902751919533213
12.2202457002457,5.0512633599508625,-0.6849247542997534,-10.1317648955774
12.228243243243243,3.7523783783782343,-0.674135135135526,-9.271594594594516
12.236240786240787,3.488027610869193,-1.3386397693823402,-9.132347434743474
12.24423832923833,3.474803950665334,-1.3161516286763768,-9.129417641764176
12.252235872235872,3.4615802904614785,-1.2936634879704183,-9.126487848784878
12.260233415233415,3.44835663025762,-1.271175347264455,-9.12355805580558
12.268230958230959,3.4351329700537607,-1.2486872065584915,-9.120628262826283
12.276228501228502,3.421909309849902,-1.2261990658525281,-9.117698469846985
12.284226044226045,3.4086856496460434,-1.2037109251465645,-9.114768676867687
12.292223587223587,3.3954619894421874,-1.1812227844406062,-9.111838883888389
12.30022113022113,3.3822383292383287,-1.1587346437346426,-9.10890909090909
12.308218673218674,3.36901466903447,-1.1362465030286792,-9.105979297929792
12.316216216216217,3.3557910088306113,-1.1137583623227159,-9.103049504950496
12.324213759213759,3.3425673486267553,-1.0912702216167574,-9.100119711971198
12.332211302211302,3.2540249210249192,-1.132493857493859,-9.138909090909092
12.340208845208846,2.9683983853983555,-1.3404299754299973,-9.286863636363652
12.348206388206389,3.78700884520902,0.4185410319413716,-9.33007911547911
12.35620393120393,3.647624286258068,1.1510101740665106,-8.63978959753607
12.364201474201474,3.7715298819946566,1.1602467730214199,-8.67020278921687
12.372199017199017,3.8954354777312448,1.1694833719763291,-8.700615980897668
12.380196560196561,4.019341073467833,1.1787199709312386,-8.731029172578468
12.388194103194104,4.143246669204421,1.1879565698861478,-8.761442364259267
12.396191646191646,4.267152264940982,1.197193168841055,-8.79185555594006
12.40418918918919,4.391057860677571,1.2064297677959646,-8.822268747620859
12.412186732186733,4.51496345641416,1.2156663667508738,-8.852681939301657
12.420184275184276,4.638869052150747,1.224902965705783,-8.883095130982458
12.428181818181818,4.62284415584416,1.18041558441559,-8.789987012987025
12.436179361179361,4.565718848718848,1.120148385398385,-8.660598192348191
12.444176904176905,4.508593541593536,1.0598811863811801,-8.531209371709357
12.452174447174448,4.321933309933238,0.7662492102490865,-8.5972878202879
12.46017199017199,3.1511225429975367,0.5505308660933795,-8.757699477886971
12.468169533169533,3.2178520423832895,0.4052005144348956,-8.826553324631448
12.476167076167076,3.2845815417690423,0.2598701627764116,-8.895407171375922
12.48416461916462,3.351311041154795,0.11453981111792771,-8.964261018120396
12.492162162162163,3.418040540540548,-0.03079054054055619,-9.033114864864872
12.500159705159705,3.4847700399262855,-0.17612089219900784,-9.101968711609333
12.508157248157248,3.5514995393120383,-0.3214512438574918,-9.170822558353807
12.516154791154792,3.618229038697791,-0.46678159551597564,-9.239676405098281
12.524152334152335,4.265876535626456,-0.34176842751872527,-9.188013513513537
12.532149877149877,3.0971037315724823,-0.31562246621621676,-8.678781019656018
12.54014742014742,3.0915221130221133,-0.3110405405405408,-8.693776412776412
12.548144963144964,3.085940494471745,-0.3064586148648649,-8.708771805896806
12.556142506142507,3.080358875921376,-0.30187668918918903,-8.7237671990172
12.564140049140049,3.074777257371008,-0.29729476351351414,-8.73876259213759
12.572137592137592,3.069195638820639,-0.29271283783783825,-8.753757985257984
12.580135135135135,3.0636140202702706,-0.28813091216216236,-8.768753378378378
12.588132678132679,3.0580324017199016,-0.2835489864864864,-8.783748771498772
12.596130221130222,3.0524507831695327,-0.2789670608108105,-8.798744164619166
12.604127764127764,3.046869164619165,-0.2743851351351356,-8.813739557739556
12.612125307125307,3.0412875460687965,-0.26980320945945974,-8.828734950859952
12.62012285012285,3.0357059275184275,-0.26522128378378385,-8.843730343980345
12.628120393120394,3.8117542997543366,-0.13252088452087832,-8.94645577395578
12.636117936117936,4.763993137337966,0.31448284334491394,-9.308050523878112
12.644115479115479,4.742482504448022,0.260706261120053,-9.265488887006127
12.652113022113022,4.720971871558077,0.206929678895192,-9.222927250134143
12.660110565110566,4.699461238668133,0.15315309667033103,-9.18036561326216
12.668108108108108,4.677950605778193,0.09937651444548198,-9.137803976390185
12.676105651105651,4.656439972888249,0.04559993222062103,-9.095242339518201
12.684103194103194,4.634929339998305,-0.00817665000423995,-9.052680702646217
12.692100737100738,4.61341870710836,-0.06195323222910093,-9.010119065774234
12.700098280098281,4.5919080742184155,-0.11572981445396191,-8.96755742890225
12.708095823095823,4.570397441328476,-0.16950639667881096,-8.924995792030275
12.716093366093366,4.548886808438532,-0.22328297890367194,-8.882434155158291
12.72409090909091,4.2716363636363335,-0.9456818181818973,-9.020363636363657
12.732088452088453,3.8007203931204057,0.2591169533169554,-8.86610171990174
12.740085995085995,3.8658559377559394,0.26969148239148266,-8.965715561015564
12.748083538083538,3.9309914823914873,0.2802660114660123,-9.06532940212941
