gyro_time_list,gyro_x_list,gyro_y_list,gyro_z_list
0.0,0.1,-0.1,0.0
0.007999433106575964,0.1998866213151927,0.1,0.1
0.015998866213151927,0.17647392290249433,0.09215797430083145,0.1
0.02399829931972789,0.15294617847138856,0.08431539282379619,0.1
0.031997732426303854,0.1294184340402828,0.07647281134676093,0.1
0.03999716553287982,0.10589068960917701,0.06863022986972567,0.1
0.04799659863945578,0.08236294517807123,0.060787648392690415,0.1
0.055996031746031745,0.058835200746965466,0.05294506691565516,0.1
0.06399546485260771,0.03530745631585969,0.0451024854386199,0.1
0.07199489795918368,0.011779711884753907,0.03725990396158464,0.1
0.07999433106575964,-0.0117480325463519,0.029417322484549382,0.1
0.08799376417233559,-0.035275776977457596,0.021574741007514137,0.1
0.09599319727891156,-0.05880352140856343,0.013732159530478877,0.1
0.10399263038548753,-0.08233126583966921,0.005889578053443617,0.1
0.11199206349206349,-0.0007936507936512349,0.049603174603174385,0.1
0.11999149659863945,0.18622644460082888,0.2931132223004144,0.0
0.12799092970521542,0.16783694320640136,0.28391847160320066,0.0
0.1359903628117914,0.14944744181197384,0.2747237209059869,0.0
0.14398979591836736,0.13105794041754631,0.26552897020877314,0.0
0.1519892290249433,0.11266843902311888,0.25633421951155944,0.0
0.15998866213151927,0.09427893762869136,0.24713946881434568,0.0
0.16798809523809524,0.07588943623426384,0.23794471811713191,0.0
0.17598752834467118,0.0574999348398364,0.2287499674199182,0.0
0.18398696145124716,0.039110433445408876,0.21955521672270445,0.0
0.19198639455782313,0.020720932050981355,0.2103604660254907,0.0
0.1999858276643991,0.0023314306565538345,0.20116571532827693,0.0
0.20798526077097507,-0.40357704643418935,0.40357704643418935,0.305365569651284
0.215984693877551,-0.4179904394190109,0.4179904394190109,0.32698565912851624
0.22398412698412698,-0.4324038324038324,0.4324038324038324,0.3486057486057486
0.23198356009070295,-0.446817225388654,0.446817225388654,0.37022583808298093
0.2399829931972789,-0.4612306183734755,0.4612306183734755,0.39184592756021325
0.24798242630385486,-0.47564401135829704,0.47564401135829704,0.41346601703744557
0.25598185941043083,-0.4900574043431186,0.4900574043431186,0.43508610651467794
0.2639812925170068,-0.5044707973279402,0.5044707973279402,0.4567061959919103
0.2719807256235828,-0.5188841903127618,0.5188841903127618,0.47832628546914263
0.27998015873015875,-0.5332975832975833,0.5332975832975833,0.49994637494637495
0.2879795918367347,-0.5477109762824048,0.5477109762824048,0.5215664644236073
0.29597902494331063,-0.5621243692672263,0.5621243692672263,0.5431865539008396
0.3039784580498866,-0.5765377622520479,0.5765377622520479,0.5648066433780718
0.3119778911564626,-0.5909511552368695,0.5909511552368695,0.5864267328553042
0.31997732426303854,-0.9651549508692358,0.810859158478206,0.821718316956412
0.3279767573696145,-1.4984504913076333,0.8997417485512722,0.9994834971025444
0.3359761904761905,-2.364254385964912,1.0091791979949876,1.4550751879699246
0.34397562358276645,-2.4379333751044276,1.0197047678720612,1.5182286072323665
0.35197505668934237,-2.5116123642439425,1.0302303377491346,1.581382026494808
0.35997448979591834,-2.5852913533834583,1.0407559076262083,1.6445354457572499
0.3679739229024943,-2.6589703425229736,1.051281477503282,1.7076888650196917
0.3759733560090703,-2.732649331662489,1.0618070473803556,1.7708422842821336
0.38397278911564625,-2.8063283208020047,1.0723326172574292,1.8339957035445755
0.3919722222222222,-2.8800073099415204,1.0828581871345029,1.8971491228070172
0.3999716553287982,-2.9536862990810357,1.0933837570115765,1.960302542069459
0.40797108843537416,-2.402891156462581,1.3985544217687094,2.397108843537419
0.41597052154195013,-2.3513593250920444,1.6192597469095167,2.4935800843634945
0.42396995464852605,-2.420171652890547,1.645064369833955,2.4849785433886815
0.431969387755102,-2.4889839806890497,1.6708689927583937,2.476377002413869
0.439968820861678,-2.5577963084875526,1.6966736156828324,2.467775461439056
0.44796825396825396,-2.626608636286056,1.722478238607271,2.459173920464243
0.45596768707482993,-2.695420964084559,1.7482828615317094,2.4505723794894303
0.4639671201814059,-2.7642332918830617,1.774087484456148,2.4419708385146173
0.47196655328798187,-2.8330456196815645,1.7998921073805867,2.4333692975398042
0.4799659863945578,-2.901857947480067,1.825696730305025,2.4247677565649917
0.48796541950113376,-2.97067027527857,1.8515013532294637,2.4161662155901786
0.4959648526077097,-3.039482603077073,1.8773059761539024,2.4075646746153656
0.5039642857142858,-3.29285714285715,1.8517857142857124,2.4
0.5119637188208617,-3.5916121165447312,1.9055919223035125,2.5027959611517563
0.5199631519274376,-3.56897221152612,1.9206851923159198,2.51034259615796
0.5279625850340136,-3.5463323065075087,1.9357784623283274,2.5178892311641636
0.5359620181405895,-3.5236924014888977,1.950871732340735,2.5254358661703673
0.5439614512471656,-3.5010524964702863,1.9659650023531425,2.5329825011765714
0.5519608843537415,-3.4784125914516753,1.9810582723655499,2.540529136182775
0.5599603174603175,-3.455772686433064,1.9961515423779574,2.5480757711889788
0.5679597505668934,-3.4331327814144528,2.011244812390365,2.5556224061951824
0.5759591836734694,-3.4104928763958413,2.0263380824027726,2.563169041201386
0.5839586167800453,-3.38785297137723,2.04143135241518,2.5707156762075902
0.5919580498866213,-3.365213066358619,2.0565246224275873,2.578262311213794
0.5999574829931973,-3.3425731613400074,2.071617892439995,2.5858089462199976
0.6079569160997732,-3.3199332563213964,2.0867111624524024,2.5933555812262012
0.6159563492063492,-3.27267573696145,2.0863378684807254,2.6
0.6239557823129251,-2.556632653061228,1.8477891156462571,2.7477891156462575
0.6319552154195012,-2.3858056828173444,1.9212914757739832,2.8
0.6399546485260771,-2.369480309130455,1.9457795363043175,2.8
0.647954081632653,-2.3531549354435652,1.9702675968346521,2.8
0.655953514739229,-2.336829561756675,1.994755657364987,2.8
0.6639529478458049,-2.3205041880697856,2.0192437178953213,2.8
0.671952380952381,-2.304178814382896,2.043731778425656,2.8
0.6799518140589569,-2.2878534406960065,2.0682198389559905,2.8
0.6879512471655329,-2.2715280670091165,2.0927078994863253,2.8
0.6959506802721088,-2.255202693322227,2.1171959600166597,2.8
0.7039501133786847,-2.2388773196353373,2.1416840205469945,2.8
0.7119495464852608,-2.2225519459484477,2.1661720810773293,2.8
0.7199489795918367,-2.2062265722615577,2.1906601416076636,2.8
0.7279484126984127,-2.150515873015873,2.2,2.8
0.7359478458049886,-1.892101284958428,1.884202569916856,2.692101284958428
0.7439472789115646,-1.825439342403628,1.7508786848072557,2.625439342403628
0.7519467120181406,-1.7823331713637838,1.7,2.555832928409459
0.7599461451247166,-1.7537637674117266,1.7,2.4844094185293164
0.7679455782312925,-1.7251943634596698,1.7,2.4129859086491745
0.7759450113378684,-1.6966249595076128,1.7,2.341562398769032
0.7839444444444444,-1.6680555555555556,1.7,2.2701388888888894
0.7919438775510204,-1.6394861516034989,1.7,2.198715379008747
0.7999433106575964,-1.6109167476514417,1.7,2.1272918691286042
0.8079427437641723,-1.7,1.6,1.8123834719072822
0.8159421768707483,-1.4812047399604995,1.4916465510935553,1.3895581888669442
0.8239416099773242,-1.4037908711871843,1.4572403871943043,1.3465504839928801
0.8319410430839003,-1.3263770024138681,1.4228342232950524,1.3035427791188154
0.8399404761904762,-1.2489631336405527,1.3884280593958012,1.2605350742447514
0.8479399092970521,-1.1715492648672376,1.3540218954965502,1.2175273693706874
0.8559393424036281,-1.0941353960939213,1.3196157315972983,1.174519664496623
0.863938775510204,-1.016721527320606,1.285209567698047,1.131511959622559
0.8719382086167801,-0.9393076585472897,1.2508034037987954,1.0885042547484942
0.879937641723356,-0.8618937897739745,1.2163972398995442,1.0454965498744302
0.887937074829932,-0.7844799210006581,1.1819910760002925,1.0024888450003657
0.8959365079365079,-0.7070660522273429,1.1475849121010413,0.9594811401263016
0.9039359410430838,-0.6296521834540276,1.11317874820179,0.9164734352522376
0.9119353741496599,0.0032312925170085993,0.9,0.1064625850340172
0.9199348072562358,-0.016360427332444853,0.8836395726675552,0.07545935900133272
0.9279342403628118,-0.03285410384084905,0.8671458961591509,0.05071884423872641
0.9359336734693877,-0.04934778034925302,0.850652219650747,0.025978329476120457
0.9439331065759637,-0.06584145685765723,0.8341585431423427,0.0012378147135141404
0.9519325396825397,-0.0823351333660612,0.8176648666339388,-0.023502700049091815
0.9599319727891156,-0.09882880987446517,0.8011711901255348,-0.04824321481169777
0.9679314058956916,-0.11532248638286936,0.7846775136171306,-0.07298372957430407
0.9759308390022675,-0.13181616289127335,0.7681838371087266,-0.09772424433691004
0.9839302721088435,-0.14830983939967754,0.7516901606003225,-0.12246475909951635
0.9919297052154195,-0.1648035159080815,0.7351964840919184,-0.14720527386212232
0.9999291383219955,-0.1812971924164857,0.7187028075835142,-0.17194578862472862
1.0079285714285715,-0.19779086892488992,0.70220913107511,-0.19668630338733492
1.0159280045351473,-0.2036752654857323,0.0,-0.4
1.0239274376417233,-0.23535618868009275,0.0,-0.4
1.0319268707482994,-0.26703711187445317,0.0,-0.4
1.0399263038548752,-0.2987180350688127,0.0,-0.4
1.0479257369614512,-0.33039895826317317,0.0,-0.4
1.0559251700680272,-0.3620798814575336,0.0,-0.4
1.0639246031746032,-0.39376080465189406,0.0,-0.4
1.071924036281179,-0.42544172784625356,0.0,-0.4
1.079923469387755,-0.45712265104061406,0.0,-0.4
1.087922902494331,-0.48880357423497445,0.0,-0.4
1.095922335600907,-0.520484497429334,0.0,-0.4
1.103921768707483,-0.5521654206236944,0.0,-0.4
1.111921201814059,-0.5838463438180549,0.0,-0.4
1.119920634920635,-0.6,0.1,-0.2807936507936508
1.1279200680272108,-0.6,0.1,-0.20079931972789106
1.1359195011337868,-0.40201247165532716,0.0010062358276635708,-0.10100623582766358
1.1439189342403628,-0.3094978943958522,0.0,-0.08868723679948153
1.1519183673469389,-0.2180758017492691,0.0,-0.07725947521865864
1.1599178004535147,-0.12665370910268858,0.0,-0.06583171363783608
1.1679172335600907,-0.03523161645610551,0.0,-0.05440395205701319
1.1759166666666667,0.05619047619047762,0.0,-0.0429761904761903
1.1839160997732425,0.1476125688370582,0.0,-0.03154842889536773
1.1919155328798186,0.23903466148364128,0.0,-0.020120667314544843
1.1999149659863946,0.33045675413022435,0.0,-0.008692905733721959
1.2079143990929706,0.9371598639455795,0.0,0.0
1.2159138321995464,1.2,-0.011042319549542321,0.0
1.2239132653061224,1.2,-0.029018573721623288,0.0
1.2319126984126985,1.2,-0.04699482789370425,0.0
1.2399121315192743,1.2,-0.06497108206578472,0.0
1.2479115646258503,1.2,-0.08294733623786568,0.0
1.2559109977324263,1.2,-0.10092359040994665,0.0
1.2639104308390023,1.2,-0.11889984458202761,0.0
1.2719098639455781,1.2,-0.13687609875410808,0.0
1.2799092970521542,1.2,-0.15485235292618904,0.0
1.2879087301587302,1.2,-0.17282860709827003,0.0
1.295908163265306,1.2,-0.19080486127035048,0.0
1.303907596371882,1.1441771946873995,-0.2558228053126006,0.0
1.311907029478458,0.9455782312925146,-0.4362811791383236,-0.11814058956916179
1.319906462585034,0.6727456098718556,-0.6,-0.20908479670938146
1.3279058956916099,0.6169356114538848,-0.6,-0.22768812951537173
1.335905328798186,0.5611256130359124,-0.6,-0.24629146232136254
1.343904761904762,0.5053156146179401,-0.6,-0.2648947951273533
1.3519041950113377,0.4495056161999692,-0.6,-0.2834981279333436
1.3599036281179138,0.39369561778199685,-0.6,-0.3021014607393344
1.3679030612244898,0.3378856193640245,-0.6,-0.3207047935453252
1.3759024943310658,0.2820756209460521,-0.6,-0.33930812635131596
1.3839019274376416,0.2262656225280813,-0.6,-0.35791145915730627
1.3919013605442176,0.17045562411010895,-0.6,-0.37651479196329707
1.3999007936507937,0.11464562569213654,-0.6,-0.39511812476928787
1.4079002267573695,-0.6036594583632904,-0.7,-0.7985362166546839
1.4158996598639455,-0.6361774791217296,-0.7,-0.7855290083513082
1.4238990929705215,-0.6686954998801687,-0.7,-0.7725218000479326
1.4318985260770976,-0.7012135206386079,-0.7,-0.7595145917445569
1.4398979591836734,-0.7337315413970461,-0.7,-0.7465073834411816
1.4478973922902494,-0.7662495621554852,-0.7,-0.733500175137806
1.4558968253968254,-0.7987675829139244,-0.7,-0.7204929668344303
1.4638962585034014,-0.8312856036723635,-0.7,-0.7074857585310547
1.4718956916099772,-0.8638036244308017,-0.7,-0.6944785502276793
1.4798951247165533,-0.8963216451892408,-0.7,-0.6814713419243037
1.4878945578231293,-0.9288396659476801,-0.7,-0.668464133620928
1.495893990929705,-0.9613576867061182,-0.7,-0.6554569253175527
1.5038934240362811,-0.9938757074645574,-0.7,-0.6424497170141771
1.5118928571428571,-1.0263937282229965,-0.7,-0.6294425087108014
1.5198922902494332,-1.0589117489814357,-0.7,-0.6164353004074258
1.527891723356009,-1.0914297697398738,-0.7,-0.6034280921040505
1.535891156462585,-1.3454648526077073,-0.6509070294784586,-0.6
1.543890589569161,-1.9781179138321985,-0.5054705215419504,-0.4109410430839008
1.5518900226757368,-2.033322361202546,-0.37777412040084873,-0.2888870602004244
1.5598894557823129,-1.9559084924292298,-0.35196949747640993,-0.27598474873820494
1.5678888888888889,-1.8784946236559135,-0.3261648745519712,-0.26308243727598557
1.575888321995465,-1.8010807548825971,-0.30036025162753244,-0.2501801258137662
1.5838877551020407,-1.723666886109283,-0.27455562870309436,-0.23727781435154718
1.5918871882086167,-1.6462530173359666,-0.24875100577865558,-0.22437550288932778
1.5998866213151928,-1.5688391485626503,-0.22294638285421683,-0.2114731914271084
1.6078860544217686,-1.1012755102041352,-0.2,-0.2
1.6158854875283446,0.10648424163672947,0.0,-0.1967578791816353
1.6238849206349206,0.12446049580881043,0.0,-0.1877697520955948
1.6318843537414967,0.1424367499808914,0.0,-0.1787816250095543
1.6398837868480725,0.16041300415297186,0.0,-0.1697934979235141
1.6478832199546485,0.1783892583250528,0.0,-0.1608053708374736
1.6558826530612245,0.1963655124971338,0.0,-0.15181724375143313
1.6638820861678005,0.21434176666921473,0.0,-0.14282911666539264
1.6718815192743763,0.23231802084129521,0.0,-0.1338409895793524
1.6798809523809524,0.2502942750133762,0.0,-0.12485286249331191
1.6878803854875284,0.26827052918545713,0.0,-0.11586473540727144
1.6958798185941042,0.2862467833575376,0.0,-0.10687660832123119
1.7038792517006802,0.3,0.09396258503401303,-0.006037414965986976
1.7118786848072562,0.2017330741820532,0.49653385163589364,0.19826692581794683
1.7198781179138323,0.09724194025436134,0.5256895149364097,0.25994220151828923
1.727877551020408,-0.007098491570540377,0.5517746228926351,0.3208074534161486
1.735876984126984,-0.11143892339544498,0.5778597308488612,0.38167270531400954
1.7438764172335601,-0.21577935522034958,0.6039448388050874,0.4425379572118706
1.751875850340136,-0.3201197870452513,0.6300299467613129,0.5034032091097299
1.759875283446712,-0.4244602188701559,0.656115054717539,0.564268461007591
1.767874716553288,-0.5288006506950604,0.6822001626737652,0.6251337129054519
1.775874149659864,-0.633141082519965,0.7082852706299914,0.6859989648033129
1.7838735827664398,-0.7374815143448668,0.7343703785862168,0.7468642167011723
1.7918730158730158,-0.8418219461697714,0.7604554865424429,0.8077294685990333
1.7998724489795919,-0.946162377994676,0.786540594498669,0.8685947204968942
1.8078718820861677,-1.8435941043083863,0.8042705971277424,1.3957294028722576
1.8158713151927437,-1.4753887269193393,0.6082037576935535,1.4808578987150416
1.8238707482993197,-1.406822157434402,0.6310592808551994,1.4275283446712015
1.8318701814058957,-1.3382555879494644,0.6539148040168451,1.3741987906273614
1.8398696145124716,-1.269689018464529,0.6767703271784903,1.3208692365835226
1.8478690476190476,-1.2011224489795915,0.6996258503401361,1.2675396825396825
1.8558684807256236,-1.1325558794946544,0.7224813735017819,1.2142101284958422
1.8638679138321994,-1.0639893100097189,0.7453368966634271,1.1608805744520034
1.8718673469387754,-0.9954227405247814,0.7681924198250729,1.1075510204081633
1.8798667800453515,-0.9268561710398441,0.7910479429867187,1.0542214663643232
1.8878662131519275,-0.8582896015549066,0.8139034661483644,1.000891912320483
1.8958656462585033,-0.7897230320699712,0.8367589893100096,0.9475623582766444
1.9038650793650793,-0.7211564625850339,0.8596145124716554,0.8942328042328042
1.9118645124716553,-0.6525898931000964,0.8824700356333013,0.840903250188964
1.9198639455782311,-0.4695238095238148,0.9372789115646244,0.7440816326530635
1.9278633786848072,0.09043650793650648,1.0972675736961448,0.5040986394557829
1.9358628117913832,0.9873693200223814,0.5810539800335721,-0.13789203993285573
1.9438622448979592,0.9665915716936125,0.5498873575404187,-0.20022528491916247
1.951861678004535,0.9458138233648442,0.5187207350472662,-0.26255852990546746
1.959861111111111,0.9250360750360753,0.4875541125541129,-0.3248917748917742
1.967860544217687,0.9042583267073063,0.4563874900609595,-0.3872250198780809
1.975859977324263,0.8834805783785374,0.4252208675678062,-0.44955826486438766
1.983859410430839,0.8627028300497691,0.39405424507465364,-0.5118915098506926
1.991858843537415,0.8419250817210002,0.3628876225815003,-0.5742247548369994
1.999858276643991,0.8211473333922313,0.33172100008834693,-0.6365579998233061
2.0078577097505668,0.800369585063463,0.30055437759519443,-0.6988912448096111
2.015857142857143,1.595157384987893,-0.604842615012107,-1.7072639225181605
2.023856575963719,1.581599023790307,-0.618400976209693,-1.7276014643145396
2.0318560090702946,1.5680406625927208,-0.6319593374072792,-1.7479390061109188
2.039855442176871,1.5544823013951339,-0.6455176986048661,-1.768276547907299
2.0478548752834467,1.5409239401975479,-0.6590760598024522,-1.7886140897036782
2.0558543083900225,1.5273655789999616,-0.6726344210000383,-1.8089516315000576
2.0638537414965987,1.5138072178023747,-0.6861927821976253,-1.8292891732964378
2.0718531746031745,1.5002488566047887,-0.6997511433952114,-1.849626715092817
2.0798526077097503,1.4866904954072024,-0.7133095045927975,-1.869964256889196
2.0878520408163266,1.4731321342096155,-0.7268678657903843,-1.8903017986855766
2.0958514739229024,1.4595737730120295,-0.7404262269879704,-1.9106393404819557
2.1038509070294786,1.4460154118144426,-0.7539845881855574,-1.930976882278336
2.1118503401360544,1.4324570506168566,-0.7675429493831435,-1.9513144240747151
2.1198497732426302,1.4188986894192703,-0.7811013105807296,-1.9716519658710943
2.1278492063492065,1.4053403282216834,-0.7946596717783165,-1.9919895076674747
2.1358486394557823,1.2424319727891207,-1.0424319727891207,-2.2424319727891207
2.143848072562358,1.3085600907029475,-1.1085600907029476,-2.3
2.1518475056689343,1.3185593820861679,-1.118559382086168,-2.3
2.15984693877551,1.3285586734693877,-1.1285586734693878,-2.3
2.167846371882086,1.3385579648526074,-1.1385579648526074,-2.3
2.175845804988662,1.3485572562358277,-1.1485572562358277,-2.3
2.183845238095238,1.3585565476190473,-1.1585565476190474,-2.3
2.191844671201814,1.3685558390022672,-1.1685558390022672,-2.3
2.19984410430839,1.3785551303854875,-1.1785551303854875,-2.3
2.207843537414966,1.3885544217687071,-1.1885544217687072,-2.3
2.215842970521542,1.3985537131519274,-1.1985537131519275,-2.3
2.223842403628118,1.06389698736637,-1.2879656624554567,-1.9759313249109134
2.2318418367346937,0.7,-1.097448979591837,-1.5910714285714291
2.23984126984127,0.7,-1.0732082732082726,-1.506228956228954
2.2478407029478458,0.7,-1.0489675668247096,-1.4213864838864838
2.2558401360544216,0.7,-1.0247268604411468,-1.3365440115440135
2.263839569160998,0.7,-1.0004861540575825,-1.2517015392015385
2.2718390022675736,0.7,-0.9762454476740196,-1.1668590668590682
2.2798384353741494,0.7,-0.9520047412904565,-1.082016594516598
2.2878378684807257,0.7,-0.9277640349068923,-0.9971741221741229
2.2958373015873015,0.7,-0.9035233285233293,-0.9123316498316526
2.3038367346938777,0.6702947845804943,-0.9351473922902472,-0.5054421768707416
2.3118361678004535,0.5748116260393042,-0.8899246504157217,-0.38488697562358254
2.3198356009070293,0.5331479119425553,-0.8732591647770221,-0.3598887471655332
2.3278350340136056,0.491484197845804,-0.8565936791383216,-0.33489051870748243
2.3358344671201814,0.44982048374905503,-0.839928193499622,-0.30989229024943304
2.343833900226757,0.40815676965230613,-0.8232627078609225,-0.28489406179138366
2.3518333333333334,0.3664930555555549,-0.806597222222222,-0.25989583333333294
2.3598327664399092,0.32482934145880593,-0.7899317365835223,-0.23489760487528355
2.367832199546485,0.28316562736205697,-0.7732662509448228,-0.2098993764172342
2.3758316326530613,0.24150191326530573,-0.7566007653061223,-0.18490114795918344
2.383831065759637,0.19983819916855677,-0.7399352796674227,-0.15990291950113406
2.391830498866213,0.15817448507180787,-0.7232697940287232,-0.13490469104308467
2.399829931972789,0.11651077097505658,-0.7066043083900226,-0.10990646258503395
2.407829365079365,-0.46342592592592924,-0.21706349206348918,0.46342592592592924
2.415828798185941,-0.3,0.7186807427373487,1.610674710135628
2.423828231292517,-0.3,0.7715071877807737,1.6408612501604423
2.431827664399093,-0.3,0.8243336328241987,1.6710477901852565
2.439827097505669,-0.3,0.8771600778676265,1.7012343302100723
2.447826530612245,-0.3,0.9299865229110515,1.7314208702348868
2.4558259637188207,-0.3,0.9828129679544765,1.761607410259701
2.463825396825397,-0.3,1.0356394129979043,1.7917939502845168
2.4718248299319727,-0.3,1.0884658580413293,1.821980490309331
2.4798242630385485,-0.3,1.1412923030847544,1.8521670303341453
2.4878236961451248,-0.3,1.194118748128182,1.8823535703589613
2.4958231292517006,-0.3,1.2469451931716071,1.9125401103837756
2.5038225623582764,-0.3,1.2997716382150322,1.9427266504085898
2.5118219954648526,-0.3,1.35259808325846,1.9729131904334059
2.5198214285714284,-0.08095238095242743,1.345238095238107,2.246428571428519
2.5278208616780047,0.3,1.5030998479978075,2.793800304004385
2.5358202947845805,0.3,1.5118904338292094,2.776219132341581
2.5438197278911563,0.3,1.5206810196606113,2.758637960678777
2.5518191609977325,0.3,1.5294716054920139,2.741056789015972
2.5598185941043083,0.3,1.5382621913234158,2.7234756173531682
2.567818027210884,0.3,1.5470527771548177,2.7058944456903644
2.5758174603174604,0.3,1.5558433629862203,2.6883132740275597
2.583816893424036,0.3,1.5646339488176222,2.670732102364756
2.591816326530612,0.3,1.573424534649024,2.6531509307019516
2.5998157596371883,0.3,1.5822151204804267,2.635569759039147
2.607815192743764,0.3,1.5910057063118286,2.617988587376343
2.6158146258503403,0.3,1.5997962921432312,2.600407415713538
2.623814058956916,-1.103971019302029,1.8,1.8990072451744928
2.631813492063492,-1.1429926442121547,1.8,1.8892518389469612
2.639812925170068,-1.1820142691222828,1.8,1.8794964327194292
2.647812358276644,-1.2210358940324089,1.8,1.8697410264918977
2.6558117913832198,-1.2600575189425347,1.8,1.8599856202643663
2.663811224489796,-1.2990791438526628,1.8,1.8502302140368343
2.671810657596372,-1.3381007687627888,1.8,1.8404748078093027
2.6798100907029476,-1.3771223936729147,1.8,1.8307194015817714
2.687809523809524,-1.4161440185830427,1.8,1.8209639953542394
2.6958089569160997,-1.4551656434931688,1.8,1.8112085891267078
2.7038083900226755,-1.4941872684032946,1.8,1.8014531828991764
2.7118078231292517,-2.5927386685011067,1.5981846671252768,1.9990923335626383
2.7198072562358275,-2.520833651812785,1.5802084129531964,1.9901042064765981
2.727806689342404,-2.4489286351244592,1.5622321587811148,1.9811160793905573
2.7358061224489796,-2.3770236184361373,1.5442559046090343,1.9721279523045172
2.7438055555555554,-2.3051186017478154,1.5262796504369538,1.9631398252184769
2.7518049886621316,-2.2332135850594894,1.5083033962648724,1.954151698132436
2.7598044217687074,-2.161308568371168,1.490327142092792,1.945163571046396
2.7678038548752832,-2.089403551682846,1.4723508879207114,1.9361754439603556
2.7758032879818595,-2.01749853499452,1.4543746337486299,1.927187316874315
2.7838027210884353,-1.945593518306198,1.4363983795765494,1.9181991897882746
2.791802154195011,-1.8736885016178761,1.4184221254044689,1.9092110627022345
2.7998015873015873,-1.8017834849295502,1.4004458712323875,1.9002229356161937
2.807801020408163,-0.3982395155864545,1.0,0.7982395155864546
2.815800453514739,-0.38065834392365056,1.0,0.7806583439236506
2.823799886621315,-0.3630771722608457,1.0,0.7630771722608457
2.831799319727891,-0.34549600059804175,1.0,0.7454960005980418
2.8397987528344673,-0.3279148289352368,1.0,0.7279148289352368
2.847798185941043,-0.3103336572724329,1.0,0.7103336572724329
2.855797619047619,-0.29275248560962897,1.0,0.692752485609629
2.863797052154195,-0.2751713139468241,1.0,0.6751713139468241
2.871796485260771,-0.25759014228402016,1.0,0.6575901422840201
2.8797959183673467,-0.24000897062121623,1.0,0.6400089706212162
2.887795351473923,-0.22242779895841133,1.0,0.6224277989584113
2.8957947845804988,-0.2048466272956074,1.0,0.6048466272956073
2.9037942176870746,0.334037900874623,-0.6226919339164153,-0.7567298347910383
2.911793650793651,0.603384246780473,-0.806768493560946,-1.2084606169511825
2.9197930839002266,0.6184775167928802,-0.8369550335857604,-1.2461937919822004
2.927792517006803,0.6335707868052882,-0.8671415736105764,-1.2839269670132205
2.9357919501133787,0.6486640568176955,-0.8973281136353909,-1.3216601420442384
2.9437913832199545,0.6637573268301026,-0.9275146536602052,-1.3593933170752566
2.9517908163265307,0.6788505968425107,-0.9577011936850213,-1.3971264921062765
2.9597902494331065,0.6939438668549178,-0.9878877337098357,-1.4348596671372946
2.9677896825396823,0.7090371368673251,-1.01807427373465,-1.4725928421683125
2.9757891156462586,0.7241304068797331,-1.048260813759466,-1.5103260171993327
2.9837885487528344,0.7392236768921403,-1.0784473537842805,-1.5480591922303506
2.99178798185941,0.7543169469045474,-1.108633893809095,-1.5857923672613685
2.9997874149659864,0.7694102169169555,-1.138820433833911,-1.6235255422923887
3.0077868480725622,0.7845034869293628,-1.1690069738587252,-1.6612587173234066
3.015786281179138,0.7995967569417699,-1.1991935138835397,-1.6989918923544247
3.0237857142857143,1.5397959183673477,-2.0795918367346955,-2.5397959183673477
3.03178514739229,1.6540735341755717,-2.3081470683511434,-2.6540735341755717
3.0397845804988664,1.7073608930751787,-2.4220826792255363,-2.7
3.047784013605442,1.7196677132391416,-2.459003139717425,-2.7
3.055783446712018,1.7319745334031043,-2.4959236002093133,-2.7
3.063782879818594,1.7442813535670678,-2.5328440607012035,-2.7
3.07178231292517,1.7565881737310307,-2.569764521193092,-2.7
3.079781746031746,1.7688949938949934,-2.6066849816849804,-2.7
3.087781179138322,1.781201814058957,-2.6436054421768707,-2.7
3.095780612244898,1.7935086342229196,-2.680525902668759,-2.7
3.1037800453514737,1.6919987042436138,-2.8620019436345796,-2.8080012957563865
3.11177947845805,1.1983415351956388,-3.0,-3.0008292324021806
3.1197789115646257,1.1813214647561159,-3.0,-3.009339267621942
3.127778344671202,1.1643013943165919,-3.0,-3.017849302841704
3.1357777777777778,1.147281323877069,-3.0,-3.0263593380614657
3.1437772108843536,1.1302612534375458,-3.0,-3.034869373281227
3.15177664399093,1.113241182998022,-3.0,-3.043379408500989
3.1597760770975056,1.0962211125584989,-3.0,-3.0518894437207504
3.1677755102040814,1.079201042118976,-3.0,-3.060399478940512
3.1757749433106577,1.062180971679452,-3.0,-3.068909514160274
3.1837743764172335,1.045160901239929,-3.0,-3.0774195493800356
3.1917738095238093,1.0281408308004059,-3.0,-3.085929584599797
3.1997732426303855,1.011120760360882,-3.0,-3.094439619819559
3.2077726757369613,0.5378873771731388,-2.8151549508692555,-2.9151549508692556
3.215772108843537,0.2,-2.391427025355598,-2.5871405380333967
3.2237715419501134,0.2,-2.3732464955679244,-2.5598697433518867
3.231770975056689,0.2,-2.355065965780252,-2.532598948670378
3.2397704081632654,0.2,-2.3368854359925786,-2.505328153988868
3.2477698412698413,0.2,-2.3187049062049065,-2.4780573593073596
3.255769274376417,0.2,-2.300524376417234,-2.450786564625851
3.2637687074829933,0.2,-2.2823438466295607,-2.423515769944341
3.271768140589569,0.2,-2.264163316841888,-2.396244975262832
3.279767573696145,0.2,-2.245982787054216,-2.368974180581324
3.287767006802721,0.2,-2.227802257266543,-2.3417033858998137
3.295766439909297,0.2,-2.2096217274788703,-2.314432591218305
3.3037658730158728,0.04936507936508569,-2.049365079365086,-2.111706349206357
3.311765306122449,-0.5530612244898312,-1.5352040816326267,-1.5352040816326267
3.319764739229025,-0.8092979664984271,-0.9721061005047189,-1.1814040670031458
3.327764172335601,-0.8222002779606468,-0.9333991661180597,-1.1555994440787065
3.335763605442177,-0.8351025894228659,-0.8946922317314026,-1.1297948211542683
3.3437630385487527,-0.8480049008850848,-0.8559852973447455,-1.1039901982298304
3.351762471655329,-0.8609072123473046,-0.8172783629580863,-1.0781855753053908
3.3597619047619047,-0.8738095238095236,-0.7785714285714292,-1.0523809523809529
3.3677613378684805,-0.8867118352717427,-0.7398644941847721,-1.0265763294565147
3.375760770975057,-0.8996141467339623,-0.7011575597981129,-1.0007717065320754
3.3837602040816326,-0.9125164581961814,-0.6624506254114558,-0.9749670836076372
3.3917596371882084,-0.9254187696584004,-0.6237436910247988,-0.9491624606831992
3.3997590702947846,-0.9383210811206202,-0.5850367566381396,-0.9233578377587597
3.4077585034013604,-0.9512233925828392,-0.5463298222514824,-0.8975532148343217
3.4157579365079362,-0.9641257040450582,-0.5076228878648253,-0.8717485919098836
3.4237573696145125,-0.9770280155072779,-0.46891595347816606,-0.8459439689854441
3.4317568027210883,-0.989930326969497,-0.430209019091509,-0.820139346061006
3.4397562358276645,-1.175623582766457,0.12687074829937084,-0.21458805744514342
3.4477556689342403,-1.0973299319727894,0.9053401360544213,0.7404535147392284
3.455755102040816,-0.762244897959196,1.456632653061206,1.356632653061206
3.4637545351473924,-0.5583978174603171,1.7237726757369616,1.641602182539683
3.471753968253968,-0.48840277777777896,1.7637698412698406,1.711597222222221
3.479753401360544,-0.4184077380952408,1.8037670068027196,1.7815922619047593
3.4877528344671203,-0.3484126984126987,1.8437641723356009,1.8515873015873012
3.495752267573696,-0.27841765873016044,1.8837613378684797,1.9215823412698396
3.503751700680272,-0.20842261904762222,1.9237585034013587,1.9915773809523778
3.511751133786848,-0.1384275793650801,1.96375566893424,2.0615724206349197
3.519750566893424,-0.06843253968254193,2.003752834467119,2.131567460317458
3.5277499999999997,0.0015624999999963585,2.043749999999998,2.201562499999996
3.535749433106576,0.07155753968253842,2.083747165532879,2.2715575396825383
3.5437488662131518,1.6038076341647358,2.4957388510959833,2.8540343915343764
3.551748299319728,0.7190602166792506,2.88704963466868,3.20323759133283
3.559747732426304,0.34871609137481707,2.8277945746199706,3.2180513563450073
3.5677471655328796,-0.02162803392961643,2.7685395145712612,3.2328651213571846
3.575746598639456,-0.3919721592340706,2.7092844545225487,3.247678886369363
3.5837460317460317,-0.7623162845385041,2.6500293944738393,3.26249265138154
3.5917454648526075,-1.1326604098429376,2.59077433442513,3.2773064163937176
3.5997448979591837,-1.5030045351473917,2.5315192743764174,3.2921201814058954
3.6077443310657595,-3.202302054842555,2.4976979451574453,3.4
3.6157437641723353,-3.2270425696051603,2.47295743039484,3.4
3.6237431972789116,-3.2517830843677675,2.4482169156322326,3.4
3.6317426303854874,-3.276523599130373,2.4234764008696272,3.4
3.6397420634920636,-3.3012641138929797,2.3987358861070205,3.4
3.6477414965986394,-3.3260046286555855,2.3739953713444146,3.4
3.6557409297052152,-3.350745143418191,2.349254856581809,3.4
3.6637403628117915,-3.3754856581807977,2.3245143418192025,3.4
3.6717397959183673,-3.4002261729434036,2.2997738270565966,3.4
3.679739229024943,-3.424966687706009,2.275033312293991,3.4
3.6877386621315194,-3.449707202468616,2.250292797531384,3.4
3.695738095238095,-3.4744477172312216,2.2255522827687786,3.4
3.703737528344671,-3.499188231993827,2.200811768006173,3.4
3.711736961451247,-2.9,1.4,3.0982454934835886
3.719736394557823,-2.9,1.4,3.090165258022401
3.727735827664399,-2.9,1.4,3.0820850225612135
3.735735260770975,-2.9,1.4,3.074004787100025
3.743734693877551,-2.9,1.4,3.0659245516388376
3.751734126984127,-2.9,1.4,3.0578443161776496
3.759733560090703,-2.9,1.4,3.0497640807164617
3.7677329931972787,-2.9,1.4,3.041683845255274
3.775732426303855,-2.9,1.4,3.033603609794086
3.7837318594104308,-2.9,1.4,3.025523374332898
3.7917312925170066,-2.9,1.4,3.0174431388717107
3.799730725623583,-2.9,1.4,3.0093629034105227
3.8077301587301586,-2.9,1.4,3.0012826679493347
3.8157295918367344,-2.9204081632653294,1.2933673469387774,2.766836734693887
3.8237290249433107,-2.047742733457021,1.220645227788085,2.4032261389404255
3.8317284580498865,-1.1792863441672965,1.0948215860418242,1.9792863441672965
3.8397278911564623,-1.1348450491307642,1.0837112622826912,1.9348450491307643
3.8477273242630385,-1.0904037540942295,1.0726009385235575,1.8904037540942296
3.8557267573696143,-1.0459624590576975,1.0614906147644243,1.8459624590576975
3.8637261904761906,-1.0015211640211628,1.0503802910052906,1.8015211640211628
3.8717256235827664,-0.9570798689846305,1.0392699672461576,1.7570798689846305
3.879725056689342,-0.9126385739480983,1.0281596434870246,1.7126385739480985
3.8877244897959184,-0.8681972789115637,1.017049319727891,1.6681972789115638
3.8957239229024943,-0.8237559838750315,1.005938995968758,1.6237559838750315
3.90372335600907,0.05956160241869618,1.257445200302337,0.7829931972789669
3.9117227891156463,0.8141683673469389,0.45749489795918336,-0.028336734693877753
3.919722222222222,0.8381666666666664,0.3855000000000009,-0.07633333333333275
3.927721655328798,0.8621649659863939,0.3135051020408184,-0.12432993197278774
3.935721088435374,0.8861632653061228,0.24151020408163187,-0.1723265306122454
3.94372052154195,0.9101615646258503,0.16951530612244942,-0.2203231292517004
3.951719954648526,0.934159863945579,0.0975204081632629,-0.26831972789115804
3.959719387755102,0.9581581632653066,0.025525510204080448,-0.31631632653061303
3.967718820861678,0.9821564625850341,-0.04646938775510201,-0.364312925170068
3.975718253968254,1.0061547619047628,-0.11846428571428858,-0.4123095238095257
3.98371768707483,1.0301530612244905,-0.19045918367347103,-0.46030612244898067
3.9917171201814057,1.0541513605442179,-0.2624540816326535,-0.5083027210884357
3.999716553287982,1.0781496598639468,-0.33444897959184006,-0.5562993197278934
4.007715986394558,1.123866213151949,-0.42386621315194906,-0.7670634920636434
4.0157154195011335,0.6284580498866387,-1.3146258503400836,-2.8577097505668063
4.02371485260771,0.6,-1.417735293351057,-3.0266029400265855
4.031714285714286,0.6,-1.4361247947454852,-3.0541871921182278
4.039713718820861,0.6,-1.4545142961399113,-3.081771444209867
4.047713151927438,0.6,-1.4729037975343395,-3.109355696301509
4.055712585034014,0.6,-1.4912932989287677,-3.1369399483931515
4.063712018140589,0.6,-1.509682800323194,-3.1645242004847907
4.0717114512471655,0.6,-1.528072301717622,-3.192108452576433
4.079710884353742,0.6,-1.5464618031120505,-3.2196927046680752
4.087710317460317,0.6,-1.5648513045064767,-3.247276956759715
4.095709750566893,0.6,-1.5832408059009049,-3.274861208851357
4.10370918367347,0.6354591836734905,-1.6,-3.323639455782327
4.111708616780045,2.344595616023929,-2.051436130007478,-3.5
4.119708049886621,2.2573229915018964,-2.5106692521245257,-3.5
4.1277074829931975,2.197514145845252,-2.525621463538687,-3.5
4.135706916099773,2.137705300188614,-2.5405736749528467,-3.5
4.143706349206349,2.077896454531969,-2.5555258863670076,-3.5
4.151705782312925,2.0180876088753243,-2.570478097781169,-3.5
4.159705215419501,1.9582787632186862,-2.5854303091953286,-3.5
4.167704648526077,1.8984699175620414,-2.6003825206094895,-3.5
4.175704081632653,1.8386610719053968,-2.615334732023651,-3.5
4.1837035147392285,1.7788522262487587,-2.6302869434378104,-3.5
4.191702947845805,1.719043380592114,-2.645239154851972,-3.5
4.199702380952381,1.6592345349354694,-2.6601913662661327,-3.5
4.207701814058957,1.5994256892788246,-2.675143577680294,-3.5
4.215701247165533,1.5396168436221864,-2.6900957890944537,-3.5
4.223700680272109,0.9598639455782624,-2.6099773242630437,-3.319954648526087
4.231700113378685,1.2208380574452167,-2.40749716553287,-3.2358323885109566
4.2396995464852605,1.9025750704322122,-2.302575070432212,-2.9948498591355754
4.247698979591837,1.9146954236239944,-2.314695423623994,-2.970609152752011
4.255698412698413,1.9268157768157765,-2.3268157768157764,-2.9463684463684467
4.263697845804988,1.9389361300075574,-2.3389361300075575,-2.922127739984885
4.271697278911565,1.9510564831993398,-2.3510564831993395,-2.8978870336013203
4.279696712018141,1.963176836391122,-2.363176836391122,-2.873646327217756
4.287696145124716,1.9752971895829028,-2.375297189582903,-2.8494056208341942
4.2956955782312924,1.987417542774685,-2.387417542774685,-2.82516491445063
4.303695011337869,1.9995378959664674,-2.3995378959664673,-2.800924208067065
4.311694444444444,1.3198412698412612,-2.0404761904762165,-2.6099206349206305
4.31969387755102,1.4980530143091717,-1.4980530143091717,-2.7
4.3276933106575965,1.4888582636119576,-1.4888582636119576,-2.7
4.335692743764172,1.4796635129147446,-1.4796635129147446,-2.7
4.343692176870748,1.4704687622175305,-1.4704687622175305,-2.7
4.351691609977324,1.4612740115203167,-1.4612740115203167,-2.7
4.3596910430839,1.4520792608231037,-1.4520792608231037,-2.7
4.367690476190476,1.4428845101258896,-1.4428845101258896,-2.7
4.375689909297052,1.4336897594286755,-1.4336897594286755,-2.7
4.383689342403628,1.4244950087314625,-1.4244950087314625,-2.7
4.391688775510204,1.4153002580342484,-1.4153002580342484,-2.7
4.39968820861678,1.4061055073370345,-1.4061055073370345,-2.7
4.407687641723356,1.2062925170069005,-0.9366850907028704,-3.0601686507936794
4.415687074829932,3.4343537414965883,0.7656462585034118,-3.837414965986353
4.423686507936508,3.477956567242281,0.6706087563230411,-4.136739054596198
4.431685941043084,3.4515848097480735,0.6354464129974313,-4.180691983753211
4.43968537414966,3.425213052253869,0.6002840696718253,-4.224644912910218
4.447684807256236,3.3988412947596616,0.5651217263462156,-4.26859784206723
4.455684240362812,3.3724695372654545,0.5299593830206057,-4.312550771224243
4.463683673469387,3.34609777977125,0.4947970396949999,-4.35650370038125
4.471683106575964,3.3197260222770426,0.45963469636939003,-4.400456629538262
4.47968253968254,3.2933542647828355,0.4244723530437802,-4.444409558695274
4.487681972789115,3.266982507288631,0.38931000971817437,-4.488362487852282
4.4956814058956915,3.2406107497944237,0.35414766639256456,-4.532315417009294
4.503680839002268,3.214238992300216,0.31898532306695476,-4.576268346166306
4.511680272108843,3.410301263362475,0.6154518950437126,-4.442274052478144
4.519679705215419,2.2523242630382336,-3.723837868480883,-1.4640589569160425
4.527679138321996,1.8620783292740937,-3.8146762408667105,-1.1535091402816087
4.535678571428571,1.8225749559082896,-3.7257936507936518,-0.8967372134038825
4.543678004535147,1.7830715825424812,-3.636911060720583,-0.6399652865261277
4.5516774376417235,1.7435682091766727,-3.548028470647514,-0.38319335964837276
4.559676870748299,1.7040648358108688,-3.4591458805744546,-0.12642143277064655
4.567676303854875,1.6645614624450602,-3.3702632905013856,0.1303504941071083
4.575675736961451,1.6250580890792519,-3.2813807004283166,0.38712242098486316
4.583675170068027,1.5855547157134477,-3.1924981103552574,0.6438943478625894
4.591674603174603,1.5460513423476394,-3.1036155202821885,0.900666274740344
4.599674036281179,1.5065479689818309,-3.0147329302091195,1.157438201618099
4.6076734693877555,1.5444897959183708,-2.5106122448979207,2.4902040816327533
4.615672902494331,1.5978193499622078,-1.923987150415715,4.036761148904023
4.623672335600907,1.330448475686567,-0.3020093222474168,6.547140337616533
4.631671768707483,2.485922146636483,-0.5242157974300928,5.125018896447406
4.639671201814059,3.3898715041572194,-0.6924036281179146,3.9848072562358294
4.647670634920635,3.3413900913900907,-0.6560425685425679,3.912085137085136
4.655670068027211,3.2929086786229615,-0.6196815089672213,3.8393630179344425
4.6636695011337865,3.244427265855838,-0.5833204493918787,3.7666408987837574
4.671668934240363,3.1959458530887095,-0.5469593898165319,3.693918779633064
4.679668367346939,3.1474644403215803,-0.5105983302411853,3.6211966604823704
4.687667800453514,3.098983027554457,-0.47423727066584265,3.5484745413316854
4.695667233560091,3.050501614787328,-0.437876211090496,3.475752422180992
4.703666666666667,3.002020202020199,-0.4015151515151494,3.403030303030299
4.711666099773242,-2.347359896339422,-3.7236799481697105,-4.523509880142456
4.7196655328798185,-1.5939574314574343,-0.4485106163677634,-5.886382962275823
4.727664965986395,-1.4666937229437216,-0.26670531849103063,-5.750028988868273
4.73566439909297,-1.3394300144300226,-0.08490002061431812,-5.613675015460738
4.743663832199546,-1.2121663059163097,0.09690527726241471,-5.477321042053189
4.751663265306123,-1.0849025974025968,0.27871057513914743,-5.340967068645639
4.759662698412698,-0.957638888888898,0.46051587301585994,-5.204613095238106
4.767662131519274,-0.8303751803751851,0.6423211708925928,-5.068259121830556
4.7756615646258505,-0.7031114718614722,0.8241264687693256,-4.931905148423006
4.783660997732426,-0.5758477633477734,1.0059317666460381,-4.795551175015472
4.791660430839002,-0.4485840548340605,1.187737064522771,-4.659197201607922
4.799659863945578,-0.32132034632034756,1.3695423623995038,-4.522843228200372
4.807659297052154,1.3175878684808393,-1.0939696712020988,0.11427154194981737
4.81565873015873,0.3827000160333659,1.2119769119769006,2.510646143979467
4.823658163265306,0.17261389404247304,1.3574211502782878,2.639929911358478
4.831657596371882,-0.03747222794841981,1.5028653885796752,2.769213678737489
4.839657029478458,-0.24755834993928927,1.6483096268810464,2.8984974461164854
4.847656462585034,-0.4576444719301822,1.7937538651824338,3.0277812134954964
4.85565589569161,-0.667730593921075,1.939198103483821,3.1570649808745075
4.863655328798186,-0.8778167159119444,2.0846423417851923,3.286348748253504
4.871654761904762,-1.0879028379028375,2.2300865800865797,3.415632515632515
4.879654195011338,-1.2979889598937304,2.3755308183879666,3.544916283011526
4.8876536281179135,-1.5080750818845998,2.520975056689338,3.6742000503905228
4.89565306122449,-1.7181612038754928,2.6664192949907255,3.8034838177695334
4.903652494331066,-1.9282473258663857,2.8118635332921125,3.9327675851485444
4.911651927437641,-2.138333447857255,2.957307771593484,4.062051352527541
4.919651360544218,1.4091836734694272,2.026615646258546,2.413775510204141
4.927650793650794,1.075674603174599,1.5991666666666602,1.9756746031745993
4.935650226757369,0.9456838151927496,1.389181547619057,1.8456838151927497
4.9436496598639454,0.8156930272108857,1.179196428571431,1.715693027210886
4.951649092970522,0.6857022392290217,0.9692113095238044,1.5857022392290219
4.959648526077097,0.5557114512471723,0.7592261904762014,1.4557114512471725
4.967647959183673,0.42572066326530833,0.5492410714285751,1.3257206632653085
4.9756473922902495,0.2957298752834444,0.33925595238094863,1.1957298752834444
4.983646825396825,0.16573908730159492,0.12927083333334566,1.065739087301595
4.991646258503401,0.035748299319731114,-0.08071428571428063,0.9357482993197312
4.999645691609977,-0.09424248866213292,-0.2906994047619069,0.8057575113378672
5.007645124716553,0.7221250404924293,2.5400874635568136,0.24885001619697172
5.015644557823129,0.3070771490414457,3.3981910946196816,-0.11182166048238064
5.023643990929705,0.7615903937332775,4.052690166975919,-0.35725881261596987
5.0316434240362815,1.2161036384251096,4.707189239332157,-0.6026959647495591
5.039642857142857,1.670616883116891,5.361688311688323,-0.848133116883121
5.047642290249433,2.1251301278087227,6.016187384044561,-1.0935702690167102
5.055641723356009,2.5796433725005548,6.6706864564008,-1.3390074211502994
5.063641156462585,3.034156617192336,7.325185528756965,-1.5844445732838615
5.071640589569161,3.488669861884168,7.9796846011132025,-1.8298817254174506
5.079640022675737,3.943183106576,8.63418367346944,-2.07531887755104
5.087639455782313,4.397696351267781,9.288682745825605,-2.3207560296846017
5.095638888888889,4.8522095959596125,9.943181818181843,-2.566193181818191
5.103638321995465,-3.6681081956592054,-0.9553287981859364,-1.0255425979915724
5.11163775510204,-5.0,-2.081681502388194,-3.990501519756841
5.119637188208617,-5.0,-1.8519105514546212,-3.871361026680174
5.127636621315193,-5.0,-1.6221396005210489,-3.752220533603507
5.135636054421768,-5.0,-1.392368649587502,-3.633080040526853
5.1436354875283445,-5.0,-1.1625976986539297,-3.5139395474501858
5.151634920634921,-5.0,-0.9328267477203573,-3.394799054373519
5.159634353741496,-5.0,-0.7030557967868105,-3.275658561296865
5.167633786848072,-5.0,-0.47328484585323816,-3.1565180682201976
5.175633219954649,-5.0,-0.2435138949196658,-3.0373775751435304
5.183632653061224,-5.0,-0.013742943986119194,-2.9182370820668764
5.1916320861678,-5.0,0.2160280069474534,-2.7990965889902095
5.1996315192743765,-5.0,0.4457989578810255,-2.6799560959135427
5.207630952380952,-2.5321428571432123,0.6686507936509384,-0.5519841269837191
5.215630385487528,-1.3291579452293742,1.3349075527646959,-0.3917865864294431
5.223629818594104,-1.613753161521029,1.4118251787894673,-0.15334194575265125
5.231629251700681,-1.8983483778126837,1.4887428048142388,0.08510269492414058
5.239628684807256,-2.182943594104307,1.5656604308390019,0.32354733560090587
5.247628117913832,-2.4675388103959617,1.6425780568637733,0.5619919762776977
5.2556275510204085,-2.7521340266876164,1.719495682888545,0.8004366169544894
5.263626984126984,-3.0367292429792396,1.7964133089133079,1.0388812576312547
5.27162641723356,-3.321324459270894,1.8733309349380796,1.2773258983080467
5.279625850340136,-3.605919675562549,1.950248560962851,1.5157705389848384
5.287625283446712,-3.8905148918541723,2.027166186987614,1.7542151796616037
5.295624716553288,-4.175110108145827,2.1040838130123856,1.9926598203383956
5.303624149659864,-4.459705324437482,2.181001439037157,2.231104461015187
5.3116235827664395,-4.744300540729105,2.25791906506192,2.469549101691953
5.319623015873016,-3.7185185185185796,0.9015873015873541,0.423941798941902
5.327622448979592,-1.837346938775525,-0.7376190476190361,-3.4499319727891224
5.335621882086167,-2.317312925170057,-0.364312169312178,-3.66325018896447
5.343621315192744,-2.650807393664542,-0.46051673194530685,-3.4692571978286217
5.35162074829932,-2.9538162234590977,-0.6544423830138224,-3.19048907441763
5.359620181405895,-3.25682505325362,-0.8483680340823165,-2.91172095100667
5.3676196145124715,-3.5598338830481753,-1.042293685150832,-2.632952827595679
5.375619047619048,-3.862842712842731,-1.2362193362193477,-2.3541847041846875
5.383618480725623,-4.165851542637253,-1.4301449872878416,-2.0754165807737275
5.391617913832199,-4.468860372431809,-1.6240706383563572,-1.7966484573627364
5.399617346938776,-4.771869202226364,-1.8179962894248727,-1.5178803339517453
5.407616780045351,-0.8769274376422627,-0.5979024943311149,0.4958049886622296
5.415616213151927,2.4,-0.2820759154725731,-0.10597469484247564
5.4236156462585035,2.4,-0.256545809813287,-0.11448473006223767
5.43161507936508,2.4,-0.23101570415400097,-0.12299476528199968
5.439614512471655,2.4,-0.20548559849471776,-0.13150480050176075
5.447613945578231,2.4,-0.17995549283543172,-0.1400148357215228
5.455613378684808,2.4,-0.15442538717614565,-0.1485248709412848
5.463612811791383,2.4,-0.12889528151686241,-0.15703490616104587
5.471612244897959,2.4,-0.10336517585757637,-0.1655449413808079
5.479611678004535,2.4,-0.07783507019829031,-0.1740549766005699
5.487611111111111,2.4,-0.0523049645390071,-0.18256501182033097
5.495610544217687,2.4,-0.02677485887972103,-0.19107504704009298
5.503609977324263,2.4,-0.001244753220434991,-0.19958508225985502
5.511609410430839,1.6027389232846676,-0.09931526917883314,-0.10136946164233374
5.519608843537415,1.6386914316288306,-0.09032714209279236,-0.11934571581441529
5.527608276643991,1.6746439399729938,-0.08133901500675159,-0.13732196998649684
5.5356077097505665,1.710596448317153,-0.0723508879207118,-0.1552982241585764
5.543607142857143,1.746548956661316,-0.06336276083467103,-0.17327447833065796
5.551606575963719,1.7825014650054791,-0.054374633748630254,-0.1912507325027395
5.559606009070294,1.818453973349638,-0.045386506662590476,-0.20922698667481904
5.567605442176871,1.8544064816938013,-0.03639837957654969,-0.2272032408469006
5.575604875283447,1.8903589900379645,-0.02741025249050892,-0.24517949501898215
5.583604308390022,1.9263114983821235,-0.018422125404469136,-0.26315574919106166
5.5916037414965984,1.9622640067262866,-0.009433998318428366,-0.28113200336314326
5.599603174603175,1.9982165150704496,-0.00044587123238758186,-0.2991082575352248
5.60760260770975,2.646828731492659,0.20354475123382276,0.6
5.615602040816326,1.940996398559438,0.25060024009603743,0.6
5.6236014739229025,1.2351640656262173,0.29765572895825215,0.6
5.631600907029478,1.1408818342151696,0.3,0.5915545477450243
5.639600340136054,1.0786640211640215,0.3,0.5826662887377173
5.64759977324263,1.0164462081128736,0.3,0.5737780297304105
5.655599206349207,0.9542283950617254,0.3,0.5648897707231036
5.663598639455782,0.8920105820105843,0.3,0.5560015117157977
5.671598072562358,0.8297927689594362,0.3,0.5471132527084909
5.6795975056689345,0.7675749559082881,0.3,0.538224993701184
5.68759693877551,0.705357142857147,0.3,0.5293367346938781
5.695596371882086,0.6431393298059989,0.3,0.5204484756865713
5.703595804988662,0.5809215167548508,0.3,0.5115602166792644
5.711595238095238,0.5187037037037097,0.3,0.5026719576719585
5.719594671201814,-0.7292362399505189,0.029236239950518883,0.3056483199340252
5.72759410430839,-0.5110698824984418,-0.18893011750155828,0.014759843331255684
5.735593537414966,-0.4392517006802736,-0.18987528344671228,-0.01012471655328774
5.743592970521542,-0.37525623582766376,-0.17920937263794395,-0.020790627362056044
5.751592403628118,-0.3112607709750539,-0.16854346182917565,-0.031456538170824354
5.759591836734693,-0.24726530612245118,-0.15787755102040854,-0.04212244897959147
5.76759126984127,-0.18326984126984136,-0.14721164021164024,-0.05278835978835978
5.775590702947846,-0.11927437641723154,-0.13654572940287193,-0.06345427059712808
5.783590136054421,-0.05527891156462883,-0.1258798185941048,-0.0741201814058952
5.7915895691609975,0.008716553287981044,-0.11521390778533651,-0.0847860922146635
5.799589002267574,0.0727120181405908,-0.10454799697656819,-0.09545200302343182
5.807588435374149,0.3647108843537286,0.0,-0.3294217687074572
5.815587868480725,0.10284381151728096,-0.19715618848271907,-0.594312376965438
5.823587301587302,0.11163439734868341,-0.1883656026513166,-0.5767312053026332
5.831586734693877,0.12042498318008489,-0.17957501681991514,-0.5591500336398302
5.839586167800453,0.12921556901148734,-0.17078443098851268,-0.5415688619770254
5.8475856009070295,0.1380061548428898,-0.16199384515711024,-0.5239876903142204
5.855585034013606,0.14679674067429224,-0.15320325932570777,-0.5064065186514155
5.863584467120181,0.15558732650569373,-0.1444126734943063,-0.4888253469886126
5.871583900226757,0.16437791233709617,-0.13562208766290385,-0.47124417532580765
5.879583333333334,0.1731684981684986,-0.12683150183150138,-0.4536630036630028
5.887582766439909,0.1819590839999001,-0.11804091600009992,-0.4360818320001998
5.895582199546485,0.19074966983130254,-0.10925033016869747,-0.41850066033739497
5.9035816326530615,0.199540255662705,-0.10045974433729501,-0.40091948867459004
5.911581065759637,-0.0871598639454928,0.15270219198788731,0.15270219198788731
5.919580498866213,-0.31512758360048926,0.2,0.20756379180024465
5.927579931972789,-0.3335170849949175,0.2,0.21675854249745874
5.935579365079365,-0.35190658638934363,0.2,0.22595329319467183
5.943578798185941,-0.3702960877837719,0.2,0.23514804389188593
5.951578231292517,-0.38868558917820006,0.2,0.24434279458910002
5.9595776643990925,-0.40707509057262625,0.2,0.2535375452863131
5.967577097505669,-0.42546459196705444,0.2,0.2627322959835272
5.975576530612245,-0.4438540933614826,0.2,0.2719270466807413
5.98357596371882,-0.4622435947559088,0.2,0.2811217973779544
5.991575396825397,-0.48063309615033706,0.2,0.2903165480751685
5.999574829931973,-0.49902259754476525,0.2,0.2995112987723826
6.007574263038548,-0.29729121208231807,-0.0005417575835363853,-0.0005417575835363853
6.0155736961451245,-0.2595580370512983,-0.008088392589740338,-0.008088392589740338
6.023573129251701,-0.2218248620202785,-0.015635027595944293,-0.015635027595944293
6.031572562358276,-0.18409168698926293,-0.023181662602147407,-0.023181662602147407
6.039571995464852,-0.14635851195824318,-0.03072829760835136,-0.03072829760835136
6.047571428571429,-0.1086253369272234,-0.038274932614555314,-0.038274932614555314
6.055570861678005,-0.07089216189620362,-0.04582156762075927,-0.04582156762075927
6.06357029478458,-0.033158986865188034,-0.05336820262696238,-0.05336820262696238
6.0715697278911565,0.004574188165831716,-0.06091483763316634,-0.06091483763316634
6.079569160997733,0.042307363196851466,-0.06846147263937029,-0.06846147263937029
6.087568594104308,0.08004053822786705,-0.0760081076455734,-0.0760081076455734
6.095568027210884,0.11777371325888686,-0.08355474265177736,-0.08355474265177736
6.103567460317461,0.1555068882899066,-0.09110137765798132,-0.09110137765798132
6.111566893424036,0.1932400633209222,-0.09864801266418442,-0.09864801266418442
6.119566326530612,0.7283163265306102,-0.1,-0.1716836734693898
6.127565759637188,0.5612451041022388,-0.040311276025559714,-0.1
6.135565192743764,0.3947570694944646,0.005242930505535404,-0.09475706949446461
6.14356462585034,0.3829931972789114,0.017006802721088624,-0.08299319727891138
6.151564058956916,0.37122932506335815,0.028770674936641843,-0.07122932506335816
6.159563492063492,0.35946545284780623,0.040534547152193755,-0.05946545284780625
6.167562925170068,0.34770158063225304,0.05229841936774698,-0.04770158063225303
6.175562358276644,0.3359377084166998,0.0640622915833002,-0.03593770841669981
6.1835617913832195,0.32417383620114787,0.07582616379885211,-0.024173836201147894
6.191561224489796,0.3124099639855947,0.08759003601440533,-0.012409963985594671
6.199560657596372,0.3006460917700414,0.09935390822995854,-0.0006460917700414626
6.207560090702947,-0.03680272108841445,0.1,0.1
6.215559523809524,-0.2030470521541947,0.1,0.09695294784580534
6.2235589569161,-0.21257018680488074,0.1,0.08742981319511928
6.231558390022675,-0.2220933214555657,0.1,0.07790667854443428
6.2395578231292514,-0.23161645610625176,0.1,0.06838354389374823
6.247557256235828,-0.2411395907569378,0.1,0.058860409243062184
6.255556689342404,-0.25066272540762385,0.1,0.049337274592376135
6.263556122448979,-0.26018586005830885,0.1,0.03981413994169114
6.2715555555555556,-0.2697089947089949,0.1,0.03029100529100509
6.279554988662132,-0.27923212935968095,0.1,0.020767870640319028
6.287554421768707,-0.28875526401036594,0.1,0.011244735989634033
6.295553854875283,-0.298278398661052,0.1,0.001721601338947984
6.30355328798186,-0.04923874311629219,0.0,0.0
6.311552721088435,0.0,0.0,0.0
6.319552154195011,0.0,0.0,0.0
6.3275515873015875,0.0,0.0,0.0
6.335551020408163,0.0,0.0,0.0
6.343550453514739,0.0,0.0,0.0
6.351549886621315,0.0,0.0,0.0
6.359549319727891,0.0,0.0,0.0
6.367548752834467,0.0,0.0,0.0
6.375548185941043,0.0,0.0,0.0
6.383547619047619,0.0,0.0,0.0
6.391547052154195,0.0,0.0,0.0
6.399546485260771,0.0,0.0,0.0
6.407545918367346,0.1,0.0,0.0
6.415545351473923,0.09833833174846991,0.0,0.0
6.423544784580499,0.08973679077365675,0.0,0.0
6.431544217687074,0.08113524979884452,0.0,0.0
6.4395436507936505,0.07253370882403135,0.0,0.0
6.447543083900227,0.06393216784921818,0.0,0.0
6.455542517006803,0.05533062687440501,0.0,0.0
6.463541950113378,0.046729085899592786,0.0,0.0
6.471541383219955,0.03812754492477961,0.0,0.0
6.479540816326531,0.029526003949966434,0.0,0.0
6.487540249433106,0.020924462975154226,0.0,0.0
6.4955396825396825,0.012322922000341047,0.0,0.0
6.503539115646259,0.003721381025527881,0.0,0.0
6.511538548752834,0.08506736027744795,0.0,0.0
6.51953798185941,0.038011871415233225,0.0,0.0
6.527537414965987,0.05124716553289157,0.0,0.0
6.535536848072562,0.09230959050286817,0.0,0.0
6.543536281179138,0.08289849273042553,0.0,0.0
6.5515357142857145,0.07348739495798289,0.0,0.0
6.55953514739229,0.06407629718554128,0.0,0.0
6.567534580498866,0.05466519941309863,0.0,0.0
6.575534013605442,0.04525410164065598,0.0,0.0
6.583533446712018,0.035843003868214374,0.0,0.0
6.591532879818594,0.02643190609577173,0.0,0.0
6.59953231292517,0.017020808323329084,0.0,0.0
6.6075317460317455,0.00760971055088748,0.0,0.0
6.615531179138322,-0.1,0.0,0.0
6.623530612244898,0.0006632653061222621,0.0,0.0
6.631530045351473,0.010662556689341454,0.0,0.0
6.63952947845805,0.020661848072561755,0.0,0.0
6.647528911564626,0.030661139455782055,0.0,0.0
6.655528344671202,0.04066043083900236,0.0,0.0
6.6635277777777775,0.05065972222222155,0.0,0.0
6.671527210884354,0.06065901360544185,0.0,0.0
6.67952664399093,0.07065830498866214,0.0,0.0
6.687526077097505,0.08065759637188134,0.0,0.0
6.695525510204082,0.09065688775510164,0.0,0.0
6.703524943310658,0.1,0.0,0.0
6.711524376417233,0.10160460675498237,0.0,0.0
6.7195238095238095,0.1100250626566416,0.0,0.0
6.727523242630386,0.11844551855830084,0.0,0.0
6.735522675736961,0.12686597445995912,0.0,0.0
6.743522108843537,0.13528643036161836,0.0,0.0
6.751521541950114,0.1437068862632776,0.0,0.0
6.759520975056689,0.1521273421649359,0.0,0.0
6.767520408163265,0.1605477980665951,0.0,0.0
6.775519841269841,0.16896825396825435,0.0,0.0
6.783519274376417,0.17738870986991265,0.0,0.0
6.791518707482993,0.18580916577157186,0.0,0.0
6.799518140589569,0.1942296216732311,0.0,0.0
6.807517573696145,0.024121315192762616,0.0,0.0
6.815517006802721,-0.09573867282762176,0.0,0.09573867282762176
6.823516439909297,-0.08819203782141774,0.0,0.08819203782141774
6.8315158730158725,-0.08064540281521457,0.0,0.08064540281521457
6.839515306122449,-0.07309876780901055,0.0,0.07309876780901055
6.847514739229025,-0.06555213280280653,0.0,0.06555213280280653
6.8555141723356,-0.05800549779660335,0.0,0.05800549779660335
6.863513605442177,-0.05045886279039933,0.0,0.05045886279039933
6.871513038548753,-0.04291222778419531,0.0,0.04291222778419531
6.879512471655329,-0.0353655927779913,0.0,0.0353655927779913
6.8875119047619044,-0.02781895777178811,0.0,0.02781895777178811
6.895511337868481,-0.02027232276558409,0.0,0.02027232276558409
6.903510770975057,-0.012725687759380086,0.0,0.012725687759380086
6.911510204081632,-0.005179052753176899,0.0,0.005179052753176899
6.9195096371882086,0.0,0.0,0.0
6.927509070294785,0.0,0.0,0.0
6.93550850340136,-0.06508503401360027,0.0,0.0
6.943507936507936,-0.09295634920634946,0.0,0.0
6.951507369614513,-0.08045723497732409,0.0,0.0
6.959506802721088,-0.0679581207483001,0.0,0.0
6.967506235827664,-0.05545900651927472,0.0,0.0
6.9755056689342405,-0.042959892290249345,0.0,0.0
6.983505102040816,-0.030460778061225352,0.0,0.0
6.991504535147392,-0.01796166383219998,0.0,0.0
6.999503968253968,-0.005462549603174605,0.0,0.0
7.007503401360544,0.0,0.0,0.0
7.01550283446712,0.0,0.0,0.0
7.023502267573696,0.0,0.0,0.0
7.031501700680272,0.0,0.0,0.0
7.039501133786848,0.0,0.0,0.0
7.047500566893424,0.0,0.0,0.0
7.055499999999999,0.0,0.0,0.0
7.063499433106576,0.0,0.0,0.0
7.071498866213152,0.0,0.0,0.0
7.079498299319728,0.0,0.0,0.0
7.0874977324263035,0.0,0.0,0.0
7.09549716553288,0.0,0.0,0.0
7.103496598639456,0.0,0.0,0.0
7.111496031746031,0.0,0.0,0.0
7.119495464852608,0.0,0.0,0.0
7.127494897959184,0.0,0.0,0.0
7.135494331065759,0.0,0.0,0.0
7.1434937641723355,0.0,0.0,0.0
7.151493197278912,0.0,0.0,0.0
7.159492630385487,0.0,0.0,0.0
7.167492063492063,0.0,0.0,0.0
7.17549149659864,0.0,0.0,0.0
7.183490929705215,0.0,0.0,0.0
7.191490362811791,0.0,0.0,0.0
7.1994897959183675,0.0,0.0,0.0
7.207489229024943,0.0,0.0,0.0
7.215488662131519,0.0,0.0,0.0
7.223488095238095,-0.006381506090808522,0.0,0.0
7.231487528344671,-0.015683172493803094,0.0,0.0
7.239486961451247,-0.0249848388967987,0.0,0.0
7.247486394557823,-0.03428650529979431,0.0,0.0
7.2554858276643985,-0.04358817170278888,0.0,0.0
7.263485260770975,-0.05288983810578449,0.0,0.0
7.271484693877551,-0.06219150450878009,0.0,0.0
7.279484126984127,-0.07149317091177569,0.0,0.0
7.287483560090703,-0.08079483731477027,0.0,0.0
7.295482993197279,-0.09009650371776588,0.0,0.0
7.303482426303855,-0.09939817012076148,0.0,0.0
7.3114818594104305,-0.02518140589569616,0.0,0.0
7.319481292517007,0.09697403351584565,0.0,0.0
7.327480725623583,0.08721862728831362,0.0,0.0
7.335480158730158,0.07746322106078267,0.0,0.0
7.343479591836735,0.06770781483325064,0.0,0.0
7.351479024943311,0.05795240860571862,0.0,0.0
7.359478458049886,0.04819700237818767,0.0,0.0
7.3674778911564625,0.03844159615065564,0.0,0.0
7.375477324263039,0.02868618992312362,0.0,0.0
7.383476757369614,0.018930783695592673,0.0,0.0
7.39147619047619,0.009175377468060644,0.0,0.0
7.399475623582767,0.0,0.0,0.0
7.407475056689342,-0.0034406501874673315,0.0,0.0
7.415474489795918,-0.011360880986057679,0.0,0.0
7.423473922902494,-0.019281111784648024,0.0,0.0
7.43147335600907,-0.027201342583237493,0.0,0.0
7.439472789115646,-0.035121573381827836,0.0,0.0
7.447472222222222,-0.04304180418041818,0.0,0.0
7.455471655328798,-0.05096203497900765,0.0,0.0
7.463471088435374,-0.058882265777597996,0.0,0.0
7.47147052154195,-0.06680249657618835,0.0,0.0
7.479469954648526,-0.07472272737477868,0.0,0.0
7.487469387755102,-0.08264295817336816,0.0,0.0
7.495468820861678,-0.0905631889719585,0.0,0.0
7.503468253968254,-0.09848341977054885,0.0,0.0
7.51146768707483,-0.1,0.0,0.0
7.519467120181406,-0.09469211632873241,0.0,0.0
7.527466553287982,-0.08692567641943506,0.0,0.0
7.5354659863945574,-0.07915923651013859,0.0,0.0
7.543465419501134,-0.07139279660084123,0.0,0.0
7.55146485260771,-0.06362635669154389,0.0,0.0
7.559464285714285,-0.05585991678224741,0.0,0.0
7.5674637188208616,-0.048093476872950056,0.0,0.0
7.575463151927438,-0.04032703696365271,0.0,0.0
7.583462585034013,-0.032560597054356225,0.0,0.0
7.591462018140589,-0.02479415714505888,0.0,0.0
7.599461451247166,-0.017027717235761533,0.0,0.0
7.607460884353741,-0.009261277326465048,0.0,0.0
7.615460317460317,-0.001494837417167702,0.0,0.0
7.6234597505668935,0.0,0.0,0.0
7.631459183673469,0.0,0.0,0.0
7.639458616780045,0.0,0.0,0.0
7.647458049886621,0.0,0.0,0.0
7.655457482993197,0.0,0.0,0.0
7.663456916099773,0.0,0.0,0.0
7.671456349206349,0.0,0.0,0.0
7.679455782312925,0.0,0.0,0.0
7.687455215419501,0.0,0.0,0.0
7.695454648526077,0.0,0.0,0.0
7.703454081632653,0.0,0.0,0.02270408163265431
7.711453514739229,0.0,0.0,0.0
7.719452947845805,0.0,0.0,0.0
7.727452380952381,0.0,0.0,0.0
7.7354518140589565,0.0,0.0,0.0
7.743451247165533,0.0,0.0,0.0
7.751450680272109,0.0,0.0,0.0
7.759450113378684,0.0,0.0,0.0
7.767449546485261,0.0,0.0,0.0
7.775448979591837,0.0,0.0,0.0
7.783448412698412,0.0,0.0,0.0
7.7914478458049885,0.0,0.0,0.0
7.799447278911565,0.0,0.0,0.0
7.80744671201814,0.04822373393800023,0.0,0.0
7.815446145124716,-0.0021087457971695044,0.0,0.0
7.823445578231293,-0.009004808820080031,0.0,0.0
7.831445011337868,-0.015900871842989793,0.0,0.0
7.839444444444444,-0.022796934865900318,0.0,0.0
7.8474438775510205,-0.029692997888810843,0.0,0.0
7.855443310657596,-0.0365890609117206,0.0,0.0
7.863442743764172,-0.04348512393463113,0.0,0.0
7.871442176870748,-0.05038118695754166,0.0,0.0
7.879441609977324,-0.05727724998045142,0.0,0.0
7.8874410430839,-0.06417331300336195,0.0,0.0
7.895440476190476,-0.07106937602627247,0.0,0.0
7.903439909297052,-0.077965439049183,0.0,0.0
7.911439342403628,-0.08486150207209275,0.0,0.0
7.919438775510204,-0.09175756509500328,0.0,0.0
7.92743820861678,-0.09865362811791381,0.0,0.0
7.935437641723356,-0.0017114782420898419,0.0,0.0
7.943437074829932,-0.011234612892775792,0.0,0.0
7.951436507936508,-0.020757747543461744,0.0,0.0
7.9594359410430835,-0.03028088219414664,0.0,0.0
7.96743537414966,-0.03980401684483259,0.0,0.0
7.975434807256236,-0.04932715149551854,0.0,0.0
7.983434240362811,-0.05885028614620343,0.0,0.0
7.991433673469388,-0.06837342079688938,0.0,0.0
7.999433106575964,-0.07789655544757533,0.0,0.0
8.00743253968254,-0.08741969009826128,0.0,0.0
8.015431972789116,-0.09694282474894723,0.0,0.0
8.02343140589569,-0.1,0.0,0.0
8.031430839002267,0.0,0.0,0.0
8.039430272108843,-0.002554057337219781,0.0,0.0
8.04742970521542,-0.01683875931324901,0.0,0.0
8.055429138321996,-0.03112346128927824,0.0,0.0
8.063428571428572,-0.045408163265307465,0.0,0.0
8.071428004535147,-0.05969286524133352,0.0,0.0
8.079427437641723,-0.07397756721736275,0.0,0.0
8.087426870748299,-0.08826226919339197,0.0,0.0
8.095426303854875,0.021315192743743428,0.0,0.0
8.103425736961452,0.0938802505129029,0.0,0.0
8.111425170068028,0.08626174279235412,0.0,0.0
8.119424603174602,0.07864323507180704,0.0,0.0
8.127424036281178,0.07102472735125825,0.0,0.0
8.135423469387755,0.06340621963070948,0.0,0.0
8.143422902494331,0.05578771191016071,0.0,0.0
8.151422335600907,0.04816920418961193,0.0,0.0
8.159421768707483,0.040550696469063154,0.0,0.0
8.167421201814058,0.03293218874851607,0.0,0.0
8.175420634920634,0.025313681027967286,0.0,0.0
8.18342006802721,0.017695173307418516,0.0,0.0
8.191419501133787,0.010076665586869732,0.0,0.0
8.199418934240363,0.002458157866320962,0.0,0.0
8.20741836734694,-0.05163265306122515,0.0,0.0
8.215417800453515,0.0,0.0,0.0
8.22341723356009,0.0,0.0,0.0
8.231416666666666,0.0,0.0,0.0
8.239416099773242,0.0,0.0,0.0
8.247415532879819,0.0,0.0,0.0
8.255414965986395,0.0,0.0,0.0
8.263414399092971,0.0,0.0,0.0
8.271413832199546,0.0,0.0,0.0
8.279413265306122,0.0,0.0,0.0
8.287412698412698,0.0,0.0,0.0
8.295412131519274,0.0,0.0,0.0
8.30341156462585,0.0,0.0,0.0
8.311410997732427,0.0,0.0,0.0
8.319410430839001,0.0,0.0,0.0
8.327409863945578,0.0,0.0,0.0
8.335409297052154,0.0,0.0,0.0
8.34340873015873,0.0,0.0,0.0
8.351408163265306,0.0,0.0,0.0
8.359407596371883,0.0,0.0,0.0
8.367407029478457,0.0,0.0,0.0
8.375406462585033,0.0,0.0,0.0
8.38340589569161,0.0,0.0,0.0
8.391405328798186,0.0,0.0,0.0
8.399404761904762,0.0,0.0,0.0
8.407404195011338,0.0,0.0,0.0
8.415403628117915,0.0,0.0,0.0
8.423403061224489,0.0,0.0,0.0
8.431402494331065,0.0,0.0,0.0
8.439401927437642,0.0,0.0,0.0
8.447401360544218,0.0,0.0,0.0
8.455400793650794,0.0,0.0,0.0
8.46340022675737,0.0,0.0,0.0
8.471399659863945,0.0,0.0,0.0
8.479399092970521,0.0,0.0,0.0
8.487398526077097,0.0,0.0,0.0
8.495397959183673,0.0,0.0,0.0
8.50339739229025,0.0,0.0,0.0
8.511396825396826,-0.09909812409812109,0.0,0.0
8.5193962585034,-0.08091759431045203,0.0,0.0
8.527395691609977,-0.06273706452277894,0.0,0.0
8.535395124716553,-0.044556534735105846,0.0,0.0
8.54339455782313,-0.026376004947432752,0.0,0.0
8.551393990929705,-0.008195475159759658,0.0,0.0
8.559393424036282,0.009985054627913437,0.0,0.0
8.567392857142856,0.028165584415582506,0.0,0.0
8.575392290249432,0.0463461142032556,0.0,0.0
8.583391723356009,0.06452664399092867,0.0,0.0
8.591391156462585,0.08270717377860176,0.0,0.0
8.599390589569161,0.06094104308388462,0.0,0.0
8.607390022675737,-0.0964687263794394,0.0,0.0
8.615389455782314,-0.08813598356008916,0.0,0.0
8.623388888888888,-0.07980324074074074,0.0,0.0
8.631388321995464,-0.0714704979213905,0.0,0.0
8.63938775510204,-0.06313775510204025,0.0,0.0
8.647387188208617,-0.05480501228269,0.0,0.0
8.655386621315193,-0.046472269463339745,0.0,0.0
8.66338605442177,-0.038139526643989494,0.0,0.0
8.671385487528344,-0.029806783824641095,0.0,0.0
8.67938492063492,-0.021474041005290836,0.0,0.0
8.687384353741496,-0.013141298185940592,0.0,0.0
8.695383786848073,-0.0048085553665903336,0.0,0.0
8.703383219954649,0.0676643990929798,0.0,0.0
8.711382653061225,0.0,0.0,0.0
8.7193820861678,0.0,0.0,0.0
8.727381519274376,0.0,0.0,0.0
8.735380952380952,0.0,0.0,0.0
8.743380385487528,0.0,0.0,0.0
8.751379818594105,0.0,0.0,0.0
8.75937925170068,0.0,0.0,0.0
8.767378684807255,0.0,0.0,0.0
8.775378117913831,0.0,0.0,0.0
8.783377551020408,0.0,0.0,0.0
8.791376984126984,0.0,0.0,0.0
8.79937641723356,0.0,0.0,0.0
8.807375850340136,0.0,0.0,0.0
8.815375283446713,0.0,0.0,0.0
8.823374716553287,0.0,0.0,0.0
8.831374149659863,0.0,0.0,0.0
8.83937358276644,0.0,0.0,0.0
8.847373015873016,0.0,0.0,0.0
8.855372448979592,0.0,0.0,0.0
8.863371882086168,0.0,0.0,0.0
8.871371315192743,0.0,0.0,0.0
8.87937074829932,0.0,0.0,0.0
8.887370181405895,0.0,0.0,0.0
8.895369614512472,0.0,0.0,0.0
8.903369047619048,0.0,0.0,0.0
8.911368480725624,0.0,0.0,0.0
8.919367913832199,0.0,0.0,0.0
8.927367346938775,0.0,0.0,0.0
8.935366780045351,0.0,0.0,0.0
8.943366213151927,0.0,0.0,0.0
8.951365646258504,0.0,0.0,0.0
8.95936507936508,0.0,0.0,0.0
8.967364512471654,0.0,0.0,0.0
8.97536394557823,0.0,0.0,0.0
8.983363378684807,0.0,0.0,0.0
8.991362811791383,0.0,0.0,0.0
8.99936224489796,0.0,0.0,0.0
9.007361678004536,0.0,0.0,0.0
9.015361111111112,-0.1,0.0,0.0
9.023360544217686,-0.1,0.0,0.0
9.031359977324263,-0.1,0.0,0.0
9.039359410430839,-0.1,0.0,0.0
9.047358843537415,-0.1,0.0,0.0
9.055358276643991,-0.1,0.0,0.0
9.063357709750568,-0.1,0.0,0.0
9.071357142857142,-0.1,0.0,0.0
9.079356575963718,-0.1,0.0,0.0
9.087356009070295,-0.1,0.0,0.0
9.09535544217687,-0.1,0.0,0.0
9.103354875283447,-0.1,0.0,0.0
9.111354308390023,0.0,0.0,0.0
9.119353741496598,0.0,0.0,0.0
9.127353174603174,0.0,0.0,0.0
9.13535260770975,0.0,0.0,0.0
9.143352040816326,0.0,0.0,0.0
9.151351473922903,0.0,0.0,0.0
9.159350907029479,0.0,0.0,0.0
9.167350340136053,0.0,0.0,0.0
9.17534977324263,0.0,0.0,0.0
9.183349206349206,0.0,0.0,0.0
9.191348639455782,0.0,0.0,0.0
9.199348072562358,0.0,0.0,0.0
9.207347505668935,0.0,0.0,0.0
9.215346938775511,0.0,0.0,0.0
9.223346371882085,0.09717304592519843,0.0,0.0
9.231345804988662,0.08753517471245599,0.0,0.0
9.239345238095238,0.07789730349971355,0.0,0.0
9.247344671201814,0.0682594322869711,0.0,0.0
9.25534410430839,0.05862156107422865,0.0,0.0
9.263343537414967,0.0489836898614862,0.0,0.0
9.271342970521541,0.039345818648745895,0.0,0.0
9.279342403628117,0.02970794743600344,0.0,0.0
9.287341836734694,0.020070076223261,0.0,0.0
9.29534126984127,0.010432205010518558,0.0,0.0
9.303340702947846,0.0007943337977761034,0.0,0.0
9.311340136054422,0.08299319727888559,0.0,0.0
9.319339569160997,0.0,0.0,0.0
9.327339002267573,0.0,0.0,0.0
9.33533843537415,0.0,0.0,0.0
9.343337868480726,0.0,0.0,0.0
9.351337301587302,0.0,0.0,0.0
9.359336734693878,0.0,0.0,0.0
9.367336167800453,0.0,0.0,0.0
9.375335600907029,0.0,0.0,0.0
9.383335034013605,0.0,0.0,0.0
9.391334467120181,0.0,0.0,0.0
9.399333900226758,0.0,0.0,0.0
9.407333333333334,0.0,0.0,0.0
9.415332766439908,0.0,0.0,0.0
9.423332199546484,0.0,0.0,0.0
9.43133163265306,0.0,0.0,0.0
9.439331065759637,0.0,0.0,0.0
9.447330498866213,0.0,0.0,0.0
9.45532993197279,0.0,0.0,0.0
9.463329365079366,0.0,0.0,0.0
9.47132879818594,0.0,0.0,0.0
9.479328231292516,0.0,0.0,0.0
9.487327664399093,0.0,0.0,0.0
9.495327097505669,0.0,0.0,0.0
9.503326530612245,0.0,0.0,0.0
9.511325963718821,0.0,0.0,0.0
9.519325396825396,0.0,0.0,0.0
9.527324829931972,0.0,0.0,0.0
9.535324263038548,0.0,0.0,0.0
9.543323696145125,0.0,0.0,0.0
9.551323129251701,0.0,0.0,0.0
9.559322562358277,0.0,0.0,0.0
9.567321995464852,0.0,0.0,0.0
9.575321428571428,0.0,0.0,0.0
9.583320861678004,0.0,0.0,0.0
9.59132029478458,0.0,0.0,0.0
9.599319727891157,0.0,0.0,0.0
9.607319160997733,0.0,0.0,0.0
9.615318594104307,0.0,0.0,0.0
9.623318027210884,0.0,0.0,0.0
9.63131746031746,0.0,0.0,0.0
9.639316893424036,0.0,0.0,0.0
9.647316326530612,0.0,0.0,0.0
9.655315759637189,0.0,0.0,0.0
9.663315192743765,0.0,0.0,0.0
9.67131462585034,0.0,0.0,0.0
9.679314058956916,0.0,0.0,0.0
9.687313492063492,0.0,0.0,0.0
9.695312925170068,0.0,0.0,0.0
9.703312358276644,0.0,0.0,0.0
9.71131179138322,0.0,0.0,0.0
9.719311224489795,0.0,0.0,0.0
9.727310657596371,0.0,0.0,0.0
9.735310090702948,0.0,0.0,0.0
9.743309523809524,0.0,0.0,0.0
9.7513089569161,0.0,0.0,0.0
9.759308390022676,0.0,0.0,0.0
9.76730782312925,0.0,0.0,0.0
9.775307256235827,0.0,0.0,0.0
9.783306689342403,0.0,0.0,0.0
9.79130612244898,0.0,0.0,0.0
9.799305555555556,0.0,0.0,0.0
9.807304988662132,0.0,0.0,0.0
9.815304421768706,0.0,0.0,0.0
9.823303854875283,0.0,0.0,0.0
9.831303287981859,0.0,0.0,0.0
9.839302721088435,0.0,0.0,0.0
9.847302154195011,0.0,0.0,0.0
9.855301587301588,0.0,0.0,0.0
9.863301020408164,0.0,0.0,0.0
9.871300453514738,0.0,0.0,0.0
9.879299886621315,0.0,0.0,0.0
9.887299319727891,0.0,0.0,0.0
9.895298752834467,0.0,0.0,0.0
9.903298185941043,0.0,0.0,0.0
9.91129761904762,0.0,0.0,0.0
9.919297052154194,-0.01485260770968934,0.0,0.0
9.92729648526077,-0.09232135943808424,0.0,0.0
9.935295918367347,-0.08256595321055232,0.0,0.0
9.943295351473923,-0.0728105469830204,0.0,0.0
9.951294784580499,-0.06305514075548849,0.0,0.0
9.959294217687075,-0.053299734527956555,0.0,0.0
9.96729365079365,-0.0435443283004268,0.0,0.0
9.975293083900226,-0.033788922072894884,0.0,0.0
9.983292517006802,-0.02403351584536295,0.0,0.0
9.991291950113379,-0.014278109617831033,0.0,0.0
9.999291383219955,-0.004522703390299115,0.0,0.0
10.007290816326531,0.0,0.0,0.0
10.015290249433106,0.0,0.0,0.0
10.023289682539682,0.0,0.0,0.0
10.031289115646258,0.0,0.0,0.0
10.039288548752834,0.0,0.0,0.0
10.04728798185941,0.0,0.0,0.0
10.055287414965987,0.0,0.0,0.0
10.063286848072563,0.0,0.0,0.0
10.071286281179137,0.0,0.0,0.0
10.079285714285714,0.0,0.0,0.0
10.08728514739229,0.0,0.0,0.0
10.095284580498866,0.0,0.0,0.0
10.103284013605442,0.0,0.0,0.0
10.111283446712019,0.04278155706730832,-0.1,0.0
10.119282879818593,0.31511604641856367,0.010077364279042437,-0.09496131786047879
10.12728231292517,0.3433493397358919,0.02889955982392793,-0.08555022008803603
10.135281746031746,0.37158263305322015,0.04772175536881343,-0.07613912231559329
10.143281179138322,0.39981592637054836,0.06654395091369893,-0.06672802454315055
10.151280612244898,0.42804921968787657,0.08536614645858442,-0.05731692677070779
10.159280045351474,0.45628251300520484,0.10418834200346992,-0.047905828998265045
10.167279478458049,0.4845158063225268,0.12301053754835123,-0.03849473122582439
10.175278911564625,0.512749099639855,0.14183273309323674,-0.029083633453381635
10.183278344671201,0.5409823929571833,0.16065492863812222,-0.019672535680938893
10.191277777777778,0.5692156862745115,0.17947712418300774,-0.010261437908496138
10.199277210884354,0.5974489795918397,0.19829931972789322,-0.0008503401360533958
10.20727664399093,1.3751826656589543,-0.1,0.09007306626358175
10.215276077097505,1.9126002965288647,-0.0905497776033514,0.3031500741322162
10.22327551020408,1.943367346938773,-0.06747448979592013,0.3108418367346933
10.231274943310657,1.9741343973486813,-0.04439920198848885,0.3185335993371704
10.239274376417233,2.0049014477585896,-0.021323914181057585,0.32622536193964746
10.24727380952381,2.0356684981684983,0.0017513736263736895,0.3339171245421246
10.255273242630386,2.0664355485784065,0.024826661433804964,0.34160888714460164
10.263272675736962,2.0972025989883147,0.047901949241236225,0.34930064974707875
10.271272108843537,2.1279696493982163,0.07097723704866238,0.35699241234955414
10.279271541950113,2.1587366998081245,0.09405252485609364,0.3646841749520312
10.287270975056689,2.189503750218033,0.11712781266352493,0.3723759375545083
10.295270408163265,2.2202708006279415,0.1402031004709562,0.38006770015698543
10.303269841269842,2.2510378510378497,0.16327838827838745,0.3877594627594625
10.311269274376418,2.281804901447758,0.18635367608581874,0.39545122536193955
10.319268707482992,0.9677551020410242,0.1,0.09731292517008536
10.327268140589569,0.007823129251854022,0.1,0.01731859410432117
10.335267573696145,-0.22648270575835575,0.09117243141388143,0.008827568586118582
10.343267006802721,-0.2602831273354386,0.07990562422152046,0.02009437577847954
10.351266439909297,-0.2940835489125215,0.06863881702915951,0.03136118297084049
10.359265873015874,-0.3278839704896044,0.057372009836798556,0.04262799016320145
10.367265306122448,-0.3616843920666797,0.0461052026444401,0.0538947973555599
10.375264739229024,-0.39548481364376253,0.034838395452079146,0.06516160454792086
10.3832641723356,-0.42928523522084544,0.023571588259718182,0.07642841174028182
10.391263605442177,-0.4630856567979283,0.012304781067357232,0.08769521893264277
10.399263038548753,-0.49688607837501114,0.0010379738749962814,0.09896202612500372
10.40726247165533,0.3956944730754255,0.19138894615085097,0.09569447307542549
10.415261904761904,0.3876142376142392,0.17522847522847834,0.08761423761423917
10.42326133786848,0.37953400215305105,0.1590680043061021,0.07953400215305105
10.431260770975056,0.371453766691863,0.1429075333837259,0.07145376669186294
10.439260204081632,0.36337353123067484,0.12674706246134965,0.06337353123067482
10.447259637188209,0.3552932957694867,0.11058659153897342,0.05529329576948671
10.455259070294785,0.3472130603082986,0.09442612061659719,0.047213060308298596
10.463258503401361,0.3391328248471105,0.07826564969422097,0.03913282484711048
10.471257936507936,0.3310525893859242,0.06210517877184832,0.03105258938592416
10.479257369614512,0.32297235392473606,0.045944707849472105,0.022972353924736053
10.487256802721088,0.3148921184635479,0.029784236927095864,0.014892118463547932
10.495256235827664,0.30681188300235984,0.01362376600471965,0.006811883002359825
10.50325566893424,0.09072184429334021,0.0,0.0
10.511255102040817,0.0008796622097161556,-0.1,0.0
10.519254535147391,0.02846391430135178,-0.1,0.0
10.527253968253968,0.05604816639299353,-0.1,0.0
10.535253401360544,0.08363241848463528,-0.1,0.0
10.54325283446712,0.11121667057627703,-0.1,0.0
10.551252267573696,0.13880092266791877,-0.1,0.0
10.559251700680273,0.16638517475956052,-0.1,0.0
10.567251133786847,0.19396942685119614,-0.1,0.0
10.575250566893423,0.2215536789428379,-0.1,0.0
10.58325,0.24913793103447965,-0.1,0.0
10.591249433106576,0.2767221831261214,-0.1,0.0
10.599248866213152,-0.07465986394538926,-0.14162887377170993,-0.04162887377170992
10.607248299319728,-0.3759385235575621,-0.29699231544469523,-0.10300768455530475
10.615247732426303,-0.31668346350886256,-0.28958543293860783,-0.11041456706139219
10.623247165532879,-0.2574284034601499,-0.2821785504325187,-0.11782144956748128
10.631246598639455,-0.19817334341143725,-0.27477166792642965,-0.12522833207357034
10.639246031746032,-0.1389182833627246,-0.2673647854203406,-0.13263521457965943
10.647245464852608,-0.07966322331401193,-0.25995790291425147,-0.14004209708574852
10.655244897959184,-0.02040816326529926,-0.2525510204081624,-0.14744897959183761
10.66324433106576,0.03884689678341341,-0.24514413790207334,-0.15485586209792668
10.671243764172335,0.09810195683211287,-0.2377372553959859,-0.16226274460401413
10.679243197278911,0.1573570168808256,-0.23033037288989683,-0.1696696271101032
10.687242630385487,0.2166120769295382,-0.22292349038380774,-0.17707650961619228
10.695242063492064,0.2758671369782508,-0.21551660787771865,-0.18448339212228138
10.70324149659864,0.33512219702696355,-0.20810972537162958,-0.19189027462837044
10.711240929705216,0.39437725707567617,-0.2007028428655405,-0.19929715713445953
10.71924036281179,-0.4,-0.22489292013099865,-0.1
10.727239795918367,-0.3965561224489837,-0.2982780612244918,-0.09655612244898365
10.735239229024943,-0.37433547493071606,-0.287167737465358,-0.07433547493071604
10.74323866213152,-0.35211482741244843,-0.2760574137062242,-0.05211482741244843
10.751238095238095,-0.32989417989418085,-0.26494708994709043,-0.02989417989418082
10.759237528344672,-0.3076735323759132,-0.2538367661879566,-0.007673532375913214
10.767236961451246,-0.2854528848576505,-0.24272644242882527,0.014547115142349465
10.775236394557822,-0.26323223733938295,-0.23161611866969145,0.03676776266061707
10.783235827664399,-0.24101158982111534,-0.22050579491055766,0.058988410178884676
10.791235260770975,-0.21879094230284774,-0.20939547115142387,0.08120905769715228
10.799234693877551,0.04693877551022102,-0.0765306122448895,0.05884353741496317
10.807234126984127,0.45886243386242354,-0.1,-0.3
10.815233560090702,0.2849601856246395,-0.09248009281231974,-0.29624004640615986
10.823232993197278,0.24775352001265705,-0.07387676000632853,-0.28693838000316424
10.831232426303854,0.2105468544006746,-0.055273427200337316,-0.27763671360016867
10.83923185941043,0.17334018878869217,-0.0366700943943461,-0.26833504719717305
10.847231292517007,0.13613352317670976,-0.018066761588354893,-0.2590333807941774
10.855230725623583,0.09892685756472733,0.0005365712176363252,-0.24973171439118186
10.86323015873016,0.06172019195274492,0.01913990402362753,-0.24043004798818624
10.871229591836734,0.024513526340770753,0.03774323682961461,-0.23112838158519272
10.87922902494331,-0.012693139271211684,0.05634656963560583,-0.2218267151821971
10.887228458049886,-0.049899804883194065,0.07494990244159702,-0.2125250487792015
10.895227891156463,-0.0871064704951765,0.09355323524758824,-0.2032233823762059
10.903227324263039,-0.49204931972789456,-0.09602465986394729,0.45341553287982433
10.911226757369615,1.1023688908187388,0.7976311091812612,1.1928933275437836
10.91922619047619,1.110878926038499,0.7891210739615011,1.1673632218845034
10.927225623582766,1.119388961258261,0.7806110387417391,1.1418331162252173
10.935225056689342,1.127898996478023,0.7721010035219771,1.1163030105659313
10.943224489795918,1.136409031697785,0.7635909683022151,1.0907729049066452
10.951223922902495,1.144919066917547,0.755080933082453,1.065242799247359
10.95922335600907,1.153429102137309,0.746570897862691,1.039712693588073
10.967222789115645,1.161939137357069,0.7380608626429309,1.0141825879287927
10.975222222222222,1.1704491725768311,0.7295508274231689,0.9886524822695066
10.983221655328798,1.1789592077965931,0.7210407922034068,0.9631223766102206
10.991221088435374,1.1874692430163551,0.7125307569836448,0.9375922709509346
10.99922052154195,1.1959792782361172,0.7040207217638828,0.9120621652916485
11.007219954648527,1.187981859410717,0.5890022675736604,0.390022675736604
11.015219387755101,1.9938775510203874,0.4354591836734835,-0.5762755102040649
11.023218820861677,2.114623711119652,0.35244619860523935,-0.6743817652847172
11.031218253968254,2.235369871218916,0.2694332135369951,-0.7724880203653693
11.03921768707483,2.35611603131818,0.18642022846875095,-0.8705942754460216
11.047217120181406,2.4768621914174447,0.10340724340050678,-0.9687005305266738
11.055216553287982,2.5976083515167088,0.020394258332262605,-1.066806785607326
11.063215986394558,2.7183545116159733,-0.06261872673598157,-1.1649130406879782
11.071215419501133,2.8391006717152107,-0.1456317118042073,-1.2630192957686086
11.07921485260771,2.959846831814475,-0.2286446968724516,-1.3611255508492608
11.087214285714285,3.080592991913739,-0.31165768194069576,-1.459231805929913
11.095213718820862,3.2013391520130035,-0.39467066700893993,-1.5573380610105654
11.103213151927438,3.322085312112268,-0.4776836520771841,-1.6554443160912176
11.111212585034014,3.442831472211532,-0.5606966371454283,-1.7535505711718697
11.119212018140589,2.631823979591905,-1.9090986394558733,-2.8242488662132277
11.127211451247165,2.1818558673469917,-1.3091411564626554,-2.3242842970522126
11.135210884353741,1.6183673469387738,-0.8,-1.9
11.143210317460317,1.5,-0.745376382876378,-1.8344516594516533
11.151209750566894,1.5,-0.6847746169174677,-1.7617295403009612
11.15920918367347,1.5,-0.6241728509585573,-1.6890074211502688
11.167208616780044,1.5,-0.5635710849996605,-1.6162853019995924
11.17520804988662,1.5,-0.5029693190407503,-1.5435631828489003
11.183207482993197,1.5,-0.4423675530818399,-1.4708410636982079
11.191206916099773,1.5,-0.3817657871229296,-1.3981189445475155
11.19920634920635,1.5,-0.32116402116401926,-1.3253968253968231
11.207205782312926,3.3135714285715263,2.4917687074830024,1.06707482993201
11.2152052154195,1.2773749499799978,2.2585207416299955,0.2886874749899988
11.223204648526076,1.2209083633453424,2.1549986661331273,0.2604541816726712
11.231204081632653,1.1644417767106872,2.0514765906362595,0.23222088835534352
11.239203514739229,1.1079751900760317,1.9479545151393913,0.2039875950380159
11.247202947845805,1.0515086034413765,1.8444324396425233,0.17575430172068823
11.255202380952381,0.9950420168067211,1.7409103641456554,0.14752100840336058
11.263201814058956,0.9385754301720783,1.6373882886488103,0.11928771508603919
11.271201247165532,0.8821088435374231,1.5338662131519423,0.09105442176871154
11.279200680272108,0.8256422569027677,1.4303441376550743,0.0628211284513839
11.287200113378685,0.7691756702681124,1.326822062158206,0.03458783513405628
11.29519954648526,0.7127090836334571,1.223299986661338,0.0063545418167286205
11.303198979591837,-0.3380102040822601,-4.077551020408935,0.12015306122444155
11.311198412698413,-1.8469590643274822,-5.818145363408511,-0.03788638262322696
11.319197845804988,-1.7880158730158802,-5.616054421768732,-0.07998866213151415
11.327197278911564,-1.729072681704265,-5.413963480128909,-0.1220909416398107
11.33519671201814,-1.6701294903926498,-5.211872538489085,-0.16419322114810725
11.343196145124717,-1.6111862990810346,-5.009781596849262,-0.20629550065640379
11.351195578231293,-1.5522431077694194,-4.807690655209438,-0.24839778016470032
11.359195011337869,-1.4932999164578042,-4.605599713569615,-0.29050005967299686
11.367194444444443,-1.4343567251462022,-4.403508771929836,-0.33260233918128407
11.37519387755102,-1.3754135338345872,-4.201417830290013,-0.3747046186895806
11.383193310657596,-1.316470342522972,-3.9993268886501894,-0.41680689819787714
11.391192743764172,-1.2575271512113568,-3.7972359470103663,-0.4589091777061737
11.399192176870748,-1.0078231292506574,-3.3629818594091443,-0.5064058956916447
11.407191609977325,2.1867598891408426,0.687863231712439,-0.4977933148568071
11.4151910430839,2.0978772990677923,0.6063875241454759,-0.482979549844632
11.423190476190475,2.0089947089947215,0.5249118165784946,-0.4681657848324536
11.431189909297052,1.9201121189216512,0.4434361090115134,-0.4533520198202752
11.439189342403628,1.8312295288485807,0.3619604014445322,-0.4385382548080968
11.447188775510204,1.7423469387755102,0.28048469387755093,-0.42372448979591837
11.45518820861678,1.6534643487024399,0.19900898631056974,-0.40891072478373997
11.463187641723355,1.564581758629389,0.11753327874360653,-0.39409695977156484
11.471187074829931,1.4756991685563188,0.036057571176625336,-0.37928319475938643
11.479186507936507,1.386816578483248,-0.04541813639035597,-0.36446942974720803
11.487185941043084,1.2979339884101777,-0.12689384395733716,-0.3496556647350296
11.49518537414966,1.2090513983371074,-0.20836955152431846,-0.33484189972285117
11.503184807256236,1.1201688082640369,-0.28984525909129966,-0.3200281347106728
11.511184240362812,1.0312862181909663,-0.37132096665828085,-0.30521436969849436
11.519183673469387,0.6411302982731684,-0.3601255886970187,-0.3398744113029813
11.527183106575963,0.16103552532128973,-0.2511715797429682,-0.39389644746787106
11.53518253968254,1.4,0.6846006144393255,-0.2948668714797752
11.543181972789116,1.4,0.6458936800526659,-0.2819645600175553
11.551181405895692,1.4,0.6071867456660063,-0.26906224855533545
11.559180839002268,1.4,0.5684798112793467,-0.2561599370931156
11.567180272108843,1.4,0.5297728768926956,-0.24325762563089853
11.575179705215419,1.4,0.49106594250603597,-0.23035531416867866
11.583179138321995,1.4,0.45235900811937635,-0.2174530027064588
11.591178571428571,1.4,0.41365207373271673,-0.2045506912442389
11.599178004535148,-1.0246031746032354,0.5109977324262606,-0.5287981859410085
11.607177437641724,-1.5613522588522548,0.11104221175649868,-0.20552110587824934
11.615176870748298,-1.5182783882783923,0.12334903192045933,-0.21167451596022968
11.623176303854875,-1.4752045177045205,0.1356558520844227,-0.21782792604221135
11.63117573696145,-1.4321306471306487,0.1479626722483861,-0.22398133612419305
11.639175170068027,-1.389056776556777,0.16026949241234947,-0.23013474620617475
11.647174603174603,-1.345982905982905,0.17257631257631287,-0.23628815628815644
11.65517403628118,-1.3029090354090331,0.18488313274027623,-0.24244156637013814
11.663173469387754,-1.2598351648351709,0.1971899529042369,-0.24859497645211845
11.67117290249433,-1.216761294261299,0.20949677306820028,-0.25474838653410015
11.679172335600907,-1.173687423687427,0.22180359323216364,-0.2609017966160818
11.687171768707483,-1.1306135531135553,0.23411041339612704,-0.26705520669806354
11.695171201814059,-1.0875396825396835,0.24641723356009043,-0.2732086167800452
11.703170634920635,-1.0444658119658117,0.2587240537240538,-0.27936202686202694
11.711170068027211,-1.0013919413919399,0.27103087388801717,-0.2855154369440086
11.719169501133786,-0.9583180708180775,0.28333769405197784,-0.29166884702598894
11.727168934240362,-0.9152442002442056,0.29564451421594123,-0.2978222571079706
11.735168367346938,-0.08782798833826988,-0.8813411078716074,0.14300291545185279
11.743167800453515,0.18262591421545174,-1.2565647855386293,0.27393887132317757
11.751167233560091,0.1600922998307298,-1.2002307495768245,0.24013844974609472
11.759166666666667,0.1375586854460079,-1.1438967136150198,0.20633802816901184
11.767166099773242,0.11502507106129099,-1.0875626776532274,0.17253760659193648
11.775165532879818,0.09249145667656908,-1.0312286416914227,0.13873718501485363
11.783164965986394,0.06995784229184718,-0.974894605729618,0.10493676343777075
11.79116439909297,0.04742422790712525,-0.9185605697678132,0.0711363418606879
11.799163832199547,0.02489061352240335,-0.8622265338060084,0.03733592028360505
11.807163265306123,0.0023569991376814203,-0.8058924978442037,0.0035354987065221444
11.815162698412697,0.116269841269695,0.8744047619045425,0.3906746031742375
11.823162131519274,0.4,1.2174004433233954,0.5
11.83116156462585,0.4,1.2443648245815175,0.5
11.839160997732426,0.4,1.2713292058396397,0.5
11.847160430839002,0.4,1.2982935870977617,0.5
11.855159863945579,0.4,1.3252579683558836,0.5
11.863159297052153,0.4,1.3522223496139998,0.5
11.87115873015873,0.4,1.3791867308721217,0.5
11.879158163265306,0.4,1.406151112130244,0.5
11.887157596371882,0.4,1.433115493388366,0.5
11.895157029478458,0.4,1.460079874646488,0.5
11.903156462585034,0.4,1.48704425590461,0.5
11.91115589569161,0.13553391053385455,1.0844104308389144,0.2733147804575896
11.919155328798185,-0.3013279641358457,0.3960161075924628,-0.09867203586415428
11.927154761904761,-0.31052271483305965,0.3684318555008211,-0.08947728516694035
11.935154195011338,-0.3197174655302736,0.3408476034091793,-0.08028253446972644
11.943153628117914,-0.3289122162274875,0.3132633513175376,-0.07108778377251251
11.95115306122449,-0.33810696692470144,0.2856790992258958,-0.0618930330752986
11.959152494331066,-0.3473017176219153,0.258094847134254,-0.05269828237808469
11.96715192743764,-0.3564964683191272,0.23051059504261842,-0.04350353168087281
11.975151360544217,-0.36569121901634116,0.20292634295097667,-0.03430878098365889
11.983150793650793,-0.37488596971355503,0.1753420908593349,-0.025114030286444974
11.99115022675737,-0.38408072041076896,0.14775783876769316,-0.01591927958923106
11.999149659863946,-0.3932754711079829,0.12017358667605138,-0.006724528892017134
12.007149092970522,-0.4,-0.2581821617537382,0.0
12.015148526077096,-0.4994058956916163,-1.3991088435374244,-0.3986632653061367
12.023147959183673,-0.4674081632653112,-1.3511122448979667,-0.3266683673469502
12.031147392290249,-0.4354104308390061,-1.303115646258509,-0.2546734693877637
12.039146825396825,-0.403412698412701,-1.2551190476190515,-0.18267857142857724
12.047146258503401,-0.3714149659863959,-1.2071224489795938,-0.11068367346939073
12.055145691609978,-0.3394172335600908,-1.159125850340136,-0.038688775510204276
12.063145124716552,-0.3074195011337928,-1.1111292517006892,0.03330612244896625
12.071144557823128,-0.2754217687074877,-1.0631326530612315,0.1053010204081527
12.079143990929705,-0.2434240362811826,-1.0151360544217738,0.17729591836733916
12.087143424036281,-0.21142630385487748,-0.9671394557823161,0.24929081632652572
12.095142857142857,-0.17942857142857233,-0.9191428571428586,0.3212857142857122
12.103142290249433,-0.14743083900226722,-0.8711462585034009,0.39328061224489863
12.11114172335601,-0.11543310657596212,-0.8231496598639432,0.4652755102040852
12.119141156462584,-0.03558673469386381,-0.11411564625848503,0.021471088435378746
12.12714058956916,0.05702947845802924,-0.05702947845802924,0.05702947845802924
12.135140022675737,0.1,-0.1087073447265079,0.1
12.143139455782313,0.1,-0.11846275095403982,0.1
12.15113888888889,0.1,-0.12821815718157176,0.1
12.159138321995465,0.1,-0.13797356340910366,0.1
12.16713775510204,0.1,-0.14772896963663343,0.1
12.175137188208616,0.1,-0.15748437586416536,0.1
12.183136621315192,0.1,-0.16723978209169726,0.1
12.191136054421769,0.1,-0.1769951883192292,0.1
12.199135487528345,0.1,-0.18675059454676113,0.1
12.207134920634921,0.1,-0.19650600077429303,0.1
12.215134353741496,-0.1,-0.5462585034017261,-0.11343537414956847
12.223133786848072,-0.09278378017873956,0.2288648792850418,-0.2855675603574791
12.231133219954648,-0.0833726824062968,0.26650927037481276,-0.2667453648125936
12.239132653061224,-0.07396158463385406,0.3041536614645838,-0.24792316926770813
12.2471320861678,-0.06455048686141132,0.34179805255435475,-0.22910097372282262
12.255131519274377,-0.05513938908896857,0.3794424436441257,-0.21027877817793714
12.263130952380951,-0.04572829131652791,0.41708683473388836,-0.19145658263305582
12.271130385487528,-0.03631719354408516,0.4547312258236593,-0.17263438708817033
12.279129818594104,-0.02690609577164242,0.4923756169134303,-0.15381219154328485
12.28712925170068,-0.017494997999199666,0.5300200080032014,-0.13498999599839934
12.295128684807256,-0.008083900226756924,0.5676643990929723,-0.11616780045351385
12.303128117913833,-0.075207860922193,0.22396069538903496,-0.062396069538903504
12.311127551020409,-0.09565520945220163,-0.09565520945220163,0.1
12.319126984126983,-0.08723475355054419,-0.08723475355054419,0.1
12.32712641723356,-0.07881429764888488,-0.07881429764888488,0.1
12.335125850340136,-0.07039384174722557,-0.07039384174722557,0.1
12.343125283446712,-0.06197338584556627,-0.06197338584556627,0.1
12.351124716553288,-0.05355292994390696,-0.05355292994390696,0.1
12.359124149659864,-0.04513247404224765,-0.04513247404224765,0.1
12.367123582766439,-0.036712018140590205,-0.036712018140590205,0.1
12.375123015873015,-0.028291562238930895,-0.028291562238930895,0.1
12.383122448979591,-0.019871106337271585,-0.019871106337271585,0.1
12.391121882086168,-0.011450650435612275,-0.011450650435612275,0.1
12.399121315192744,-0.003030194533952965,-0.003030194533952965,0.1
12.40712074829932,0.05603741496601253,0.0,0.05603741496601253
12.415120181405895,0.1,-0.007494927795679118,0.09250507220432089
12.423119614512471,0.1,-0.015915383697338272,0.08408461630266173
12.431119047619047,0.1,-0.024335839598997426,0.07566416040100257
12.439118480725623,0.1,-0.032756295500656576,0.06724370449934343
12.4471179138322,0.1,-0.04117675140231573,0.05882324859768428
12.455117346938776,0.1,-0.049597207303974884,0.05040279269602512
12.46311678004535,0.1,-0.05801766320563217,0.04198233679436784
12.471116213151927,0.1,-0.06643811910729132,0.03356188089270869
12.479115646258503,0.1,-0.07485857500895048,0.02514142499104953
12.48711507936508,0.1,-0.08327903091060962,0.016720969089390386
12.495114512471655,0.1,-0.09169948681226878,0.008300513187731229
12.503113945578232,0.1,-0.0772108843536829,0.0
12.511113378684808,-0.29890845226979595,0.0010915477302040138,0.0010915477302040138
12.519112811791382,-0.2910658707927622,0.008934129207237787,0.008934129207237787
12.527112244897959,-0.2832232893157267,0.0167767106842733,0.0167767106842733
12.535111678004535,-0.2753807078386912,0.024619292161308814,0.024619292161308814
12.543111111111111,-0.2675381263616557,0.03246187363834433,0.03246187363834433
12.551110544217687,-0.25969554488462016,0.04030445511537984,0.04030445511537984
12.559109977324264,-0.2518529634075847,0.04814703659241536,0.04814703659241536
12.567109410430838,-0.24401038193055088,0.055989618069449125,0.055989618069449125
12.575108843537414,-0.23616780045351538,0.06383219954648464,0.06383219954648464
12.58310827664399,-0.22832521897647984,0.07167478102352015,0.07167478102352015
12.591107709750567,-0.22048263749944436,0.07951736250055567,0.07951736250055567
12.599107142857143,-0.21264005602240882,0.08735994397759118,0.08735994397759118
12.60710657596372,-0.20479747454537334,0.0952025254546267,0.0952025254546267
12.615106009070294,-0.17373393801953135,0.03686696900976569,0.08939909297070293
12.62310544217687,-0.18973639455782437,0.2,-0.2
12.631104875283446,-0.16973781179138378,0.2,-0.2
12.639104308390023,-0.1497392290249432,0.2,-0.2
12.647103741496599,-0.12974064625850257,0.2,-0.2
12.655103174603175,-0.10974206349206198,0.2,-0.2
12.66310260770975,-0.08974348072562581,0.2,-0.2
12.671102040816326,-0.0697448979591852,0.2,-0.2
12.679101473922902,-0.04974631519274461,0.2,-0.2
12.687100907029478,-0.02974773242630399,0.2,-0.2
12.695100340136054,-0.009749149659863399,0.2,-0.2
12.70309977324263,0.11713637836088801,-0.034272756721776015,-0.141431810819556
12.711099206349207,0.1297619047620211,0.18015873015865264,0.0
12.719098639455781,0.4159519987770375,0.03987999694259368,-0.023927998165556207
12.727098072562358,0.43392825294911885,0.0848206323727971,-0.05089237942367827
12.735097505668934,0.4519045071212002,0.12976126780300054,-0.07785676068180032
12.74309693877551,0.4698807612932816,0.17470190323320398,-0.10482114193992238
12.751096371882086,0.487857015465363,0.2196425386634074,-0.13178552319804443
12.759095804988663,0.5058332696374443,0.2645831740936108,-0.1587499044561665
12.767095238095237,0.5238095238095217,0.30952380952380426,-0.18571428571428256
12.775094671201813,0.5417857779816031,0.3544644449540077,-0.21267866697240462
12.78309410430839,0.5597620321536845,0.39940508038421113,-0.23964304823052668
12.791093537414966,0.5777382863257658,0.44434571581441457,-0.26660742948864874
12.799092970521542,0.5957145404978472,0.489286351244618,-0.2935718107467708
12.807092403628118,0.009240362811887795,0.3638605442178317,-0.1361394557821683
12.815091836734693,0.10805890538033293,0.5161178107606659,0.01611781076066584
12.82309126984127,0.11714917027416948,0.5342983405483389,0.03429834054833893
12.831090702947845,0.126239435168006,0.552478870336012,0.05247887033601203
12.839090136054422,0.13532970006184256,0.5706594001236851,0.07065940012368511
12.847089569160998,0.1444199649556791,0.5888399299113581,0.08883992991135821
12.855089002267574,0.15351022984951565,0.6070204596990313,0.1070204596990313
12.863088435374149,0.1626004947433502,0.6252009894867003,0.12520098948670036
12.871087868480725,0.17169075963718672,0.6433815192743734,0.14338151927437345
12.879087301587301,0.1807810245310233,0.6615620490620465,0.16156204906204655
12.887086734693877,0.1898712894248598,0.6797425788497196,0.17974257884971964
12.895086167800454,0.1989615543186964,0.6979231086373927,0.19792310863739274
12.90308560090703,0.047859977324243574,1.080350056689391,0.07178996598636536
12.911085034013606,0.0,0.7842600305428237,0.1
12.91908446712018,0.0,0.7434465963256073,0.1
12.927083900226757,0.0,0.7026331621083818,0.1
12.935083333333333,0.0,0.6618197278911564,0.1
12.94308276643991,0.0,0.6210062936739309,0.1
12.951082199546486,0.0,0.5801928594567055,0.1
12.959081632653062,0.0,0.53937942523948,0.1
12.967081065759636,0.0,0.4985659910222637,0.1
12.975080498866213,0.0,0.45775255680503824,0.1
12.983079931972789,0.0,0.4169391225878128,0.1
12.991079365079365,0.0,0.37612568837058735,0.1
12.999078798185941,0.0,0.3353122541533619,0.1
13.007078231292518,0.0,0.08435374149642583,0.1
13.015077664399092,0.07077664399091747,-0.5954365079364223,0.3831065759636699
13.023077097505668,-0.0015419501133529245,-0.8,0.34768707482997063
13.031076530612244,-0.10399549430161559,-0.7840180227935377,0.18002252849192207
13.03907596371882,-0.11438436846600034,-0.7424625261359987,0.12807815766999836
13.047075396825397,-0.12477324263038508,-0.7009070294784597,0.07613378684807465
13.055074829931973,-0.13516211679476983,-0.6593515328209207,0.024189416026150934
13.063074263038548,-0.14555099095915225,-0.617796036163391,-0.02775495479576126
13.071073696145124,-0.15593986512353702,-0.5762405395058521,-0.07969932561768495
13.0790731292517,-0.16632873928792175,-0.534685042848313,-0.13164369643960866
13.087072562358276,-0.1767176134523065,-0.4931295461907741,-0.18358806726153237
13.095071995464853,-0.18710648761669124,-0.4515740495332351,-0.23553243808345614
13.103071428571429,-0.197495361781076,-0.4100185528756961,-0.28747680890537985
13.111070861678005,-0.1357482993196656,-1.121258503401672,-0.12850340136066885
13.11907029478458,0.1,-2.20286796536799,-0.5629973201401867
13.127069727891156,0.1,-2.0119724025974186,-0.4902752009894928
13.135069160997732,0.1,-1.8210768398268473,-0.4175530818387989
13.143068594104308,0.1,-1.630181277056276,-0.3448309626881051
13.151068027210885,0.1,-1.4392857142857047,-0.27210884353741127
13.15906746031746,0.1,-1.2483901515151334,-0.19938672438671745
13.167066893424035,0.1,-1.0574945887446046,-0.12666460523603973
13.175066326530612,0.1,-0.8665990259740333,-0.05394248608534591
13.183065759637188,0.1,-0.675703463203462,0.01877963306534791
13.191065192743764,0.1,-0.4848079004328907,0.09150175221604173
13.19906462585034,0.1,-0.29391233766231917,0.16422387136673566
13.207064058956917,0.12265684051382672,0.3290627362055307,-0.035468631897234655
13.215063492063491,-0.19477990508918533,-0.18955981017837065,0.0
13.223062925170067,-0.18653306683498297,-0.17306613366996593,0.0
13.231062358276644,-0.1782862285807806,-0.1565724571615612,0.0
13.23906179138322,-0.17003939032657825,-0.1400787806531565,0.0
13.247061224489796,-0.16179255207237592,-0.1235851041447518,0.0
13.255060657596372,-0.15354571381817356,-0.10709142763634708,0.0
13.263060090702947,-0.14529887556397303,-0.09059775112794602,0.0
13.271059523809523,-0.13705203730977067,-0.0741040746195413,0.0
13.2790589569161,-0.1288051990555683,-0.05761039811113658,0.0
13.287058390022676,-0.12055836080136595,-0.04111672160273189,0.0
13.295057823129252,-0.11231152254716359,-0.024623045094327167,0.0
13.303057256235828,-0.10406468429296123,-0.008129368585922447,0.0
13.311056689342404,0.06855631141349719,-0.23711262282699436,-0.06855631141349719
13.319056122448979,-0.013023919245114262,0.1,0.0
13.327055555555555,-0.03022700119474061,0.1,0.0
13.335054988662131,-0.047430083144366954,0.1,0.0
13.343054421768707,-0.0646331650939933,0.1,0.0
13.351053854875284,-0.08183624704361965,0.1,0.0
13.35905328798186,-0.099039328993246,0.1,0.0
13.367052721088434,-0.11624241094286852,0.1,0.0
13.37505215419501,-0.13344549289249485,0.1,0.0
13.383051587301587,-0.1506485748421212,0.1,0.0
13.391051020408163,-0.16785165679174754,0.1,0.0
13.39905045351474,-0.1850547387413739,0.1,0.0
13.407049886621316,-0.29769754055466163,-0.19808128379555137,0.09923251351822054
13.41504931972789,0.07150706436416299,0.10958922030346918,-0.02383568812138767
13.423048752834466,0.29837400568693095,0.10162599431306907,-0.1
13.431048185941043,0.29202524925314033,0.10797475074685968,-0.1
13.439047619047619,0.2856764928193497,0.11432350718065029,-0.1
13.447047052154195,0.2793277363855591,0.1206722636144409,-0.1
13.455046485260771,0.2729789799517685,0.12702102004823151,-0.1
13.463045918367346,0.26663022351797927,0.13336977648202072,-0.1
13.471045351473922,0.2602814670841887,0.13971853291581132,-0.1
13.479044784580498,0.2539327106503981,0.14606728934960195,-0.1
13.487044217687075,0.24758395421660745,0.15241604578339255,-0.1
13.49504365079365,0.24123519778281685,0.15876480221718317,-0.1
13.503043083900227,0.23488644134902625,0.16511355865097377,-0.1
13.511042517006802,0.22853768491523704,0.17146231508476298,-0.1
13.519041950113378,0.22218892848144645,0.17781107151855358,-0.1
13.527041383219954,0.21584017204765582,0.1841598279523442,-0.1
13.53504081632653,0.2094914156138652,0.19050858438613483,-0.1
13.543040249433107,0.2031426591800746,0.19685734081992542,-0.1
13.551039682539683,0.2679894179894421,0.8759259259260949,0.6399470899472106
13.559039115646259,0.3809844692594004,0.5239378770376015,0.6714767038891005
13.567038548752834,0.3507979292345905,0.40319171693836203,0.6261968938518857
13.57503798185941,0.32061138920977394,0.2824455568390957,0.5809170838146609
13.583037414965986,0.29042484918495737,0.16169939673982942,0.5356372737774361
13.591036848072562,0.2602383091601408,0.04095323664056316,0.4903574637402112
13.599036281179139,0.23005176913532424,-0.07979292345870315,0.44507765370298635
13.607035714285715,0.2,-0.17499999999920066,0.38928571428537173
13.61503514739229,0.28945578231327984,0.5789115646265597,-0.19297052154218658
13.623034580498866,-0.01695079638280924,0.00847539819140462,-0.01695079638280924
13.631034013605442,-0.036226538808294136,0.018113269404147068,-0.036226538808294136
13.639033446712018,-0.05550228123377903,0.027751140616889516,-0.05550228123377903
13.647032879818594,-0.07477802365926392,0.03738901182963196,-0.07477802365926392
13.65503231292517,-0.09405376608474882,0.04702688304237441,-0.09405376608474882
13.663031746031745,-0.11332950851022944,0.05666475425511472,-0.11332950851022944
13.671031179138321,-0.13260525093571432,0.06630262546785716,-0.13260525093571432
13.679030612244897,-0.15188099336119923,0.07594049668059961,-0.15188099336119923
13.687030045351474,-0.1711567357866841,0.08557836789334206,-0.1711567357866841
13.69502947845805,-0.19043247821216902,0.09521623910608451,-0.19043247821216902
13.703028911564626,-0.5028911564625624,-0.9173469387753748,-0.33236961451247915
13.7110283446712,-0.6860323759133301,-1.9674088771311038,-0.21396762408666986
13.719027777777777,-0.6638117283950629,-1.9155606995884802,-0.2361882716049371
13.727027210884353,-0.6415910808767956,-1.8637125220458566,-0.25840891912320435
13.73502664399093,-0.6193704333585284,-1.811864344503233,-0.2806295666414716
13.743026077097506,-0.5971497858402611,-1.7600161669606094,-0.30285021415973884
13.751025510204082,-0.5749291383219939,-1.7081679894179858,-0.3250708616780061
13.759024943310658,-0.5527084908037266,-1.6563198118753624,-0.34729150919627333
13.767024376417233,-0.5304878432854644,-1.6044716343327503,-0.36951215671453563
13.775023809523809,-0.5082671957671971,-1.5526234567901267,-0.3917328042328029
13.783023242630385,-0.4860465482489299,-1.500775279247503,-0.4139534517510701
13.791022675736961,-0.46382590073066265,-1.4489271017048795,-0.43617409926933737
13.799022108843538,-0.4416052532123954,-1.397078924162256,-0.4583947467876046
13.807021541950114,-0.41938460569412817,-1.3452307466196323,-0.48061539430587186
13.815020975056688,-0.19580498866240817,-0.8916099773248163,-0.24475623582801015
13.823020408163265,-0.12764378478662491,-0.5,0.06382189239331246
13.83101984126984,-0.19477942692228456,-0.47389713461142274,0.0895588538445691
13.839019274376417,-0.1843905527578998,-0.42195276378949903,0.0687811055157996
13.847018707482993,-0.17400167859351506,-0.3700083929675753,0.048003357187030124
13.85501814058957,-0.16361280442913032,-0.3180640221456516,0.027225608858260628
13.863017573696144,-0.1532239302647479,-0.2661196513237394,0.0064478605294957525
13.87101700680272,-0.14283505610036315,-0.21417528050181567,-0.01432988779927373
13.879016439909297,-0.1324461819359784,-0.16223090967989195,-0.03510763612804321
13.887015873015873,-0.12205730777159365,-0.11028653885796824,-0.05588538445681271
13.895015306122449,-0.1116684336072089,-0.05834216803604453,-0.0766631327855822
13.903014739229025,-0.10127955944282416,-0.006397797214120815,-0.0974408811143517
13.9110141723356,0.00047241118667309094,-0.10094482237334619,-0.00047241118667309094
13.919013605442176,0.10576276487606477,-0.3,-0.1
13.927013038548752,0.11495751557327888,-0.3,-0.1
13.935012471655329,0.12415226627049297,-0.3,-0.1
13.943011904761905,0.1333470169677071,-0.3,-0.1
13.951011337868481,0.1425417676649212,-0.3,-0.1
13.959010770975057,0.1517365183621353,-0.3,-0.1
13.967010204081632,0.16093126905934735,-0.3,-0.1
13.975009637188208,0.17012601975656147,-0.3,-0.1
13.983009070294784,0.1793207704537756,-0.3,-0.1
13.99100850340136,0.18851552115098968,-0.3,-0.1
13.999007936507937,0.19771027184820378,-0.3,-0.1
14.007007369614513,-0.04296242306447947,-0.15703757693552053,-0.08592484612895894
14.015006802721087,-0.09539447963093317,-0.09539447963093317,-0.2
14.023006235827664,-0.08619972893371924,-0.08619972893371924,-0.2
14.03100566893424,-0.07700497823650533,-0.07700497823650533,-0.2
14.039005102040816,-0.06781022753929142,-0.06781022753929142,-0.2
14.047004535147392,-0.0586154768420775,-0.0586154768420775,-0.2
14.055003968253969,-0.04942072614486358,-0.04942072614486358,-0.2
14.063003401360543,-0.0402259754476517,-0.0402259754476517,-0.2
14.07100283446712,-0.031031224750437778,-0.031031224750437778,-0.2
14.079002267573696,-0.021836474053223864,-0.021836474053223864,-0.2
14.087001700680272,-0.012641723356009951,-0.012641723356009951,-0.2
14.095001133786848,-0.003446972658796024,-0.003446972658796024,-0.2
14.103000566893424,0.05998866213152838,-0.15998866213152838,0.0
14.111,-0.1,0.0,0.0
