gyro_time_list,gyro_x_list,gyro_y_list,gyro_z_list
0.0,0.0,0.0,0.0
0.007999338624338624,-0.1,0.1,0.0029405280630770826
0.01599867724867725,-0.1,0.1,0.01078301691046789
0.023998015873015872,-0.1,0.1,0.0186255057578587
0.0319973544973545,-0.1,0.1,0.02646799460524951
0.03999669312169312,-0.1,0.1,0.03431048345264032
0.047996031746031745,-0.1,0.1,0.04215297230003113
0.05599537037037037,-0.1,0.1,0.049995461147421934
0.063994708994709,-0.1,0.1,0.057837949994812746
0.07199404761904762,-0.1,0.1,0.06568043884220355
0.07999338624338624,-0.1,0.1,0.07352292768959436
0.08799272486772486,-0.1,0.1,0.08136541653698516
0.09599206349206349,-0.1,0.1,0.08920790538437597
0.10399140211640212,-0.1,0.1,0.09705039423176678
0.11199074074074074,-0.1,-0.10103202160493828,-0.10412808641975307
0.11999007936507936,-0.1,-0.109364666005291,-0.137458664021164
0.127989417989418,-0.1,-0.11769731040564374,-0.17078924162257497
0.13598875661375662,-0.1,-0.1260299548059965,-0.20411981922398592
0.14398809523809525,-0.1,-0.13436259920634924,-0.2374503968253969
0.15198743386243385,-0.1,-0.14269524360670194,-0.27078097442680776
0.15998677248677248,-0.1,-0.1510278880070547,-0.3041115520282187
0.1679861111111111,-0.1,-0.15936053240740744,-0.3374421296296297
0.17598544973544972,-0.1,-0.16769317680776014,-0.3707727072310406
0.18398478835978835,-0.1,-0.1760258212081129,-0.4041032848324515
0.19198412698412698,-0.1,-0.18435846560846564,-0.4374338624338625
0.1999834656084656,-0.1,-0.1926911100088184,-0.4707644400352735
0.20798280423280424,-0.14914021164021257,-0.2,-0.3034391534391498
0.21598214285714284,-0.20995535714285715,0.10497767857142858,0.10497767857142858
0.22398148148148148,-0.22995370370370372,0.11497685185185186,0.11497685185185186
0.2319808201058201,-0.2499520502645503,0.12497602513227515,0.12497602513227515
0.2399801587301587,-0.2699503968253968,0.1349751984126984,0.1349751984126984
0.24797949735449734,-0.2899487433862434,0.1449743716931217,0.1449743716931217
0.255978835978836,-0.30994708994708997,0.15497354497354499,0.15497354497354499
0.2639781746031746,-0.3299454365079365,0.16497271825396825,0.16497271825396825
0.27197751322751323,-0.34994378306878315,0.17497189153439158,0.17497189153439158
0.27997685185185184,-0.3699421296296297,0.18497106481481485,0.18497106481481485
0.2879761904761905,-0.38994047619047634,0.19497023809523817,0.19497023809523817
0.2959755291005291,-0.6365823412698418,0.2,0.31219411375661393
0.3039748677248677,-1.0949735449735423,0.24874338624338554,0.4974867724867711
0.31197420634920636,-1.3667743161094228,0.314838736913205,0.6370968422830126
0.31997354497354497,-1.4433637284701115,0.3318586063266914,0.6796465158167285
0.32797288359788357,-1.5199531408308002,0.34887847574017783,0.7221961893504445
0.3359722222222222,-1.5965425531914894,0.3658983451536643,0.7647458628841608
0.34397156084656083,-1.6731319655521784,0.3829182145671507,0.8072955364178768
0.35197089947089943,-1.7497213779128669,0.39993808398063707,0.8498452099515927
0.3599702380952381,-1.8263107902735563,0.41695795339412356,0.892394883485309
0.3679695767195767,-1.902900202634245,0.43397782280761,0.934944557019025
0.37596891534391536,-1.9794896149949341,0.4509976922210965,0.9774942305527412
0.38396825396825396,-2.056079027355623,0.46801756163458286,1.0200439040864573
0.39196759259259256,-2.132668439716312,0.48503743104806923,1.0625935776201731
0.3999669312169312,-2.335370370370368,0.538677248677248,1.158015873015872
0.4079662698412698,-3.503817999691786,0.905726999537679,1.807635999383572
0.4159656084656085,-3.519350696049725,0.9290260440745878,1.8387013920994504
0.4239649470899471,-3.5348833924076644,0.9523250886114963,1.8697667848153285
0.4319642857142857,-3.550416088765603,0.9756241331484049,1.9008321775312065
0.43996362433862435,-3.5659487851235423,0.9989231776853136,1.9318975702470849
0.44796296296296295,-3.5814814814814815,1.0222222222222221,1.962962962962963
0.45596230158730156,-3.5970141778394207,1.0455212667591307,1.994028355678841
0.4639616402116402,-3.61254687419736,1.0688203112960395,2.025093748394719
0.4719609788359788,-3.6280795705552986,1.0921193558329478,2.0561591411105975
0.4799603174603174,-3.643612266913238,1.1154184003698564,2.0872245338264754
0.4879596560846561,-3.659144963271177,1.1387174449067652,2.118289926542354
0.4959589947089947,-3.674677659629116,1.1620164894436738,2.1493553192582318
0.5039583333333333,-3.690210355987055,1.1853155339805823,2.18042071197411
0.511957671957672,-3.615495086923659,1.369009826152682,2.538019652305364
0.5199570105820106,-3.6914021164021174,2.0392526455026463,3.7478505291005293
0.5279563492063492,-3.93235511258767,2.380887781469176,3.8080887781469173
0.5359556878306878,-3.969561338747385,2.473903346868463,3.8173903346868463
0.5439550264550265,-4.0067675649071,2.5669189122677496,3.826691891226775
0.551954365079365,-4.043973791066814,2.6599344776670346,3.8359934477667035
0.5599537037037037,-4.0811800172265285,2.7529500430663214,3.845295004306632
0.5679530423280423,-4.118386243386244,2.845965608465608,3.8545965608465607
0.575952380952381,-4.155592469545958,2.938981173864895,3.8638981173864893
0.5839517195767195,-4.192798695705672,3.0319967392641805,3.873199673926418
0.5919510582010582,-4.230004921865387,3.1250123046634672,3.8825012304663464
0.5999503968253969,-4.267211148025101,3.218027870062754,3.8918027870062755
0.6079497354497354,-4.679894179894168,3.537433862433855,3.710052910052916
0.6159490740740741,-5.990127314814814,3.9555729166666667,4.604936342592592
0.6239484126984127,-5.970128968253968,3.8655803571428566,4.614935515873015
0.6319477513227513,-5.950130621693122,3.775587797619048,4.624934689153439
0.6399470899470899,-5.930132275132275,3.685595238095238,4.634933862433862
0.6479464285714286,-5.910133928571429,3.595602678571428,4.644933035714286
0.6559457671957671,-5.890135582010582,3.505610119047619,4.654932208994709
0.6639451058201058,-5.870137235449735,3.4156175595238096,4.664931382275133
0.6719444444444445,-5.850138888888889,3.3256249999999996,4.674930555555556
0.679943783068783,-5.830140542328042,3.2356324404761905,4.684929728835979
0.6879431216931217,-5.810142195767195,3.145639880952381,4.694928902116402
0.6959424603174603,-5.158630952380944,3.2434523809523776,4.490575396825396
0.7039417989417989,-3.9587301587301633,2.7634920634920657,4.4105820105820115
0.7119411375661375,-3.368523881023881,2.559301265551266,4.324960674960676
0.7199404761904762,-2.8712676962676946,2.3971525096525093,4.238481338481338
0.7279398148148148,-2.374011511511508,2.2350037537537526,4.152002002002002
0.7359391534391534,-1.8767553267553287,2.0728549978549986,4.065522665522666
0.743938492063492,-1.3794991419991423,1.9107062419562422,3.9790433290433294
0.7519378306878307,-0.8822429572429558,1.7485574860574857,3.8925639925639928
0.7599371693121693,-0.3849867724867764,1.5864087301587313,3.806084656084657
0.7679365079365079,0.11226941226941012,1.4242599742599749,3.71960531960532
0.7759358465608466,0.6095255970255966,1.2621112183612184,3.6331259831259834
0.7839351851851851,2.2805555555555275,1.4115079365079326,3.2474867724867793
0.7919345238095238,3.7689379699248122,1.8861946532999165,2.3654866332497915
0.7999338624338624,3.70578529657477,1.8581267984776757,2.2953169961941895
0.807933201058201,3.642632623224729,1.830058943655435,2.225147359138588
0.8159325396825396,3.579479949874687,1.8019910888331943,2.1549777220829855
0.8239318783068783,3.516327276524645,1.7739232340109534,2.0848080850273836
0.831931216931217,3.453174603174603,1.7458553791887124,2.014638447971781
0.8399305555555555,3.3900219298245617,1.717787524366472,1.9444688109161798
0.8479298941798942,3.3268692564745197,1.689719669544231,1.8742991738605776
0.8559292328042328,3.2637165831244777,1.66165181472199,1.8041295368049752
0.8639285714285714,3.2005639097744365,1.6335839598997497,1.7339598997493741
0.87192791005291,3.1374112364243945,1.6055161050775086,1.6637902626937717
0.8799272486772487,3.0742585630743524,1.5774482502552678,1.5936206256381695
0.8879265873015872,3.0111058897243113,1.5493803954330274,1.5234509885825682
0.8959259259259259,2.947953216374269,1.5213125406107864,1.4532813515269658
0.9039252645502646,1.3597883597883709,0.9224206349206391,0.9507716049382747
0.9119246031746031,-1.9423241518829744,0.2961523498288205,0.3961523498288205
0.9199239417989418,-2.0285915292042738,0.28830986098142963,0.38830986098142967
0.9279232804232804,-2.1148589065255727,0.28046737213403883,0.38046737213403886
0.935922619047619,-2.201126283846871,0.2726248832866481,0.3726248832866481
0.9439219576719576,-2.2873936611681702,0.2647823944392572,0.36478239443925725
0.9519212962962963,-2.3736610384894696,0.2569399055918664,0.3569399055918664
0.9599206349206348,-2.4599284158107677,0.24909741674447566,0.3490974167444757
0.9679199735449735,-2.5461957931320667,0.24125492789708483,0.34125492789708484
0.9759193121693122,-2.632463170453366,0.233412439049694,0.333412439049694
0.9839186507936508,-2.7187305477746655,0.22556995020230314,0.3255699502023031
0.9919179894179894,-2.8049979250959636,0.2177274613549124,0.31772746135491237
0.999917328042328,-2.891265302417263,0.20988497250752158,0.30988497250752156
1.0079166666666666,-2.9775326797385606,0.20204248366013083,0.3020424836601308
1.0159160052910052,-2.8877976190476025,-0.2,0.6458002645502663
1.023915343915344,-1.2692397660818722,-0.08131996658312461,0.6813199665831245
1.0319146825396825,-1.0924122807017544,-0.05605889724310778,0.6560588972431077
1.0399140211640212,-0.9155847953216367,-0.03079782790309095,0.6307978279030909
1.0479133597883599,-0.7387573099415189,-0.005536758563074118,0.6055367585630741
1.0559126984126983,-0.561929824561406,0.019724310776942006,0.580275689223058
1.063912037037037,-0.38510233918128844,0.04498538011695882,0.5550146198830412
1.0719113756613756,-0.2082748538011705,0.07024644945697567,0.5297535505430244
1.0799107142857143,-0.03144736842105278,0.09550751879699249,0.5044924812030076
1.087910052910053,0.14538011695906494,0.12076858813700933,0.47923141186299073
1.0959093915343916,0.32220760233918266,0.14602965747702615,0.4539703425229739
1.10390873015873,0.4990350877192955,0.1712907268170423,0.4287092731829578
1.1119080687830687,0.6758625730994132,0.19655179615705912,0.40344820384294094
1.1199074074074074,1.3907407407407246,0.2,0.10396825396826087
1.127906746031746,1.839263668430333,0.1121472663139334,-0.16355820105819982
1.1359060846560847,2.080885384456813,-0.12548615405758268,-0.538229231086374
1.1439054232804233,2.049719130076273,-0.16704115989830304,-0.6005617398474545
1.151904761904762,2.0185528756957325,-0.20859616573902334,-0.662894248608535
1.1599041005291004,1.9873866213151932,-0.25015117157974254,-0.7252267573696138
1.167903439153439,1.956220366934653,-0.2917061774204629,-0.7875592661306943
1.1759027777777777,1.9250541125541127,-0.3332611832611832,-0.8498917748917748
1.1839021164021164,1.8938878581735725,-0.3748161891019035,-0.9122242836528554
1.191901455026455,1.862721603793032,-0.41637119494262387,-0.9745567924139358
1.1999007936507937,1.8315553494124919,-0.45792620078334423,-1.0368893011750164
1.2079001322751322,1.8003890950319525,-0.49948120662406337,-1.099221809936095
1.2158994708994708,0.9201058201058335,-1.0798941798941666,-1.5899470899470833
1.2238988095238095,0.8739599686028259,-1.1173600209314496,-1.6173600209314496
1.2318981481481481,0.8475885225885226,-1.134940984940985,-1.634940984940985
1.2398974867724868,0.8212170765742193,-1.1525219489505205,-1.6525219489505205
1.2478968253968254,0.794845630559916,-1.1701029129600562,-1.6701029129600562
1.2558961640211639,0.7684741845456134,-1.1876838769695912,-1.6876838769695912
1.2638955026455025,0.7421027385313101,-1.2052648409791267,-1.7052648409791267
1.2718948412698412,0.7157312925170068,-1.2228458049886621,-1.7228458049886621
1.2798941798941799,0.6893598465027035,-1.2404267689981976,-1.7404267689981976
1.2878935185185185,0.6629884004884004,-1.2580077330077333,-1.7580077330077333
1.2958928571428572,0.6366169544740969,-1.2755886970172687,-1.7755886970172687
1.3038921957671958,0.6102455084597938,-1.2931696610268042,-1.7931696610268042
1.3118915343915343,0.6178306878306862,-1.3,-1.8821693121693137
1.319890873015873,0.7044214466089465,-1.2955785533910535,-1.8
1.3278902116402116,0.713511604136604,-1.286488395863396,-1.8
1.3358895502645503,0.7226017616642616,-1.2773982383357385,-1.8
1.343888888888889,0.7316919191919192,-1.2683080808080809,-1.8
1.3518882275132276,0.7407820767195767,-1.2592179232804233,-1.8
1.359887566137566,0.7498722342472341,-1.2501277657527659,-1.8
1.3678869047619047,0.7589623917748917,-1.2410376082251082,-1.8
1.3758862433862433,0.7680525493025493,-1.2319474506974508,-1.8
1.383885582010582,0.7771427068302069,-1.2228572931697932,-1.8
1.3918849206349206,0.7862328643578644,-1.2137671356421356,-1.8
1.3998842592592593,0.7953230218855221,-1.204676978114478,-1.8
1.4078835978835977,0.7558201058201146,-1.1,-1.6558201058201145
1.4158829365079364,0.6862341269841272,-1.0862341269841274,-1.5862341269841274
1.423882275132275,0.6702354497354499,-1.07023544973545,-1.57023544973545
1.4318816137566137,0.6542367724867726,-1.0542367724867727,-1.5542367724867727
1.4398809523809524,0.6382380952380952,-1.0382380952380954,-1.5382380952380952
1.447880291005291,0.6222394179894178,-1.0222394179894179,-1.5222394179894179
1.4558796296296297,0.6062407407407405,-1.0062407407407405,-1.5062407407407405
1.4638789682539681,0.5902420634920637,-0.9902420634920637,-1.4902420634920637
1.4718783068783068,0.5742433862433863,-0.9742433862433864,-1.4742433862433864
1.4798776455026454,0.5582447089947089,-0.958244708994709,-1.458244708994709
1.487876984126984,0.5422460317460316,-0.9422460317460317,-1.4422460317460315
1.4958763227513228,0.5262473544973543,-0.9262473544973543,-1.4262473544973542
1.5038756613756614,0.510248677248677,-0.910248677248677,-1.4102486772486769
1.5118749999999999,0.5,-0.9,-1.3680555555555565
1.5198743386243385,0.3125661375661501,-0.8062830687830751,-1.206283068783075
1.5278736772486772,0.17902258125472448,-0.6860150541698162,-0.9720301083396327
1.5358730158730158,0.15045351473922927,-0.6669690098261528,-0.9339380196523057
1.5438723544973545,0.1218844482237341,-0.6479229654824894,-0.8958459309649788
1.5518716931216932,0.0933153817082389,-0.6288769211388259,-0.8577538422776518
1.5598710317460318,0.06474631519274371,-0.6098308767951625,-0.819661753590325
1.5678703703703702,0.03617724867724931,-0.5907848324514995,-0.7815696649029991
1.575869708994709,0.007608182161754129,-0.5717387881078361,-0.7434775762156722
1.5838690476190476,-0.020960884353741077,-0.5526927437641727,-0.7053854875283452
1.5918683862433862,-0.049529950869236256,-0.5336466994205091,-0.6672933988410183
1.5998677248677249,-0.07809901738473146,-0.5146006550768457,-0.6292013101536914
1.6078670634920635,-0.1933531746031723,-0.4066468253968277,-0.41329365079365543
1.615866402116402,-0.6049657164453082,0.00496571644530815,0.2198628657812326
1.6238657407407406,-0.6131283068783068,0.013128306878306774,0.2525132275132271
1.6318650793650793,-0.6212908973113054,0.021290897311305398,0.28516358924522156
1.639864417989418,-0.629453487744304,0.029453487744304025,0.3178139509772161
1.6478637566137566,-0.6376160781773026,0.03761607817730265,0.3504643127092106
1.6558630952380953,-0.6457786686103012,0.04577866861030127,0.38311467444120506
1.663862433862434,-0.6539412590432998,0.0539412590432999,0.41576503617319954
1.6718617724867724,-0.6621038494762983,0.062103849476298295,0.44841539790519314
1.679861111111111,-0.6702664399092969,0.07026643990929692,0.4810657596371876
1.6878604497354497,-0.6784290303422955,0.07842903034229555,0.5137161213691821
1.6958597883597883,-0.6865916207752941,0.08659162077529417,0.5463664831011766
1.703859126984127,-0.6947542112082927,0.09475421120829279,0.5790168448331712
1.7118584656084657,-0.4424603174602958,0.4858465608465681,0.8858465608465681
1.719857804232804,-0.18206794622610983,0.7179320537738901,1.1179320537738902
1.7278571428571428,-0.15758017492711396,0.7424198250728861,1.142419825072886
1.7358564814814814,-0.13309240362811808,0.7669075963718819,1.166907596371882
1.74385582010582,-0.1086046323291222,0.7913953676708778,1.1913953676708777
1.7518551587301587,-0.08411686103012632,0.8158831389698736,1.2158831389698737
1.7598544973544974,-0.05962908973113046,0.8403709102688695,1.2403709102688696
1.7678538359788358,-0.03514131843213525,0.8648586815678647,1.2648586815678646
1.7758531746031745,-0.010653547133139374,0.8893464528668606,1.2893464528668606
1.7838525132275131,0.013834224165856501,0.9138342241658565,1.3138342241658565
1.7918518518518518,0.038321995464852376,0.9383219954648523,1.3383219954648524
1.7998511904761905,0.06280976676384825,0.9628097667638482,1.3628097667638481
1.8078505291005291,0.08729753806284413,0.9872975380628441,1.387297538062844
1.8158498677248678,0.2,0.6150132275132275,1.4
1.8238492063492062,0.1948886519782043,0.4948886519782043,1.1846659559346129
1.8318485449735449,0.18891899628839934,0.4889189962883993,1.1667569888651979
1.8398478835978835,0.18294934059859436,0.48294934059859435,1.148848021795783
1.8478472222222222,0.1769796849087894,0.4769796849087894,1.130939054726368
1.8558465608465609,0.17101002921898442,0.47101002921898444,1.1130300876569532
1.8638458994708995,0.16504037352917947,0.4650403735291795,1.0951211205875384
1.871845238095238,0.15907071783937465,0.4590707178393747,1.077212153518124
1.8798445767195766,0.1531010621495697,0.4531010621495697,1.059303186448709
1.8878439153439153,0.14713140645976475,0.44713140645976474,1.0413942193792942
1.895843253968254,0.1411617507699598,0.4411617507699598,1.0234852523098792
1.9038425925925926,0.1351920950801548,0.43519209508015483,1.0055762852404644
1.9118419312169312,0.12922243939034983,0.4292224393903499,0.9876673181710496
1.9198412698412697,0.12325278370054504,0.4232527837005451,0.9697583511016351
1.9278406084656083,0.11728312801074009,0.4172831280107401,0.9518493840322202
1.935839947089947,0.11131347232093512,0.4113134723209351,0.9339404169628054
1.9438392857142857,0.10534381663113015,0.40534381663113017,0.9160314498933905
1.9518386243386243,0.05806878306878755,0.4,0.816137566137575
1.959837962962963,-0.42019980506822646,0.3,0.39326673164392456
1.9678373015873016,-0.4623015873015878,0.3,0.3792328042328041
1.97583664021164,-0.5044033695349481,0.3,0.365198876821684
1.9838359788359787,-0.5465051517683095,0.3,0.35116494941056353
1.9918353174603174,-0.5886069340016709,0.3,0.33713102199944306
1.999834656084656,-0.6307087162350322,0.3,0.3230970945883226
2.0078339947089945,-0.6728104984683925,0.3,0.3090631671772025
2.015833333333333,-0.9,0.3,0.34166666666665557
2.023832671957672,-0.7783975112678816,0.3072008295773728,0.4
2.0318320105820105,-0.7487703311777386,0.31707655627408715,0.4
2.039831349206349,-0.7191431510875955,0.3269522829708015,0.4
2.047830687830688,-0.6895159709974525,0.33682800966751586,0.4
2.0558300264550264,-0.6598887909073095,0.3467037363642302,0.4
2.063829365079365,-0.6302616108171664,0.35657946306094457,0.4
2.0718287037037038,-0.6006344307270234,0.3664551897576589,0.4
2.0798280423280424,-0.5710072506368804,0.3763309164543732,0.4
2.087827380952381,-0.5413800705467373,0.38620664315108755,0.4
2.0958267195767197,-0.5117528904565942,0.39608236984780193,0.4
2.103826058201058,-0.4086970899471063,0.5,0.4
2.1118253968253966,-0.3931356168198276,0.5,0.4
2.1198247354497353,-0.3861186531142674,0.5,0.4
2.127824074074074,-0.37910168940870714,0.5,0.4
2.1358234126984126,-0.37208472570314693,0.5,0.4
2.1438227513227512,-0.36506776199758667,0.5,0.4
2.15182208994709,-0.35805079829202646,0.5,0.4
2.1598214285714286,-0.3510338345864662,0.5,0.4
2.167820767195767,-0.344016870880906,0.5,0.4
2.175820105820106,-0.3369999071753457,0.5,0.4
2.1838194444444445,-0.3299829434697855,0.5,0.4
2.191818783068783,-0.32296597976422525,0.5,0.4
2.199818121693122,-0.31594901605866504,0.5,0.4
2.20781746031746,-0.30893205235310517,0.5,0.4
2.2158167989417987,-0.30191508864754496,0.5,0.4
2.2238161375661374,-0.23639770723104453,0.5,0.33639770723104456
2.231815476190476,-0.2,0.3899592731829583,0.2899592731829583
2.2398148148148147,-0.2,0.3689083820662775,0.2689083820662775
2.2478141534391534,-0.2,0.3478574909495967,0.2478574909495967
2.255813492063492,-0.2,0.32680659983291593,0.2268065998329159
2.2638128306878307,-0.2,0.30575570871623514,0.2057557087162351
2.2718121693121693,-0.2,0.28470481759955435,0.18470481759955434
2.279811507936508,-0.2,0.26365392648287356,0.16365392648287355
2.2878108465608467,-0.2,0.2426030353661928,0.1426030353661928
2.2958101851851853,-0.2,0.221552144249512,0.121552144249512
2.303809523809524,-0.2,0.2005012531328312,0.1005012531328312
2.311808862433862,-0.6,0.26029541446206883,-0.019852292768965565
2.319808201058201,-0.5848706643151096,0.23191798941799308,-0.022694003527335634
2.3278075396825395,-0.5670943562610237,0.15192460317460638,-0.04935846560846454
2.335806878306878,-0.5493180482069376,0.07193121693121968,-0.07602292768959344
2.343806216931217,-0.5315417401528517,-0.008062169312167022,-0.10268738977072235
2.3518055555555555,-0.5137654320987658,-0.08805555555555372,-0.12935185185185125
2.359804894179894,-0.4959891240446799,-0.16804894179894042,-0.15601631393298016
2.367804232804233,-0.47821281599059395,-0.24804232804232712,-0.18268077601410906
2.3758035714285715,-0.46043650793650803,-0.3280357142857138,-0.20934523809523795
2.38380291005291,-0.4426601998824221,-0.4080291005291005,-0.23600970017636685
2.3918022486772488,-0.42488389182833614,-0.4880224867724872,-0.26267416225749574
2.3998015873015874,-0.4071075837742502,-0.568015873015874,-0.2893386243386247
2.4078009259259257,-0.11194444444445634,-0.5039814814814855,-0.20398148148148545
2.4158002645502643,0.2029790048407069,-0.7089370145221207,-0.4089370145221207
2.423799603174603,0.21148893954745013,-0.7344668186423503,-0.43446681864235037
2.4317989417989416,0.21999887425419337,-0.7599966227625801,-0.4599966227625801
2.4397982804232803,0.2285088089609366,-0.7855264268828097,-0.4855264268828098
2.447797619047619,0.2370187436676798,-0.8110562310030394,-0.5110562310030394
2.4557969576719576,0.24552867837442305,-0.8365860351232691,-0.5365860351232691
2.4637962962962963,0.25403861308116626,-0.8621158392434988,-0.5621158392434987
2.471795634920635,0.2625485477879095,-0.8876456433637284,-0.5876456433637285
2.4797949735449736,0.2710584824946527,-0.9131754474839582,-0.6131754474839581
2.4877943121693122,0.2795684172013959,-0.9387052516041878,-0.6387052516041878
2.495793650793651,0.28807835190813913,-0.9642350557244175,-0.6642350557244174
2.5037929894179896,0.29658828661488235,-0.9897648598446471,-0.6897648598446471
2.5117923280423278,0.3896164021163892,-1.0792328042327783,-1.0896164021163892
2.5197916666666664,0.6,-1.1,-1.2
2.527791005291005,0.6,-1.1,-1.2
2.5357903439153437,0.6,-1.1,-1.2
2.5437896825396824,0.6,-1.1,-1.2
2.551789021164021,0.6,-1.1,-1.2
2.5597883597883597,0.6,-1.1,-1.2
2.5677876984126984,0.6,-1.1,-1.2
2.575787037037037,0.6,-1.1,-1.2
2.5837863756613757,0.6,-1.1,-1.2
2.5917857142857144,0.6,-1.1,-1.2
2.599785052910053,0.6,-1.1,-1.2
2.6077843915343917,0.6,-1.1,-1.2
2.61578373015873,0.6,-1.1,-1.2
2.6237830687830686,0.9009434563651426,-0.6,-0.8990565436348574
2.631782407407407,0.9105812137438639,-0.6,-0.8894187862561361
2.639781746031746,0.9202189711225852,-0.6,-0.8797810288774148
2.6477810846560845,0.9298567285013065,-0.6,-0.8701432714986935
2.655780423280423,0.9394944858800278,-0.6,-0.8605055141199722
2.663779761904762,0.9491322432587491,-0.6,-0.8508677567412509
2.6717791005291005,0.9587700006374704,-0.6,-0.8412299993625296
2.679778439153439,0.9684077580161917,-0.6,-0.8315922419838083
2.687777777777778,0.978045515394913,-0.6,-0.821954484605087
2.6957771164021165,0.9876832727736343,-0.6,-0.8123167272263657
2.703776455026455,0.9973210301523556,-0.6,-0.8026789698476444
2.711775793650794,0.9037367724867731,-0.6,-0.6074735449735461
2.719775132275132,0.49205235310498563,-0.5,-0.5
2.7277744708994707,0.47521164021164103,-0.5,-0.5
2.7357738095238093,0.45837092731829643,-0.5,-0.5
2.743773148148148,0.44153021442495183,-0.5,-0.5
2.7517724867724866,0.4246895015316072,-0.5,-0.5
2.7597718253968253,0.4078487886382627,-0.5,-0.5
2.767771164021164,0.3910080757449181,-0.5,-0.5
2.7757705026455026,0.3741673628515735,-0.5,-0.5
2.7837698412698413,0.35732664995822894,-0.5,-0.5
2.79176917989418,0.3404859370648843,-0.5,-0.5
2.7997685185185186,0.32364522417153974,-0.5,-0.5
2.8077678571428573,0.30680451127819514,-0.5,-0.5
2.8157671957671955,0.011640211640219403,-0.3116402116402194,-0.4
2.823766534391534,0.0,-0.19287733221943792,-0.2928773322194379
2.831765873015873,0.0,-0.18445697577276562,-0.28445697577276563
2.8397652116402115,0.0,-0.17603661932609332,-0.2760366193260933
2.84776455026455,0.0,-0.16761626287942105,-0.26761626287942103
2.8557638888888888,0.0,-0.15919590643274875,-0.2591959064327487
2.8637632275132274,0.0,-0.15077554998607645,-0.25077554998607643
2.871762566137566,0.0,-0.14235519353940415,-0.24235519353940416
2.8797619047619047,0.0,-0.13393483709273185,-0.23393483709273186
2.8877612433862434,0.0,-0.12551448064605958,-0.22551448064605956
2.895760582010582,0.0,-0.11709412419938726,-0.21709412419938728
2.9037599206349207,0.0,-0.10867376775271498,-0.20867376775271496
2.9117592592592594,0.0,-0.10025341130604268,-0.20025341130604268
2.9197585978835976,-0.10179448763632393,0.501794487636324,0.5035889752726479
2.9277579365079363,-0.10995707806932258,0.5099570780693226,0.5199141561386451
2.935757275132275,-0.11811966850232122,0.5181196685023212,0.5362393370046424
2.9437566137566136,-0.12628225893531986,0.5262822589353199,0.5525645178706396
2.9517559523809522,-0.1344448493683185,0.5344448493683185,0.568889698736637
2.959755291005291,-0.14260743980131715,0.5426074398013171,0.5852148796026343
2.9677546296296295,-0.1507700302343158,0.5507700302343158,0.6015400604686315
2.975753968253968,-0.15893262066731442,0.5589326206673144,0.6178652413346288
2.983753306878307,-0.16709521110031306,0.567095211100313,0.634190422200626
2.9917526455026455,-0.17525780153331172,0.5752578015333116,0.6505156030666234
2.999751984126984,-0.18342039196631035,0.5834203919663103,0.6668407839326207
3.007751322751323,-0.191582982399309,0.591582982399309,0.6831659647986179
3.0157506613756615,-0.19974557283230765,0.5997455728323076,0.6994911456646152
3.0237499999999997,-0.5211538461538449,0.9,1.2
3.0317493386243384,-0.5826872201872196,0.9,1.2
3.039748677248677,-0.6169078742608154,0.9422696856520384,1.225361811391223
3.0477480158730157,-0.6404353408029878,1.0010883520074696,1.2606530112044818
3.0557473544973544,-0.6639628073451603,1.059907018362901,1.2959442110177406
3.063746693121693,-0.6874902738873329,1.1187256847183322,1.3312354108309994
3.0717460317460317,-0.7110177404295054,1.1775443510737633,1.366526610644258
3.0797453703703703,-0.7345452069716779,1.2363630174291946,1.4018178104575167
3.087744708994709,-0.7580726735138504,1.295181683784626,1.4371090102707755
3.0957440476190476,-0.781600140056023,1.354000350140057,1.4724002100840343
3.1037433862433863,-0.8747165532879889,1.2505668934240222,1.5
3.111742724867725,-1.3742724867724871,0.16003086419752954,1.3171516754850086
3.1197420634920636,-1.4744797178130502,0.1,1.0744797178130503
3.127741402116402,-1.4389271017048804,0.1,1.0389271017048805
3.1357407407407405,-1.4033744855967087,0.1,1.0033744855967088
3.143740079365079,-1.367821869488537,0.1,0.967821869488537
3.151739417989418,-1.3322692533803653,0.1,0.9322692533803654
3.1597387566137565,-1.2967166372721937,0.1,0.8967166372721936
3.167738095238095,-1.261164021164022,0.1,0.8611640211640219
3.175737433862434,-1.2256114050558502,0.1,0.8256114050558502
3.1837367724867724,-1.1900587889476786,0.1,0.7900587889476784
3.191736111111111,-1.154506172839507,0.1,0.7545061728395068
3.1997354497354498,-1.1189535567313351,0.1,0.718953556731335
3.2077347883597884,0.24695767195769838,1.0632605820105754,0.5632605820105754
3.215734126984127,0.7,0.37398831327402626,0.38959532530961055
3.2237334656084657,0.7,0.3300359032501876,0.37201436130007504
3.231732804232804,0.7,0.28608349322635135,0.3544333972905406
3.2397321428571426,0.7,0.24213108320251264,0.33685243328100506
3.2477314814814813,0.7,0.19817867317867396,0.3192714692714696
3.25573082010582,0.7,0.15422626315483526,0.30169050526193414
3.2637301587301586,0.7,0.11027385313099658,0.2841095412523986
3.2717294973544973,0.7,0.06632144310715787,0.26652857724286316
3.279728835978836,0.7,0.022369033083319168,0.2489476132333277
3.2877281746031746,0.7,-0.021583376940519483,0.23136664922379221
3.2957275132275132,0.7,-0.06553578696435819,0.21378568521425675
3.303726851851852,0.12438271604940832,-0.38780864197529585,0.08487654320988167
3.3117261904761905,-0.8363095238095213,-0.8,-0.35753968253968094
3.319725529100529,-0.9130592798068525,-0.773881440386295,-0.4065296399034263
3.327724867724868,-0.9285919761647917,-0.7428160476704166,-0.41429598808239587
3.335724206349206,-0.94412467252273,-0.71175065495454,-0.422062336261365
3.3437235449735447,-0.9596573688806692,-0.6806852622386617,-0.4298286844403346
3.3517228835978834,-0.9751900652386084,-0.6496198695227833,-0.4375950326193042
3.359722222222222,-0.9907227615965476,-0.6185544768069049,-0.4453613807982738
3.3677215608465607,-1.006255457954487,-0.5874890840910265,-0.4531277289772434
3.3757208994708994,-1.021788154312426,-0.5564236913751481,-0.460894077156213
3.383720238095238,-1.037320850670365,-0.5253582986592698,-0.46866042533518254
3.3917195767195767,-1.0528535470283042,-0.4942929059433914,-0.47642677351415214
3.3997189153439153,-1.0683862433862434,-0.4632275132275131,-0.48419312169312173
3.407718253968254,-1.0839189397441826,-0.4321621205116347,-0.4919594698720913
3.4157175925925927,-1.0994516361021218,-0.4010967277957564,-0.4997258180510609
3.4237169312169313,-0.4142376142376139,-0.25711880711880697,-0.5571188071188069
3.4317162698412695,0.0028650793650779704,-0.19904497354497402,-0.499044973544974
3.439715608465608,0.03486243386243272,-0.18837918871252243,-0.48837918871252245
3.447714947089947,0.06685978835978747,-0.17771340388007084,-0.47771340388007083
3.4557142857142855,0.09885714285714221,-0.16704761904761928,-0.46704761904761927
3.463713624338624,0.13085449735449697,-0.1563818342151677,-0.4563818342151677
3.471712962962963,0.16285185185185172,-0.1457160493827161,-0.44571604938271614
3.4797123015873015,0.19484920634920647,-0.13505026455026453,-0.4350502645502645
3.48771164021164,0.2268465608465612,-0.12438447971781294,-0.42438447971781296
3.495710978835979,0.258843915343916,-0.11371869488536135,-0.4137186948853614
3.5037103174603175,0.29084126984127073,-0.10305291005290977,-0.4030529100529098
3.511709656084656,0.5854828042328064,-0.00483906525573119,-0.3048390652557312
3.519708994708995,0.4948252805395663,0.1,-0.2
3.5277083333333334,0.48603479853479853,0.1,-0.2
3.5357076719576717,0.47724431653003124,0.1,-0.2
3.5437070105820103,0.46845383452526346,0.1,-0.2
3.551706349206349,0.45966335252049567,0.1,-0.2
3.5597056878306876,0.4508728705157279,0.1,-0.2
3.5677050264550263,0.4420823885109601,0.1,-0.2
3.575704365079365,0.4332919065061923,0.1,-0.2
3.5837037037037036,0.42450142450142453,0.1,-0.2
3.5917030423280423,0.41571094249665674,0.1,-0.2
3.599702380952381,0.406920460491889,0.1,-0.2
3.6077017195767196,0.3432760141093449,0.1,-0.1432760141093449
3.6157010582010582,0.3,0.15402116402116633,-0.1
3.623700396825397,0.3,0.2,-0.1
3.6316997354497356,0.3,0.2,-0.1
3.639699074074074,0.3,0.2,-0.1
3.6476984126984124,0.3,0.2,-0.1
3.655697751322751,0.3,0.2,-0.1
3.6636970899470898,0.3,0.2,-0.1
3.6716964285714284,0.3,0.2,-0.1
3.679695767195767,0.3,0.2,-0.1
3.6876951058201057,0.3,0.2,-0.1
3.6956944444444444,0.3,0.2,-0.1
3.703693783068783,0.3,0.2846891534391547,-0.1
3.7116931216931217,0.30242623575956906,0.602426235759569,0.10242623575956905
3.7196924603174604,0.3096328471328471,0.6096328471328472,0.10963284713284714
3.727691798941799,0.3168394585061252,0.6168394585061252,0.11683945850612523
3.7356911375661377,0.3240460698794033,0.6240460698794033,0.12404606987940331
3.743690476190476,0.331252681252681,0.631252681252681,0.131252681252681
3.7516898148148146,0.3384592926259591,0.638459292625959,0.13845929262595907
3.759689153439153,0.3456659039992372,0.6456659039992372,0.14566590399923718
3.767688492063492,0.35287251537251524,0.6528725153725152,0.15287251537251526
3.7756878306878305,0.36007912674579334,0.6600791267457933,0.16007912674579333
3.783687169312169,0.36728573811907145,0.6672857381190713,0.16728573811907144
3.791686507936508,0.37449234949234955,0.6744923494923495,0.1744923494923495
3.7996858465608465,0.3816989608656276,0.6816989608656275,0.1816989608656276
3.807685185185185,0.3889055722389057,0.6889055722389057,0.1889055722389057
3.815684523809524,0.3961121836121838,0.6961121836121837,0.19611218361218377
3.8236838624338625,0.4334896584896601,0.7334896584896601,0.30046897546898027
3.831683201058201,0.4658399470899444,0.8,0.5341600529100556
3.8396825396825394,0.28761904761904994,0.8,0.7
3.847681878306878,0.2506990231990253,0.8,0.7
3.8556812169312167,0.2137789987790007,0.8,0.7
3.8636805555555553,0.1768589743589761,0.8,0.7
3.871679894179894,0.13993894993895148,0.8,0.7
3.8796792328042327,0.10301892551892688,0.8,0.7
3.8876785714285713,0.06609890109890226,0.8,0.7
3.89567791005291,0.02917887667887764,0.8,0.7
3.9036772486772486,-0.33544973544969964,0.6322751322751502,0.7
3.9116765873015873,-1.4970906659765353,-0.09127199792960608,0.3
3.919675925925926,-1.4883957326892108,-0.06518719806763235,0.3
3.9276752645502646,-1.4797007994018863,-0.03910239820565859,0.3
3.9356746031746033,-1.4710058661145615,-0.01301759834368485,0.3
3.9436739417989415,-1.4623109328272375,0.013067201518287441,0.3
3.95167328042328,-1.453615999539913,0.0391520013802612,0.3
3.959672619047619,-1.4449210662525882,0.06523680124223494,0.3
3.9676719576719575,-1.4362261329652637,0.09132160110420867,0.3
3.975671296296296,-1.4275311996779392,0.11740640096618243,0.3
3.983670634920635,-1.4188362663906147,0.14349120082815617,0.3
3.9916699735449734,-1.41014133310329,0.16957600069012993,0.3
3.999669312169312,-1.4014463998159654,0.19566080055210364,0.3
4.007668650793651,-0.5947854662698421,-0.4,-0.20173817791005264
4.015667989417989,-0.5697875330687852,-0.4,-0.21007082231040494
4.023667328042328,-0.5447895998677255,-0.4,-0.21840346671075817
4.031666666666666,-0.5197916666666687,-0.4,-0.22673611111111047
4.039666005291005,-0.49479373346560895,-0.4,-0.23506875551146367
4.047665343915344,-0.46979580026455203,-0.4,-0.24340139991181597
4.055664682539683,-0.4447978670634924,-0.4,-0.25173404431216917
4.063664021164021,-0.41979993386243547,-0.4,-0.2600666887125215
4.07166335978836,-0.39480200066137583,-0.4,-0.2683993331128747
4.079662698412698,-0.3698040674603189,-0.4,-0.27673197751322703
4.087662037037037,-0.34480613425925927,-0.4,-0.28506462191358023
4.095661375661376,-0.31980820105820235,-0.4,-0.29339726631393254
4.103660714285714,0.0462499999999779,-0.2,-0.4066071428571397
4.111660052910053,0.6062037037036773,-0.2,-0.4866005291005253
4.119659391534391,0.9058242394179886,-0.3,-0.5
4.12765873015873,0.9158234126984125,-0.3,-0.5
4.135658068783068,0.9258225859788353,-0.3,-0.5
4.1436574074074075,0.9358217592592591,-0.3,-0.5
4.151656746031746,0.9458209325396819,-0.3,-0.5
4.159656084656085,0.9558201058201057,-0.3,-0.5
4.167655423280423,0.9658192791005284,-0.3,-0.5
4.175654761904762,0.9758184523809523,-0.3,-0.5
4.1836541005291,0.9858176256613751,-0.3,-0.5
4.1916534391534395,0.995816798941799,-0.3,-0.5
4.199652777777778,0.9771701388888878,-0.4141493055555608,-0.5913194444444486
4.207652116402116,0.9271742724867741,-0.6641286375661297,-0.7913029100529039
4.215651455026455,0.7963300999412121,-1.101834950029394,-1.103669900058788
4.223650793650793,0.7785537918871271,-1.1107231040564365,-1.121446208112873
4.231650132275132,0.7607774838330402,-1.11961125808348,-1.13922251616696
4.2396494708994705,0.7430011757789552,-1.1284994121105225,-1.156998824221045
4.24764880952381,0.7252248677248683,-1.1373875661375659,-1.1747751322751319
4.255648148148148,0.7074485596707834,-1.1462757201646083,-1.1925514403292168
4.263647486772487,0.6896722516166964,-1.155163874191652,-1.2103277483833037
4.271646825396825,0.6718959435626115,-1.1640520282186944,-1.2281040564373886
4.279646164021164,0.6541196355085246,-1.1729401822457377,-1.2458803644914755
4.2876455026455025,0.6363433274544396,-1.1818283362727802,-1.2636566725455605
4.295644841269842,0.6185670194003526,-1.1907164902998237,-1.2814329805996474
4.30364417989418,0.6007907113462677,-1.1996046443268662,-1.2992092886537323
4.311643518518518,0.3,-1.3,-1.703776455026454
4.319642857142857,0.3,-1.3,-1.7152040816326528
4.327642195767195,0.3,-1.3,-1.7266317082388505
4.335641534391534,0.3,-1.3,-1.7380593348450493
4.343640873015873,0.3,-1.3,-1.749486961451247
4.351640211640212,0.3,-1.3,-1.7609145880574457
4.35963955026455,0.3,-1.3,-1.7723422146636432
4.367638888888889,0.3,-1.3,-1.783769841269842
4.375638227513227,0.3,-1.3,-1.7951974678760396
4.383637566137566,0.3,-1.3,-1.8
4.391636904761905,0.35456349206349536,-0.936309523809514,-1.5908730158730093
4.399636243386244,0.4,-0.6893655785165215,-1.3893655785165215
4.407635582010582,0.4,-0.6742724867724871,-1.3742724867724871
4.41563492063492,0.4,-0.6591793950284527,-1.3591793950284528
4.423634259259259,0.4,-0.6440863032844166,-1.3440863032844166
4.4316335978835975,0.4,-0.6289932115403822,-1.3289932115403822
4.4396329365079366,0.4,-0.6139001197963463,-1.3139001197963462
4.447632275132275,0.4,-0.5988070280523119,-1.2988070280523119
4.455631613756614,0.4,-0.5837139363082758,-1.2837139363082757
4.463630952380952,0.4,-0.5686208445642414,-1.2686208445642413
4.471630291005291,0.4,-0.5535277528202054,-1.2535277528202053
4.479629629629629,0.4,-0.538434661076171,-1.238434661076171
4.4876289682539685,0.4,-0.5233415693321349,-1.2233415693321348
4.495628306878307,0.4,-0.5082484775881005,-1.2082484775881004
4.503627645502646,0.3395392416225719,-0.43953924162257185,-1.0186177248677155
4.511626984126984,0.2,-0.19712038207613408,-0.3971203820761341
4.519626322751322,0.2,-0.18296226061712845,-0.38296226061712846
4.527625661375661,0.2,-0.16880413915812123,-0.36880413915812127
4.535625,0.2,-0.15464601769911562,-0.35464601769911563
4.543624338624339,0.2,-0.1404878962401084,-0.3404878962401084
4.551623677248677,0.2,-0.12632977478110274,-0.32632977478110275
4.559623015873016,0.2,-0.11217165332209555,-0.31217165332209557
4.567622354497354,0.2,-0.09801353186308992,-0.29801353186308993
4.575621693121693,0.2,-0.08385541040408272,-0.28385541040408274
4.5836210317460315,0.2,-0.06969728894507707,-0.26969728894507705
4.591620370370371,0.2,-0.05553916748606988,-0.25553916748606986
4.599619708994709,0.2,-0.041381046027064244,-0.24138104602706426
4.607619047619048,0.2,-0.027222924568057028,-0.22722292456805704
4.615618386243386,0.2,-0.013064803109051393,-0.2130648031090514
4.623617724867724,0.23088624338621122,0.030886243386211223,-0.10734126984136633
4.6316170634920635,0.3,0.23234126984127243,0.29851190476190864
4.639616402116402,0.1589065255732376,0.7410934744267624,0.9410934744267625
4.647615740740741,-0.008774594907406945,0.9263237847222209,1.126323784722221
4.655615079365079,-0.021273561507935395,0.9638206845238062,1.1638206845238062
4.663614417989418,-0.03377252810846523,1.0013175843253956,1.2013175843253958
4.671613756613756,-0.04627149470899368,1.038814484126981,1.238814484126981
4.679613095238095,-0.05877046130952352,1.0763113839285705,1.2763113839285705
4.687612433862434,-0.07126942791005197,1.113808283730156,1.313808283730156
4.695611772486773,-0.08376839451058181,1.1513051835317454,1.3513051835317453
4.703611111111111,-0.09626736111111026,1.1888020833333308,1.3888020833333306
4.711610449735449,-0.2,1.7152612433862238,2.015261243386224
4.719609788359788,-0.20529860731010166,1.8052986073101016,2.1
4.7276091269841265,-0.21449324940704217,1.8144932494070423,2.1
4.735608465608466,-0.2236878915039837,1.8236878915039838,2.1
4.743607804232804,-0.2328825336009242,1.8328825336009242,2.1
4.751607142857143,-0.24207717569786572,1.8420771756978658,2.1
4.759606481481481,-0.25127181779480623,1.8512718177948062,2.1
4.76760582010582,-0.2604664598917477,1.8604664598917477,2.1
4.7756051587301585,-0.2696611019886882,1.8696611019886882,2.1
4.7836044973544976,-0.27885574408562974,1.8788557440856297,2.1
4.791603835978836,-0.2880503861825703,1.8880503861825702,2.1
4.799603174603175,-0.29724502827951177,1.8972450282795117,2.1
4.807602513227513,-0.610846560846549,1.7168650793650881,2.0445767195767255
4.815601851851851,-0.8569800569800345,1.532264957264974,1.9215099715099826
4.82360119047619,-1.104743495336279,1.395256504663721,1.7905130093274424
4.831600529100529,-1.1129902361861121,1.3870097638138879,1.7740195276277761
4.839599867724868,-1.121236977035946,1.378763022964054,1.757526045928108
4.847599206349206,-1.1294837178857793,1.3705162821142207,1.7410325642284417
4.855598544973545,-1.1377304587356134,1.3622695412643866,1.7245390825287734
4.863597883597883,-1.1459771995854466,1.3540228004145534,1.7080456008291072
4.871597222222222,-1.1542239404352805,1.3457760595647195,1.691552119129439
4.879596560846561,-1.1624706812851138,1.3375293187148862,1.6750586374297725
4.8875958994709,-1.170717422134948,1.329282577865052,1.6585651557301044
4.895595238095238,-1.178964162984781,1.321035837015219,1.642071674030438
4.903594576719577,-1.187210903834615,1.312789096165385,1.62557819233077
4.911593915343915,-1.1954576446844483,1.3045423553155517,1.6090847106311035
4.919593253968253,-1.070337301587334,0.8055059523810013,1.0758432539683356
4.9275925925925925,-0.7934969853574503,0.5804909560723507,0.6804909560723507
4.935591931216931,-0.7841954288175221,0.5525862864525664,0.6525862864525663
4.94359126984127,-0.774893872277593,0.5246816168327788,0.6246816168327789
4.951590608465608,-0.7655923157376648,0.4967769472129945,0.5967769472129945
4.959589947089947,-0.7562907591977357,0.46887227759320704,0.568872277593207
4.967589285714285,-0.7469892026578075,0.4409676079734226,0.5409676079734227
4.9755886243386245,-0.7376876461178784,0.41306293835363517,0.5130629383536351
4.983587962962963,-0.7283860895779503,0.38515826873385084,0.4851582687338508
4.991587301587302,-0.7190845330380211,0.35725359911406335,0.4572535991140634
4.99958664021164,-0.709782976498093,0.32934892949427896,0.429348929494279
5.007585978835979,-0.7004814199581638,0.30144425987449147,0.4014442598744915
5.015585317460317,-0.39827682884748145,-0.5017231711525186,-0.3051695134575557
5.0235846560846555,-0.38958189556015727,-0.5104181044398428,-0.33125431331952826
5.031583994708995,-0.3808869622728321,-0.5191130377271679,-0.35733911318150374
5.039583333333333,-0.3721920289855079,-0.5278079710144921,-0.3834239130434763
5.047582671957672,-0.3634970956981828,-0.5365029043018172,-0.4095087129054517
5.05558201058201,-0.3548021624108586,-0.5451978375891414,-0.43559351276742425
5.063581349206349,-0.3461072291235334,-0.5538927708764666,-0.4616783126293997
5.0715806878306875,-0.33741229583620924,-0.5625877041637908,-0.4877631124913722
5.079580026455027,-0.3287173625488841,-0.5712826374511158,-0.5138479123533477
5.087579365079365,-0.32002242926155994,-0.57997757073844,-0.5399327122153201
5.095578703703704,-0.31132749597423476,-0.5886725040257652,-0.5660175120772957
5.103578042328042,-0.3026325626869106,-0.5973674373130894,-0.5921023119392681
5.111577380952381,0.3,-0.815476190476255,-1.0577380952381275
5.1195767195767194,0.3,-0.916837154614932,-1.108418577307466
5.127576058201058,0.3,-0.9346134626690169,-1.1173067313345084
5.135575396825397,0.3,-0.9523897707231038,-1.126194885361552
5.143574735449735,0.3,-0.9701660787771887,-1.1350830393885945
5.151574074074074,0.3,-0.9879423868312757,-1.1439711934156378
5.159573412698412,0.3,-1.0057186948853607,-1.1528593474426803
5.167572751322751,0.3,-1.0234950029394476,-1.1617475014697238
5.17557208994709,0.3,-1.0412713109935325,-1.1706356554967663
5.183571428571429,0.3,-1.0590476190476195,-1.1795238095238096
5.191570767195767,0.3,-1.0768239271017044,-1.188411963550852
5.199570105820106,0.3,-1.0946002351557913,-1.1973001175778957
5.207569444444444,-0.8708333333332057,-1.7,-1.578472222222201
5.215568783068783,-1.0555507014222618,-1.6861123246444345,-1.6208315130333482
5.223568121693122,-1.1142614436192395,-1.6714346390951902,-1.6428480413572148
5.23156746031746,-1.1729721858162172,-1.6567569535459457,-1.6648645696810815
5.239566798941799,-1.2316829280132016,-1.6420792679966996,-1.6868810980049507
5.247566137566137,-1.2903936702101793,-1.6274015824474553,-1.7088976263288171
5.255565476190476,-1.3491044124071636,-1.6127238968982092,-1.7309141546526863
5.263564814814814,-1.4078151546041413,-1.5980462113489646,-1.752930682976553
5.2715641534391535,-1.4665258968011254,-1.5833685257997185,-1.774947211300422
5.279563492063492,-1.5252366389981034,-1.5686908402504742,-1.7969637396242886
5.287562830687831,-1.5839473811950875,-1.5540131547012281,-1.8189802679481577
5.295562169312169,-1.6426581233920652,-1.5393354691519836,-1.8409967962720244
5.303561507936508,-1.7013688655890493,-1.5246577836027377,-1.8630133245958935
5.311560846560846,-1.7600796077860272,-1.5099800980534932,-1.88502985291976
5.3195601851851855,-2.106635802469083,-1.2253086419752663,-1.8813271604938164
5.327559523809524,-1.5610119047619064,-0.8166071428571439,-1.7166071428571439
5.335558862433862,-1.3610284391534466,-0.6966170634920681,-1.596617063492068
5.343558201058201,-1.179894179894176,-0.589947089947088,-1.494973544973544
5.351557539682539,-1.0766769073220703,-0.5383384536610352,-1.4691692268305176
5.359556878306878,-0.9734596347499535,-0.4867298173749767,-1.4433649086874885
5.3675562169312165,-0.8702423621778479,-0.43512118108892395,-1.417560590544462
5.375555555555556,-0.7670250896057309,-0.38351254480286545,-1.3917562724014327
5.383554894179894,-0.6638078170336253,-0.3319039085168127,-1.3659519542584064
5.391554232804233,-0.5605905444615085,-0.28029527223075423,-1.3401476361153772
5.399553571428571,-0.4573732718894029,-0.22868663594470146,-1.3143433179723507
5.40755291005291,1.3360670194003088,0.525485008818322,-0.574514991181678
5.4155522486772485,1.7056655598747432,0.6056655598747432,-0.28866888025051357
5.423551587301588,1.7138281503077424,0.6138281503077423,-0.27234369938451536
5.431550925925926,1.7219907407407404,0.6219907407407405,-0.256018518518519
5.439550264550264,1.7301533311737387,0.6301533311737386,-0.2396933376525226
5.447549603174603,1.7383159216067379,0.6383159216067378,-0.22336815678652439
5.455548941798941,1.746478512039736,0.6464785120397359,-0.20704297592052803
5.4635482804232804,1.754641102472735,0.654641102472735,-0.19071779505452985
5.471547619047619,1.7628036929057334,0.6628036929057333,-0.17439261418853347
5.479546957671958,1.7709662833387323,0.6709662833387323,-0.15806743332253526
5.487546296296296,1.7791288737717306,0.6791288737717305,-0.1417422524565389
5.495545634920635,1.7872914642047297,0.6872914642047296,-0.1254170715905407
5.503544973544973,1.7954540546377278,0.6954540546377278,-0.10909189072454431
5.511544312169312,1.4940917107583263,0.8514770723104185,0.10295414462083688
5.519543650793651,0.9836951447245577,0.9918475723622788,0.3163048552754424
5.52754298941799,0.9601676781823837,0.9800838390911918,0.33983232181761636
5.535542328042328,0.9366402116402123,0.9683201058201062,0.36335978835978766
5.543541666666666,0.913112745098041,0.9565563725490205,0.3868872549019591
5.551541005291005,0.889585278555867,0.9447926392779336,0.410414721444133
5.5595403439153435,0.8660578120136957,0.9330289060068478,0.43394218798630435
5.567539682539683,0.8425303454715217,0.9212651727357608,0.4574696545284783
5.575539021164021,0.8190028789293504,0.9095014394646752,0.4809971210706497
5.58353835978836,0.7230820105819898,0.9,0.5769179894180101
5.591537698412698,-1.4086758920092228,0.6978310269976943,0.8
5.599537037037037,-1.4360240582462795,0.69099398543843,0.8
5.607536375661375,-1.4633722244833334,0.6841569438791666,0.8
5.6155357142857145,-1.49072039072039,0.6773199023199025,0.8
5.623535052910053,-1.5180685569574437,0.670482860760639,0.8
5.631534391534391,-1.5454167231944975,0.6636458192013756,0.8
5.63953373015873,-1.5727648894315542,0.6568087776421114,0.8
5.647533068783068,-1.600113055668608,0.649971736082848,0.8
5.655532407407407,-1.6274612219056648,0.6431346945235837,0.8
5.663531746031746,-1.6548093881427186,0.6362976529643203,0.8
5.671531084656085,-1.6821575543797753,0.6294606114050562,0.8
5.679530423280423,-1.709505720616829,0.6226235698457927,0.8
5.687529761904762,-1.7368538868538859,0.6157865282865285,0.8
5.6955291005291,-1.7642020530909395,0.6089494867272651,0.8
5.703528439153439,-1.7915502193279962,0.6021124451680009,0.8
5.7115277777777775,-1.796703011422638,0.5,0.906593977154724
5.719527116402117,-1.7892269940167136,0.5,0.9215460119665728
5.727526455026455,-1.7817509766107902,0.5,0.9364980467784199
5.735525793650793,-1.7742749592048666,0.5,0.951450081590267
5.743525132275132,-1.766798941798942,0.5,0.9664021164021158
5.75152447089947,-1.7593229243930186,0.5,0.9813541512139629
5.7595238095238095,-1.751846906987094,0.5,0.9963061860258117
5.767523148148148,-1.7443708895811707,0.5,1.0112582208376588
5.775522486772487,-1.7368948721752462,0.5,1.0262102556495076
5.783521825396825,-1.7294188547693228,0.5,1.0411622904613547
5.791521164021164,-1.7219428373633983,0.5,1.0561143252732035
5.799520502645502,-1.7144668199574749,0.5,1.0710663600850505
5.807519841269841,-1.7069908025515503,0.5,1.0860183948968993
5.81551917989418,-1.6792328042328288,0.48961640211641444,1.1
5.823518518518519,-0.6037037037037281,0.07777777777778341,0.9703703703703779
5.831517857142857,0.6080952380952368,-0.2,0.5959523809523816
5.839517195767195,0.6507583774250405,-0.2,0.5746208112874798
5.847516534391534,0.693421516754849,-0.2,0.5532892416225755
5.8555158730158725,0.7360846560846527,-0.2,0.5319576719576736
5.863515211640212,0.778747795414461,-0.2,0.5106261022927694
5.87151455026455,0.8214109347442649,-0.2,0.4892945326278676
5.879513888888889,0.8640740740740733,-0.2,0.46796296296296336
5.887513227513227,0.9067372134038769,-0.2,0.4466313932980615
5.895512566137566,0.9494003527336854,-0.2,0.4252998236331573
5.9035119047619045,0.9920634920634891,-0.2,0.4039682539682554
5.911511243386244,1.6755621693121794,0.5,0.1
5.919510582010582,1.7936659976889862,0.49366599768898617,0.10633400231101384
5.927509920634921,1.7844713555920448,0.48447135559204474,0.11552864440795527
5.935509259259259,1.7752767134951044,0.4752767134951043,0.12472328650489568
5.943508597883597,1.766082071398164,0.46608207139816393,0.1339179286018361
5.951507936507936,1.7568874293012224,0.4568874293012225,0.14311257069877753
5.959507275132275,1.747692787204282,0.44769278720428207,0.15230721279571793
5.967506613756614,1.7384981451073407,0.43849814510734064,0.16150185489265936
5.975505952380952,1.7293035030104003,0.4293035030104002,0.17069649698959977
5.983505291005291,1.7201088609134587,0.4201088609134588,0.1798911390865412
5.991504629629629,1.7109142188165183,0.4109142188165184,0.18908578118348163
5.999503968253968,1.701719576719577,0.401719576719577,0.19828042328042306
6.007503306878307,0.3635770975056847,-0.4430461073318174,0.4
6.015502645502646,-0.6178706403196229,-0.6964258719360754,0.3964258719360754
6.023501984126984,-0.6586835924846135,-0.6882632815030773,0.3882632815030773
6.031501322751323,-0.6994965446496086,-0.6801006910700782,0.38010069107007827
6.039500661375661,-0.7403094968145991,-0.6719381006370801,0.37193810063708016
6.047499999999999,-0.7811224489795898,-0.663775510204082,0.36377551020408205
6.0554993386243385,-0.8219354011445849,-0.6556129197710829,0.35561291977108306
6.063498677248677,-0.8627483533095754,-0.6474503293380849,0.3474503293380849
6.071498015873016,-0.9035613054745706,-0.6392877389050858,0.3392877389050859
6.079497354497354,-0.9443742576395612,-0.6311251484720878,0.3311251484720878
6.087496693121693,-0.9851872098045562,-0.6229625580390887,0.32296255803908874
6.095496031746031,-1.026000161969547,-0.6147999676060906,0.31479996760609064
6.1034953703703705,-1.066813114134542,-0.6066373771730916,0.3066373771730916
6.111494708994709,-1.3,-0.6247354497354386,0.05052910052912286
6.119494047619048,-1.16328320802005,-0.7,-0.2708959899749377
6.127493386243386,-0.9948760790866071,-0.7,-0.4814049011417413
6.135492724867725,-0.8825363756613728,-0.6956340939153431,-0.6087318121693136
6.143492063492063,-0.8425396825396817,-0.6856349206349204,-0.6287301587301591
6.1514914021164016,-0.8025429894179907,-0.6756357473544976,-0.6487285052910047
6.159490740740741,-0.7625462962962952,-0.6656365740740737,-0.6687268518518524
6.167490079365079,-0.7225496031746041,-0.655637400793651,-0.688725198412698
6.175489417989418,-0.6825529100529087,-0.6456382275132271,-0.7087235449735456
6.183488756613756,-0.6425562169312177,-0.6356390542328044,-0.7287218915343912
6.191488095238095,-0.6025595238095223,-0.6256398809523805,-0.7487202380952389
6.1994874338624335,-0.5625628306878312,-0.6156407076719578,-0.7687185846560844
6.207486772486773,-0.5225661375661357,-0.6056415343915339,-0.7887169312169322
6.215486111111111,0.24861111111110185,-0.5378472222222246,-1.0621527777777755
6.22348544973545,0.8,-0.4,-1.2
6.231484788359788,0.8,-0.4,-1.2
6.239484126984127,0.8,-0.4,-1.2
6.2474834656084655,0.8,-0.4,-1.2
6.255482804232804,0.8,-0.4,-1.2
6.263482142857143,0.8,-0.4,-1.2
6.271481481481481,0.8,-0.4,-1.2
6.27948082010582,0.8,-0.4,-1.2
6.287480158730158,0.8,-0.4,-1.2
6.295479497354497,0.8,-0.4,-1.2
6.303478835978836,0.552116402116447,-0.5,-1.0260582010582235
6.311478174603175,-0.007463624338623958,-0.5,-0.692536375661376
6.319477513227513,-0.020795855379187735,-0.5,-0.6792041446208122
6.327476851851852,-0.034128086419753,-0.5,-0.665871913580247
6.33547619047619,-0.04746031746031677,-0.5,-0.6525396825396832
6.343475529100529,-0.06079254850088203,-0.5,-0.639207451499118
6.351474867724868,-0.0741247795414458,-0.5,-0.6258752204585541
6.359474206349206,-0.0874570105820096,-0.5,-0.6125429894179903
6.367473544973545,-0.10078924162257485,-0.5,-0.5992107583774251
6.375472883597883,-0.11412147266313863,-0.5,-0.5858785273368614
6.383472222222222,-0.1274537037037039,-0.5,-0.5725462962962962
6.39147156084656,-0.14078593474426768,-0.5,-0.5592140652557324
6.3994708994708995,-0.15411816578483292,-0.5,-0.545881834215167
6.407470238095238,-0.1674503968253967,-0.5,-0.5325496031746033
6.415469576719577,-0.18078262786596197,-0.5,-0.5192173721340381
6.423468915343915,-0.19411485890652574,-0.5,-0.5058851410934743
6.431468253968254,-0.6133786848072611,-0.37993197278910834,-0.17993197278910833
6.439467592592592,-0.8,-0.09818815729309549,0.10181184270690452
6.4474669312169315,-0.8,-0.08831243059638061,0.1116875694036194
6.45546626984127,-0.8,-0.07843670389966681,0.1215632961003332
6.463465608465608,-0.8,-0.06856097720295301,0.131439022797047
6.471464947089947,-0.8,-0.058685250506238115,0.14131474949376188
6.479464285714285,-0.8,-0.04880952380952432,0.15119047619047568
6.487463624338624,-0.8,-0.03893379711280943,0.1610662028871906
6.4954629629629625,-0.8,-0.029058070416095635,0.17094192958390436
6.503462301587302,-0.8,-0.01918234371938074,0.18081765628061927
6.51146164021164,-0.8,-0.009306617022666941,0.19069338297733307
6.519460978835979,-0.8460978835979098,0.0460978835979098,0.29219576719581963
6.527460317460317,-0.9,0.02539682539682893,0.4
6.535459656084656,-0.6518338143338192,0.19853294853294473,0.49926647426647236
6.5434589947089945,-0.29478930461073327,0.2973946523053666,0.5
6.551458333333334,-0.2662202380952365,0.28311011904761824,0.5
6.559457671957672,-0.2376511715797429,0.2688255857898714,0.5
6.56745701058201,-0.2090821050642493,0.25454105253212467,0.5
6.575456349206349,-0.1805130385487525,0.24025651927437625,0.5
6.583455687830687,-0.15194397203325893,0.22597198601662946,0.5
6.5914550264550265,-0.12337490551776215,0.21168745275888107,0.5
6.599454365079365,0.07452380952378038,0.31634920634918695,0.5290873015872968
6.607453703703704,1.7009452160493823,0.2990547839506176,0.6985821759259263
6.615453042328042,1.717610504850087,0.28238949514991296,0.6735842427248694
6.623452380952381,1.7342757936507933,0.2657242063492065,0.6485863095238098
6.631451719576719,1.750941082451498,0.2490589175485019,0.6235883763227529
6.639451058201058,1.7676063712522045,0.23239362874779546,0.5985904431216932
6.647450396825397,1.7842716600529092,0.21572833994709087,0.5735925099206363
6.655449735449736,1.8009369488536155,0.19906305114638442,0.5485945767195766
6.663449074074074,1.8176022376543202,0.18239776234567984,0.5235966435185198
6.671448412698412,1.8342675264550248,0.16573247354497522,0.49859871031746283
6.679447751322751,1.8509328152557312,0.14906718474426878,0.47360077711640314
6.6874470899470895,1.8675981040564358,0.1324018959435642,0.44860284391534627
6.695446428571429,1.8842633928571422,0.11573660714285774,0.42360491071428663
6.703445767195767,1.9668650793649822,0.1445767195766549,0.35542328042334514
6.711445105820106,2.4070150767966307,0.2028060307186523,-0.5929849232033693
6.719444444444444,2.4458468176914763,0.21833872707659063,-0.5541531823085234
6.727443783068783,2.4846785585863267,0.23387142343453066,-0.5153214414136733
6.735443121693121,2.5235102994811722,0.249404119792469,-0.47648970051882755
6.7434424603174605,2.5623420403760226,0.26493681615040904,-0.43765795962397747
6.751441798941799,2.601173781270868,0.28046951250834734,-0.39882621872913165
6.759441137566137,2.640005522165714,0.2960022088662857,-0.35999447783428584
6.767440476190476,2.678837263060564,0.3115349052242257,-0.32116273693943576
6.775439814814814,2.71766900395541,0.327067601582164,-0.28233099604458994
6.783439153439153,2.75650074485026,0.34260029794010405,-0.24349925514973986
6.791438492063492,2.7953324857451056,0.3581329942980424,-0.20466751425489405
6.799437830687831,2.834164226639956,0.37366569065598243,-0.16583577336004396
6.807437169312169,2.8729959675348016,0.38919838701392073,-0.12700403246519815
6.815436507936508,2.116269841270013,0.1,0.5309523809523017
6.823435846560846,-0.7247947689957955,-0.39291578028691554,1.2
6.831435185185185,-0.7825219549446347,-0.37642229858724724,1.2
6.8394345238095235,-0.8402491408934675,-0.3599288168875807,1.2
6.847433862433863,-0.8979763268423067,-0.3434353351879124,1.2
6.855433201058201,-0.9557035127911394,-0.3269418534882459,1.2
6.863432539682539,-1.0134306987399722,-0.3104483717885794,1.2
6.871431878306878,-1.0711578846888115,-0.29395489008891107,1.2
6.879431216931216,-1.128885070637644,-0.27746140838924455,1.2
6.8874305555555555,-1.1866122565864832,-0.26096792668957625,1.2
6.895429894179894,-1.244339442535316,-0.24447444498990972,1.2
6.903429232804233,-1.302066628484155,-0.2279809632902414,1.2
6.911428571428571,-1.359793814432988,-0.21148748159057487,1.2
6.91942791005291,-1.472837301587311,-0.07860449735448141,1.1757208994708963
6.927427248677248,-1.550462962962988,0.3854497354497211,1.0786375661375698
6.9354265873015875,0.4459821428571684,0.9142195767195805,0.9464451058201049
6.943425925925926,1.7323456790123442,1.087870370370371,0.891913580246914
6.951425264550265,1.8390035273368646,1.0478736772486759,0.8652491181657839
6.959424603174603,1.9456613756613732,1.007876984126985,0.8385846560846567
6.967423941798941,2.052319223985882,0.9678802910052944,0.8119201940035295
6.97542328042328,2.1589770723104023,0.9278835978835992,0.7852557319223994
6.9834226190476185,2.265634920634911,0.8878869047619085,0.7585912698412722
6.991421957671958,2.3722927689594315,0.8478902116402132,0.7319268077601421
6.999421296296296,2.47895061728394,0.8078935185185225,0.7052623456790149
7.007420634920635,5.187981859410422,-2.440775834143214,-0.2124473598963496
7.015419973544973,4.959429327286474,-3.216221925278035,-0.44916248245329493
7.023419312169312,4.7308767951625015,-3.9916680164129423,-0.6858776050102666
7.0314186507936505,4.502324263038554,-4.767114107547764,-0.9225927275672119
7.03941798941799,4.273771730914581,-5.54256019868267,-1.1593078501241836
7.047417328042328,4.045219198790634,-6.318006289817491,-1.3960229726811288
7.055416666666667,3.8166666666666615,-7.093452380952398,-1.6327380952381005
7.063416005291005,3.5881141345427143,-7.868898472087219,-1.8694532177950458
7.071415343915343,3.3595616024187667,-8.64434456322204,-2.1061683403519913
7.079414682539682,3.131009070294794,-9.419790654356948,-2.342883462908963
7.087414021164021,2.902456538170847,-10.19523674549177,-2.5795985854659085
7.09541335978836,2.6739040060468744,-10.970682836626676,-2.81631370802288
7.103412698412698,2.445351473922927,-11.746128927761497,-3.0530288305798257
7.111412037037037,-7.8741898148147875,-13.365509259259227,-8.141666666666644
7.119411375661375,-9.437247697432875,-14.832366990005895,-9.248036694101506
7.127410714285714,-9.585383597883599,-14.543501984126982,-9.299884259259258
7.135410052910053,-9.733519498334308,-14.2546369782481,-9.351731824417007
7.143409391534392,-9.881655398785032,-13.965771972369188,-9.40357938957476
7.15140873015873,-10.02979129923574,-13.676906966490307,-9.45542695473251
7.159408068783069,-10.177927199686465,-13.388041960611394,-9.507274519890263
7.167407407407407,-10.326063100137173,-13.099176954732513,-9.55912208504801
7.175406746031745,-10.47419900058788,-12.810311948853633,-9.610969650205758
7.1834060846560845,-10.622334901038606,-12.52144694297472,-9.662817215363512
7.191405423280423,-10.770470801489314,-12.232581937095839,-9.71466478052126
7.199404761904762,-10.918606701940039,-11.943716931216926,-9.766512345679013
7.2074041005291,-11.066742602390747,-11.654851925338045,-9.818359910836762
7.215403439153439,-11.214878502841472,-11.365986919459132,-9.870207475994516
7.223402777777777,-13.14212962963006,-1.0337962962956209,-1.0416666666665089
7.2314021164021165,-8.655104056437386,-6.475520282186926,-2.261467372134032
7.239401455026455,-8.292467372134054,-4.662336860670267,-1.7601754850088387
7.247400793650794,-7.929830687830682,-2.849153439153409,-1.2588835978835895
7.255400132275132,-7.567194003527351,-1.0359700176367515,-0.7575917107583958
7.263399470899471,-7.204557319223978,0.7772134038801068,-0.2562998236331464
7.271398809523809,-6.841920634920648,2.5903968253967653,0.24499206349204705
7.279398148148148,-6.479283950617315,4.403580246913422,0.746283950617241
7.287397486772487,-6.116647266313944,6.216763668430281,1.24757583774249
7.295396825396825,-5.754010582010612,8.02994708994694,1.7488677248676834
7.303396164021164,-0.8325264550264145,7.503835978835944,-3.525687830687816
7.311395502645502,7.165490887712803,1.3908877131101156,-3.4995737801290963
7.319394841269841,11.378228715728717,-1.1517068001442972,-6.8
7.3273941798941795,11.305507455507462,-1.3244197931697812,-6.8
7.335393518518519,11.232786195286197,-1.4971327861952843,-6.8
7.343392857142857,11.16006493506494,-1.6698457792207684,-6.8
7.351392195767196,11.087343674843675,-1.8425587722462717,-6.8
7.359391534391534,11.01462241462242,-2.0152717652717556,-6.8
7.367390873015873,10.941901154401155,-2.187984758297259,-6.8
7.3753902116402115,10.869179894179897,-2.3606977513227427,-6.8
7.38338955026455,10.796458633958641,-2.533410744348227,-6.8
7.391388888888889,10.723737373737377,-2.70612373737373,-6.8
7.399388227513227,10.65101611351612,-2.878836730399214,-6.8
7.407387566137566,10.238756613756594,-2.6593253968255404,-5.914351851851919
7.415386904761904,10.053769841269869,-2.279429083461333,-5.525256016385068
7.423386243386243,9.787125220458565,-2.365443477271431,-5.336024350002853
7.431385582010582,9.520480599647291,-2.4514578710815194,-5.146792683620658
7.439384920634921,9.253835978835987,-2.5374722648916173,-4.957561017238443
7.447384259259259,8.987191358024713,-2.6234866587017054,-4.7683293508562485
7.455383597883598,8.720546737213411,-2.7095010525118033,-4.579097684474033
7.463382936507936,8.453902116402137,-2.795515446321892,-4.389866018091839
7.471382275132275,8.187257495590833,-2.8815298401319898,-4.200634351709623
7.479381613756614,7.920612874779559,-2.9675442339420783,-4.011402685327429
7.487380952380952,7.6539682539682845,-3.0535586277521665,-3.8221710189452343
7.495380291005291,7.387323633156981,-3.1395730215622644,-3.6329393525630187
7.503379629629629,2.3513888888890313,-4.46203703703705,-3.3310185185185253
7.511378968253968,0.9916426166426155,-3.690249719416385,-3.0930355138688466
7.519378306878306,0.9431617764951113,-3.6336887392442967,-3.052634813745926
7.5273776455026455,0.8946809363476017,-3.577127759072202,-3.0122341136230015
7.535376984126984,0.8462000962000975,-3.520566778900114,-2.9718334135000815
7.543376322751323,0.7977192560525879,-3.464005798728019,-2.9314327133771565
7.551375661375661,0.7492384159050836,-3.407444818555931,-2.8910320132542364
7.559375,0.700757575757574,-3.3508838383838366,-2.850631313131312
7.567374338624338,0.6522767356100698,-3.294322858211748,-2.8102306130083914
7.5753736772486775,0.6037958954625602,-3.2377618780396533,-2.769829912885467
7.583373015873016,0.5553150553150559,-3.181200897867565,-2.729429212762547
7.591372354497354,0.5068342151675517,-3.124639917695477,-2.6890285126396263
7.599371693121693,0.45835337502004203,-3.0680789375233823,-2.6486278125167018
7.607371031746031,0.40987253487253783,-3.0115179573512942,-2.6082271123937817
7.61537037037037,-0.419047619047656,-3.5460317460317707,-3.3280423280423608
7.623369708994709,-0.270206529581531,-3.770894961519968,-2.465240951178453
7.631369047619048,-0.21566558441558265,-3.534550865800858,-2.4016098484848465
7.639368386243386,-0.1611246392496403,-3.2982067700817748,-2.337978745791247
7.647367724867725,-0.10658369408369192,-3.061862674362665,-2.2743476430976406
7.655367063492063,-0.0520427489177496,-2.8255185786435817,-2.210716540404041
7.663366402116402,0.002498196248198803,-2.589174482924472,-2.1470854377104347
7.6713657407407405,0.057039141414141126,-2.3528303872053886,-2.0834543350168353
7.679365079365079,0.11158008658008345,-2.1164862914863054,-2.019823232323236
7.687364417989418,0.16612103174603182,-1.8801421957671955,-1.9561921296296296
7.695363756613756,0.22066197691197414,-1.6437981000481123,-1.8925610269360302
7.703363095238095,0.27520292207792246,-1.407454004329003,-1.8289299242424237
7.711362433862433,-0.09563492063496767,-0.6,-0.6956349206349677
7.7193617724867725,0.03718066912511468,-0.5628193308748853,-0.5553831970498624
7.727361111111111,0.07758136924803488,-0.5224186307519652,-0.5069023569023581
7.73536044973545,0.11798206937095956,-0.4820179306290404,-0.45842151675484855
7.743359788359788,0.15838276949387975,-0.44161723050612023,-0.4099406766073443
7.751359126984127,0.19878346961680443,-0.40121653038319555,-0.3614598364598347
7.759358465608465,0.23918416973972464,-0.3608158302602753,-0.31297899631233045
7.767357804232804,0.2795848698626493,-0.3204151301373507,-0.2644981561648208
7.775357142857143,0.3199855699855695,-0.2800144300144305,-0.2160173160173166
7.783356481481481,0.3603862701084897,-0.23961372989151025,-0.16753647586981235
7.79135582010582,0.4007869702314144,-0.19921302976858557,-0.11905563572230277
7.799355158730158,0.4411876703543346,-0.15881232964566538,-0.07057479557479851
7.807354497354497,0.4815883704772593,-0.1184116295227407,-0.02209395542728887
7.8153538359788355,-0.010109599395288847,0.29494520030235555,0.3949452003023556
7.823353174603175,-0.2083529296492255,0.1949882422104647,0.3033411718596902
7.831352513227513,-0.25773156313279505,0.16536106212032298,0.323092625253118
7.839351851851852,-0.30711019661637,0.135733882030178,0.342844078646548
7.84735119047619,-0.35648883009993954,0.10610670194003627,0.3625955320399758
7.855350529100529,-0.40586746358351455,0.07647952184989126,0.38234698543340584
7.863349867724867,-0.4552460970670841,0.04685234175974953,0.4020984388268336
7.8713492063492065,-0.504624730550659,0.017225161669604527,0.42184989222026364
7.879348544973545,-0.5540033640342286,-0.012402018420537175,0.44160134561369146
7.887347883597883,-0.6033819975177981,-0.042029198510678906,0.46135279900711923
7.895347222222222,-0.6527606310013732,-0.07165637860082391,0.4811042524005492
7.90334656084656,-0.6653439153439409,-0.030687830687881917,0.5
7.911345899470899,-0.29131148344111263,0.6086885165588873,0.5956557417205562
7.919345238095238,-0.261684303350971,0.638315696649029,0.5808421516754855
7.927344576719577,-0.23205712326082606,0.6679428767391739,0.566028561630413
7.935343915343915,-0.20242994317068444,0.6975700568293155,0.5512149715853422
7.943343253968254,-0.17280276308053952,0.7271972369194605,0.5364013815402697
7.951342592592592,-0.14317558299039787,0.7568244170096021,0.521587791495199
7.959341931216931,-0.11354840290025295,0.786451597099747,0.5067742014501265
7.96734126984127,-0.08392122281011133,0.8160787771898886,0.49196061140505565
7.975340608465609,-0.05429404271996641,0.8457059572800336,0.4771470213599832
7.983339947089947,-0.02466686262982476,0.8753331373701752,0.4623334313149124
7.991339285714285,0.004960317460316832,0.9049603174603168,0.44751984126984157
7.999338624338624,0.034587497550461754,0.9345874975504618,0.43270625122476913
8.007337962962962,0.0642146776406034,0.9642146776406033,0.4178926611796983
8.015337301587302,0.09384185773074832,0.9938418577307483,0.4030790711346259
8.02333664021164,1.1,0.4932322014600488,-0.2983080503650122
8.031335978835978,1.1,0.4527292210836576,-0.2881823052709144
8.039335317460317,1.1,0.4122262407072574,-0.27805656017681435
8.047334656084656,1.1,0.3717232603308572,-0.2679308150827143
8.055333994708995,1.1,0.331220279954457,-0.25780506998861424
8.063333333333333,1.1,0.2907172995780658,-0.24767932489451644
8.071332671957672,1.1,0.2502143192016656,-0.23755357980041641
8.07933201058201,1.1,0.20971133882526538,-0.22742783470631633
8.08733134920635,1.1,0.16920835844886517,-0.2173020896122163
8.095330687830687,1.1,0.12870537807247395,-0.2071763445181185
8.103330026455026,1.6660052910053476,0.033498677248663095,-0.33300264550267383
8.111329365079365,1.759165386584742,0.065971155487285,-0.286388462194914
8.119328703703703,1.7075567502986948,0.02296395858224559,-0.2691855834328982
8.127328042328042,1.655948114012636,-0.02004323832280336,-0.25198270467087863
8.135327380952381,1.6043394777265771,-0.06305043522785231,-0.23477982590885907
8.14332671957672,1.5527308414405185,-0.10605763213290126,-0.2175769471468395
8.151326058201057,1.5011222051544713,-0.14906482903794066,-0.20037406838482374
8.159325396825396,1.4495135688684124,-0.19207202594298964,-0.18317118962280415
8.167324735449736,1.3979049325823536,-0.2350792228480386,-0.16596831086078456
8.175324074074075,1.346296296296295,-0.27808641975308757,-0.148765432098765
8.183323412698412,1.2946876600102475,-0.32109361665812697,-0.13156255333674924
8.191322751322751,1.2430790237241889,-0.3641008135631759,-0.11435967457472965
8.19932208994709,1.0016865079364168,-0.4,-0.03389550264547228
8.207321428571428,0.6836927223719692,-0.4,0.2040768194070077
8.215320767195767,0.6535065388838971,-0.4,0.21162336527902573
8.223320105820106,0.623320355395825,-0.4,0.21916991115104376
8.231319444444445,0.5931341719077529,-0.4,0.22671645702306178
8.239318783068782,0.5629479884196874,-0.4,0.23426300289507812
8.247318121693121,0.5327618049316153,-0.4,0.24180954876709615
8.25531746031746,0.5025756214435432,-0.4,0.24935609463911418
8.2633167989418,0.47238943795547106,-0.4,0.2569026405111322
8.271316137566137,0.44220325446740566,-0.4,0.26444918638314857
8.279315476190476,0.41201707097933354,-0.4,0.2719957322551666
8.287314814814815,0.38183088749126143,-0.4,0.27954227812718463
8.295314153439152,0.35164470400319603,-0.4,0.287088823999201
8.303313492063491,0.3214585205151239,-0.4,0.294635369871219
8.31131283068783,0.46256613756615705,-0.23743386243384293,0.16871693121692147
8.31931216931217,0.7893756613756608,0.09468783068783039,-0.11062433862433925
8.327311507936507,0.7733769841269861,0.08668849206349304,-0.12662301587301394
8.335310846560846,0.7573783068783078,0.07868915343915389,-0.1426216931216922
8.343310185185185,0.7413796296296296,0.07068981481481476,-0.15862037037037047
8.351309523809524,0.7253809523809512,0.06269047619047563,-0.17461904761904873
8.359308862433862,0.7093822751322766,0.05469113756613828,-0.19061772486772344
8.3673082010582,0.6933835978835983,0.04669179894179915,-0.2066164021164017
8.37530753968254,0.6773849206349201,0.03869246031746002,-0.22261507936507996
8.383306878306879,0.6613862433862417,0.030693121693120884,-0.23861375661375825
8.391306216931216,0.645387566137567,0.02269378306878353,-0.25461243386243293
8.399305555555555,0.6293888888888888,0.014694444444444399,-0.27061111111111125
8.407304894179894,0.6133902116402105,0.006695105820105268,-0.28660978835978945
8.415304232804232,0.5347883597884174,0.0,-0.3
8.423303571428571,0.21160714285714288,0.044196428571428574,-0.15580357142857143
8.43130291005291,0.1,0.1,-0.1
8.439302248677249,0.1,0.1,-0.1
8.447301587301586,0.1,0.1,-0.1
8.455300925925926,0.1,0.1,-0.1
8.463300264550265,0.1,0.1,-0.1
8.471299603174604,0.1,0.1,-0.1
8.479298941798941,0.1,0.1,-0.1
8.48729828042328,0.1,0.1,-0.1
8.49529761904762,0.1,0.1,-0.1
8.503296957671957,0.26484788359783207,0.1648478835978321,-0.1648478835978321
8.511296296296296,0.2912320483749061,0.19123204837490615,-0.2
8.519295634920635,0.2749068675089081,0.1749068675089081,-0.2
8.527294973544974,0.25858168664291004,0.15858168664291006,-0.2
8.535294312169311,0.24225650577691565,0.14225650577691565,-0.2
8.54329365079365,0.2259313249109176,0.1259313249109176,-0.2
8.55129298941799,0.20960614404491956,0.10960614404491956,-0.2
8.559292328042329,0.19328096317892152,0.09328096317892151,-0.2
8.567291666666666,0.17695578231292708,0.07695578231292709,-0.2
8.575291005291005,0.16063060144692906,0.060630601446929056,-0.2
8.583290343915344,0.14430542058093102,0.04430542058093101,-0.2
8.591289682539683,0.12798023971493297,0.027980239714932964,-0.2
8.59928902116402,0.11165505884893856,0.011655058848938527,-0.2
8.60728835978836,-0.028835978835992933,0.0,-0.22883597883599294
8.615287698412699,-0.19443400167084293,-0.1,-0.2944340016708429
8.623287037037036,-0.1860136452241721,-0.1,-0.2860136452241721
8.631286375661375,-0.17759328877749941,-0.1,-0.2775932887774994
8.639285714285714,-0.16917293233082673,-0.1,-0.26917293233082673
8.647285052910053,-0.16075257588415404,-0.1,-0.26075257588415407
8.65528439153439,-0.15233221943748324,-0.1,-0.25233221943748324
8.66328373015873,-0.14391186299081055,-0.1,-0.24391186299081055
8.671283068783069,-0.13549150654413789,-0.1,-0.23549150654413786
8.679282407407408,-0.12707115009746517,-0.1,-0.2270711500974652
8.687281746031745,-0.11865079365079437,-0.1,-0.21865079365079437
8.695281084656084,-0.11023043720412169,-0.1,-0.2102304372041217
8.703280423280424,-0.101810080757449,-0.1,-0.20181008075744902
8.71127976190476,0.1,0.00025432900432775926,-0.19974567099567225
8.7192791005291,0.1,0.007526455026454254,-0.19247354497354577
8.727278439153439,0.1,0.01479858104858075,-0.18520141895141926
8.735277777777778,0.1,0.022070707070707244,-0.17792929292929277
8.743277116402115,0.1,0.029342833092832126,-0.1706571669071679
8.751276455026455,0.1,0.03661495911495862,-0.16338504088504138
8.759275793650794,0.1,0.04388708513708511,-0.1561129148629149
8.767275132275133,0.1,0.05115921115921161,-0.14884078884078839
8.77527447089947,0.1,0.05843133718133649,-0.14156866281866354
8.78327380952381,0.1,0.06570346320346299,-0.13429653679653702
8.791273148148148,0.1,0.07297558922558949,-0.1270244107744105
8.799272486772487,0.1,0.08024771524771597,-0.11975228475228404
8.807271825396825,0.1,0.08751984126984086,-0.11248015873015915
8.815271164021164,0.1,0.09479196729196736,-0.10520803270803265
8.823270502645503,-0.0015911920323679687,0.09840880796763203,-0.09840880796763203
8.83126984126984,-0.04864612511670668,0.05135387488329333,-0.05135387488329333
8.83926917989418,-0.09570105820105584,0.004298941798944161,-0.004298941798944161
8.847268518518518,-0.0915023894862613,0.0,0.0
8.855267857142858,-0.07860023041474648,0.0,0.0
8.863267195767195,-0.06569807134323455,0.0,0.0
8.871266534391534,-0.05279591227171973,0.0,0.0
8.879265873015873,-0.03989375320020492,0.0,0.0
8.887265211640212,-0.026991594128690108,0.0,0.0
8.89526455026455,-0.014089435057178162,0.0,0.0
8.903263888888889,-0.001187275985663358,0.0,0.0
8.911263227513228,0.09761765524923466,0.0,0.0
8.919262566137565,0.08919729880256369,0.0,0.0
8.927261904761904,0.08077694235589085,0.0,0.0
8.935261243386243,0.07235658590921801,0.0,0.0
8.943260582010582,0.06393622946254517,0.0,0.0
8.95125992063492,0.0555158730158742,0.0,0.0
8.959259259259259,0.04709551656920136,0.0,0.0
8.967258597883598,0.038675160122528515,0.0,0.0
8.975257936507937,0.030254803675855674,0.0,0.0
8.983257275132274,0.021834447229184706,0.0,0.0
8.991256613756613,0.013414090782511864,0.0,0.0
8.999255952380953,0.004993734335839023,0.0,0.0
9.007255291005292,0.0,0.0,0.012764550264594733
9.015254629629629,-0.006725408203901764,0.0,0.1
9.023253968253968,-0.015326847584911556,0.0,0.1
9.031253306878307,-0.023928286965921346,0.0,0.1
9.039252645502645,-0.03252972634692923,0.0,0.1
9.047251984126984,-0.04113116572793902,0.0,0.1
9.055251322751323,-0.04973260510894881,0.0,0.1
9.063250661375662,-0.0583340444899586,0.0,0.1
9.07125,-0.06693548387096648,0.0,0.1
9.079249338624338,-0.07553692325197628,0.0,0.1
9.087248677248677,-0.08413836263298606,0.0,0.1
9.095248015873016,-0.09273980201399586,0.0,0.1
9.103247354497354,-0.16236772486770806,-0.062367724867708065,0.03763227513229194
9.111246693121693,0.0033703913664234336,-0.1,0.0
9.119246031746032,0.00971907281431155,-0.1,0.0
9.12724537037037,0.016067754262198256,-0.1,0.0
9.135244708994708,0.02241643571008637,-0.1,0.0
9.143244047619048,0.028765117157974484,-0.1,0.0
9.151243386243387,0.0351137986058626,-0.1,0.0
9.159242724867724,0.04146248005374931,-0.1,0.0
9.167242063492063,0.047811161501637424,-0.1,0.0
9.175241402116402,0.054159842949525534,-0.1,0.0
9.183240740740741,0.06050852439741365,-0.1,0.0
9.191240079365079,0.06685720584530036,-0.1,0.0
9.199239417989418,0.07320588729318847,-0.1,0.0
9.207238756613757,0.07955456874107658,-0.1,0.0
9.215238095238096,0.0859032501889647,-0.1,0.0
9.223237433862433,0.09225193163685141,-0.1,0.0
9.231236772486772,0.09860061308473952,-0.1,0.0
9.239236111111111,0.1,-0.1,0.0
9.247235449735449,0.0019610313261084695,0.0,0.0
9.255234788359788,0.014658394221885059,0.0,0.0
9.263234126984127,0.02735575711766165,0.0,0.0
9.271233465608466,0.04005312001343824,0.0,0.0
9.279232804232803,0.052750482909212006,0.0,0.0
9.287232142857142,0.0654478458049886,0.0,0.0
9.295231481481482,0.07814520870076519,0.0,0.0
9.30323082010582,0.09084257159654177,0.0,0.0
9.311230158730158,0.1384920634920896,0.03849206349208958,0.0
9.319229497354497,0.09122606006408938,0.0,0.0
9.327228835978836,0.07995938594530187,0.0,0.0
9.335228174603174,0.06869271182651687,0.0,0.0
9.343227513227513,0.057426037707729354,0.0,0.0
9.351226851851852,0.046159363588941835,0.0,0.0
9.35922619047619,0.03489268947015432,0.0,0.0
9.367225529100528,0.02362601535136931,0.0,0.0
9.375224867724867,0.012359341232581797,0.0,0.0
9.383224206349206,0.001092667113794285,0.0,0.0
9.391223544973546,0.4,0.10411767587693731,-0.0020588379384686513
9.399222883597883,0.4,0.11893126592200635,-0.009465632961003176
9.407222222222222,0.4,0.1337448559670787,-0.016872427983539346
9.415221560846561,0.4,0.14855844601215104,-0.024279223006075518
9.423220899470898,0.4,0.1633720360572201,-0.03168601802861004
9.431220238095237,0.4,0.17818562610229244,-0.03909281305114621
9.439219576719577,0.4,0.19299921614736476,-0.046499608073682384
9.447218915343916,0.4,0.20781280619243708,-0.05390640309621855
9.455218253968253,0.4,0.22262639623750613,-0.061313198118753076
9.463217592592592,0.4,0.23743998628257848,-0.06871999314128925
9.471216931216931,0.4,0.25225357632765083,-0.07612678816382541
9.47921626984127,0.4,0.26706716637272315,-0.08353358318636159
9.487215608465608,0.4,0.2818807564177922,-0.09094037820889611
9.495214947089947,0.4,0.2966943464628645,-0.09834717323143229
9.503214285714286,0.20531286894923279,0.3026564344746164,-0.10265643447461639
9.511213624338625,0.21853491626218993,0.30926745813109496,-0.10926745813109497
9.519212962962962,0.23175696357514414,0.31587848178757205,-0.11587848178757207
9.527212301587301,0.24497901088810128,0.32248950544405064,-0.12248950544405064
9.53521164021164,0.25820105820105843,0.3291005291005292,-0.12910052910052922
9.543210978835978,0.27142310551401266,0.3357115527570063,-0.13571155275700633
9.551210317460317,0.2846451528269698,0.3423225764134849,-0.1423225764134849
9.559209656084656,0.29786720013992696,0.34893360006996343,-0.14893360006996348
9.567208994708995,0.3110892474528841,0.355544623726442,-0.15554462372644204
9.575208333333332,0.3243112947658383,0.36215564738291917,-0.16215564738291915
9.583207671957672,0.3375333420787955,0.36876667103939775,-0.16876667103939774
9.59120701058201,0.3507553893917526,0.3753776946958763,-0.1753776946958763
9.59920634920635,0.3639774367047097,0.3819887183523549,-0.18198871835235486
9.607205687830687,0.37719948401766396,0.38859974200883196,-0.18859974200883198
9.615205026455026,0.3904215313306211,0.39521076566531055,-0.19521076566531054
9.623204365079365,0.4259337068160577,0.4259337068160577,-0.21296685340802884
9.631203703703703,0.5200435729847351,0.5200435729847351,-0.26002178649236757
9.639203042328042,0.5898478835978855,0.5,-0.3
9.64720238095238,0.5,0.7,-0.40724548440065544
9.65520171957672,0.5,0.7,-0.4210374475460677
9.663201058201057,0.5,0.7,-0.43482941069147696
9.671200396825396,0.5,0.7,-0.4486213738368892
9.679199735449735,0.5,0.7,-0.4624133369823015
9.687199074074075,0.5,0.7,-0.4762053001277138
9.695198412698412,0.5,0.7,-0.489997263273123
9.703197751322751,0.6465167548500252,0.6267416225749873,-0.719775132275038
9.71119708994709,0.7094963067735344,0.6253234847294251,-1.325323484729425
9.71919642857143,0.7332567185289973,0.6886845827439928,-1.3886845827439929
9.727195767195767,0.7570171302844549,0.7520456807585465,-1.4520456807585465
9.735195105820106,0.7807775420399178,0.8154067787731142,-1.5154067787731142
9.743194444444445,0.8045379537953807,0.8787678767876819,-1.578767876787682
9.751193783068782,0.8282983655508384,0.9421289748022356,-1.6421289748022356
9.759193121693121,0.8520587773063012,1.0054900728168032,-1.7054900728168034
9.76719246031746,0.8758191890617641,1.068851170831371,-1.768851170831371
9.7751917989418,0.899579600817227,1.1322122688459388,-1.8322122688459388
9.783191137566137,0.9233400125726846,1.1955733668604922,-1.8955733668604924
9.791190476190476,0.9471004243281476,1.2589344648750602,-1.9589344648750602
9.799189814814815,0.9708608360836104,1.3222955628896278,-2.022295562889628
9.807189153439154,0.9946212478390734,1.3856566609041954,-2.0856566609041955
9.815188492063491,-0.11440596440595456,0.9939975148308523,-2.297599005932341
9.82318783068783,-0.2113676447009738,0.9535968147079276,-2.281438725883171
9.83118716931217,-0.308329324995993,0.9131961145850029,-2.265278445834001
9.839186507936507,-0.4052910052909907,0.8727954144620872,-2.249118165784835
9.847185846560846,-0.50225268558601,0.8323947143391626,-2.232957885735665
9.855185185185185,-0.5992143658810292,0.7919940142162378,-2.216797605686495
9.863184523809524,-0.6961760461760483,0.7515933140933131,-2.200637325637325
9.871183862433861,-0.7931377264710461,0.7111926139703975,-2.184477045588159
9.8791832010582,-0.8900994067660654,0.6707919138474727,-2.168316765538989
9.88718253968254,-0.9870610870610845,0.6303912137245481,-2.152156485489819
9.895181878306879,-1.0840227673561038,0.5899905136016235,-2.1359962054406494
9.903181216931216,-1.1809844476511016,0.5495898134787076,-2.119835925391483
9.911180555555555,-1.2779461279461208,0.509189113355783,-2.1036756453423133
9.919179894179894,-1.2227513227513156,0.34550264550263143,-1.9455026455026314
9.927179232804233,-0.19468479803845676,0.4946847980384567,-1.2893695960769136
9.93517857142857,-0.17517421602787764,0.4751742160278776,-1.2503484320557554
9.94317791005291,-0.15566363401729422,0.4556636340172942,-1.2113272680345886
9.951177248677249,-0.1361530520067108,0.4361530520067108,-1.1723061040134217
9.959176587301586,-0.1166424699961317,0.4166424699961317,-1.1332849399922633
9.967175925925925,-0.09713188798554828,0.39713188798554827,-1.0942637759710965
9.975175264550264,-0.07762130597496486,0.37762130597496485,-1.0552426119499296
9.983174603174604,-0.05811072396438144,0.3581107239643814,-1.0162214479287628
9.991173941798941,-0.03860014195380235,0.33860014195380234,-0.9772002839076047
9.99917328042328,-0.019089559943218898,0.31908955994321886,-0.9381791198864378
10.00717261904762,-0.011507936507962824,0.28273809523805576,-0.8942460317460186
10.015171957671958,-0.29501294607677075,-0.2962597095575781,-0.5975064730383853
10.023171296296296,-0.2609732072498039,-0.27072990543735287,-0.5804866036249019
10.031170634920635,-0.22693346842282938,-0.24520010131712205,-0.5634667342114147
10.039169973544974,-0.1928937295958549,-0.21967029719689118,-0.5464468647979275
10.047169312169311,-0.15885399076888798,-0.194140493076666,-0.529426995384444
10.05516865079365,-0.1248142519419135,-0.16861068895643513,-0.5124071259709567
10.06316798941799,-0.09077451311493903,-0.1430808848362043,-0.4953872565574695
10.071167328042328,-0.05673477428796456,-0.11755108071597342,-0.4783673871439823
10.079166666666666,-0.022695035460997603,-0.09202127659574824,-0.46134751773049887
10.087166005291005,0.011344703365976871,-0.0664914724755174,-0.44432764831701166
10.095165343915344,0.045384442192951346,-0.04096166835528653,-0.4273077789035244
10.103164682539683,0.07942418101992582,-0.015431864235055659,-0.41028790949003713
10.11116402116402,0.0,-0.2865608465608012,-0.3
10.11916335978836,0.10292903684107388,-0.29414192631785224,-0.2970709631589261
10.127162698412699,0.11033583186361005,-0.2793283362727799,-0.28966416813638995
10.135162037037038,0.11774262688614621,-0.26451474622770754,-0.2822573731138538
10.143161375661375,0.12514942190868075,-0.24970115618263852,-0.27485057809131924
10.151160714285714,0.1325562169312169,-0.23488756613756617,-0.2674437830687831
10.159160052910053,0.13996301195375307,-0.22007397609249385,-0.2600369880462469
10.16715939153439,0.1473698069762876,-0.2052603860474248,-0.2526301930237124
10.17515873015873,0.1547766019988238,-0.19044679600235245,-0.24522339800117623
10.183158068783069,0.16218339702135995,-0.1756332059572801,-0.23781660297864007
10.191157407407408,0.16959019204389614,-0.16081961591220778,-0.23040980795610388
10.199156746031745,0.17699698706643063,-0.14600602586713873,-0.2230030129335694
10.207156084656084,0.1844037820889668,-0.13119243582206638,-0.21559621791103323
10.215155423280423,0.19181057711150298,-0.11637884577699406,-0.20818942288849704
10.223154761904762,0.19921737213403917,-0.10156525573192171,-0.20078262786596088
10.2311541005291,-0.09266488249046506,-0.19266488249046507,-0.19633244124523255
10.239153439153439,-0.07406176941060674,-0.17406176941060675,-0.18703088470530338
10.247152777777778,-0.05545865633074844,-0.15545865633074846,-0.17772932816537423
10.255152116402115,-0.036855543250894254,-0.13685554325089427,-0.16842777162544714
10.263151455026454,-0.018252430171035935,-0.11825243017103594,-0.15912621508551797
10.271150793650794,0.0003506829088223834,-0.09964931709117762,-0.14982465854558882
10.279150132275133,0.018953795988680702,-0.0810462040113193,-0.14052310200565965
10.28714947089947,0.03755690906853487,-0.062443090931465134,-0.13122154546573256
10.295148809523809,0.05616002214839319,-0.043839977851606815,-0.12191998892580341
10.303148148148148,0.07476313522825151,-0.025236864771748496,-0.11261843238587425
10.311147486772487,0.09336624830810983,-0.006633751691890177,-0.1033168758459451
10.319146825396825,0.0,0.0,-0.08725749559083404
10.327146164021164,0.0,0.0,0.0
10.335145502645503,0.0,0.0,0.0
10.34314484126984,0.0,0.0,0.0
10.35114417989418,0.0,0.0,0.0
10.359143518518518,0.0,0.0,0.0
10.367142857142857,0.0,0.0,0.0
10.375142195767195,0.0,0.0,0.0
10.383141534391534,0.0,0.0,0.0
10.391140873015873,0.0,0.0,0.0
10.399140211640212,0.0,0.0,0.0
10.40713955026455,0.0,0.06511610817167371,0.0
10.415138888888889,0.0,0.002251461988303444,0.0
10.423138227513228,0.0,0.010671818434976285,0.0
10.431137566137567,0.0,0.019092174881649125,0.0
10.439136904761904,0.0,0.027512531328320097,0.0
10.447136243386243,0.0,0.035932887774992935,0.0
10.455135582010582,0.0,0.044353244221665776,0.0
10.46313492063492,0.0,0.05277360066833675,0.0
10.471134259259259,0.0,0.06119395711500959,0.0
10.479133597883598,0.0,0.06961431356168243,0.0
10.487132936507937,0.0,0.07803467000835528,0.0
10.495132275132274,0.0,0.08645502645502624,0.0
10.503131613756613,0.0,0.09487538290169908,0.0
10.511130952380952,0.0,0.0,0.0
10.519130291005292,0.0,0.0,0.0
10.527129629629629,0.0,0.0,0.0
10.535128968253968,0.0,0.0,0.0
10.543128306878307,0.0,0.0,0.0
10.551127645502644,0.0,0.0,0.0
10.559126984126983,0.0,0.0,0.0
10.567126322751323,0.0,0.0,0.0
10.575125661375662,0.0,0.0,0.0
10.583124999999999,0.0,0.0,0.0
10.591124338624338,0.0,0.0,0.0
10.599123677248677,0.0,0.0,0.0
10.607123015873016,0.0,0.09384920634915225,0.0
10.615122354497354,0.09502684029383086,0.01491947911850744,-0.09502684029383086
10.623121693121693,0.08726049211486084,0.0382185236554175,-0.08726049211486084
10.631121031746032,0.07949414393589081,0.061517568192327565,-0.07949414393589081
10.639120370370371,0.07172779575692079,0.08481661272923763,-0.07172779575692079
10.647119708994708,0.0639614475779525,0.10811565726614251,-0.0639614475779525
10.655119047619047,0.05619509939898248,0.13141470180305256,-0.05619509939898248
10.663118386243386,0.04842875122001245,0.15471374633996263,-0.04842875122001245
10.671117724867724,0.040662403041044154,0.17801279087686753,-0.040662403041044154
10.679117063492063,0.03289605486207413,0.2013118354137776,-0.03289605486207413
10.687116402116402,0.025129706683104117,0.22461087995068765,-0.025129706683104117
10.695115740740741,0.01736335850413409,0.24790992448759772,-0.01736335850413409
10.703115079365078,0.0095970103251658,0.2712089690245026,-0.0095970103251658
10.711114417989418,0.0018306621461957745,0.29450801356141265,-0.0018306621461957745
10.719113756613757,0.06793062904174699,0.43586125808349396,-0.13586125808349397
10.727113095238096,0.060668498168490306,0.42133699633698063,-0.2
10.735112433862433,0.00029203600632116226,0.2997079639936788,-0.20029203600632117
10.743111772486772,0.021069538926682483,0.27893046107331754,-0.2210695389266825
10.751111111111111,0.041847041847043805,0.2581529581529562,-0.2418470418470438
10.759110449735449,0.06262454476740051,0.2373754552325995,-0.2626245447674005
10.767109788359788,0.08340204768776183,0.21659795231223816,-0.28340204768776184
10.775109126984127,0.10417955060812314,0.19582044939187687,-0.3041795506081232
10.783108465608466,0.12495705352848448,0.17504294647151553,-0.3249570535284845
10.791107804232803,0.14573455644884117,0.15426544355115884,-0.3457345564488412
10.799107142857142,0.1665120593692025,0.13348794063079752,-0.3665120593692025
10.807106481481481,0.1872895622895638,0.1127104377104362,-0.3872895622895638
10.81510582010582,0.3964726631392984,0.5,-0.7964726631392984
10.823105158730158,0.3,0.3298280423280643,-0.5298280423280642
10.831104497354497,0.2910069653740543,0.3,-0.5
10.839103835978836,0.28088122027995427,0.3,-0.5
10.847103174603175,0.27075547518585424,0.3,-0.5
10.855102513227513,0.26062973009175644,0.3,-0.5
10.863101851851852,0.25050398499765636,0.3,-0.5
10.87110119047619,0.24037823990355633,0.3,-0.5
10.879100529100528,0.23025249480945853,0.3,-0.5
10.887099867724867,0.22012674971535848,0.3,-0.5
10.895099206349206,0.21000100462125842,0.3,-0.5
10.903098544973545,0.19671516754850382,0.2989050558495013,-0.4989050558495013
10.911097883597883,-0.06992945326273037,0.2100235155790899,-0.4100235155790899
10.919097222222222,0.0,0.40460362047440745,-0.3046036204744074
10.927096560846561,0.0,0.41359164140063115,-0.3135916414006311
10.9350958994709,0.0,0.4225796623268548,-0.32257966232685475
10.943095238095237,0.0,0.4315676832530765,-0.33156768325307645
10.951094576719576,0.0,0.4405557041793001,-0.34055570417930014
10.959093915343916,0.0,0.4495437251055238,-0.3495437251055238
10.967093253968253,0.0,0.45853174603174546,-0.3585317460317455
10.975092592592592,0.0,0.46751976695796915,-0.3675197669579692
10.983091931216931,0.0,0.4765077878841928,-0.3765077878841928
10.99109126984127,0.0,0.4854958088104165,-0.3854958088104165
10.999090608465607,0.0,0.4944838297366382,-0.3944838297366382
11.007089947089947,0.19100529100530322,0.39100529100530323,-0.1
11.015089285714286,0.10480121293800558,0.19039757412398886,-0.1
11.023088624338625,0.11234775881002362,0.17530448237995278,-0.1
11.031087962962962,0.11989430468203997,0.16021139063592008,-0.1
11.039087301587301,0.12744085055405802,0.14511829889188402,-0.1
11.04708664021164,0.13498739642607605,0.13002520714784793,-0.1
11.05508597883598,0.14253394229809407,0.11493211540381189,-0.1
11.063085317460317,0.15008048817011044,0.09983902365977917,-0.1
11.071084656084656,0.15762703404212847,0.08474593191574312,-0.1
11.079083994708995,0.1651735799141465,0.06965284017170706,-0.1
11.087083333333332,0.17272012578616286,0.05455974842767433,-0.1
11.095082671957671,0.1802666716581809,0.039466656683638274,-0.1
11.10308201058201,0.18781321753019892,0.024373564939602216,-0.1
11.11108134920635,0.19535976340221695,0.009280473195566158,-0.1
11.119080687830687,0.28801965230535465,0.13202947845803192,-0.055990173847322695
11.127080026455026,0.2979993386243365,0.23199955908289094,0.06800044091710905
11.135079365079365,0.10396825396826595,0.1,0.20396825396826596
11.143078703703704,0.2,0.1079982943469788,0.3
11.151078042328042,0.2,0.11852373990531756,0.3
11.15907738095238,0.2,0.12904918546365868,0.3
11.16707671957672,0.2,0.13957463102199977,0.3
11.175076058201057,0.2,0.15010007658033853,0.3
11.183075396825396,0.2,0.16062552213867964,0.3
11.191074735449735,0.2,0.17115096769702073,0.3
11.199074074074074,0.2,0.18167641325536182,0.3
11.207073412698412,0.2,0.1922018588137006,0.3
11.21507275132275,0.2,0.14818121693121475,0.27409060846560734
11.22307208994709,0.4,0.08558201058215556,0.20720899470892223
11.231071428571429,0.4061490683229816,-0.18608695652174223,0.2877018633540368
11.239070767195766,0.41310501495284013,-0.28347020933976164,0.27378997009431977
11.247070105820105,0.42006096158270023,-0.3808534621578027,0.2598780768345996
11.255069444444445,0.4270169082125603,-0.47823671497584375,0.24596618357487945
11.263068783068782,0.4339728548424188,-0.5756199677938633,0.2320542903151624
11.271068121693121,0.44092880147227886,-0.6730032206119042,0.21814239705544225
11.27906746031746,0.44788474810213896,-0.7703864734299453,0.20423050379572208
11.2870667989418,0.45484069473199906,-0.8677697262479863,0.1903186105360019
11.295066137566137,0.46179664136185755,-0.9651529790660058,0.17640671727628487
11.303065476190476,0.46875258799171765,-1.062536231884047,0.1624948240165647
11.311064814814815,0.4757085346215777,-1.159919484702088,0.14858293075684456
11.319064153439154,0.4826644812514378,-1.257302737520129,0.13467103749712442
11.327063492063491,0.48962042788129634,-1.3546859903381485,0.12075914423740736
11.33506283068783,0.49657637451115644,-1.4520692431561897,0.10684725097768719
11.34306216931217,-0.9531084656084718,-0.1406746031745845,2.409589947089866
11.351061507936508,-1.4257936507936504,-0.08710317460317474,1.4677579365079367
11.359060846560846,-1.459833389620618,-0.07008330518969096,1.4252082629742273
11.367060185185185,-1.4938731284475932,-0.0530634357762034,1.3826585894405086
11.375059523809524,-1.5279128672745683,-0.03604356636271584,1.3401089159067896
11.383058862433861,-1.5619526061015359,-0.01902369694923206,1.2975592423730802
11.3910582010582,-1.595992344928511,-0.002003827535744504,1.2550095688393612
11.39905753968254,-1.630032083755486,0.015016041877743053,1.2124598953056425
11.407056878306879,-1.6640718225824611,0.03203591129123062,1.1699102217719235
11.415056216931216,-1.6981115614094286,0.04905578070471439,1.127360548238214
11.423055555555555,-1.732151300236404,0.06607565011820196,1.084810874704495
11.431054894179894,-1.766191039063379,0.0830955195316895,1.0422612011707764
11.439054232804233,-1.785537918871141,0.10903880070553683,0.9873456790122485
11.44705357142857,-0.7491071428571574,0.6,0.4017857142856852
11.45505291005291,-0.6533577533577508,0.5766788766788754,0.49222629222629183
11.463052248677249,-0.579517704517699,0.5397588522588496,0.47991961741961653
11.471051587301586,-0.5056776556776637,0.5028388278388318,0.46761294261294395
11.479050925925925,-0.43183760683761185,0.4659188034188059,0.45530626780626865
11.487050264550264,-0.35799755799756006,0.42899877899878003,0.44299959299959335
11.495049603174603,-0.28415750915750826,0.39207875457875413,0.43069291819291805
11.50304894179894,-0.21031746031747284,0.35515873015873645,0.41838624338624547
11.51104828042328,-0.13647741147742098,0.3182387057387105,0.40607956857957017
11.519047619047619,0.00119047619047144,0.09761904761905713,0.36626984126984286
11.527046957671958,0.20469576719587787,-0.29060846560824427,0.27652116402061067
11.535046296296295,0.6707461084272696,0.09268652710681742,-1.4146269457863652
11.543045634920635,0.6243731308948696,0.08109328272371741,-1.437813434552565
11.551044973544974,0.5780001533624696,0.0695000383406174,-1.4609999233187652
11.559044312169313,0.5316271758300695,0.05790679395751739,-1.4841864120849653
11.56704365079365,0.4852541982976798,0.04631354957441995,-1.50737290085116
11.57504298941799,0.43888122076527974,0.03472030519131994,-1.5305593896173602
11.583042328042328,0.39250824323287975,0.02312706080821994,-1.5537458783835603
11.591041666666666,0.34613526570048997,0.011533816425122495,-1.576932367149755
11.599041005291005,0.3123015873013439,-0.017768959435274487,-1.6136684303348265
11.607040343915344,0.6959656084656052,-0.5131330309901729,-0.8959656084656051
11.615039682539683,0.2829908103592325,-0.37873851294904065,-0.47448621553884873
11.62303902116402,0.24930938457254861,-0.3366367307156858,-0.4239640768588229
11.63103835978836,0.21562795878585725,-0.2945349484823216,-0.3734419381787859
11.639037698412698,0.18194653299916588,-0.2524331662489574,-0.3229197994987488
11.647037037037038,0.14826510721247452,-0.2103313840155932,-0.2723976608187118
11.655036375661375,0.11458368142579065,-0.16822960178223836,-0.221875522138686
11.663035714285714,0.08090225563909928,-0.12612781954887414,-0.17135338345864892
11.671035052910053,0.047220829852407886,-0.08402603731550995,-0.1208312447786119
11.67903439153439,0.013539404065724014,-0.04192425508215508,-0.07030910609858604
11.68703373015873,-0.02014202172096735,0.00017752715120911144,-0.019786967418549017
11.695033068783069,-0.05382344750765872,0.042279309384573305,0.03073517126148806
11.703032407407408,-0.08750487329435008,0.0843810916179375,0.08125730994152502
11.711031746031745,0.25941043083898097,-0.043764172335592405,-0.18752834467118482
11.719031084656084,-0.0036084341143866245,0.19639156588561338,0.0036084341143866245
11.727030423280423,-0.013131456286218732,0.18686854371378128,0.013131456286218732
11.735029761904762,-0.02265447845805084,0.17734552154194916,0.02265447845805084
11.7430291005291,-0.03217750062988083,0.16782249937011917,0.03217750062988083
11.751028439153439,-0.041700522801712936,0.15829947719828708,0.041700522801712936
11.759027777777778,-0.051223544973545046,0.14877645502645498,0.051223544973545046
11.767027116402117,-0.060746567145377156,0.13925343285462286,0.060746567145377156
11.775026455026454,-0.07026958931720714,0.12973041068279287,0.07026958931720714
11.783025793650793,-0.07979261148903925,0.12020738851096076,0.07979261148903925
11.791025132275132,-0.08931563366087136,0.11068436633912865,0.08931563366087136
11.79902447089947,-0.09883865583270135,0.10116134416729866,0.09883865583270135
11.807023809523809,0.16190476190474043,-0.1,-0.1690476190476298
11.815023148148148,0.2849715099714968,-0.1,-0.1075142450142516
11.823022486772487,0.2,-0.28690763745111536,-0.10654618127444232
11.831021825396824,0.2,-0.2695177708764691,-0.11524111456176545
11.839021164021164,0.2,-0.252127904301819,-0.12393604784909051
11.847020502645503,0.2,-0.23473803772716886,-0.13263098113641558
11.855019841269842,0.2,-0.21734817115251875,-0.14132591442374065
11.863019179894179,0.2,-0.19995830457787248,-0.15002084771106378
11.871018518518518,0.2,-0.18256843800322237,-0.15871578099838884
11.879017857142857,0.2,-0.16517857142857223,-0.1674107142857139
11.887017195767195,0.2,-0.14778870485392598,-0.17610564757303704
11.895016534391534,0.2,-0.13039883827927584,-0.1848005808603621
11.903015873015873,0.2,-0.11300897170462573,-0.19349551414768718
11.911015211640212,0.2,-0.0816798941798966,-0.21832010582010342
11.91901455026455,0.2,-0.008958633958643089,-0.2910413660413569
11.927013888888888,0.39008916323731274,-0.2,-0.4
11.935013227513227,0.37033770984388276,-0.2,-0.4
11.943012566137567,0.35058625645045277,-0.2,-0.4
11.951011904761904,0.3308348030570271,-0.2,-0.4
11.959011243386243,0.31108334966359713,-0.2,-0.4
11.967010582010582,0.29133189627016715,-0.2,-0.4
11.975009920634921,0.2715804428767371,-0.2,-0.4
11.983009259259259,0.2518289894833115,-0.2,-0.4
11.991008597883598,0.2320775360898815,-0.2,-0.4
11.999007936507937,0.2123260826964515,-0.2,-0.4
12.007007275132274,0.1398544973545194,-0.2,-0.21956349206355816
12.015006613756613,0.05008267195766853,-0.1,-0.1
12.023005952380952,0.11251860119047542,-0.09374069940476229,-0.11877790178571314
12.031005291005291,0.1375165343915351,-0.08124173280423246,-0.15627480158730267
12.039004629629629,0.16251446759258922,-0.0687427662037054,-0.19377170138888383
12.047003968253968,0.1875124007936489,-0.056243799603175555,-0.23126860119047335
12.055003306878307,0.21251033399470856,-0.04374483300264572,-0.26876550099206287
12.063002645502646,0.23750826719576823,-0.03124586640211588,-0.3062624007936524
12.071001984126983,0.2625062003968224,-0.01874689980158882,-0.3437593005952336
12.079001322751322,0.287504133597882,-0.006247933201058986,-0.38125620039682306
12.087000661375662,0.3500082671957724,0.1500248015873172,6.613756617923627e-05
12.095,-0.30000000000000004,-0.2,-0.2
