gyro_time_list,gyro_x_list,gyro_y_list,gyro_z_list
0.0,0.0,-0.1,0.1
0.007999194414607948,-0.1,0.004853586810298979,0.0
0.015998388829215896,-0.1,0.01261979497982126,0.0
0.023997583243823846,-0.1,0.020386003149343544,0.0
0.03199677765843179,-0.1,0.028152211318865823,0.0
0.03999597207303974,-0.1,0.0359184194883881,0.0
0.04799516648764769,-0.1,0.04368462765791038,0.0
0.05599436090225564,-0.1,0.051450835827432664,0.0
0.06399355531686358,-0.1,0.05921704399695494,0.0
0.07199274973147153,-0.1,0.06698325216647721,0.0
0.07999194414607948,-0.1,0.0747494603359995,0.0
0.08799113856068742,-0.1,0.08251566850552178,0.0
0.09599033297529538,-0.1,0.09028187667504407,0.0
0.10398952738990333,-0.1,0.09804808484456635,0.0
0.11198872180451128,-0.00018796992481209807,0.1,0.09981203007518791
0.11998791621911922,-0.6,0.20108562221881235,0.10108562221881234
0.12798711063372717,-0.6,0.20987594575134855,0.10987594575134856
0.13598630504833512,-0.6,0.21866626928388475,0.11866626928388475
0.14398549946294306,-0.6,0.22745659281642097,0.12745659281642097
0.151984693877551,-0.6,0.23624691634895717,0.13624691634895716
0.15998388829215895,-0.6,0.24503723988149337,0.14503723988149336
0.1679830827067669,-0.6,0.25382756341402957,0.1538275634140296
0.17598227712137485,-0.6,0.2626178869465658,0.1626178869465658
0.1839814715359828,-0.6,0.27140821047910196,0.17140821047910199
0.19198066595059077,-0.6,0.2801985340116382,0.1801985340116382
0.19997986036519871,-0.6,0.2889888575441744,0.18898885754417444
0.20797905477980666,-0.6,0.29777918107671064,0.19777918107671064
0.2159782491944146,-0.8934747583243827,0.3,0.4978249194414609
0.22397744360902255,-2.0508718605023195,0.3,0.9127179651255799
0.2319766380236305,-2.1189501108394087,0.3,0.9297375277098522
0.23997583243823845,-2.1870283611764973,0.3,0.9467570902941244
0.2479750268528464,-2.255106611513586,0.3,0.9637766528783966
0.25597422126745434,-2.323184861850675,0.3,0.9807962154626688
0.2639734156820623,-2.391263112187764,0.3,0.9978157780469411
0.27197261009667023,-2.459341362524853,0.3,1.0148353406312134
0.2799718045112782,-2.5274196128619417,0.3,1.0318549032154856
0.2879709989258861,-2.595497863199031,0.3,1.0488744657997577
0.29597019334049407,-2.6635761135361196,0.3,1.06589402838403
0.303969387755102,-2.7316543638732087,0.3,1.0829135909683023
0.31196858216970996,-2.7997326142102974,0.3,1.0999331535525745
0.3199677765843179,-3.20107411385607,0.5,1.7967776584317903
0.32796697099892586,-3.1908425620702006,0.5,1.8274723137893996
0.3359661654135338,-3.1816480857315703,0.5,1.855055742805289
0.34396535982814175,-3.1724536093929405,0.5,1.8826391718211786
0.3519645542427497,-3.1632591330543107,0.5,1.910222600837068
0.35996374865735764,-3.154064656715681,0.5,1.9378060298529576
0.3679629430719656,-3.144870180377051,0.5,1.965389458868847
0.37596213748657353,-3.1356757040384213,0.5,1.9929728878847364
0.38396133190118154,-3.1264812276997915,0.5,2.020556316900626
0.3919605263157895,-3.1172867513611617,0.5,2.0481397459165156
0.39995972073039743,-3.108092275022532,0.5,2.075723174932405
0.4079589151450054,-3.1,0.59589151450054,2.24383727175081
0.4159581095596133,-3.3979603025420695,1.4020396974579306,3.2040793949158615
0.42395730397422127,-3.389627808360186,1.4103721916398138,3.220744383279628
0.4319564983888292,-3.3812953141783026,1.418704685821697,3.2374093716433943
0.43995569280343716,-3.3729628199964194,1.4270371800035804,3.254074360007161
0.4479548872180451,-3.3646303258145362,1.4353696741854636,3.2707393483709275
0.45595408163265305,-3.356297831632653,1.4437021683673468,3.287404336734694
0.463953276047261,-3.34796533745077,1.4520346625492302,3.3040693250984603
0.47195247046186894,-3.339632843268886,1.4603671567311134,3.320734313462227
0.4799516648764769,-3.331300349087003,1.4686996509129968,3.3373993018259935
0.48795085929108484,-3.32296785490512,1.47703214509488,3.35406429018976
0.4959500537056928,-3.3146353607232366,1.4853646392767632,3.3707292785535268
0.5039492481203007,-3.3063028665413534,1.4936971334586466,3.387394266917293
0.5119484425349087,-3.1051557465091335,1.6948442534908665,3.6922663802363003
0.5199476369495166,-2.798952738990332,1.998952738990332,4.098952738990332
0.5279468313641246,-2.8094605135287196,2.0,4.109460513528719
0.5359460257787325,-2.8189833640223005,2.0,4.1189833640223
0.5439452201933405,-2.8285062145158815,2.0,4.128506214515881
0.5519444146079484,-2.8380290650094624,2.0,4.138029065009462
0.5599436090225564,-2.8475519155030433,2.0,4.147551915503043
0.5679428034371643,-2.8570747659966242,2.0,4.157074765996624
0.5759419978517722,-2.866597616490205,2.0,4.166597616490205
0.5839411922663802,-2.8761204669837857,2.0,4.176120466983786
0.5919403866809881,-2.8856433174773666,2.0,4.185643317477367
0.5999395810955961,-2.8951661679709475,2.0,4.195166167970948
0.607938775510204,-3.1877551020408097,2.3877551020408094,4.3
0.615937969924812,-3.601957545378598,2.5,4.2
0.6239371643394199,-3.610037539736788,2.5,4.2
0.6319363587540279,-3.618117534094978,2.5,4.2
0.6399355531686358,-3.626197528453168,2.5,4.2
0.6479347475832438,-3.6342775228113573,2.5,4.2
0.6559339419978517,-3.6423575171695473,2.5,4.2
0.6639331364124597,-3.650437511527737,2.5,4.2
0.6719323308270676,-3.658517505885927,2.5,4.2
0.6799315252416755,-3.6665975002441167,2.5,4.2
0.6879307196562835,-3.6746774946023066,2.5,4.2
0.6959299140708914,-3.6827574889604966,2.5,4.2
0.7039291084854994,-3.6908374833186866,2.5,4.2
0.7119283029001073,-3.6989174776768765,2.5,4.2
0.7199274973147153,-2.81433345267932,2.35716672633966,4.2
0.7279266917293232,-2.458813700918967,2.1794068504594835,4.2
0.7359258861439312,-2.1032939491586142,2.001646974579307,4.2
0.7439250805585391,-2.005372172435354,1.9172006508809345,4.164514564663258
0.7519242749731471,-1.9098594033057068,1.8336269778924934,4.12869727623964
0.759923469387755,-1.8143466341760597,1.750053304904052,4.092879987816023
0.7679226638023631,-1.7188338650464114,1.6664796319156099,4.057062699392405
0.775921858216971,-1.6233210959167643,1.5829059589271688,4.0212454109687865
0.783921052631579,-1.5278083267871172,1.4993322859387277,3.985428122545169
0.7919202470461869,-1.4322955576574703,1.4157586129502864,3.9496108341215512
0.7999194414607949,-1.3367827885278232,1.3321849399618453,3.9137935456979336
0.8079186358754028,-0.40813641245972493,0.741627282491945,3.1497636949516696
0.8159178302900107,-0.015357001526372635,0.5969285996947254,1.581571598168353
0.8239170247046187,-0.057458024761151257,0.5885083950477698,1.5310503702866185
0.8319162191192266,-0.09955904799592989,0.580088190400814,1.480529142404884
0.8399154135338346,-0.1416600712307085,0.5716679857538582,1.43000791452315
0.8479146079484425,-0.18376109446548713,0.5632477811069025,1.3794866866414155
0.8559138023630505,-0.22586211770026576,0.5548275764599468,1.328965458759681
0.8639129967776584,-0.26796314093504436,0.5464073718129911,1.2784442308779467
0.8719121911922664,-0.310064164169823,0.5379871671660353,1.2279230029962123
0.8799113856068743,-0.3521651874046016,0.5295669625190796,1.177401775114478
0.8879105800214823,-0.3942662106393803,0.521146757872124,1.1268805472327437
0.8959097744360902,-0.4363672338741589,0.5127265532251682,1.0763593193510093
0.9039089688506982,-0.47846825710893753,0.5043063485782124,1.025838091469275
0.9119081632653061,-1.8362244897959106,0.05459183673469643,-0.09081632653060714
0.919907357679914,-2.310331279326135,-0.2,-0.4051656396630674
0.927906552094522,-2.327171688620046,-0.2,-0.41358584431002315
0.9359057465091299,-2.3440120979139576,-0.2,-0.42200604895697885
0.9439049409237379,-2.360852507207869,-0.2,-0.4304262536039346
0.9519041353383458,-2.3776929165017804,-0.2,-0.43884645825089036
0.9599033297529538,-2.3945333257956922,-0.2,-0.44726666289784606
0.9679025241675617,-2.4113737350896036,-0.2,-0.4556868675448018
0.9759017185821697,-2.428214144383515,-0.2,-0.46410707219175756
0.9839009129967776,-2.4450545536774264,-0.2,-0.47252727683871326
0.9919001074113856,-2.461894962971338,-0.2,-0.480947481485669
0.9998993018259935,-2.4787353722652496,-0.2,-0.48936768613262477
1.0078984962406015,-2.495575781559161,-0.2,-0.49778789077958047
1.0158976906552093,-1.8551154672395302,-0.1551154672395304,-0.35511546723953036
1.0238968850698174,-1.758200696546561,-0.09303344942442685,-0.3
1.0318960794844254,-1.7097207303974213,-0.0849534550662369,-0.3
1.0398952738990332,-1.6612407642482832,-0.07687346070804718,-0.3
1.0478944683136413,-1.6127607980991434,-0.06879346634985724,-0.3
1.0558936627282491,-1.5642808319500052,-0.060713471991667524,-0.3
1.0638928571428572,-1.5158008658008655,-0.05263347763347758,-0.3
1.071892051557465,-1.4673208996517273,-0.04455348327528786,-0.3
1.079891245972073,-1.4188409335025876,-0.036473488917097924,-0.3
1.087890440386681,-1.3703609673534491,-0.028393494558908203,-0.3
1.095889634801289,-1.3218810012043096,-0.02031350020071826,-0.3
1.1038888292158968,-1.2734010350551714,-0.012233505842528539,-0.3
1.1118880236305049,-1.2249210689060317,-0.0041535114843386095,-0.3
1.1198872180451127,-0.5822556390977457,0.1,-0.09112781954887288
1.1278864124597208,-0.42227175080558477,0.1,-0.011135875402792372
1.1358856068743286,-0.3,0.2,0.0
1.1438848012889367,-0.3,0.2,0.0
1.1518839957035445,-0.3,0.2,0.0
1.1598831901181526,-0.3,0.2,0.0
1.1678823845327604,-0.3,0.2,0.0
1.1758815789473684,-0.3,0.2,0.0
1.1838807733619763,-0.3,0.2,0.0
1.1918799677765843,-0.3,0.2,0.0
1.1998791621911922,-0.3,0.2,0.0
1.2078783566058002,-0.47567132116005073,0.2,0.0
1.215877551020408,-0.06734693877551945,0.3775510204081602,-0.07755102040816018
1.2238767454350161,0.01599243124422338,0.4,-0.09200378437788831
1.231875939849624,0.034595208952613726,0.4,-0.08270239552369314
1.239875134264232,0.053197986661004594,0.4,-0.07340100666949771
1.2478743286788399,0.07180076436939493,0.4,-0.06409961781530255
1.255873523093448,0.09040354207778581,0.4,-0.0547982289611071
1.2638727175080557,0.10900631978617616,0.4,-0.04549684010691193
1.2718719119226638,0.127609097494567,0.4,-0.036195451252716504
1.2798711063372716,0.14621187520295736,0.4,-0.026894062398521323
1.2878703007518797,0.16481465291134823,0.4,-0.017592673544325893
1.2958694951664875,0.1834174306197386,0.4,-0.008291284690130712
1.3038686895810956,0.2868689581095649,0.35656552094521754,0.0
1.3118678839957034,0.5980939959227516,0.7038120081544966,0.40190600407724836
1.3198670784103115,0.5899315526425394,0.7201368947149213,0.4100684473574607
1.3278662728249193,0.5817691093623273,0.7364617812753455,0.41823089063767277
1.3358654672395274,0.573606666082115,0.7527866678357701,0.4263933339178851
1.3438646616541352,0.5654442228019029,0.7691115543961943,0.4345557771980971
1.3518638560687433,0.5572817795216906,0.7854364409566189,0.44271822047830944
1.359863050483351,0.5491193362414785,0.8017613275170431,0.45088066375852154
1.3678622448979592,0.5409568929612661,0.8180862140774677,0.45904310703873386
1.375861439312567,0.532794449681054,0.8344111006378919,0.46720555031894595
1.383860633727175,0.5246320064008417,0.8507359871983166,0.47536799359915827
1.3918598281417829,0.5164695631206296,0.8670608737587407,0.48353043687937036
1.399859022556391,0.5083071198404173,0.8833857603191654,0.4916928801595827
1.4078582169709988,0.5001446765602052,0.8997106468795896,0.4998553234397948
1.4158574113856068,1.2049466041477315,-0.10247330207386578,-0.40329773609848774
1.4238566058002147,1.251095802693546,-0.12554790134677302,-0.43406386846236406
1.4318558002148227,1.2972450012393617,-0.1486225006196809,-0.4648300008262412
1.4398549946294306,1.3433941997851764,-0.17169709989258816,-0.4955961331901175
1.4478541890440386,1.389543398330992,-0.19477169916549605,-0.5263622655539948
1.4558533834586465,1.4356925968768066,-0.2178462984384033,-0.557128397917871
1.4638525778732545,1.4818417954226224,-0.2409208977113112,-0.5878945302817482
1.4718517722878623,1.5279909939684369,-0.2639954969842184,-0.6186606626456246
1.4798509667024704,1.5741401925142526,-0.2870700962571263,-0.6494267950095017
1.4878501611170782,1.620289391060067,-0.31014469553003354,-0.6801929273733781
1.4958493555316863,1.6664385896058829,-0.33321929480294143,-0.7109590597372553
1.5038485499462941,1.7125877881516973,-0.35629389407584866,-0.7417251921011316
1.5118477443609022,1.758736986697513,-0.37936849334875655,-0.7724913244650088
1.51984693877551,2.054081632653036,-0.44234693877550596,-1.0117346938775298
1.527846133190118,2.4760681465568677,-0.5760681465568676,-1.528204439670603
1.5358453276047261,1.3674819702317003,-1.1121942611631124,-1.9040647537210373
1.543844522019334,1.276062605493325,-1.1464765229400031,-1.9154921743133342
1.551843716433942,1.1846432407549474,-1.1807587847168948,-1.9269195949056315
1.5598429108485499,1.0932238760165722,-1.2150410464937855,-1.9383470154979283
1.567842105263158,1.0018045112781944,-1.249323308270677,-1.9497744360902256
1.5758412996777658,0.9103851465398193,-1.2836055700475677,-1.9612018566825224
1.5838404940923738,0.8189657818014415,-1.3178878318244593,-1.9726292772748197
1.5918396885069817,0.7275464170630664,-1.3521700936013499,-1.9840566978671166
1.5998388829215897,0.6361270523246887,-1.3864523553782417,-1.9954841184594139
1.6078380773361975,-0.21047596670246954,-1.5,-2.3104759667024695
1.6158372717508056,-0.3837271750805612,-1.5418635875402806,-2.4418635875402805
1.6238364661654134,-0.5,-1.6,-2.5
1.6318356605800215,-0.5,-1.6,-2.5
1.6398348549946293,-0.5,-1.6,-2.5
1.6478340494092374,-0.5,-1.6,-2.5
1.6558332438238452,-0.5,-1.6,-2.5
1.6638324382384533,-0.5,-1.6,-2.5
1.6718316326530611,-0.5,-1.6,-2.5
1.6798308270676692,-0.5,-1.6,-2.5
1.687830021482277,-0.5,-1.6,-2.5
1.695829215896885,-0.5,-1.6,-2.5
1.703828410311493,-0.5,-1.6,-2.5
1.711827604726101,-0.4167485039128443,-1.5167485039128443,-2.5
1.7198267991407088,0.4066028884603934,-1.1977990371798688,-2.497799037179869
1.7278259935553169,0.43551563935656706,-1.1881614535478109,-2.488161453547811
1.7358251879699247,0.46442839025273996,-1.1785238699157534,-2.4785238699157532
1.7438243823845327,0.4933411411489137,-1.1688862862836955,-2.4688862862836953
1.7518235767991406,0.5222538920450865,-1.1592487026516378,-2.459248702651638
1.7598227712137486,0.5511666429412603,-1.14961111901958,-2.44961111901958
1.7678219656283565,0.5800793938374332,-1.1399735353875222,-2.439973535387522
1.7758211600429645,0.6089921447336069,-1.1303359517554643,-2.430335951755464
1.7838203544575724,0.6379048956297798,-1.1206983681234068,-2.4206983681234067
1.7918195488721804,0.6668176465259535,-1.111060784491349,-2.4110607844913488
1.7998187432867883,0.6957303974221265,-1.1014232008592912,-2.4014232008592913
1.8078179377013963,0.9963587540279254,-0.9036412459720746,-2.203641245972075
1.8158171321160042,0.9942404632514811,-0.8,-2.0884809265029625
1.8238163265306122,0.9863204687815721,-0.8,-2.0726409375631443
1.83181552094522,0.9784004743116633,-0.8,-2.056800948623327
1.839814715359828,0.9704804798417545,-0.8,-2.0409609596835088
1.847813909774436,0.9625604853718457,-0.8,-2.0251209707436915
1.855813104189044,0.9546404909019367,-0.8,-2.0092809818038733
1.8638122986036518,0.9467204964320279,-0.8,-1.993440992864056
1.8718114930182599,0.938800501962119,-0.8,-1.977601003924238
1.8798106874328677,0.9308805074922102,-0.8,-1.9617610149844205
1.8878098818474758,0.9229605130223013,-0.8,-1.9459210260446025
1.8958090762620836,0.9150405185523925,-0.8,-1.930081037104785
1.9038082706766917,0.9071205240824836,-0.8,-1.914241048164967
1.9118074650912995,0.8461689939133664,-0.7730844969566832,-1.8192534908700495
1.9198066595059076,0.5975295381310424,-0.6658431793770141,-1.4975295381310425
1.9278058539205154,0.4563672837556111,-0.6187890945852037,-1.356367283755611
1.9358050483351235,-0.18050483351235072,-0.1194951664876493,-0.6259935553168657
1.9438042427497313,-0.22109254797224695,-0.08945372601387654,-0.5578149040555062
1.9518034371643393,-0.24271199233605256,-0.07864400383197373,-0.5145760153278949
1.9598026315789472,-0.2643314366998576,-0.06783428165007123,-0.4713371266002849
1.9678018259935552,-0.2859508810636632,-0.05702455946816843,-0.42809823787267365
1.975801020408163,-0.30757032542746815,-0.04621483728626593,-0.3848593491450637
1.9838002148227711,-0.3291897697912738,-0.03540511510436313,-0.3416204604174525
1.991799409237379,-0.3508092141550788,-0.024595392922460615,-0.2983815716898424
1.999798603651987,-0.3724286585188844,-0.013785670740557823,-0.25514268296223125
2.007797798066595,-0.39404810288269,-0.002975948558655017,-0.21190379423462002
2.015796992481203,0.21879699248115356,1.0390977443608653,1.698496240601442
2.0237961868958108,0.3442965164534701,1.1354372131627761,1.8442965164534701
2.0317953813104186,0.38974648471828727,1.1717971877746298,1.8897464847182872
2.039794575725027,0.43519645298310705,1.2081571623864857,1.935196452983107
2.0477937701396347,0.4806464212479242,1.2445171369983394,1.9806464212479242
2.0557929645542425,0.5260963895127414,1.2808771116101931,2.0260963895127415
2.063792158968851,0.5715463577775612,1.317237086222049,2.071546357777561
2.0717913533834587,0.6169963260423783,1.3535970608339027,2.1169963260423783
2.0797905477980665,0.6624462943071956,1.3899570354457564,2.1624462943071956
2.0877897422126743,0.7078962625720129,1.4263170100576104,2.207896262572013
2.0957889366272826,0.7533462308368326,1.462676984669466,2.2533462308368324
2.1037881310418904,0.7987961991016497,1.4990369592813197,2.2987961991016497
2.1117873254564983,1.5925528105979234,2.401861797350519,3.1
2.119786519871106,1.5592228338703908,2.4101942915324024,3.1
2.1277857142857144,1.5258928571428563,2.418526785714286,3.1
2.1357849087003222,1.4925628804153237,2.4268592798961692,3.1
2.14378410311493,1.4592329036877911,2.435191774078052,3.1
2.151783297529538,1.4259029269602586,2.443524268259935,3.1
2.159782491944146,1.392572950232724,2.451856762441819,3.1
2.167781686358754,1.3592429735051914,2.460189256623702,3.1
2.175780880773362,1.3259129967776586,2.4685217508055852,3.1
2.1837800751879697,1.292583020050126,2.4768542449874684,3.1
2.191779269602578,1.2592530433225915,2.485186739169352,3.1
2.199778464017186,1.225923066595059,2.4935192333512353,3.1
2.2077776584317936,0.4000537056929373,2.411117078410326,3.1
2.2157768528464015,-2.333055853920457,2.0446294307196955,3.061157357679924
2.2237760472610097,-2.693421313338826,1.7736852533553022,2.9802639400164765
2.2317752416756176,-2.6856551051693036,1.7426204206772136,2.9569653155079103
2.2397744360902254,-2.6778888969997814,1.7115555879991247,2.9336666909993436
2.2477736305048333,-2.670122688830259,1.680490755321036,2.910368066490777
2.2557728249194415,-2.6623564806607365,1.6494259226429455,2.8870694419822094
2.2637720193340494,-2.6545902724912143,1.6183610899648566,2.8637708174736427
2.271771213748657,-2.646824064321692,1.587296257286768,2.840472192965076
2.279770408163265,-2.63905785615217,1.5562314246086792,2.8171735684565093
2.2877696025778733,-2.631291647982647,1.5251665919305886,2.793874943947942
2.295768796992481,-2.623525439813125,1.4941017592524999,2.770576319439375
2.303767991407089,-2.6157592316436027,1.4630369265744112,2.7472776949308084
2.311767185821697,-2.607993023474081,1.4319720938963223,2.723979070422242
2.319766380236305,-2.6002268153045582,1.4009072612182318,2.700680445913674
2.327765574650913,-2.51371583721208,1.0548633488483197,2.3548633488483195
2.3357647690655208,-1.8769602577873283,0.15392051557465689,1.2078410311493137
2.3437639634801286,-1.8103003043322632,0.0206006086645264,0.9412012173290528
2.351763157894737,-1.8218166383701184,0.0,0.8672750424448223
2.3597623523093447,-1.8476204913204664,0.0,0.8285692630193005
2.3677615467239526,-1.8734243442708143,0.0,0.7898634835937786
2.3757607411385604,-1.8992281972211622,0.0,0.7511577041682567
2.3837599355531687,-1.9250320501715117,0.0,0.7124519247427327
2.3917591299677765,-1.9508359031218594,0.0,0.6737461453172108
2.3997583243823843,-1.9766397560722073,0.0,0.6350403658916889
2.407757518796992,-2.151503759398447,-0.07575187969922349,0.448496240601553
2.4157567132116005,-3.6817534908700402,-0.6,0.29391783029001334
2.4237559076262083,-3.708522975413416,-0.6,0.3
2.431755102040816,-3.717313298945952,-0.6,0.3
2.439754296455424,-3.726103622478488,-0.6,0.3
2.4477534908700322,-3.7348939460110246,-0.6,0.3
2.45575268528464,-3.7436842695435604,-0.6,0.3
2.463751879699248,-3.7524745930760965,-0.6,0.3
2.4717510741138558,-3.7612649166086327,-0.6,0.3
2.479750268528464,-3.7700552401411693,-0.6,0.3
2.487749462943072,-3.778845563673705,-0.6,0.3
2.4957486573576797,-3.7876358872062412,-0.6,0.3
2.5037478517722875,-3.7964262107387774,-0.6,0.3
2.511747046186896,-1.8023630504833785,0.1,0.9494092373791554
2.5197462406015037,-0.9767828662565501,0.1,1.2
2.5277454350161115,-0.9444628888237913,0.1,1.2
2.5357446294307193,-0.9121429113910323,0.1,1.2
2.5437438238453276,-0.8798229339582717,0.1,1.2
2.5517430182599354,-0.8475029565255128,0.1,1.2
2.5597422126745433,-0.815182979092754,0.1,1.2
2.5677414070891516,-0.7828630016599933,0.1,1.2
2.5757406015037594,-0.7505430242272344,0.1,1.2
2.583739795918367,-0.7182230467944756,0.1,1.2
2.591738990332975,-0.6859030693617167,0.1,1.2
2.5997381847475833,-0.653583091928956,0.1,1.2
2.607737379162191,-0.6212631144961971,0.1,1.2
2.615736573576799,-0.07790279269603573,0.3147314715359762,1.3
2.623735767991407,0.16207303974220447,0.4747153598281363,1.3
2.631734962406015,0.4,0.5676423200859323,1.0647153598281354
2.639734156820623,0.41571001868663854,0.6,0.9921449906566807
2.647733351235231,0.43762561982255044,0.6,0.9811871900887248
2.6557325456498386,0.45954122095846234,0.6,0.9702293895207689
2.663731740064447,0.48145682209437546,0.6,0.9592715889528123
2.6717309344790547,0.5033724232302873,0.6,0.9483137883848564
2.6797301288936626,0.5252880243661993,0.6,0.9373559878169004
2.6877293233082704,0.5472036255021111,0.6,0.9263981872489445
2.6957285177228787,0.5691192266380242,0.6,0.9154403866809879
2.7037277121374865,0.5910348277739361,0.6,0.904482586113032
2.7117269065520944,1.3726906552094205,0.5136546723952897,0.2409640171858693
2.719726100966702,1.5,0.5094733816432424,-0.018946763286484918
2.7277252953813105,1.5,0.520739852649733,-0.041479705299466076
2.7357244897959183,1.5,0.532006323656223,-0.06401264731244598
2.743723684210526,1.5,0.5432727946627129,-0.08654558932542589
2.751722878625134,1.5,0.5545392656692029,-0.1090785313384058
2.7597220730397423,1.5,0.5658057366756934,-0.13161147335138695
2.76772126745435,1.5,0.5770722076821834,-0.15414441536436685
2.775720461868958,1.5,0.5883386786886733,-0.17667735737734674
2.7837196562835658,1.5,0.5996051496951633,-0.19921029939032667
2.791718850698174,1.87188506981742,0.12811493018257983,-0.7718850698174202
2.799718045112782,1.9071463380673908,0.07856098579782761,-0.8214390142021725
2.8077172395273897,1.914552999562398,0.05634100131280586,-0.8436589986871942
2.8157164339419976,1.9219596610574052,0.03412101682778411,-0.8658789831722159
2.823715628356606,1.929366322552413,0.01190103234276113,-0.888098967657239
2.8317148227712137,1.9367729840474202,-0.010318952142260626,-0.9103189521422607
2.8397140171858215,1.9441796455424274,-0.03253893662728238,-0.9325389366272825
2.8477132116004293,1.9515863070374346,-0.054758921112304126,-0.9547589211123042
2.8557124060150376,1.9589929685324423,-0.07697890559732712,-0.9769789055973271
2.8637116004296455,1.9663996300274496,-0.09919889008234886,-0.999198890082349
2.8717107948442533,1.9738062915224568,-0.1214188745673706,-1.0214188745673707
2.879709989258861,1.981212953017464,-0.14363885905239235,-1.0436388590523924
2.8877091836734694,1.9886196145124717,-0.16585884353741534,-1.0658588435374154
2.8957083780880772,1.996026276007479,-0.1880788280224371,-1.0880788280224372
2.903707572502685,1.7764142499104993,-1.2471715001790016,-2.217928750447504
2.911706766917293,1.7066357754852242,-1.4132715509704483,-2.626543101940897
2.919705961331901,1.71593716433942,-1.4318743286788396,-2.6637486573576794
2.927705155746509,1.725238553193615,-1.45047710638723,-2.70095421277446
2.935704350161117,1.7345399420478103,-1.4690798840956203,-2.738159768191241
2.9437035445757247,1.7438413309020053,-1.4876826618040107,-2.7753653236080216
2.951702738990333,1.753142719756201,-1.5062854395124021,-2.812570879024804
2.959701933404941,1.7624441086103961,-1.5248882172207925,-2.849776434441585
2.9677011278195486,1.7717454974645914,-1.5434909949291828,-2.8869819898583655
2.9757003222341565,1.7810468863187867,-1.5620937726375732,-2.9241875452751462
2.9836995166487648,1.7903482751729822,-1.5806965503459647,-2.961393100691929
2.9916987110633726,1.7996496640271775,-1.599299328054355,-2.99859865610871
2.9996979054779804,1.5900571233278085,-1.7399619177814611,-3.209942876672191
3.0076970998925883,0.5302900107411708,-1.9,-3.315145005370585
3.0156962943071965,0.26911117078409896,-1.976962943071967,-3.3
3.0236954887218044,0.1719893997288301,-2.0,-3.2906631332429432
3.031694683136412,0.13264909932911967,-2.0,-3.2775496997763733
3.03969387755102,0.09330879892940923,-2.0,-3.264436266309803
3.0476930719656283,0.053968498529696624,-2.0,-3.251322832843232
3.055692266380236,0.014628198129986197,-2.0,-3.2382093993766623
3.063691460794844,-0.02471210226972423,-2.0,-3.225095965910092
3.0716906552094523,-0.06405240266943685,-2.0,-3.211982532443521
3.07968984962406,-0.2379699248120022,-1.862030075187998,-3.062030075187998
3.087689044038668,0.21008396567455434,-1.4,-2.7899160343254454
3.095688238453276,0.2272865343081196,-1.4,-2.77271346569188
3.103687432867884,0.2444891029416858,-1.4,-2.755510897058314
3.111686627282492,0.26169167157525103,-1.4,-2.7383083284247487
3.1196858216970997,0.27889424020881626,-1.4,-2.721105759791184
3.1276850161117076,0.29609680884238154,-1.4,-2.7039031911576186
3.135684210526316,0.3132993774759477,-1.4,-2.6867006225240524
3.1436834049409237,0.330501946109513,-1.4,-2.669498053890487
3.1516825993555315,0.3477045147430782,-1.4,-2.652295485256922
3.1596817937701394,0.36490708337664346,-1.4,-2.6350929166233565
3.1676809881847476,0.38210965201020963,-1.4,-2.6178903479897904
3.1756801825993555,0.3993122206437749,-1.4,-2.600687779356225
3.1836793770139633,0.3440207662012232,-1.044020766201223,-2.0220103831006115
3.191678571428571,0.3,-0.9862297496318122,-1.9862297496318122
3.1996777658431794,0.3,-0.9697365652717951,-1.969736565271795
3.2076769602577873,0.3,-0.953243380911779,-1.9532433809117788
3.215676154672395,0.3,-0.9367501965517628,-1.9367501965517628
3.223675349087003,0.3,-0.9202570121917466,-1.9202570121917466
3.231674543501611,0.3,-0.9037638278317296,-1.9037638278317295
3.239673737916219,0.3,-0.8872706434717135,-1.8872706434717135
3.247672932330827,0.3,-0.8707774591116972,-1.8707774591116972
3.2556721267454347,0.3,-0.8542842747516811,-1.854284274751681
3.263671321160043,0.3,-0.837791090391664,-1.837791090391664
3.271670515574651,0.3,-0.8212979060316479,-1.8212979060316479
3.2796697099892587,0.3,-0.8048047216716318,-1.8048047216716316
3.2876689044038665,0.3,-0.16621911922666988,-1.36621911922667
3.295668098818475,0.3,-0.07676333691371227,-1.2845088912758083
3.3036672932330826,0.3,-0.05252335383914312,-1.2683489025594288
3.3116664876476904,0.3,-0.028283370764573976,-1.2521889138430493
3.3196656820622983,0.3,-0.004043387690004813,-1.2360289251266698
3.3276648764769066,0.3,0.020196595384565683,-1.2198689364102897
3.3356640708915144,0.3,0.04443657845913482,-1.2037089476939102
3.3436632653061222,0.3,0.068676561533704,-1.1875489589775308
3.35166245972073,0.3,0.09291654460827314,-1.1713889702611513
3.3596616541353383,0.3,0.11715652768284363,-1.155228981544771
3.367660848549946,0.3,0.14139651075741277,-1.1390689928283915
3.375660042964554,0.3,0.16563649383198195,-1.122909004112012
3.383659237379162,0.3,0.1898764769065511,-1.1067490153956328
3.39165843179377,0.36654902562528635,0.33309805125057274,-0.900352923124141
3.399657626208378,1.1016648764769064,1.1016648764769064,0.2024973147153593
3.407656820622986,1.1219160015771792,1.1219160015771792,0.23287400236576875
3.4156560150375936,1.1421671266774522,1.1421671266774522,0.2632506900161782
3.423655209452202,1.1624182517777262,1.1624182517777262,0.2936273776665893
3.4316544038668098,1.1826693768779992,1.1826693768779992,0.3240040653169987
3.4396535982814176,1.202920501978272,1.202920501978272,0.3543807529674081
3.4476527926960254,1.223171627078545,1.223171627078545,0.3847574406178176
3.4556519871106337,1.2434227521788193,1.2434227521788193,0.4151341282682287
3.4636511815252415,1.263673877279092,1.263673877279092,0.44551081591863817
3.4716503759398494,1.2839250023793651,1.2839250023793651,0.4758875035690476
3.479649570354457,1.3,1.3618588882921379,0.5618588882921378
3.4876487647690655,1.1675617615467269,1.9973147153598194,1.2973147153598192
3.4956479591836733,1.0950021944261579,2.4099956111476843,1.8099956111476845
3.503647153598281,1.0864009101093752,2.4271981797812496,1.8271981797812495
3.511646348012889,1.0777996257925926,2.444400748414815,1.8444007484148148
3.5196455424274973,1.0691983414758095,2.461603317048381,1.861603317048381
3.527644736842105,1.0605970571590269,2.4788058856819464,1.8788058856819463
3.535643931256713,1.0519957728422442,2.4960084543155117,1.8960084543155116
3.543643125671321,1.0433944885254616,2.513211022949077,1.9132110229490769
3.551642320085929,1.0347932042086785,2.530413591582643,1.930413591582643
3.559641514500537,1.0261919198918958,2.5476161602162084,1.9476161602162083
3.5676407089151447,1.0175906355751132,2.5648187288497737,1.9648187288497734
3.5756399033297526,1.0089893512583306,2.5820212974833385,1.9820212974833387
3.583639097744361,1.0003880669415475,2.599223866116905,1.9992238661169048
3.5916382921589687,0.8,2.5,2.531914607948428
3.5996374865735765,0.7818977638902458,2.4879318425934973,2.6
3.607636680988185,0.7600817791231322,2.473387852748755,2.6
3.6156358754027926,0.73826579435602,2.4588438629040135,2.6
3.6236350698174005,0.7164498095889077,2.4442998730592715,2.6
3.6316342642320083,0.6946338248217954,2.42975588321453,2.6
3.6396334586466166,0.6728178400546818,2.4152118933697877,2.6
3.6476326530612244,0.6510018552875696,2.400667903525046,2.6
3.6556318474758323,0.6291858705204573,2.3861239136803047,2.6
3.66363104189044,0.6073698857533449,2.3715799238355633,2.6
3.6716302363050484,0.5855539009862314,2.357035933990821,2.6
3.679629430719656,0.5637379162191192,2.3424919441460794,2.6
3.687628625134264,0.5419219314520068,2.3279479543013375,2.6
3.695627819548872,0.5201059466848945,2.313403964456596,2.6
3.70362701396348,0.3118958109559713,2.0491944146079617,2.5372986036519904
3.711626208378088,-0.40477492432379625,0.6952250756762037,1.6904501513524075
3.719625402792696,-0.4193189141685378,0.6806810858314623,1.6613621716629245
3.7276245972073037,-0.4338629040132793,0.6661370959867207,1.6322741919734414
3.735623791621912,-0.4484068938580216,0.6515931061419783,1.6031862122839566
3.7436229860365198,-0.46295088370276316,0.6370491162972368,1.5740982325944737
3.7516221804511276,-0.4774948735475047,0.6225051264524952,1.5450102529049905
3.7596213748657354,-0.49203886339224623,0.6079611366077537,1.5159222732155075
3.7676205692803437,-0.5065828532369886,0.5934171467630114,1.4868342935260228
3.7756197636949516,-0.5211268430817301,0.5788731569182699,1.4577463138365399
3.7836189581095594,-0.5356708329264717,0.5643291670735283,1.4286583341470567
3.7916181525241672,-0.5502148227712131,0.5497851772287868,1.3995703544575737
3.7996173469387755,-0.5647588126159555,0.5352411873840445,1.370482374768089
3.8076165413533833,-0.579302802460697,0.5206971975393029,1.341394395078606
3.815615735767991,-0.5938467923054386,0.5061532076945614,1.3123064153891228
3.823614930182599,-1.703732545649782,0.1192534908700436,0.6192534908700436
3.8316141245972073,-2.0538041532402387,0.015398615586587089,0.5153986155865871
3.839613319011815,-2.0873607698306436,-0.10631961508467831,0.5
3.847612513426423,-2.0654451686947315,-0.11727741565263426,0.5
3.855611707841031,-2.0435295675588194,-0.1282352162205902,0.5
3.863610902255639,-2.0216139664229065,-0.13919301678854676,0.5
3.871610096670247,-1.9996983652869946,-0.1501508173565027,0.5
3.8796092910848547,-1.9777827641510828,-0.16110861792445866,0.5
3.8876084854994626,-1.9558671630151707,-0.1720664184924146,0.5
3.895607679914071,-1.9339515618792575,-0.18302421906037117,0.5
3.9036068743286787,-1.9120359607433457,-0.19398201962832712,0.5
3.9116060687432865,-1.1090896885070145,-0.3,0.5303034371643285
3.9196052631578944,-0.8,-0.2939073226544628,0.5939073226544628
3.9276044575725026,-0.8,-0.2852125461168451,0.5852125461168451
3.9356036519871105,-0.8,-0.2765177695792279,0.5765177695792278
3.9436028464017183,-0.8,-0.2678229930416107,0.5678229930416107
3.951602040816326,-0.8,-0.2591282165039935,0.5591282165039935
3.9596012352309344,-0.8,-0.2504334399663758,0.5504334399663758
3.9676004296455423,-0.8,-0.2417386634287586,0.5417386634287586
3.97559962406015,-0.8,-0.23304388689114142,0.5330438868911413
3.983598818474758,-0.8,-0.2243491103535242,0.5243491103535242
3.991598012889366,-0.8,-0.21565433381590654,0.5156543338159065
3.999597207303974,-0.8,-0.2069595572782893,0.5069595572782893
4.007596401718582,-0.7201799140708858,-0.12017991407088584,0.42017991407088584
4.01559559613319,-0.7,-0.1,0.12022019334049443
4.023594790547798,-0.7,-0.1,0.1
4.031593984962406,-0.7,-0.1,0.1
4.039593179377014,-0.7,-0.1,0.1
4.0475923737916215,-0.7,-0.1,0.1
4.055591568206229,-0.7,-0.1,0.1
4.063590762620837,-0.7,-0.1,0.1
4.071589957035446,-0.7,-0.1,0.1
4.079589151450054,-0.7,-0.1,0.1
4.087588345864662,-0.7,-0.1,0.1
4.095587540279269,-0.7,-0.1,0.1
4.103586734693877,-0.6413265306122707,-0.07066326530613537,0.1
4.111585929108485,-0.4414070891514879,0.05859291084851212,0.1
4.119585123523093,-0.28836432599355616,0.20581783700322193,0.10581783700322192
4.127584317937702,-0.27169933762978804,0.21415033118510599,0.114150331185106
4.1355835123523095,-0.2550343492660217,0.22248282536698916,0.12248282536698915
4.143582706766917,-0.2383693609022554,0.2308153195488723,0.13081531954887232
4.151581901181525,-0.2217043725384891,0.23914781373075544,0.13914781373075547
4.159581095596133,-0.20503938417472278,0.2474803079126386,0.1474803079126386
4.167580290010741,-0.1883743958109565,0.25581280209452173,0.15581280209452178
4.175579484425349,-0.17170940744719018,0.26414529627640493,0.16414529627640492
4.1835786788399565,-0.15504441908342387,0.27247779045828807,0.1724777904582881
4.191577873254565,-0.1383794307196557,0.2808102846401721,0.18081028464017218
4.199577067669173,-0.12171444235588941,0.2891427788220553,0.18914277882205532
4.207576262083781,-0.10504945399212309,0.29747527300393845,0.19747527300393847
4.215575456498389,0.29534550662370235,0.4238363766559256,0.2
4.2235746509129966,0.5086573576799032,0.4771643394199758,0.2
4.231573845327604,1.3023263999767751,0.9,0.1
4.239573039742212,1.3347555665224826,0.9,0.1
4.24757223415682,1.36718473306819,0.9,0.1
4.255571428571429,1.3996138996139011,0.9,0.1
4.263570622986037,1.4320430661596089,0.9,0.1
4.2715698174006445,1.4644722327053163,0.9,0.1
4.279569011815252,1.4969013992510238,0.9,0.1
4.28756820622986,1.5293305657967313,0.9,0.1
4.295567400644468,1.5617597323424388,0.9,0.1
4.303566595059076,1.5941888988881463,0.9,0.1
4.311565789473684,2.178289473684175,0.12171052631582513,-0.5565789473683498
4.319564983888292,2.2,0.08407371812991138,-0.6079631409350443
4.3275641783029,2.2,0.0672333088360001,-0.6163833455819999
4.335563372717508,2.2,0.05039289954208882,-0.6248035502289555
4.343562567132116,2.2,0.03355249024817755,-0.6332237548759112
4.351561761546724,2.2,0.016712080954266267,-0.6416439595228668
4.3595609559613315,2.2,-0.00012832833964500356,-0.6500641641698225
4.367560150375939,2.2,-0.01696873763355629,-0.6584843688167781
4.375559344790547,2.2,-0.03380914692746756,-0.6669045734637338
4.383558539205156,2.2,-0.050649556221380704,-0.6753247781106904
4.391557733619764,2.2,-0.06748996551529199,-0.683744982757646
4.399556928034372,2.2,-0.08433037480920327,-0.6921651874046015
4.407556122448979,2.0887755102041075,-0.15561224489794628,-0.7278061224489731
4.415555316863587,1.2,-0.6,-1.4033447674485753
4.423554511278195,1.2,-0.6,-1.4205473360821406
4.431553705692803,1.2,-0.6,-1.4377499047157059
4.439552900107411,1.2,-0.6,-1.4549524733492711
4.4475520945220195,1.2,-0.6,-1.4721550419828382
4.455551288936627,1.2,-0.6,-1.4893576106164035
4.463550483351235,1.2,-0.6,-1.5065601792499688
4.471549677765843,1.2,-0.6,-1.523762747883534
4.479548872180451,1.2,-0.6,-1.5409653165170993
4.487548066595059,1.2,-0.6,-1.5581678851506646
4.4955472610096665,1.2,-0.6,-1.5753704537842297
4.503546455424274,1.2,-0.6,-1.592573022417795
4.511545649838883,1.3227175080558276,-0.6,-1.9
4.519544844253491,1.1892333121291443,-0.5,-1.9
4.527544038668099,1.1737008957900998,-0.5,-1.9
4.535543233082707,1.1581684794510556,-0.5,-1.9
4.543542427497314,1.1426360631120112,-0.5,-1.9
4.551541621911922,1.1271036467729667,-0.5,-1.9
4.55954081632653,1.1115712304339225,-0.5,-1.9
4.567540010741138,1.096038814094878,-0.5,-1.9
4.575539205155747,1.080506397755832,-0.5,-1.9
4.5835383995703545,1.0649739814167876,-0.5,-1.9
4.591537593984962,1.049441565077743,-0.5,-1.9
4.59953678839957,1.0339091487386989,-0.5,-1.9
4.607535982814178,1.0183767323996544,-0.5,-1.9
4.615535177228786,1.0028443160606102,-0.5,-1.9
4.623534371643394,1.065343716433938,-0.43465628356606206,-1.834656283566062
4.631533566058002,1.3766783029001324,-0.4,-1.6233216970998676
4.63953276047261,1.4,-0.4101794060440682,-1.6
4.647531954887218,1.4,-0.42098912822597057,-1.6
4.655531149301826,1.4,-0.43179885040787297,-1.6
4.663530343716434,1.4,-0.4426085725897753,-1.6
4.6715295381310415,1.4,-0.4534182947716777,-1.6
4.679528732545649,1.4,-0.46422801695358007,-1.6
4.687527926960257,1.4,-0.4750377391354824,-1.6
4.695527121374866,1.4,-0.485847461317386,-1.6
4.703526315789474,1.4,-0.4966571834992884,-1.6
4.711525510204082,1.2494897959183682,-0.4,-1.4494897959183681
4.7195247046186894,1.0959486153808171,-0.2959486153808169,-1.1918972307616338
4.727523899033297,1.0867541390421873,-0.2867541390421872,-1.1735082780843744
4.735523093447905,1.0775596627035575,-0.2775596627035575,-1.155119325407115
4.743522287862513,1.0683651863649277,-0.2683651863649278,-1.1367303727298554
4.751521482277121,1.0591707100262981,-0.25917071002629805,-1.118341420052596
4.7595206766917295,1.0499762336876675,-0.2499762336876673,-1.0999524673753345
4.767519871106337,1.0407817573490377,-0.2407817573490376,-1.081563514698075
4.775519065520945,1.0315872810104079,-0.23158728101040787,-1.0631745620208157
4.783518259935553,1.022392804671778,-0.22239280467177813,-1.0447856093435564
4.791517454350161,1.0131983283331485,-0.21319832833314842,-1.0263966566662968
4.799516648764769,1.0040038519945187,-0.2040038519945187,-1.0080077039890374
4.8075158431793765,0.9,0.4515843179376198,0.0031686358752395366
4.815515037593984,0.9060888201812937,0.6243552807251745,0.3243552807251745
4.823514232008593,0.913564702811769,0.6542588112470762,0.3542588112470762
4.831513426423201,0.9210405854422437,0.6841623417689746,0.3841623417689746
4.839512620837809,0.9285164680727183,0.714065872290873,0.414065872290873
4.847511815252417,0.9359923507031929,0.7439694028127714,0.4439694028127714
4.855511009667024,0.9434682333336675,0.7738729333346698,0.47387293333466973
4.863510204081632,0.9509441159641421,0.8037764638565682,0.5037764638565682
4.87150939849624,0.9584199985946167,0.8336799943784665,0.5336799943784666
4.879508592910848,0.9658958812250913,0.8635835249003649,0.5635835249003649
4.887507787325457,0.9733717638555667,0.8934870554222667,0.5934870554222667
4.8955069817400645,0.9808476464860413,0.9233905859441651,0.6233905859441651
4.903506176154672,0.9883235291165159,0.9532941164660634,0.6532941164660635
4.91150537056928,0.9957994117469905,0.9831976469879619,0.6831976469879618
4.919504564983888,1.450456498388823,1.1,1.3252282491944116
4.927503759398496,1.6,0.9947630704668654,1.2895261409337309
4.935502953813104,1.6,0.9854616816126702,1.2709233632253405
4.9435021482277115,1.6,0.9761602927584752,1.2523205855169504
4.95150134264232,1.6,0.966858903904279,1.233717807808558
4.959500537056928,1.6,0.9575575150500839,1.2151150301001679
4.967499731471536,1.6,0.9482561261958887,1.1965122523917775
4.975498925886144,1.6,0.9389547373416937,1.1779094746833874
4.983498120300752,1.6,0.9296533484874985,1.159306696974997
4.991497314715359,1.6,0.9203519596333034,1.1407039192666069
4.999496509129967,1.6,0.9110505707791082,1.1221011415582165
5.007495703544575,1.6,0.9017491819249132,1.1034983638498264
5.015494897959184,-0.10268966282165279,0.8994620674356695,0.8005379325643306
5.023494092373792,-0.1461635455097386,0.8907672908980523,0.8092327091019478
5.0314932867883995,-0.18963742819782442,0.8820725143604351,0.817927485639565
5.039492481203007,-0.23311131088591022,0.873377737822818,0.826622262177182
5.047491675617615,-0.276585193573996,0.8646829612852008,0.8353170387147992
5.055490870032223,-0.32005907626208185,0.8559881847475836,0.8440118152524164
5.063490064446831,-0.3635329589501677,0.8472934082099665,0.8527065917900336
5.071489258861439,-0.4070068416382535,0.8385986316723494,0.8614013683276507
5.079488453276047,-0.4504807243263441,0.8299038551347312,0.8700961448652689
5.087487647690655,-0.49395460701442995,0.821209078597114,0.878790921402886
5.095486842105263,-0.5374284897025158,0.8125143020594969,0.8874856979405031
5.103486036519871,-0.5809023723906016,0.8038195255218797,0.8961804744781203
5.111485230934479,-1.097046186895756,0.8,1.048523093447878
5.1194844253490865,-1.405961331901181,0.7,1.2119226638023621
5.127483619763694,-1.4146561084387983,0.7,1.2293122168775965
5.135482814178303,-1.4233508849764163,0.7,1.2467017699528327
5.143482008592911,-1.4320456615140336,0.7,1.264091323028067
5.151481203007519,-1.4407404380516506,0.7,1.2814808761033014
5.159480397422127,-1.449435214589268,0.7,1.2988704291785358
5.167479591836734,-1.458129991126885,0.7,1.31625998225377
5.175478786251342,-1.466824767664502,0.7,1.3336495353290043
5.18347798066595,-1.4755195442021194,0.7,1.3510390884042387
5.191477175080558,-1.4842143207397365,0.7,1.368428641479473
5.199476369495167,-1.4929090972773547,0.7,1.3858181945547092
5.2074755639097745,-1.1311090225564338,0.7737781954887133,1.5475563909774266
5.215474758324382,0.7313233082706744,0.7,1.795525241675618
5.22347395273899,0.7873176691729294,0.7,1.7875260472610102
5.231473147153598,0.8433120300751844,0.7,1.7795268528464023
5.239472341568206,0.8993063909774395,0.7,1.7715276584317943
5.247471535982814,0.9553007518796945,0.7,1.7635284640171864
5.2554707303974215,1.0112951127819496,0.7,1.7555292696025786
5.26346992481203,1.067289473684211,0.7,1.7475300751879699
5.271469119226638,1.123283834586466,0.7,1.739530880773362
5.279468313641246,1.179278195488721,0.7,1.7315316863587542
5.287467508055854,1.235272556390976,0.7,1.7235324919441464
5.295466702470462,1.291266917293231,0.7,1.7155332975295383
5.303465896885069,1.3472612781954862,0.7,1.7075341031149305
5.311465091299677,1.6790547798062936,0.7465091299677156,1.6069817400645687
5.319464285714285,1.6884033613445415,0.7971008403361354,0.9913025210084062
5.327463480128894,1.6507600935110887,0.7876900233777722,0.9630700701333166
5.335462674543502,1.61311682567764,0.7782792064194101,0.9348376192582301
5.3434618689581095,1.5754735578441914,0.7688683894610479,0.9066051683831435
5.351461063372717,1.5378302900107428,0.7594575725026858,0.878372717508057
5.359460257787325,1.5001870221772942,0.7500467555443235,0.8501402666329705
5.367459452201933,1.4625437543438455,0.7406359385859613,0.8219078157578841
5.375458646616541,1.424900486510397,0.7312251216275992,0.7936753648827976
5.383457841031149,1.387257218676948,0.721814304669237,0.765442914007711
5.391457035445757,1.3496139508434952,0.7124034877108738,0.7372104631326215
5.399456229860365,1.3119706830100468,0.7029926707525116,0.7089780122575349
5.407455424274973,0.7544575725026924,0.6,0.4772287862513462
5.415454618689581,0.5963635592741252,0.4927271185482506,0.1927271185482506
5.423453813104189,0.5879433546271696,0.4758867092543393,0.1758867092543393
5.431453007518797,0.579523149980214,0.459046299960428,0.15904629996042802
5.439452201933404,0.5711029453332583,0.4422058906665167,0.14220589066651676
5.447451396348012,0.5626827406863028,0.42536548137260544,0.12536548137260548
5.455450590762621,0.5542625360393462,0.4085250720786923,0.10852507207869233
5.463449785177229,0.5458423313923905,0.39168466278478103,0.09168466278478105
5.471448979591837,0.5374221267454349,0.37484425349086975,0.07484425349086976
5.4794481740064445,0.5290019220984792,0.3580038441969585,0.058003844196958504
5.487447368421052,0.5205817174515236,0.34116343490304724,0.04116343490304722
5.49544656283566,0.512161512804568,0.32432302560913595,0.024323025609135934
5.503445757250268,0.5037413081576123,0.30748261631522467,0.007482616315224649
5.511444951664876,-0.4057330827066611,0.0,-0.4722475832438087
5.5194441460794845,-1.2362030678622729,0.0,-0.6072406135724546
5.527443340494092,-1.2811423623263618,0.0,-0.6162284724652723
5.5354425349087,-1.3260816567904505,0.0,-0.6252163313580901
5.543441729323308,-1.3710209512545393,0.0,-0.6342041902509078
5.551440923737916,-1.415960245718628,0.0,-0.6431920491437255
5.559440118152524,-1.4608995401827167,0.0,-0.6521799080365434
5.5674393125671315,-1.5058388346468055,0.0,-0.6611677669293611
5.575438506981739,-1.5507781291108942,0.0,-0.6701556258221788
5.583437701396348,-1.595717423574988,0.0,-0.6791434847149975
5.591436895810956,-1.6406567180390768,0.0,-0.6881313436078154
5.599436090225564,-1.6855960125031655,0.0,-0.6971192025006331
5.607435284640172,-1.38689197483512,-0.2,-0.8347897805738757
5.615434479054779,0.1094542875913748,-0.3,-0.9
5.623433673469387,0.14051912026946356,-0.3,-0.9
5.631432867883995,0.1715839529475523,-0.3,-0.9
5.639432062298604,0.20264878562564453,-0.3,-0.9
5.647431256713212,0.23371361830373327,-0.3,-0.9
5.6554304511278195,0.26477845098182207,-0.3,-0.9
5.663429645542427,0.29584328365991075,-0.3,-0.9
5.671428839957035,0.32690811633799954,-0.3,-0.9
5.679428034371643,0.35797294901608834,-0.3,-0.9
5.687427228786251,0.389037781694177,-0.3,-0.9
5.695426423200859,0.4201026143722658,-0.3,-0.9
5.703425617615467,0.45116744705035805,-0.3,-0.9
5.711424812030075,0.48223227972844673,-0.3,-0.9
5.719424006444683,0.4287996777658371,-0.2712003222341629,-1.071200322234163
5.727423200859291,0.7751782052533842,-0.4583927350844614,-1.4335709403378456
5.735422395273899,0.9231242923912064,-0.5046248584782412,-1.6184994339129652
5.743421589688507,0.9771729033007189,-0.5154345806601438,-1.6617383226405753
5.751420784103114,1.0312215142102314,-0.5262443028420463,-1.7049772113681851
5.759419978517722,1.0852701251197439,-0.5370540250239488,-1.7482161000957952
5.767419172932331,1.1393187360292625,-0.5478637472058525,-1.79145498882341
5.775418367346939,1.1933673469387749,-0.558673469387755,-1.83469387755102
5.783417561761547,1.2474159578482875,-0.5694831915696574,-1.87793276627863
5.7914167561761545,1.3014645687578,-0.58029291375156,-1.92117165500624
5.799415950590762,1.3555131796673123,-0.5911026359334625,-1.96441054373385
5.80741514500537,2.103786251342453,-0.6415145005369811,-2.2622717508054717
5.815414339419978,2.5292830290010957,-1.0707169709989042,-2.7
5.823413533834586,2.491941811049363,-1.108058188950637,-2.708058188950637
5.8314127282491945,2.483247034511745,-1.116752965488255,-2.716752965488255
5.839411922663802,2.474552257974128,-1.1254477420258722,-2.7254477420258723
5.84741111707841,2.465857481436511,-1.1341425185634895,-2.7341425185634893
5.855410311493018,2.4571627048988933,-1.1428372951011065,-2.7428372951011064
5.863409505907626,2.4484679283612762,-1.1515320716387236,-2.7515320716387235
5.871408700322234,2.439773151823659,-1.160226848176341,-2.760226848176341
5.8794078947368416,2.431078375286042,-1.168921624713958,-2.768921624713958
5.887407089151449,2.4223835987484246,-1.177616401251575,-2.777616401251575
5.895406283566058,2.4136888222108066,-1.1863111777891933,-2.786311177789193
5.903405477980666,2.4049940456731895,-1.1950059543268103,-2.79500595432681
5.911404672395274,1.5392991407088907,-1.5,-2.7797663802362966
5.919403866809882,1.0958454086699232,-1.5,-2.491690817339846
5.9274030612244895,1.0882989988448213,-1.5,-2.4765979976896424
5.935402255639097,1.0807525890197196,-1.5,-2.461505178039439
5.943401450053705,1.073206179194618,-1.5,-2.4464123583892357
5.951400644468313,1.0656597693695162,-1.5,-2.4313195387390323
5.959399838882922,1.0581133595444134,-1.5,-2.4162267190888267
5.9673990332975295,1.0505669497193117,-1.5,-2.4011338994386233
5.975398227712137,1.04302053989421,-1.5,-2.38604107978842
5.983397422126745,1.0354741300691084,-1.5,-2.3709482601382166
5.991396616541353,1.0279277202440065,-1.5,-2.3558554404880128
5.999395810955961,1.0203813104189048,-1.5,-2.3407626208378094
6.007395005370569,1.012834900593803,-1.5,-2.325669801187606
6.0153941997851765,1.0052884907687014,-1.5,-2.3105769815374027
6.023393394199785,0.8213211600429127,-1.4606605800214563,-2.0213211600429126
6.031392588614393,0.5,-1.092200945714038,-1.3922009457140379
6.039391783029001,0.5,-1.0738119930367789,-1.3738119930367787
6.047390977443609,0.5,-1.0554230403595195,-1.3554230403595193
6.055390171858217,0.5,-1.0370340876822604,-1.3370340876822602
6.063389366272824,0.5,-1.018645135005001,-1.3186451350050008
6.071388560687432,0.5,-1.0002561823277418,-1.3002561823277416
6.07938775510204,0.5,-0.9818672296504825,-1.2818672296504823
6.087386949516649,0.5,-0.9634782769732212,-1.2634782769732211
6.095386143931257,0.5,-0.9450893242959619,-1.2450893242959618
6.1033853383458645,0.5,-0.9267003716187027,-1.2267003716187026
6.111384532760472,0.5,-0.9083114189414434,-1.2083114189414432
6.11938372717508,0.4,-0.6205424274973305,-0.741084854994661
6.127382921589688,0.4438292158968788,-0.41234156820624246,-0.36851235230936374
6.135382116004296,0.6077865690382845,0.00583992677871339,0.20778656903828452
6.143381310418905,0.6528524530642493,0.039639339798187,0.25285245306424936
6.151380504833512,0.6979183370902091,0.07343875281765684,0.29791833709020915
6.15937969924812,0.7429842211161689,0.1072381658371267,0.34298422111616894
6.167378893662728,0.7880501051421287,0.14103757885659654,0.3880501051421288
6.175378088077336,0.8331159891680886,0.1748369918760664,0.4331159891680886
6.183377282491944,0.8781818731940484,0.20863640489553625,0.47818187319404837
6.191376476906552,0.9232477572200082,0.2424358179150061,0.5232477572200082
6.199375671321159,0.968313641245968,0.27623523093447594,0.568313641245968
6.207374865735768,1.4374865735767879,0.6062298603651818,1.037486573576788
6.215374060150376,1.4656484962406,1.0343515037594,1.3343515037593998
6.223373254564984,1.3872065367500384,1.1,1.4063967316249808
6.231372448979592,1.3681608357628767,1.1,1.4159195821185615
6.2393716433941995,1.349115134775715,1.1,1.4254424326121422
6.247370837808807,1.3300694337885535,1.1,1.4349652831057231
6.255370032223415,1.311023732801392,1.1,1.4444881335993038
6.263369226638023,1.2919780318142304,1.1,1.4540109840928848
6.271368421052632,1.2729323308270666,1.1,1.4635338345864666
6.2793676154672395,1.2538866298399052,1.1,1.4730566850800475
6.287366809881847,1.2348409288527435,1.1,1.4825795355736282
6.295366004296455,1.215795227865582,1.1,1.492102386067209
6.303365198711063,0.9269602577874028,1.0317400644468506,1.5
6.311364393125671,-0.39095954171139846,1.2727398854278495,1.5727398854278496
6.319363587540279,-0.5141413056450644,1.2929293471774679,1.6
6.3273627819548866,-0.5319172932330819,1.2840413533834591,1.6
6.335361976369495,-0.5496932808211012,1.2751533595894493,1.6
6.343361170784103,-0.5674692684091187,1.2662653657954406,1.6
6.351360365198711,-0.5852452559971362,1.2573773720014318,1.6
6.359359559613319,-0.6030212435851536,1.2484893782074231,1.6
6.367358754027927,-0.6207972311731711,1.2396013844134144,1.6
6.3753579484425345,-0.6385732187611884,1.2307133906194057,1.6
6.383357142857142,-0.6563492063492059,1.221825396825397,1.6
6.39135633727175,-0.6741251939372234,1.2129374030313882,1.6
6.399355531686359,-0.6919011815252427,1.2040494092373786,1.6
6.407354726100967,-0.7419340762620845,0.9741977712137465,1.6
6.4153539205155745,-0.9,0.7676960257787181,1.6
6.423353114930182,-0.9,0.8,1.6
6.43135230934479,-0.9,0.8,1.6
6.439351503759398,-0.9,0.8,1.6
6.447350698174006,-0.9,0.8,1.6
6.455349892588614,-0.9,0.8,1.6
6.463349087003222,-0.9,0.8,1.6
6.47134828141783,-0.9,0.8,1.6
6.479347475832438,-0.9,0.8,1.6
6.487346670247046,-0.9,0.8,1.6
6.495345864661654,-0.9,0.8,1.6
6.503345059076262,-0.9,0.8,1.6
6.511344253490869,-0.9,0.8,1.6
6.519343447905477,-0.9103034371643143,0.6931310418904572,1.5965655209452287
6.527342642320086,-1.150279269602581,0.5331471535982792,1.5165735767991397
6.535341836734694,-1.5,0.30457785854067637,1.2954221414593237
6.543341031149302,-1.5,0.3155356591086323,1.2844643408913679
6.5513402255639095,-1.5,0.32649345967658816,1.2735065403234118
6.559339419978517,-1.5,0.337451260244544,1.262548739755456
6.567338614393125,-1.5,0.34840906081249995,1.2515909391875
6.575337808807733,-1.5,0.3593668613804558,1.2406331386195442
6.583337003222341,-1.5,0.3703246619484117,1.2296753380515884
6.59133619763695,-1.5,0.38128246251636877,1.2187175374836312
6.599335392051557,-1.5,0.3922402630843247,1.2077597369156754
6.607334586466165,-1.4665413533834941,0.38327067669174714,1.0665413533834942
6.615333780880773,-1.2,0.0,0.5964907569676073
6.623332975295381,-1.2,0.0,0.5880705523206518
6.631332169709989,-1.2,0.0,0.579650347673696
6.639331364124597,-1.2,0.0,0.5712301430267405
6.647330558539204,-1.2,0.0,0.5628099383797849
6.655329752953813,-1.2,0.0,0.5543897337328283
6.663328947368421,-1.2,0.0,0.5459695290858726
6.671328141783029,-1.2,0.0,0.537549324438917
6.679327336197637,-1.2,0.0,0.5291291197919613
6.6873265306122445,-1.2,0.0,0.5207089151450057
6.695325725026852,-1.2,0.0,0.51228871049805
6.70332491944146,-1.2,0.0,0.5038685058510944
6.711324113856069,-0.8783924095954299,0.31080379520228507,0.510803795202285
6.719323308270677,-0.6876202133240085,0.4,0.6061898933379957
6.7273225026852845,-0.6690174356156181,0.4,0.615491282192191
6.735321697099892,-0.6504146579072276,0.4,0.6247926710463861
6.7433208915145,-0.6318118801988372,0.4,0.6340940599005813
6.751320085929108,-0.6132091024904468,0.4,0.6433954487547766
6.759319280343716,-0.5946063247820563,0.4,0.6526968376089718
6.767318474758324,-0.5760035470736659,0.4,0.661998226463167
6.775317669172932,-0.5574007693652734,0.4,0.6712996153173633
6.78331686358754,-0.5387979916568829,0.4,0.6806010041715584
6.791316058002148,-0.5201952139484926,0.4,0.6899023930257537
6.799315252416756,-0.5015924362401021,0.4,0.6992037818799489
6.807314446831364,-0.21958723338960248,0.5804127666103975,0.7
6.815313641245972,0.13607794997697986,0.81202598332566,0.69398700833717
6.8233128356605794,0.18178763234616768,0.8272625441153892,0.6863687279423053
6.831312030075187,0.22749731471535553,0.8424991049051186,0.6787504475474407
6.839311224489796,0.27320699708454843,0.8577356656948495,0.6711321671525752
6.847310418904404,0.31891667945373625,0.8729722264845787,0.6635138867577106
6.855309613319012,0.36462636182292407,0.8882087872743081,0.6558956063628459
6.8633088077336195,0.4103360441921119,0.9034453480640373,0.6482773259679813
6.871308002148227,0.4560457265612997,0.9186819088537665,0.6406590455731167
6.879307196562835,0.5017554089304875,0.9339184696434959,0.633040765178252
6.887306390977443,0.5474650912996754,0.9491550304332251,0.6254224847833874
6.895305585392051,0.5931747736688633,0.9643915912229544,0.6178042043885228
6.90330477980666,0.6388844560380561,0.9796281520126854,0.6101859239936573
6.911303974221267,0.6845941384072439,0.9948647128024146,0.6025676435987927
6.919303168635875,1.4777216149617642,1.061139192519118,0.5611391925191178
6.927302363050483,1.6659379541290134,0.9670310229354934,0.4670310229354933
6.935301557465091,2.0,0.7,0.13492212674545523
6.943300751879699,1.9826172574292884,0.6826172574292885,0.09130862871464424
6.951299946294307,1.963571556442127,0.6635715564421268,0.08178577822106345
6.959299140708914,1.9445258554549654,0.6445258554549652,0.07226292772748265
6.967298335123523,1.9254801544678015,0.6254801544678016,0.06274007723390079
6.975297529538131,1.9064344534806401,0.60643445348064,0.05321722674031999
6.983296723952739,1.8873887524934785,0.5873887524934783,0.04369437624673919
6.991295918367347,1.8683430515063169,0.5683430515063168,0.03417152575315839
6.9992951127819545,1.8492973505191552,0.5492973505191552,0.02464867525957759
7.007294307196562,1.8302516495319936,0.5302516495319936,0.01512582476599679
7.01529350161117,1.811205948544832,0.511205948544832,0.005602974272415989
7.023292696025778,0.7853651987110897,0.1,-0.31463480128891036
7.031291890440387,1.0047264284404382,-0.006301904587251071,-0.6031509522936255
7.0392910848549946,1.0339917738597353,-0.045322365146313756,-0.6226611825731568
7.047290279269602,1.0632571192790323,-0.08434282570537643,-0.6421714128526882
7.05528947368421,1.0925224646983294,-0.12336328626443911,-0.6616816431322196
7.063288668098818,1.1217878101176264,-0.1623837468235018,-0.6811918734117509
7.071287862513426,1.1510531555369234,-0.20140420738256448,-0.7007021036912823
7.079287056928034,1.1803185009562205,-0.24042466794162717,-0.7202123339708136
7.087286251342642,1.2095838463755175,-0.27944512850068987,-0.7397225642503449
7.09528544575725,1.2388491917948177,-0.31846558905975686,-0.7592327945298785
7.103284640171858,1.2681145372141147,-0.3574860496188195,-0.7787430248094098
7.111283834586466,1.2973798826334118,-0.39650651017788224,-0.7982532550889412
7.119283029001074,1.09905656999642,-1.4,-2.00141514500537
7.127282223415682,1.0723925886143941,-1.4,-2.041411117078409
7.1352814178302895,1.0457286072323682,-1.4,-2.0814070891514476
7.143280612244897,1.0190646258503424,-1.4,-2.1214030612244867
7.151279806659505,0.9924006444683164,-1.4,-2.1613990332975255
7.159279001074114,0.9657366630862876,-1.4,-2.2013950053705686
7.167278195488722,0.9390726817042616,-1.4,-2.2413909774436074
7.1752773899033295,0.9124087003222358,-1.4,-2.281386949516646
7.183276584317937,0.5,-1.5,-2.842552810597904
7.191275778732545,0.7026036300664179,-1.4,-3.0
7.199274973147153,0.7189285166268421,-1.4,-3.0
7.207274167561761,0.7352534031872663,-1.4,-3.0
7.21527336197637,0.7515782897476923,-1.4,-3.0
7.223272556390977,0.7679031763081164,-1.4,-3.0
7.231271750805585,0.7842280628685406,-1.4,-3.0
7.239270945220193,0.8005529494289648,-1.4,-3.0
7.247270139634801,0.816877835989389,-1.4,-3.0
7.255269334049409,0.8332027225498132,-1.4,-3.0
7.263268528464017,0.8495276091102374,-1.4,-3.0
7.271267722878624,0.8658524956706616,-1.4,-3.0
7.279266917293233,0.8821773822310875,-1.4,-3.0
7.287266111707841,0.8985022687915117,-1.4,-3.0
7.295265306122449,0.9726530612244874,-1.4726530612244872,-2.9273469387755124
7.303264500537057,0.9,-1.3052333213987433,-2.557849982098115
7.3112636949516645,0.9042943354627166,-1.1957056645372832,-2.3914113290745664
7.319262889366272,0.9148195912714111,-1.1851804087285889,-2.3703608174571777
7.32726208378088,0.9253448470801056,-1.1746551529198945,-2.349310305839789
7.335261278195488,0.9358701028888,-1.1641298971112,-2.3282597942224
7.343260472610097,0.9463953586974956,-1.1536046413025045,-2.307209282605009
7.351259667024705,0.95692061450619,-1.14307938549381,-2.28615877098762
7.359258861439312,0.9674458703148845,-1.1325541296851156,-2.265108259370231
7.36725805585392,0.977971126123579,-1.122028873876421,-2.244057747752842
7.375257250268528,0.9884963819322734,-1.1115036180677267,-2.2230072361354534
7.383256444683136,0.9990216377409679,-1.1009783622590321,-2.2019567245180642
7.391255639097744,1.476691729323094,-0.6488721804512707,-1.423308270676906
7.399254833512352,2.031655623568382,-0.2810066258589707,-0.7746755011452943
7.40725402792696,2.0798435417286756,-0.2520938749627946,-0.7361251666170596
7.415253222341568,2.128031459888964,-0.22318112406662183,-0.6975748320888291
7.423252416756176,2.1762193780492516,-0.19426837317044898,-0.6590244975605987
7.431251611170784,2.22440729620954,-0.16535562227427614,-0.6204741630323682
7.439250805585392,2.2725952143698276,-0.13644287137810332,-0.5819238285041377
7.4472499999999995,2.320783132530116,-0.10753012048193047,-0.5433734939759074
7.455249194414607,2.368971050690404,-0.07861736958575766,-0.5048231594476769
7.463248388829215,2.417158968850692,-0.04970461868958481,-0.46627282491944644
7.471247583243824,2.4653468870109854,-0.020791867793408803,-0.4277224903912117
7.479246777658432,2.5929492097590963,0.31057618536135556,-0.08942381463864443
7.4872459720730395,2.0885069817401587,0.7868958109559047,0.3245972073039365
7.495245166487647,1.3778932159729291,0.9,0.3944733039932323
7.503244360902255,1.3495774835318397,0.9,0.38739437088295997
7.511243555316863,1.32126175109075,0.9,0.38031543777268756
7.519242749731471,1.2929460186496604,0.9,0.37323650466241515
7.527241944146079,1.264630286208571,0.9,0.36615757155214274
7.5352411385606874,1.2363145537674782,0.9,0.3590786384418696
7.543240332975295,1.2079988213263886,0.9,0.3519997053315972
7.551239527389903,1.1796830888852992,0.9,0.3449207722213248
7.559238721804511,1.1513673564442095,0.9,0.33784183911105237
7.567237916219119,1.12305162400312,0.9,0.33076290600077995
7.575237110633727,1.0947358915620304,0.9,0.3236839728905076
7.5832363050483345,1.0664201591209408,0.9,0.3166050397802352
7.591235499462942,1.0381044266798511,0.9,0.30952610666996283
7.599234693877551,1.0097886942387586,0.9,0.30244717355968964
7.607233888292159,0.8493555316863602,1.71233888292159,0.4246777658431801
7.615233082706767,1.1693233082706804,1.79233082706767,0.5846616541353402
7.6232322771213745,1.1925440442047681,1.7850880884095366,0.6149119115904635
7.631231471535982,1.1842974520247602,1.7685949040495204,0.6314050959504797
7.63923066595059,1.176050859844752,1.7521017196895043,0.6478982803104958
7.647229860365198,1.167804267664744,1.7356085353294883,0.6643914646705118
7.655229054779806,1.159557675484736,1.719115350969472,0.6808846490305279
7.663228249194415,1.151311083304727,1.7026221666094543,0.6973778333905458
7.671227443609022,1.143064491124719,1.686128982249438,0.7138710177505619
7.67922663802363,1.134817898944711,1.669635797889422,0.7303642021105781
7.687225832438238,1.126571306764703,1.653142613529406,0.7468573864705941
7.695225026852846,1.118324714584695,1.63664942916939,0.7633505708306102
7.703224221267454,1.110078122404687,1.6201562448093738,0.7798437551906263
7.711223415682062,1.1018315302246788,1.6036630604493578,0.7963369395506423
7.71922261009667,0.892579663444333,1.4617197756295552,0.9382802243704447
7.727221804511278,0.05927318295739556,1.0864243943191318,1.3
7.735220998925886,-0.23314983888285473,1.0,1.288950053705715
7.743220193340494,-0.5177719809728392,1.0,1.1911140095135804
7.751219387755102,-0.5406268221574329,1.0,1.1796865889212835
7.7592185821697095,-0.5634816633420265,1.0,1.1682591683289867
7.767217776584317,-0.5863365045266203,1.0,1.1568317477366898
7.775216970998925,-0.609191345711214,1.0,1.145404327144393
7.783216165413534,-0.6320461868958103,1.0,1.1339769065520948
7.791215359828142,-0.654901028080404,1.0,1.122549485959798
7.79921455424275,-0.6777558692649976,1.0,1.1111220653675011
7.807213748657357,-0.710687432867852,0.989312567132148,1.1
7.815212943071965,-1.1642588614393006,0.7,1.1
7.823212137486573,-1.1930200702398057,0.6930200702398056,1.0930200702398059
7.831211331901181,-1.1840322113469879,0.6840322113469878,1.084032211346988
7.839210526315789,-1.17504435245417,0.6750443524541699,1.0750443524541702
7.8472097207303975,-1.166056493561351,0.6660564935613511,1.0660564935613512
7.855208915145005,-1.1570686346685333,0.6570686346685333,1.0570686346685334
7.863208109559613,-1.1480807757757154,0.6480807757757154,1.0480807757757156
7.871207303974221,-1.1390929168828976,0.6390929168828976,1.0390929168828977
7.879206498388829,-1.1301050579900798,0.6301050579900798,1.03010505799008
7.887205692803437,-1.121117199097262,0.6211171990972619,1.021117199097262
7.8952048872180445,-1.112129340204444,0.6121293402044441,1.0121293402044442
7.903204081632652,-1.1031414813116265,0.6031414813116263,1.0031414813116264
7.911203276047261,-0.11868958109544837,0.6,0.679672395273862
7.919202470461869,0.20699268976880478,0.5930073102311952,0.6
7.927201664876477,0.2147588979383269,0.5852411020616731,0.6
7.9352008592910845,0.222525106107849,0.577474893892151,0.6
7.943200053705692,0.23029131427737112,0.5697086857226289,0.6
7.9511992481203,0.23805752244689324,0.5619424775531068,0.6
7.959198442534908,0.24582373061641538,0.5541762693835847,0.6
7.967197636949516,0.2535899387859375,0.5464100612140625,0.6
7.975196831364125,0.2613561469554605,0.5386438530445395,0.6
7.983196025778732,0.2691223551249826,0.5308776448750174,0.6
7.99119522019334,0.27688856329450473,0.5231114367054953,0.6
7.999194414607948,0.28465477146402685,0.5153452285359732,0.6
8.007193609022556,0.29242097963354896,0.5075790203664511,0.6
8.015192803437165,0.3,0.5,0.5807196562835791
8.023191997851772,0.19040010741140673,0.5,0.4904001074114067
8.03119119226638,0.031208974818002763,0.4312089748180028,0.4
8.039190386680987,0.0,0.4,0.39268959622396254
8.047189581095596,0.0,0.4,0.38142312521747135
8.055188775510203,0.0,0.4,0.37015665421098265
8.063187969924812,0.0,0.4,0.3588901832044914
8.07118716433942,0.0,0.4,0.3476237121980002
8.079186358754027,0.0,0.4,0.3363572411915115
8.087185553168636,0.0,0.4,0.3250907701850203
8.095184747583243,0.0,0.4,0.3138242991785316
8.103183941997852,0.0,0.4,0.30255782817204036
8.111183136412459,-0.4,0.3,0.2
8.119182330827067,-0.4,0.3,0.2
8.127181525241674,-0.4,0.3,0.2
8.135180719656283,-0.4,0.3,0.2
8.143179914070892,-0.4,0.3,0.2
8.151179108485499,-0.4,0.3,0.2
8.159178302900107,-0.4,0.3,0.2
8.167177497314714,-0.4,0.3,0.2
8.175176691729323,-0.4,0.3,0.2
8.18317588614393,-0.4,0.3,0.2
8.191175080558539,-0.4,0.3,0.2
8.199174274973148,-0.4,0.3,0.2
8.207173469387754,-0.12397959183681218,0.3,0.2
8.215172663802363,0.31878505788278944,0.3796962644706974,0.2
8.22317185821697,0.8287714359791087,0.4928071410052228,0.19280714100522284
8.231171052631579,0.8839382940108932,0.47901542649727674,0.17901542649727673
8.239170247046186,0.9391051520426654,0.46522371198933365,0.16522371198933367
8.247169441460795,0.9942720100744499,0.45143199748138757,0.15143199748138755
8.255168635875403,1.0494388681062343,0.43764028297344143,0.13764028297344144
8.26316783029001,1.1046057261380064,0.4238485684654984,0.12384856846549838
8.271167024704619,1.159772584169791,0.41005685395755226,0.11005685395755227
8.279166219119226,1.4,0.4583109559613039,0.1
8.287165413533835,0.789672528428508,-0.30344249052383065,-0.2068849810476614
8.295164607948442,0.7698398150038627,-0.31005339499871243,-0.2201067899974249
8.30316380236305,0.750007101579213,-0.31666429947359565,-0.23332859894719132
8.311162996777657,0.7301743881545678,-0.3232752039484774,-0.24655040789695482
8.319162191192266,0.7103416747299182,-0.32988610842336064,-0.25977221684672125
8.327161385606875,0.6905089613052685,-0.33649701289824385,-0.2729940257964877
8.335160580021482,0.6706762478806232,-0.3431079173731256,-0.28621583474625123
8.34315977443609,0.6508435344559735,-0.34971882184800884,-0.29943764369601766
8.351158968850697,0.6310108210313283,-0.35632972632289056,-0.31265945264578116
8.359158163265306,0.6111781076066787,-0.3629406307977738,-0.3258812615955476
8.367157357679913,0.5913453941820335,-0.36955153527265555,-0.3391030705453111
8.375156552094522,0.5715126807573838,-0.37616243974753877,-0.3523248794950775
8.38315574650913,0.5516799673327342,-0.382773344222422,-0.36554668844484395
8.391154940923737,0.5318472539080888,-0.38938424869730376,-0.3787684973946075
8.399154135338346,0.5120145404834392,-0.395995153172187,-0.39199030634437393
8.407153329752953,1.6496643394195138,-0.2,-0.6576664876476549
8.415152524167562,2.3192087361260367,-0.22980218403150915,-0.7198681226876728
8.423151718582169,2.4525286430361506,-0.26313216075903767,-0.7420881071726917
8.431150912996777,2.585848549946294,-0.2964621374865736,-0.7643080916577157
8.439150107411384,2.7191684568564085,-0.32979211421410204,-0.7865280761427347
8.447149301825993,2.852488363766552,-0.36312209094163794,-0.8087480606277586
8.455148496240602,2.9858082706766957,-0.39645206766917385,-0.8309680451127825
8.463147690655209,3.1191281775868096,-0.42978204439670237,-0.8531880295978016
8.471146885069818,3.252448084496953,-0.46311202112423827,-0.8754080140828255
8.479146079484424,3.385767991407067,-0.4964419978517668,-0.8976279985678446
8.487145273899033,3.1709452201933956,-0.9072636949516512,-1.3217910848549534
8.49514446831364,1.5815031275668279,-1.3036993744866345,-2.2110981234599034
8.503143662728249,1.5344490427750115,-1.3131101914449979,-2.2393305743349936
8.511142857142858,1.4873949579831949,-1.322521008403361,-2.2675630252100833
8.519142051557465,1.4403408731913887,-1.3319318253617223,-2.295795476085167
8.527141245972073,1.393286788399572,-1.3413426423200856,-2.3240279269602566
8.53514044038668,1.3462327036077661,-1.3507534592784467,-2.3522603778353406
8.543139634801289,1.2991786188159495,-1.36016427623681,-2.3804928287104303
8.551138829215896,1.2521245340241434,-1.3695750931951713,-2.408725279585514
8.559138023630505,1.205070449232327,-1.3789859101535344,-2.436957730460604
8.567137218045112,1.1580163644405208,-1.3883967271118958,-2.4651901813356876
8.57513641245972,1.1109622796487044,-1.397807544070259,-2.4934226322107773
8.583135606874329,0.4945757250268475,-1.597287862513424,-2.802712137486576
8.591134801288936,0.296592607294634,-1.496592607294634,-2.8965926072946337
8.599133995703545,0.28789783075701586,-1.4878978307570159,-2.887897830757016
8.607133190118152,0.27920305421939967,-1.4792030542193997,-2.8792030542193996
8.61513238453276,0.27050827768178154,-1.4705082776817815,-2.8705082776817816
8.623131578947367,0.26181350114416535,-1.4618135011441653,-2.8618135011441654
8.631130773361976,0.2531187246065472,-1.4531187246065471,-2.853118724606547
8.639129967776585,0.24442394806892911,-1.4444239480689292,-2.844423948068929
8.647129162191192,0.2357291715313129,-1.4357291715313127,-2.835729171531313
8.6551283566058,0.2270343949936948,-1.4270343949936948,-2.8270343949936945
8.663127551020407,0.21833961845607858,-1.4183396184560786,-2.8183396184560783
8.671126745435016,0.20964484191846047,-1.4096448419184604,-2.8096448419184603
8.679125939849623,0.20095006538084426,-1.4009500653808442,-2.800950065380844
8.687125134264232,0.30030274418765884,-0.7997981705415608,-1.899697255812341
8.695124328678839,0.3196556339004175,-0.7868962440663884,-1.8803443660995824
8.703123523093447,0.33900852361318046,-0.7739943175912131,-1.8609914763868194
8.711122717508056,0.3583614133259434,-0.7610923911160378,-1.8416385866740566
8.719121911922663,0.37771430303870207,-0.7481904646408654,-1.822285696961298
8.727121106337272,0.397067192751465,-0.73528853816569,-1.8029328072485349
8.735120300751879,0.4164200824642237,-0.7223866116905175,-1.7835799175357763
8.743119495166487,0.43577297217698663,-0.7094846852153422,-1.7642270278230134
8.751118689581094,0.45512586188974524,-0.6965827587401698,-1.7448741381102546
8.759117883995703,0.47447875160250824,-0.6836808322649945,-1.7255212483974918
8.767117078410312,0.4938316413152712,-0.6707789057898192,-1.706168358684729
8.775116272824919,0.5131845310280299,-0.6578769793146467,-1.68681546897197
8.783115467239528,0.5325374207407928,-0.6449750528394714,-1.6674625792592073
8.791114661654134,0.5518903104535515,-0.632073126364299,-1.6481096895464487
8.799113856068743,0.5712432001663144,-0.6191711998891237,-1.6287567998336856
8.80711305048335,0.590596089879073,-0.6062692734139512,-1.609403910120927
8.815112244897959,1.4224489795918638,-0.18877551020406805,-0.9775510204081361
8.823111439312568,2.071619525002986,0.06790488125074647,-0.3962853562477606
8.831110633727175,2.2086620910630073,0.11732418212601384,-0.2653516357479723
8.839109828141783,2.2222200476979372,0.14444009539587424,-0.21111980920825146
8.84710902255639,2.2357780043328646,0.17155600866572862,-0.1568879826685427
8.855108216970999,2.2493359609677945,0.19867192193558902,-0.10265615612882187
8.863107411385606,2.262893917602722,0.22578783520544343,-0.04842432958911308
8.871106605800215,2.276451874237652,0.25290374847530384,0.005807496950607782
8.879105800214822,2.290009830872579,0.28001966174515824,0.06003932349031654
8.88710499462943,1.9342508055854004,0.5104994629430664,0.6209989258861328
8.895104189044039,0.9842146575229269,1.1,1.5039463356192684
8.903103383458646,0.9534485251590538,1.1,1.5116378687102365
8.911102577873255,0.9226823927951738,1.1,1.5193294018012065
8.919101772287862,0.8919162604313007,1.1,1.5270209348921748
8.92710096670247,0.8611501280674208,1.1,1.5347124679831448
8.935100161117077,0.8303839957035477,1.1,1.5424040010741131
8.943099355531686,0.7996178633396678,1.1,1.550095534165083
8.951098549946295,0.7688517309757879,1.1,1.5577870672560532
8.959097744360902,0.7380855986119147,1.1,1.5654786003470214
8.96709693877551,0.7073194662480347,1.1,1.5731701334379913
8.975096133190117,0.6765533338841616,1.1,1.5808616665289597
8.983095327604726,0.6457872015202817,1.1,1.5885531996199296
8.991094522019333,0.6150210691564085,1.1,1.596244732710898
8.999093716433942,0.5093716433941234,1.3093716433941234,1.6906283566058766
9.007092910848549,0.8190984156820551,1.4,1.5
9.015092105263157,0.8490953947368378,1.4,1.5
9.023091299677766,0.8790923737916205,1.4,1.5
9.031090494092373,0.9090893528463965,1.4,1.5
9.039089688506982,0.9390863319011792,1.4,1.5
9.047088882921589,0.9690833109559552,1.4,1.5
9.055088077336197,0.999080290010738,1.4,1.5
9.063087271750804,1.0290772690655139,1.4,1.5
9.071086466165413,1.0590742481202966,1.4,1.5
9.079085660580022,1.0890712271750793,1.4,1.5
9.087084854994629,1.1,1.4,1.4152524167561769
9.095084049409238,0.4997950014408856,1.2999316671469618,1.1
9.103083243823844,0.48028477116135637,1.2934282570537854,1.1
9.111082438238453,0.4607745408818228,1.2869248469606076,1.1
9.11908163265306,0.44126431060229354,1.2804214368674312,1.1
9.127080827067669,0.42175408032275996,1.2739180267742534,1.1
9.135080021482276,0.4022438500432307,1.267414616681077,1.1
9.143079215896885,0.38273361976369713,1.2609112065878991,1.1
9.151078410311493,0.36322338948416355,1.2544077964947211,1.1
9.1590776047261,0.3437131592046343,1.2479043864015447,1.1
9.167076799140709,0.3242029289251007,1.2414009763083669,1.1
9.175075993555316,0.30469269864557147,1.2348975662151904,1.1
9.183075187969925,0.2851824683660379,1.2283941561220126,1.1
9.191074382384532,0.26567223808650864,1.2218907460288362,1.1
9.19907357679914,0.2461620078069751,1.2153873359356584,1.1
9.207072771213749,0.22665177752744153,1.2088839258424804,1.1
9.215071965628356,0.20714154724791228,1.2023805157493042,1.1
9.223071160042965,-0.34142320085929273,0.9585767991407073,0.8792883995703537
9.231070354457572,-0.5010050636795965,0.7989949363204035,0.8
9.23906954887218,-0.613653815389542,0.697724364101743,0.7977243641017431
9.247068743286787,-0.7157711908951613,0.680704801517473,0.7807048015174731
9.255067937701396,-0.8178885664008033,0.6636852389331994,0.7636852389331995
9.263067132116005,-0.9200059419064452,0.6466656763489258,0.7466656763489258
9.271066326530612,-1.0221233174120645,0.6296461137646558,0.7296461137646559
9.27906552094522,-1.1242406929177067,0.6126265511803822,0.7126265511803822
9.287064715359827,-1.346764232008629,0.2935284640172583,0.7
9.295063909774436,-1.8468045112781906,0.2531954887218095,0.8
9.303063104189043,-1.7864171073287625,0.30679144633561883,0.8
9.311062298603652,-1.7710340411468226,0.3144829794265887,0.8
9.319061493018259,-1.7556509749648863,0.32217451251755685,0.8
9.327060687432867,-1.7402679087829467,0.32986604560852667,0.8
9.335059881847476,-1.724884842601007,0.33755757869949654,0.8
9.343059076262083,-1.7095017764190708,0.3452491117904647,0.8
9.351058270676692,-1.694118710237131,0.35294064488143456,0.8
9.359057465091299,-1.6787356440551946,0.3606321779724027,0.8
9.367056659505907,-1.663352577873255,0.3683237110633726,0.8
9.375055853920514,-1.6479695116913187,0.37601524415434073,0.8
9.383055048335123,-1.632586445509379,0.38370677724531055,0.8
9.391054242749732,-1.6172033793274392,0.3913983103362804,0.8
9.399053437164339,-1.6018203131455029,0.39908984342724857,0.8
9.407052631578948,-1.0099415204678461,0.44502923976607706,0.845029239766077
9.415051825993555,-0.893771783686625,0.5,0.9
9.423051020408163,-0.8774468971261989,0.5,0.9
9.43105021482277,-0.8611220105657764,0.5,0.9
9.439049409237379,-0.8447971240053502,0.5,0.9
9.447048603651986,-0.8284722374449278,0.5,0.9
9.455047798066595,-0.8121473508845016,0.5,0.9
9.463046992481203,-0.7958224643240754,0.5,0.9
9.47104618689581,-0.779497577763653,0.5,0.9
9.479045381310419,-0.7631726912032268,0.5,0.9
9.487044575725026,-0.7468478046428043,0.5,0.9
9.495043770139635,-0.7305229180823782,0.5,0.9
9.503042964554242,-0.7141980315219556,0.5,0.9
9.51104215896885,-0.6305227354099683,0.5347386322950158,0.9
9.519041353383459,0.008270676691784083,0.6958646616541079,0.6917293233082159
9.527040547798066,0.22133499332747392,0.5928883355575086,0.4857766711150174
9.535039742212675,0.24557497640204573,0.584808341199318,0.4696166823986362
9.543038936627282,0.2698149594766122,0.5767283468411293,0.45345669368225855
9.55103813104189,0.29405494255118403,0.5686483524829387,0.4372967049658773
9.559037325456497,0.3182949256257505,0.5605683581247498,0.42113671624949967
9.567036519871106,0.3425349087003223,0.5524883637665592,0.4049767275331184
9.575035714285713,0.36677489177488876,0.5444083694083703,0.3888167388167408
9.583034908700322,0.3910148748494606,0.5363283750501797,0.3726567501003596
9.59103410311493,0.4152548579240325,0.5282483806919892,0.35649676138397834
9.599033297529537,0.4394948409985989,0.5201683863338004,0.3403367726676007
9.607032491944146,0.4637348240731708,0.5120883919756097,0.32417678395121946
9.615031686358753,0.4879748071477372,0.5040083976174209,0.3080167952348418
9.623030880773362,0.5895751282969299,0.5,0.21042487170307006
9.631030075187969,0.9515037593984255,0.5,-0.15150375939842547
9.639029269602577,1.1938950460567006,0.2877900921134012,-0.40610495394329943
9.647028464017186,1.1817750545194148,0.2635501090388295,-0.41822494548058525
9.655027658431793,1.1696550629821316,0.2393101259642633,-0.43034493701786836
9.663026852846402,1.1575350714448458,0.21507014288969167,-0.4424649285551542
9.671026047261009,1.1454150799075626,0.19083015981512544,-0.4545849200924373
9.679025241675618,1.133295088370277,0.16659017674055382,-0.4667049116297231
9.687024436090224,1.1211750968329939,0.14235019366598758,-0.4788249031670062
9.695023630504833,1.109055105295708,0.11811021059141597,-0.49094489470429203
9.70302282491944,1.059543501611207,0.019087003222413718,-0.5404564983887932
9.711022019334049,0.897798066595145,-0.30220193340485496,-0.7014679556032366
9.719021213748658,0.7000258704251928,-0.9000517408503858,-1.6000776112755788
9.727020408163265,0.7097809855649573,-0.9195619711299148,-1.629342956694872
9.735019602577873,0.719536100704724,-0.939072201409448,-1.658608302114172
9.74301879699248,0.7292912158444884,-0.958582431688977,-1.6878736475334655
9.751017991407089,0.7390463309842551,-0.9780926619685103,-1.7171389929527654
9.759017185821696,0.7488014461240197,-0.9976028922480393,-1.7464043383720589
9.767016380236305,0.7585565612637862,-1.0171131225275727,-1.7756696837913588
9.775015574650913,0.7683116764035529,-1.0366233528071058,-1.8049350292106587
9.78301476906552,0.7780667915433175,-1.056133583086635,-1.8342003746299522
9.791013963480129,0.787821906683084,-1.075643813366168,-1.863465720049252
9.799013157894736,0.7975770218228486,-1.095154043645697,-1.8927310654685454
9.807012352309345,0.49876476906548506,-1.801235230934515,-2.701235230934515
9.815011546723952,0.3791736235922227,-1.9,-2.806942125469259
9.82301074113856,0.355413640182494,-1.9,-2.8148621199391686
9.831009935553169,0.3316536567727653,-1.9,-2.822782114409078
9.839009129967776,0.3078936733630419,-1.9,-2.830702108878986
9.847008324382385,0.28413368995331323,-1.9,-2.8386221033488956
9.855007518796992,0.2603737065435898,-1.9,-2.846542097818803
9.8630067132116,0.23661372313386111,-1.9,-2.854462092288713
9.871005907626207,0.21285373972413774,-1.9,-2.8623820867586205
9.879005102040816,0.18909375631440903,-1.9,-2.8703020812285303
9.887004296455423,0.16533377290468562,-1.9,-2.878222075698438
9.895003490870032,0.14157378949495697,-1.9,-2.8861420701683476
9.90300268528464,0.11781380608522829,-1.9,-2.8940620646382573
9.911001879699247,-0.10005370569279454,-2.0,-3.000026852846397
9.919001074113856,-0.3999462943072181,-1.8998925886144362,-3.2
9.927000268528463,-0.2855415216181598,-1.6927707608090798,-3.2
9.934999462943072,-0.26626635435404244,-1.6831331771770213,-3.2
9.942998657357679,-0.24699118708992934,-1.6734955935449647,-3.2
9.950997851772287,-0.227716019825812,-1.663858009912906,-3.2
9.958997046186896,-0.20844085256169465,-1.6542204262808473,-3.2
9.966996240601503,-0.18916568529758154,-1.6445828426487907,-3.2
9.974995435016112,-0.1698905180334642,-1.6349452590167322,-3.2
9.982994629430719,-0.15061535076935112,-1.6253076753846756,-3.2
9.990993823845328,-0.13134018350523374,-1.615670091752617,-3.2
9.998993018259934,-0.11206501624112067,-1.6060325081205604,-3.2
10.006992212674543,0.3976638023630559,-1.3015574650912962,-3.000778732545648
10.01499140708915,0.8042014811464746,-0.8957985188535255,-2.587395556560576
10.022990601503759,0.8126216857934312,-0.8873783142065689,-2.5621349426197066
10.030989795918368,0.8210418904403877,-0.8789581095596124,-2.536874328678837
10.038988990332975,0.8294620950873423,-0.8705379049126578,-2.5116137147379733
10.046988184747583,0.8378822997342987,-0.8621177002657013,-2.486353100797104
10.05498737916219,0.8463025043812534,-0.8536974956187466,-2.46109248685624
10.062986573576799,0.8547227090282099,-0.8452772909717902,-2.4358318729153705
10.070985767991406,0.8631429136751645,-0.8368570863248356,-2.4105712589745067
10.078984962406015,0.871563118322121,-0.8284368816778791,-2.385310645033637
10.086984156820623,0.8799833229690774,-0.8200166770309226,-2.3600500310927677
10.09498335123523,0.8884035276160321,-0.8115964723839679,-2.3347894171519035
10.102982545649839,0.8968237322629886,-0.8031762677370115,-2.309528803211034
10.110981740064446,0.5018259935554688,-0.20365198711093752,-1.207303974221875
10.118980934479055,0.5,-0.17581535006347232,-1.1516307001269446
10.126980128893662,0.5,-0.15157536698890542,-1.1031507339778108
10.13497932330827,0.5,-0.12733538391433313,-1.0546707678286662
10.142978517722877,0.5,-0.10309540083976625,-1.0061908016795325
10.150977712137486,0.5,-0.07885541776519397,-0.9577108355303879
10.158976906552095,0.5,-0.05461543469062169,-0.9092308693812434
10.166976100966702,0.5,-0.03037545161605479,-0.8607509032321097
10.17497529538131,0.5,-0.0061354685414825305,-0.812270937082965
10.182974489795917,1.2805102040816567,0.4584693877550296,0.4584693877550296
10.190973684210526,1.183613673358653,0.7163863266413469,0.7122897449810102
10.198972878625133,1.1506273046386248,0.7493726953613751,0.7370295215210313
10.206972073039742,1.1176409359185893,0.7823590640814106,0.761769298061058
10.21497126745435,1.0846545671985537,0.8153454328014462,0.7865090746010847
10.222970461868957,1.0516681984785257,0.8483318015214744,0.8112488511411058
10.230969656283566,1.01868182975849,0.8813181702415099,0.8359886276811324
10.238968850698173,0.9856954610384618,0.9143045389615381,0.8607284042211536
10.246968045112782,0.9527090923184264,0.9472909076815736,0.8854681807611802
10.254967239527389,0.9197227235983981,0.9802772764016019,0.9102079573012014
10.262966433941997,0.8867363548783627,1.0132636451216375,0.934947733841228
10.270965628356606,0.8537499861583271,1.0462500138416728,0.9596875103812547
10.278964822771213,0.8207636174382988,1.0792363825617013,0.9844272869212758
10.286964017185822,0.20359828141789246,1.4,1.2982008592910539
10.294963211600429,0.09558280622190435,1.6044171937780958,1.4088343875561913
10.302962406015038,0.08965747702589788,1.6103425229741022,1.420685045948204
10.310961600429644,0.08373214782989273,1.6162678521701073,1.4325357043402145
10.318960794844253,0.07780681863388625,1.622193181366114,1.4443863627322275
10.32695998925886,0.0718814894378811,1.628118510562119,1.4562370211242377
10.334959183673469,0.06595616024187463,1.6340438397581254,1.4680876795162507
10.342958378088078,0.060030831045868156,1.6399691689541318,1.4799383379082638
10.350957572502685,0.054105501849863,1.645894498150137,1.491788996300274
10.358956766917293,0.04818017265385653,1.6518198273461435,1.503639654692287
10.3669559613319,0.042254843457851375,1.6577451565421486,1.5154903130842974
10.374955155746509,0.0363295142618449,1.663670485738155,1.5273409714763102
10.382954350161116,0.03040418506583975,1.6695958149341603,1.5391916298683206
10.390953544575725,0.024478855869833283,1.6755211441301667,1.5510422882603334
10.398952738990333,0.0185535266738268,1.6814464733261731,1.5628929466523465
10.40695193340494,0.012628197477821651,1.6873718025221782,1.5747436050443568
10.414951127819549,0.006702868281815183,1.6932971317181849,1.5865942634363697
10.422950322234156,0.0007775390858100195,1.69922246091419,1.59844492182838
10.430949516648765,0.06949516648765346,1.7,1.6694951664876534
10.438948711063372,0.2675214822771305,1.6675214822771305,1.9649570354457389
10.44694790547798,0.1938313976906551,1.5938313976906553,2.106168602309345
10.454947099892587,0.18133265641783178,1.5813326564178318,2.1186673435821683
10.462946294307196,0.16883391514500565,1.5688339151450057,2.1311660848549945
10.470945488721805,0.15633517387217952,1.5563351738721796,2.1436648261278206
10.478944683136412,0.1438364325993562,1.543836432599356,2.156163567400644
10.48694387755102,0.13133769132653006,1.53133769132653,2.16866230867347
10.494943071965627,0.11883895005370672,1.5188389500537067,2.1811610499462937
10.502942266380236,0.1063402087808806,1.5063402087808806,2.19365979121912
10.510941460794843,-0.6824382384528812,0.6587808807735595,2.0058539205157064
10.518940655209452,-2.3067189657817933,0.09888017236970109,1.697760344739402
10.52693984962406,-2.3638560687432846,0.08935732187611924,1.6787146437522384
10.534939044038667,-2.420993171704763,0.07983447138253949,1.659668942765079
10.542938238453276,-2.478130274666254,0.07031162088895765,1.6406232417779152
10.550937432867883,-2.5352673776277324,0.0607887703953779,1.6215775407907558
10.558936627282492,-2.5924044805892237,0.05126591990179604,1.6025318398035922
10.566935821697099,-2.649541583550702,0.0417430694082163,1.5834861388164325
10.574935016111707,-2.706678686512193,0.032220218914634446,1.564440437829269
10.582934210526314,-2.7638157894736715,0.0226973684210547,1.5453947368421095
10.590933404940923,-2.820952892435163,0.013174517927472845,1.5263490358549456
10.598932599355532,-2.878089995396654,0.00365166743389099,1.507303334867782
10.606931793770139,-2.635606874328722,-0.2,1.4
10.614930988184748,-2.1960592077862287,-0.2980296038931143,1.3
10.622930182599355,-2.1797343212258067,-0.2898671606129032,1.3
10.630929377013963,-2.1634094346653807,-0.28170471733269026,1.3
10.63892857142857,-2.1470845481049583,-0.27354227405247916,1.3
10.646927765843179,-2.130759661544533,-0.26537983077226623,1.3
10.654926960257788,-2.114434774984107,-0.2572173874920533,1.3
10.662926154672395,-2.0981098884236844,-0.2490549442118422,1.3
10.670925349087003,-2.0817850018632584,-0.24089250093162928,1.3
10.67892454350161,-2.0654601153028365,-0.2327300576514182,1.3
10.686923737916219,-2.0491352287424105,-0.22456761437120526,1.3
10.694922932330826,-2.032810342181988,-0.21640517109099414,1.3
10.702922126745435,-2.0164854556215626,-0.20824272781078124,1.3
10.710921321160042,-2.00016056906114,-0.2000802845305701,1.3
10.71892051557465,-1.477534495579609,0.011232752210195495,1.2
10.726919709989259,-1.4160022308518534,0.04199888457407334,1.2
10.734918904403866,-1.3544699661241113,0.07276501693794435,1.2
10.742918098818475,-1.2956281008644104,0.10145729971186325,1.2
10.750917293233082,-1.257536698890091,0.11415443370330308,1.2
10.75891648764769,-1.219445296915763,0.12685156769474573,1.2
10.766915682062297,-1.1813538949414433,0.13954870168618555,1.2
10.774914876476906,-1.1432624929671154,0.15224583567762823,1.2
10.782914070891515,-1.1051710909927874,0.16494296966907088,1.2
10.790913265306122,-1.067079689018468,0.1776401036605107,1.2
10.79891245972073,-1.02898828704414,0.19033723765195337,1.2
10.806911654135337,-0.7132518796994451,0.2955827067668516,1.2955827067668517
10.814910848549946,-0.3089151450053442,0.49108485499465576,1.2089151450053441
10.822910042964553,-0.2906940671005253,0.5093059328994747,1.1906940671005253
10.830909237379162,-0.2812832501421622,0.5187167498578378,1.1812832501421622
10.83890843179377,-0.2718724331837991,0.5281275668162009,1.171872433183799
10.846907626208377,-0.26246161622543807,0.5375383837745619,1.1624616162254382
10.854906820622986,-0.25305079926707497,0.546949200732925,1.153050799267075
10.862906015037593,-0.24363998230871398,0.5563600176912861,1.143639982308714
10.870905209452202,-0.23422916535035085,0.5657708346496492,1.134229165350351
10.878904403866809,-0.22481834839198983,0.5751816516080102,1.1248183483919898
10.886903598281418,-0.21540753143362673,0.5845924685663733,1.1154075314336267
10.894902792696024,-0.2059967144752657,0.5940032855247342,1.1059967144752658
10.902901987110633,0.18039742212656742,0.7901987110632838,0.9098012889367163
10.910901181525242,0.5901181525242267,0.9,0.6049409237378867
10.918900375939849,0.6138603086664021,0.9,0.6
10.926899570354458,0.6278939830779963,0.9,0.6
10.934898764769065,0.6419276574895874,0.9,0.6
10.942897959183673,0.6559613319011814,0.9,0.6
10.95089715359828,0.6699950063127725,0.9,0.6
10.958896348012889,0.6840286807243667,0.9,0.6
10.966895542427498,0.6980623551359608,0.9,0.6
10.974894736842105,0.7120960295475519,0.9,0.6
10.982893931256713,0.7261297039591461,0.9,0.6
10.99089312567132,0.7401633783707371,0.9,0.6
10.998892320085929,0.7541970527823313,0.9,0.6
11.006891514500536,0.7682307271939224,0.9,0.6
11.014890708915145,0.7822644016055165,0.9,0.6
11.022889903329752,0.7962980760171076,0.9,0.6
11.03088909774436,1.1555451127819665,0.3555451127819665,0.111090225563933
11.038888292158969,1.0919903579546872,0.2839807159093744,-0.03203856818125116
11.046887486573576,1.0826889691004933,0.2653779382009862,-0.06924412359802753
11.054886680988185,1.073387580246297,0.2467751604925939,-0.10644967901481217
11.062885875402792,1.064086191392103,0.22817238278420574,-0.14365523443158854
11.0708850698174,1.0547848025379067,0.2095696050758134,-0.18086078984837317
11.078884264232007,1.0454834136837126,0.19096682736742523,-0.21806634526514954
11.086883458646616,1.0361820248295164,0.17236404965903293,-0.25527190068193417
11.094882653061225,1.0268806359753204,0.1537612719506406,-0.29247745609871884
11.102881847475832,1.0175792471211262,0.13515849424225243,-0.3296830115154952
11.11088104189044,1.00827785826693,0.1165557165338601,-0.36688856693227984
11.118880236305047,0.9559881847476217,0.055988184747621746,-0.5320354457571348
11.126879430719656,0.6118085392051628,-0.2881914607948372,-1.2175886143931163
11.134878625134263,0.49182062298605606,-0.40817937701394397,-1.3775725026852585
11.142877819548872,0.3061090225564421,-0.6877819548871157,-1.8755639097742314
11.150877013963479,0.3,-0.7254097224628326,-1.9635243061570817
11.158876208378087,0.3,-0.7512135754131837,-2.028033938532959
11.166875402792696,0.3,-0.7770174283635346,-2.0925435709088367
11.174874597207303,0.3,-0.8028212813138799,-2.1570532032846996
11.182873791621912,0.3,-0.8286251342642309,-2.221562835660577
11.190872986036519,0.3,-0.8544289872145762,-2.28607246803644
11.198872180451128,0.3,-0.8802328401649271,-2.3505821004123177
11.206871374865734,0.48713748657337846,-0.9935687432866892,-2.7742749731467566
11.214870569280343,0.29441621110345073,-1.2,-3.5027918944482748
11.222869763694952,0.2705380188210367,-1.2,-3.5147309905894817
11.230868958109559,0.24665982653862795,-1.2,-3.526670086730686
11.238868152524168,0.2227816342562139,-1.2,-3.538609182871893
11.246867346938775,0.19890344197380516,-1.2,-3.5505482790130976
11.254866541353383,0.1750252496913911,-1.2,-3.5624873751543045
11.26286573576799,0.15114705740898238,-1.2,-3.5744264712955087
11.270864930182599,0.12726886512656835,-1.2,-3.586365567436716
11.278864124597208,0.10339067284415432,-1.2,-3.598304663577923
11.286863319011815,0.9658297529534615,-1.0,-3.606834049409308
11.294862513426423,1.2152500298364957,-1.0,-3.4771249552452566
11.30286170784103,1.2330260174245111,-1.0,-3.4504609738632332
11.310860902255639,1.2508020050125306,-1.0,-3.423796992481204
11.318860096670246,1.268577992600546,-1.0,-3.397133011099181
11.326859291084855,1.2863539801885655,-1.0,-3.370469029717152
11.334858485499462,1.304129967776581,-1.0,-3.3438050483351285
11.34285767991407,1.3219059553646004,-1.0,-3.3171410669530994
11.350856874328679,1.3396819429526197,-1.0,-3.2904770855710703
11.358856068743286,1.3574579305406351,-1.0,-3.2638131041890475
11.366855263157895,1.3752339181286546,-1.0,-3.237149122807018
11.374854457572502,1.39300990571667,-1.0,-3.210485141424995
11.38285365198711,1.4992511824674468,-0.8992511824674467,-2.6977535474023404
11.390852846401717,1.492234345261651,-0.8922343452616512,-2.676703035784954
11.398852040816326,1.485217508055854,-0.8852175080558542,-2.6556525241675626
11.406851235230935,1.478200670850057,-0.878200670850057,-2.6346020125501712
11.414850429645542,1.4711838336442615,-0.8711838336442616,-2.6135515009327848
11.42284962406015,1.4641669964384645,-0.8641669964384645,-2.5925009893153934
11.430848818474757,1.457150159232669,-0.8571501592326689,-2.571450477698007
11.438848012889366,1.4501333220268717,-0.8501333220268719,-2.5503999660806156
11.446847207303973,1.4431164848210762,-0.8431164848210764,-2.529349454463229
11.454846401718582,1.4360996476152792,-0.8360996476152793,-2.5082989428458378
11.462845596133189,1.4290828104094837,-0.8290828104094837,-2.4872484312284513
11.470844790547797,1.4220659732036867,-0.8220659732036867,-2.46619791961106
11.478843984962406,1.4150491359978896,-0.8150491359978896,-2.4451474079936686
11.486843179377013,1.408032298792094,-0.8080322987920942,-2.424096896376282
11.494842373791622,1.4010154615862969,-0.801015461586297,-2.4030463847588908
11.502841568206229,0.4877228786251379,-0.37544575725027585,-1.4631686358754137
11.510840762620838,0.4343949158610818,-0.26878983172216353,-1.3031847475832452
11.518839957035444,0.391125134264236,-0.191125134264236,-1.186687701396354
11.526839151450053,0.36612765171858375,-0.16612765171858376,-1.1491914775778755
11.534838345864662,0.34113016917293154,-0.14113016917293153,-1.1116952537593972
11.542837540279269,0.31613268662728483,-0.11613268662728483,-1.0741990299409272
11.550836734693878,0.2911352040816326,-0.0911352040816326,-1.0367028061224488
11.558835929108485,0.2661377215359859,-0.0661377215359859,-0.9992065823039789
11.566835123523093,0.24114023899033368,-0.04114023899033367,-0.9617103584855005
11.5748343179377,0.216142756444687,-0.01614275644468699,-0.9242141346670305
11.582833512352309,0.39167561761544145,0.3833512352308829,-0.2332975295382343
11.590832706766916,0.3516729323308438,0.9048327067669156,0.5096654135338312
11.598831901181525,0.2716809881847563,0.9128319011815244,0.5256638023630488
11.606831095596133,0.19168904403866874,0.9208310955961332,0.5416621911922662
11.61483029001074,0.11169709989259902,0.9288302900107401,0.5576605800214802
11.622829484425349,0.03170515574651145,0.9368294844253489,0.5736589688506977
11.630828678839956,-0.0482867883995583,0.9448286788399558,0.5896573576799117
11.638827873254565,-0.1282787325456458,0.9528278732545646,0.6056557465091291
11.646827067669172,-0.2082706766917155,0.9608270676691716,0.6216541353383431
11.65482626208378,-0.2882626208378031,0.9688262620837803,0.6376525241675606
11.662825456498389,-0.36825456498389064,0.976825456498389,0.653650912996778
11.670824650912996,-0.44824650912996034,0.9848246509129961,0.669649301825992
11.678823845327605,-0.5282384532760479,0.9928238453276048,0.6856476906552096
11.686823039742212,-0.8469119226635192,0.9725653419262756,0.8371732903686218
11.69482223415682,-0.6906659505907684,1.6364446831364106,2.5093340494092318
11.702821428571427,-0.48236062717770595,1.6941202090592353,2.7117595818815294
11.710820622986036,-0.45309528175840535,1.6843650939194685,2.731269812161063
11.718819817400643,-0.4238299363391113,1.6746099787797037,2.7507800424405926
11.726819011815252,-0.3945645909198107,1.664854863639937,2.770290272720126
11.73481820622986,-0.36529924550051013,1.6550997485001702,2.7898005029996598
11.742817400644467,-0.33603390008121603,1.6453446333604054,2.8093107332791893
11.750816595059076,-0.3067685546619155,1.6355895182206386,2.828820963558723
11.758815789473683,-0.2775032092426214,1.6258344030808738,2.8483311938382525
11.766814983888292,-0.2482378638233208,1.616079287941107,2.867841424117786
11.774814178302899,-0.21897251840402676,1.6063241728013424,2.8873516543973152
11.782813372717508,0.7660177228782423,1.6406686358753604,2.9186627282492794
11.790812567132116,2.4062501100526483,1.7968749449736758,2.1937498899473518
11.798811761546723,2.419363543519217,1.7903182282403916,2.180636456480783
11.806810955961332,2.4324769769857886,1.7837615115071057,2.1675230230142115
11.814810150375939,2.4455904104523576,1.7772047947738212,2.1544095895476425
11.822809344790548,2.4587038439189293,1.7706480780405354,2.141296156081071
11.830808539205155,2.471817277385498,1.764091361307251,2.1281827226145023
11.838807733619763,2.4849307108520695,1.7575346445739652,2.1150692891479306
11.846806928034372,2.498044144318641,1.7509779278406794,2.101955855681359
11.854806122448979,2.51115757778521,1.744421211107395,2.08884242221479
11.862805316863588,2.524271011251782,1.737864494374109,2.075728988748218
11.870804511278195,2.5373844447183505,1.7313077776408248,2.0626155552816496
11.878803705692803,2.550497878184922,1.724751060907539,2.049502121815078
11.88680290010741,2.563611311651491,1.7181943441742544,2.036388688348509
11.894802094522019,2.576724745118063,1.7116376274409686,2.0232752548819373
11.902801288936626,2.5898381785846314,1.7050809107076843,2.0101618214153687
11.910800483351235,2.6,1.6399838882921862,1.9399838882921863
11.918799677765843,2.0920193340493847,1.1460096670246922,1.682003222341564
11.92679887218045,1.6120676691729574,0.9060338345864787,1.602011278195493
11.934798066595059,0.9433494450411812,0.5757211907319348,1.3757211907319347
11.942797261009666,0.8766894915861231,0.5471526392511956,1.3471526392511957
11.950796455424275,0.81002953813105,0.5185840877704501,1.31858408777045
11.958795649838882,0.743369584675992,0.4900155362897108,1.2900155362897108
11.96679484425349,0.6767096312209189,0.46144698480896523,1.2614469848089653
11.974794038668099,0.610049677765846,0.4328784333282196,1.2328784333282197
11.982793233082706,0.5433897243107878,0.40430988184748046,1.2043098818474804
11.990792427497315,0.4767297708557148,0.37574133036673485,1.175741330366735
11.998791621911922,0.4100698174006566,0.3471727788859957,1.1471727788859958
12.00679081632653,0.3434098639455836,0.3186042274052501,1.1186042274052501
12.014790010741137,-0.5765037593982243,-0.07900107411377837,0.6209989258862216
12.022789205155746,-1.69671858216971,-0.40328141783029003,0.09671858216971
12.030788399570353,-1.6873077652113488,-0.4126922347886511,0.08730776521134896
12.038787593984962,-1.6778969482529857,-0.4221030517470142,0.07789694825298585
12.04678678839957,-1.6684861312946226,-0.4315138687053773,0.06848613129462275
12.054785982814177,-1.6590753143362618,-0.44092468566373827,0.059075314336261724
12.062785177228786,-1.6496644973778987,-0.4503355026221014,0.04966449737789862
12.070784371643393,-1.6402536804195376,-0.4597463195804624,0.04025368041953759
12.078783566058002,-1.6308428634611745,-0.4691571365388255,0.030842863461174486
12.086782760472609,-1.6214320465028136,-0.4785679534971865,0.021432046502813468
12.094781954887218,-1.6120212295444505,-0.48797877045554966,0.012021229544450354
12.102781149301826,-1.6026104125860874,-0.49738958741391276,0.0026104125860872407
12.110780343716433,-1.4,-0.5,0.0
12.118779538131042,-1.3930821039479164,-0.4930821039479166,0.0
12.126778732545649,-1.3849196606677054,-0.4849196606677055,0.0
12.134777926960258,-1.3767572173874925,-0.47675721738749255,0.0
12.142777121374865,-1.3685947741072815,-0.46859477410728145,0.0
12.150776315789473,-1.3604323308270685,-0.4604323308270685,0.0
12.15877551020408,-1.3522698875468573,-0.45226988754685743,0.0
12.166774704618689,-1.3441074442666445,-0.4441074442666445,0.0
12.174773899033298,-1.3359450009864315,-0.4359450009864316,0.0
12.182773093447905,-1.3277825577062206,-0.4277825577062205,0.0
12.190772287862513,-1.3196201144260076,-0.41962011442600755,0.0
12.19877148227712,-1.3114576711457964,-0.41145767114579646,0.0
12.206770676691729,-1.3032952278655836,-0.4032952278655835,0.0
12.214769871106336,-1.1076709631221304,-0.30767096312213027,0.0
12.222769065520945,-0.6801288936627302,0.006623702112423261,0.006623702112423261
12.230768259935553,-0.6467989169351934,0.017733694354935506,0.017733694354935506
12.23876745435016,-0.6134689402076642,0.02884368659744528,0.02884368659744528
12.246766648764769,-0.5801389634801274,0.03995367883995753,0.03995367883995753
12.254765843179376,-0.546808986752598,0.0510636710824673,0.0510636710824673
12.262765037593985,-0.5134790100250614,0.06217366332497954,0.06217366332497954
12.270764232008592,-0.48014903329753206,0.07328365556748932,0.07328365556748932
12.2787634264232,-0.4468190565699953,0.08439364781000157,0.08439364781000157
12.28676262083781,-0.41348907984245864,0.09550364005251381,0.09550364005251381
12.294761815252416,-0.32674130380897987,0.1,0.1
12.302761009667025,-0.20367677435347692,0.1,0.1
12.310760204081632,0.500883958234455,0.3991160417655451,0.09911604176554507
12.31875939849624,0.510185347088651,0.3898146529113489,0.08981465291134891
12.326758592910847,0.5194867359428452,0.38051326405715485,0.08051326405715482
12.334757787325456,0.5287881247970413,0.3712118752029587,0.07121187520295866
12.342756981740063,0.5380895136512354,0.36191048634876455,0.06191048634876457
12.350756176154672,0.5473909025054315,0.3526090974945684,0.052609097494568414
12.35875537056928,0.5566922913596277,0.34330770864037224,0.043307708640372256
12.366754564983887,0.5659936802138218,0.3340063197861782,0.03400631978617816
12.374753759398496,0.575295069068018,0.324704930931982,0.024704930931982005
12.382752953813103,0.584596457922212,0.3154035420777879,0.015403542077787907
12.390752148227712,0.5938978467764082,0.30610215322359174,0.006102153223591755
12.398751342642319,0.2497314715362241,0.2,-0.13756713211594399
12.406750537056928,-0.5106491426980143,0.19467542865099288,-0.20532457134900714
12.414749731471536,-0.5254624656880303,0.18726876715598484,-0.21273123284401518
12.422748925886143,-0.5402757886780432,0.17986210566097843,-0.2201378943390216
12.430748120300752,-0.5550891116680592,0.1724554441659704,-0.2275445558340296
12.438747314715359,-0.569902434658072,0.165048782670964,-0.234951217329036
12.446746509129968,-0.5847157576480881,0.15764212117595594,-0.24235787882404405
12.454745703544575,-0.5995290806381008,0.15023545968094956,-0.24976454031905043
12.462744897959183,-0.614342403628117,0.14282879818594152,-0.2571712018140585
12.47074409237379,-0.6291557266181298,0.1354221366909351,-0.26457786330906485
12.478743286788399,-0.6439690496081458,0.1280154751959271,-0.2719845248040729
12.486742481203008,-0.6587823725981619,0.12060881370091904,-0.27939118629908094
12.494741675617615,-0.6735956955881747,0.11320215220591265,-0.28679784779408735
12.502740870032223,-0.6884090185781908,0.1057954907109046,-0.29420450928909536
12.51074006444683,-0.7870032223415456,0.012996777658454403,-0.3
12.518739258861439,-0.1984598773720035,0.0007700613139982597,-0.29922993868600173
12.526738453276046,-0.18179488900823904,0.00910255549588049,-0.29089744450411953
12.534737647690655,-0.16512990064447086,0.01743504967776457,-0.28256495032223544
12.542736842105263,-0.14846491228070272,0.02576754385964865,-0.27423245614035135
12.55073603651987,-0.13179992391693823,0.03410003804153088,-0.2658999619584691
12.558735230934479,-0.11513493555317009,0.04243253222341496,-0.25756746777658507
12.566734425349086,-0.09846994718940563,0.05076502640529719,-0.2492349735947028
12.574733619763695,-0.08180495882563747,0.05909752058718127,-0.24090247941281873
12.582732814178302,-0.065139970461873,0.0674300147690635,-0.23256998523093653
12.59073200859291,-0.04847498209810486,0.07576250895094758,-0.22423749104905244
12.598731203007517,-0.031809993734340375,0.08409500313282982,-0.2159049968671702
12.606730397422126,-0.015145005370572229,0.09242749731471389,-0.20757250268528615
12.614729591836735,0.10943877551016738,0.1,-0.2
12.622728786251342,0.8978116629729856,-0.1,0.0
12.63072798066595,0.8876861004228479,-0.1,0.0
12.638727175080557,0.8775605378727124,-0.1,0.0
12.646726369495166,0.8674349753225746,-0.1,0.0
12.654725563909773,0.8573094127724391,-0.1,0.0
12.662724758324382,0.8471838502223014,-0.1,0.0
12.67072395273899,0.8370582876721635,-0.1,0.0
12.678723147153597,0.826932725122028,-0.1,0.0
12.686722341568206,0.8168071625718902,-0.1,0.0
12.694721535982813,0.8066816000217547,-0.1,0.0
12.702720730397422,0.7455853920515565,-0.15441460794844347,0.05441460794844348
12.710719924812029,0.5,-0.4,0.2
12.718719119226638,0.5,-0.4,0.2
12.726718313641245,0.5,-0.4,0.2
12.734717508055853,0.5,-0.4,0.2
12.742716702470462,0.5,-0.4,0.2
12.750715896885069,0.5,-0.4,0.2
12.758715091299678,0.5,-0.4,0.2
12.766714285714285,0.5,-0.4,0.2
12.774713480128893,0.5,-0.4,0.2
12.7827126745435,0.5,-0.4,0.2
12.790711868958109,0.5,-0.4,0.2
12.798711063372718,0.5,-0.4,0.2
12.806710257787325,0.5,-0.2,0.3
12.814709452201933,0.9052327246688143,-0.0947672753311857,0.3
12.82270864661654,0.9141207184628221,-0.08587928153717797,0.3
12.830707841031149,0.9230087122568318,-0.07699128774316827,0.3
12.838707035445756,0.9318967060508395,-0.06810329394916054,0.3
12.846706229860365,0.9407846998448492,-0.05921530015515082,0.3
12.854705424274973,0.9496726936388589,-0.05032730636114112,0.3
12.86270461868958,0.9585606874328666,-0.04143931256713338,0.3
12.870703813104189,0.9674486812268763,-0.03255131877312367,0.3
12.878703007518796,0.9763366750208841,-0.02366332497911594,0.3
12.886702201933405,0.9852246688148938,-0.014775331185106239,0.3
12.894701396348012,0.9941126626089015,-0.005887337391098507,0.3
12.90270059076262,0.7859881847475785,0.014011815252421596,0.08598818474757841
12.910699785177227,0.26004296455447423,0.015010741138618555,-0.3699785177227629
12.918698979591836,0.1603145381864095,-0.007937092362718098,-0.41587418472543625
12.926698174006445,0.11908157728636434,-0.01618368454272713,-0.43236736908545426
12.934697368421052,0.07784861638632834,-0.024430276722734335,-0.44886055344546866
12.94269656283566,0.03661565548628318,-0.03267686890274337,-0.4653537378054867
12.950695757250267,-0.0046173054137528535,-0.04092346108275057,-0.4818469221655011
12.958694951664876,-0.045850266313798016,-0.049170053262759604,-0.4983401065255192
12.966694146079483,-0.08708322721383405,-0.057416645442766805,-0.5148332908855336
12.974693340494092,-0.12831618811387918,-0.06566323762277584,-0.5313264752455517
12.9826925349087,-0.16954914901392437,-0.07390982980278488,-0.5478196596055698
12.990691729323308,-0.21078210991396035,-0.08215642198279208,-0.5643128439655841
12.998690923737916,-0.25201507081400554,-0.09040301416280111,-0.5808060283256022
13.006690118152523,-0.29324803171404157,-0.09864960634280831,-0.5972992126856166
13.014689312567132,-0.6711164070891446,0.03555820354457226,-0.7
13.022688506981739,-0.7711063372717313,0.08555316863586564,-0.7
13.030687701396348,-0.8078074650912952,0.13073084496956827,-0.8
13.038686895810955,-0.6078276047261291,0.19739079842462365,-0.8
13.046686090225563,-0.5495994083569603,0.21260014791075993,-0.7873998520892401
13.054685284640172,-0.49714567449067354,0.2257135813773316,-0.7742864186226684
13.062684479054779,-0.44469194062439843,0.2388270148439004,-0.7611729851560997
13.070683673469388,-0.39223820675811166,0.2519404483104721,-0.7480595516895279
13.078682867883995,-0.33978447289183655,0.26505388177704087,-0.7349461182229591
13.086682062298603,-0.2873307390255498,0.27816731524361255,-0.7218326847563874
13.09468125671321,-0.23487700515927468,0.29128074871018134,-0.7087192512898186
13.102680451127819,0.4721804511276192,0.3680451127819048,-0.4639097744361904
13.110679645542428,1.301941844406938,0.3990290777965311,-0.19902907779653106
13.118678839957035,1.3247966855915292,0.38760165720423545,-0.18760165720423547
13.126678034371643,1.3476515267761253,0.37617423661193733,-0.17617423661193732
13.13467722878625,1.3705063679607166,0.36474681601964176,-0.16474681601964175
13.142676423200859,1.393361209145313,0.3533193954273436,-0.1533193954273436
13.150675617615466,1.416216050329904,0.341891974835048,-0.141891974835048
13.158674812030075,1.4390708915145003,0.3304645542427499,-0.13046455424274989
13.166674006444682,1.4619257326990915,0.3190371336504543,-0.11903713365045429
13.17467320085929,1.4847805738836877,0.30760971305815615,-0.10760971305815616
13.1826723952739,1.1327604726100609,0.21638023630503037,0.0
13.190671589688506,0.3790040912876131,0.09475102282190327,0.0
13.198670784103115,0.3430526557163381,0.08576316392908452,0.0
13.206669978517722,0.3071012201450711,0.07677530503626777,0.0
13.21466917293233,0.27114978457379607,0.06778744614344902,0.0
13.222668367346937,0.23519834900252906,0.058799587250632265,0.0
13.230667561761546,0.19924691343125409,0.04981172835781352,0.0
13.238666756176155,0.16329547785997908,0.04082386946499477,0.0
13.246665950590762,0.12734404228871204,0.03183601057217801,0.0
13.25466514500537,0.0913926067174371,0.022848151679359274,0.0
13.262664339419977,0.05544117114617009,0.013860292786542522,0.0
13.270663533834586,0.019489735574895084,0.004872433893723771,0.0
13.278662728249193,-0.3,-0.1,0.0
13.286661922663802,-0.3,-0.1,0.0
13.294661117078409,-0.3,-0.1,0.0
13.302660311493018,-0.3,-0.1,0.0
13.310659505907626,-0.3,-0.1,0.0
13.318658700322233,-0.3,-0.1,0.0
13.326657894736842,-0.3,-0.1,0.0
13.334657089151449,-0.3,-0.1,0.0
13.342656283566058,-0.3,-0.1,0.0
13.350655477980665,-0.3,-0.1,0.0
13.358654672395273,-0.3,-0.1,0.0
13.366653866809882,-0.3,-0.1,0.0
13.374653061224489,-0.3,-0.1,0.0
13.382652255639098,-0.3,-0.1,0.0
13.390651450053705,-0.3,-0.1,0.0
13.398650644468313,-0.3,-0.1,0.0
13.40664983888292,-0.3,-0.1,0.0
13.414649033297529,-0.217548335123517,-0.1,0.0
13.422648227712138,-0.1,-0.1,0.1
13.430647422126745,-0.1,-0.1,0.1
13.438646616541353,-0.1,-0.1,0.1
13.44664581095596,-0.1,-0.1,0.1
13.454645005370569,-0.1,-0.1,0.1
13.462644199785176,-0.1,-0.1,0.1
13.470643394199785,-0.1,-0.1,0.1
13.478642588614392,-0.1,-0.1,0.1
13.486641783029,-0.1,-0.1,0.1
13.49464097744361,-0.1,-0.1,0.1
13.502640171858216,-0.1,-0.1,0.1
13.510639366272825,-0.006010562119575402,-0.1,0.1
13.518638560687432,-0.2,0.0,0.2
13.52663775510204,-0.2,0.0,0.2
13.534636949516647,-0.2,0.0,0.2
13.542636143931256,-0.2,0.0,0.2
13.550635338345865,-0.2,0.0,0.2
13.558634532760472,-0.2,0.0,0.2
13.56663372717508,-0.2,0.0,0.2
13.574632921589687,-0.2,0.0,0.2
13.582632116004296,-0.2,0.0,0.2
13.590631310418903,-0.2,0.0,0.2
13.598630504833512,-0.2,0.0,0.2
13.606629699248119,-0.2,0.0,0.1185150375940349
13.614628893662728,-0.1,0.0,0.1
13.622628088077336,-0.1,0.0,0.1
13.630627282491943,-0.1,0.0,0.1
13.638626476906552,-0.1,0.0,0.1
13.646625671321159,-0.1,0.0,0.1
13.654624865735768,-0.1,0.0,0.1
13.662624060150375,-0.1,0.0,0.1
13.670623254564983,-0.1,0.0,0.1
13.678622448979592,-0.1,0.0,0.1
13.686621643394199,-0.1,0.0,0.1
13.694620837808808,-0.1,0.0,0.1
13.702620032223415,-0.1,0.0,0.03799677765849882
13.710619226638023,-0.1,0.0,0.0
13.71861842105263,-0.1,0.0,0.0
13.726617615467239,-0.1,0.0,0.0
13.734616809881846,-0.1,0.0,0.0
13.742616004296455,-0.1,0.0,0.0
13.750615198711063,-0.1,0.0,0.0
13.75861439312567,-0.1,0.0,0.0
13.766613587540279,-0.1,0.0,0.0
13.774612781954886,-0.1,0.0,0.0
13.782611976369495,-0.1,0.0,0.0
13.790611170784102,-0.1,0.0,0.0
13.79861036519871,-0.1,0.0,0.0
13.80660955961332,-0.1,0.0,0.0
13.814608754027926,-0.1,0.0,-0.03726791468465954
13.822607948442535,-0.06392051557465941,0.0,-0.1
13.830607142857142,0.0,0.0,-0.1
13.83860633727175,0.0,0.0,-0.1
13.846605531686357,0.0,0.0,-0.1
13.854604726100966,0.0,0.0,-0.1
13.862603920515575,0.0,0.0,-0.1
13.870603114930182,0.0,0.0,-0.1
13.87860230934479,0.0,0.0,-0.1
13.886601503759398,0.0,0.0,-0.1
13.894600698174006,0.0,0.0,-0.1
13.902599892588613,0.0,0.0,-0.1
13.910599087003222,-0.17995435016110434,0.0,0.0
13.918598281417829,-0.2,0.0,0.0
13.926597475832438,-0.2,0.0,0.0
13.934596670247046,-0.2,0.0,0.0
13.942595864661653,-0.2,0.0,0.0
13.950595059076262,-0.2,0.0,0.0
13.958594253490869,-0.2,0.0,0.0
13.966593447905478,-0.2,0.0,0.0
13.974592642320085,-0.2,0.0,0.0
13.982591836734693,-0.2,0.0,0.0
13.990591031149302,-0.2,0.0,0.0
13.998590225563909,-0.2,0.0,0.0
14.006589419978518,-0.2,0.0,0.0
14.014588614393125,0.0,-0.1,0.0
14.022587808807733,0.0,-0.1,0.0
14.03058700322234,0.0,-0.1,0.0
14.038586197636949,0.0,-0.1,0.0
14.046585392051556,0.0,-0.1,0.0
14.054584586466165,0.0,-0.1,0.0
14.062583780880773,0.0,-0.1,0.0
14.07058297529538,0.0,-0.1,0.0
14.078582169709989,0.0,-0.1,0.0
14.086581364124596,0.0,-0.1,0.0
14.094580558539205,0.0,-0.1,0.0
14.102579752953812,0.0,-0.1,0.0
14.11057894736842,0.0,-0.1,0.0
14.11857814178303,0.0,-0.09210610230934531,0.0
14.126577336197636,0.0,-0.08377360812746308,0.0
14.134576530612245,0.0,-0.07544111394557901,0.0
14.142575725026852,0.0,-0.06710861976369677,0.0
14.15057491944146,0.0,-0.05877612558181269,0.0
14.158574113856067,0.0,-0.05044363139993046,0.0
14.166573308270676,0.0,-0.04211113721804638,0.0
14.174572502685283,0.0,-0.03377864303616415,0.0
14.182571697099892,0.0,-0.025446148854280065,0.0
14.1905708915145,0.0,-0.017113654672395992,0.0
14.198570085929108,0.0,-0.00878116049051375,0.0
14.206569280343716,0.0,-0.0004486663086296777,0.0
14.214568474758323,0.0,0.0,0.0
14.222567669172932,0.0,0.0,0.0
14.230566863587539,0.10071754884498538,0.1,0.0
14.238566058002148,0.11084311139512315,0.1,0.0
14.246565252416756,0.12096867394526092,0.1,0.0
14.254564446831363,0.13109423649539645,0.1,0.0
14.262563641245972,0.14121979904553422,0.1,0.0
14.270562835660579,0.15134536159566975,0.1,0.0
14.278562030075188,0.16147092414580752,0.1,0.0
14.286561224489795,0.17159648669594305,0.1,0.0
14.294560418904403,0.18172204924608082,0.1,0.0
14.30255961331901,0.19184761179621634,0.1,0.0
14.310558807733619,0.2779403866809598,0.17794038668095977,0.0
14.318558002148228,0.8056844492182823,0.40284222460914115,0.0
14.326557196562835,0.8234604368062978,0.4117302184031489,0.0
14.334556390977443,0.8412364243943171,0.42061821219715856,0.0
14.34255558539205,0.8590124119823326,0.4295062059911663,0.0
14.350554779806659,0.876788399570352,0.438394199785176,0.0
14.358553974221266,0.8945643871583675,0.44728219357918375,0.0
14.366553168635875,0.9123403747463869,0.4561701873731934,0.0
14.374552363050483,0.9301163623344063,0.46505818116720316,0.0
14.38255155746509,0.9478923499224218,0.4739461749612109,0.0
14.3905507518797,0.9656683375104411,0.48283416875522056,0.0
14.398549946294306,0.9834443250984566,0.4917221625492283,0.0
14.406549140708915,1.0549140708914513,0.5,0.0
14.414548335123522,1.2,0.6,-0.09939073875164219
14.42254752953813,1.2,0.6,-0.09050274495763248
14.43054672395274,1.2,0.6,-0.08161475116362277
14.438545918367346,1.2,0.6,-0.07272675736961504
14.446545112781955,1.2,0.6,-0.06383876357560533
14.454544307196562,1.2,0.6,-0.054950769781597596
14.46254350161117,1.2,0.6,-0.04606277598758789
14.470542696025777,1.2,0.6,-0.037174782193580155
14.478541890440386,1.2,0.6,-0.028286788399570453
14.486541084854993,1.2,0.6,-0.019398794605562708
14.494540279269602,1.2,0.6,-0.010510800811553006
14.50253947368421,1.2,0.6,-0.001622807017543304
14.510538668098818,1.3,0.49950580908365344,0.0
14.518537862513426,1.3,0.49216709861153535,0.0
14.526537056928033,1.3,0.48482838813941886,0.0
14.534536251342642,1.3,0.47748967766730077,0.0
14.542535445757249,1.3,0.47015096719518434,0.0
14.550534640171858,1.3,0.46281225672306625,0.0
14.558533834586466,1.3,0.45547354625094816,0.0
14.566533029001073,1.3,0.4481348357788317,0.0
14.574532223415682,1.3,0.4407961253067136,0.0
14.582531417830289,1.3,0.4334574148345971,0.0
14.590530612244898,1.3,0.426118704362479,0.0
14.598529806659505,1.3,0.4187799938903626,0.0
14.606529001074113,1.3,0.4114412834182445,0.0
14.61452819548872,1.3,0.404102572946128,0.0
14.622527389903329,1.2608067788518988,0.4,0.0
14.630526584317938,1.1047871301630636,0.3952128698369365,0.0
14.638525778732545,1.1775070793867681,0.32249292061323187,0.0
14.646524973147153,1.4,0.28607700570106503,0.0
14.65452416756176,1.4,0.2614640998099672,0.0
14.662523361976369,1.4,0.23685119391886394,0.0
14.670522556390976,1.4,0.21223828802776615,0.0
14.678521750805585,1.4,0.18762538213666285,0.0
14.686520945220193,1.4,0.1630124762455596,0.0
14.6945201396348,1.4,0.13839957035446177,0.0
14.70251933404941,1.4,0.1137866644633585,0.0
14.710518528464016,1.3240735767992027,-0.07592642320079741,-0.07592642320079741
14.718517722878625,1.1,-0.2,-0.302616763583835
14.726516917293232,1.1,-0.2,-0.316408478091778
14.73451611170784,1.1,-0.2,-0.33020019259972416
14.742515306122447,1.1,-0.2,-0.3439919071076672
14.750514500537056,1.1,-0.2,-0.35778362161561333
14.758513694951665,1.1,-0.2,-0.3715753361235594
14.766512889366272,1.1,-0.2,-0.3853670506315025
14.77451208378088,1.1,-0.2,-0.3991587651394486
14.782511278195487,0.6,-0.19837496968227214,-0.7016250303177278
14.790510472610096,0.6,-0.18977368536548858,-0.7102263146345114
14.798509667024703,0.6,-0.1811724010487069,-0.7188275989512931
14.806508861439312,0.6,-0.17257111673192332,-0.7274288832680766
14.81450805585392,0.6,-0.16396983241513974,-0.7360301675848603
14.822507250268528,0.6,-0.1553685480983581,-0.7446314519016419
14.830506444683136,0.6,-0.1467672637815745,-0.7532327362184255
14.838505639097743,0.6,-0.13816597946479284,-0.7618340205352072
14.846504833512352,0.6,-0.12956469514800928,-0.7704353048519907
14.854504027926959,0.6,-0.12096341083122761,-0.7790365891687724
14.862503222341568,0.6,-0.11236212651444402,-0.787637873485556
14.870502416756176,0.6,-0.10376084219766045,-0.7962391578023396
14.878501611170783,1.300955449849111,-0.1,-1.0004777249245553
14.886500805585392,1.3161920106388416,-0.1,-1.0080960053194208
14.894499999999999,1.3314285714285692,-0.1,-1.0157142857142845
14.902499194414608,1.3466651322183,-0.1,-1.02333256610915
14.910498388829215,1.3619016930080274,-0.1,-1.0309508465040138
14.918497583243823,1.3771382537977583,-0.1,-1.0385691268988793
14.92649677765843,1.3923748145874857,-0.1,-1.046187407293743
14.934495972073039,1.4076113753772166,-0.1,-1.0538056876886084
14.942495166487648,1.4228479361669475,-0.1,-1.0614239680834738
14.950494360902255,1.4380844969566748,-0.1,-1.0690422484783375
14.958493555316863,1.4533210577464057,-0.1,-1.076660528873203
14.96649274973147,1.468557618536133,-0.1,-1.0842788092680666
14.974491944146079,1.483794179325864,-0.1,-1.091897089662932
14.982491138560686,1.4990307401155913,-0.1,-1.0995153700577958
14.990490332975295,1.7,-0.2,-1.3610036997255013
14.998489527389903,1.7,-0.2,-1.4498836376655948
15.00648872180451,1.8,-0.2020393449376845,-1.7020393449376845
15.01448791621912,1.8,-0.21299714550564186,-1.7129971455056419
15.022487110633726,1.8,-0.22395494607359678,-1.7239549460735968
15.030486305048335,1.8,-0.23491274664155415,-1.7349127466415541
15.038485499462942,1.8,-0.24587054720950907,-1.745870547209509
15.04648469387755,1.8,-0.25682834777746644,-1.7568283477774664
15.054483888292157,1.8,-0.26778614834542136,-1.7677861483454214
15.062483082706766,1.8,-0.2787439489133787,-1.7787439489133787
15.070482277121375,1.8,-0.2897017494813361,-1.789701749481336
15.078481471535982,1.8,-0.3,-1.8240735767991139
15.08648066595059,-0.14419978517732124,-0.16077336197635717,-2.5088399570354643
15.094479860365198,-0.5718266940643553,-0.08591334703217765,-2.6140866529678224
15.102479054779806,-0.5370475879138827,-0.06852379395694139,-2.6314762060430588
15.110478249194413,-0.502268481763418,-0.051134240881708995,-2.648865759118291
15.118477443609022,-0.46748937561294546,-0.03374468780647273,-2.666255312193527
15.12647663802363,-0.43271026946247293,-0.01635513473123648,-2.6836448652687634
15.134475832438238,-0.3979311633120082,0.0010344183439959242,-2.701034418343996
15.142475026852846,-0.36315205716153565,0.018423971419232174,-2.718423971419232
15.150474221267453,-0.3283729510110709,0.035813524494464566,-2.7358135244944646
15.158473415682062,-0.29359384486059836,0.05320307756970083,-2.7532030775697005
