accel_time_list,accel_x_list,accel_y_list,accel_z_list
0.0,-0.8,1.0,10.5
0.007999038461538462,-0.950432692307692,0.4499519230769231,9.900096153846155
0.015998076923076924,-0.4160662774725275,0.3696205357142857,9.732132554945053
0.023997115384615388,-0.43749227335164836,0.4624665178571429,9.774984546703296
0.03199615384615385,-0.4589182692307692,0.5553125,9.817836538461538
0.03999519230769231,-0.4803442651098901,0.6481584821428572,9.86068853021978
0.047994230769230775,-0.501770260989011,0.7410044642857143,9.903540521978021
0.055993269230769235,-0.5231962568681319,0.8338504464285714,9.946392513736264
0.0639923076923077,-0.5446222527472527,0.9266964285714285,9.989244505494506
0.07199134615384616,-0.5660482486263736,1.0195424107142856,10.032096497252747
0.07999038461538462,-0.5874742445054945,1.112388392857143,10.074948489010989
0.08798942307692308,-0.6089002403846153,1.205234375,10.117800480769231
0.09598846153846155,-0.6303262362637363,1.2980803571428574,10.160652472527474
0.10398750000000001,-0.6517522321428572,1.3909263392857145,10.203504464285714
0.11198653846153847,-0.673178228021978,1.4837723214285716,10.246356456043957
0.11998557692307693,-0.6946042239010989,1.5766183035714287,10.2892084478022
0.1279846153846154,0.09104895104895101,0.887070707070707,9.797016317016318
0.13598365384615385,0.01833041958041956,0.7820328282828283,9.772776806526807
0.1439826923076923,-0.05438811188811188,0.6769949494949494,9.748537296037297
0.15198173076923077,-0.12710664335664335,0.5719570707070707,9.724297785547787
0.15998076923076923,-0.19982517482517478,0.46691919191919196,9.700058275058275
0.1679798076923077,-0.2725437062937063,0.3618813131313132,9.675818764568765
0.17597884615384615,-0.34526223776223763,0.2568434343434344,9.651579254079255
0.1839778846153846,-0.4179807692307692,0.15180555555555564,9.627339743589744
0.1919769230769231,-0.4906993006993009,0.04676767676767646,9.603100233100234
0.19997596153846156,-0.5634178321678323,-0.05827020202020228,9.578860722610722
0.20797500000000002,-0.6361363636363637,-0.163308080808081,9.554621212121212
0.21597403846153848,-0.7088548951048952,-0.26834595959595975,9.530381701631702
0.22397307692307694,-0.7815734265734267,-0.3733838383838387,9.50614219114219
0.2319721153846154,-0.702788461538461,0.6013942307692305,9.698605769230769
0.23997115384615386,-0.9668269230769231,0.6132692307692308,9.8
0.24797019230769232,-0.9223878205128205,0.6310448717948718,9.8
0.2559692307692308,-0.877948717948718,0.6488205128205128,9.8
0.26396826923076927,-0.8335096153846152,0.6665961538461539,9.8
0.2719673076923077,-0.7890705128205129,0.6843717948717949,9.8
0.2799663461538462,-0.7446314102564101,0.702147435897436,9.8
0.2879653846153846,-0.7001923076923078,0.7199230769230769,9.8
0.2959644230769231,-0.655753205128205,0.737698717948718,9.8
0.30396346153846154,-0.6113141025641027,0.755474358974359,9.8
0.31196250000000003,-0.5668749999999999,0.7732500000000001,9.8
0.31996153846153846,-0.5224358974358976,0.7910256410256411,9.8
0.32796057692307695,-0.7078846153846123,0.8401442307692346,9.5
0.3359596153846154,-0.6070710059171595,0.8858579881656812,9.33939349112426
0.3439586538461539,-0.7094392956441149,0.7047196478220574,9.204719647822056
0.3519576923076923,-0.747988878591288,0.723994439295644,9.223994439295643
0.3599567307692308,-0.7865384615384615,0.7432692307692308,9.243269230769231
0.3679557692307692,-0.8250880444856348,0.7625440222428174,9.262544022242817
0.3759548076923077,-0.8636376274328083,0.781818813716404,9.281818813716404
0.3839538461538462,-0.9021872103799817,0.8010936051899908,9.30109360518999
0.39195288461538463,-0.9407367933271549,0.8203683966635774,9.320368396663577
0.3999519230769231,-0.9792863762743284,0.8396431881371642,9.339643188137163
0.40795096153846155,-1.0178359592215016,0.8589179796107508,9.358917979610752
0.41595000000000004,-1.056385542168675,0.8781927710843375,9.378192771084338
0.4239490384615385,-1.0949351251158483,0.897467562557924,9.397467562557924
0.43194807692307696,-0.31008592471358476,4.068733633387887,8.478819558101472
0.4399471153846154,-0.39518207855973825,3.804935556464811,8.30011763502455
0.4479461538461539,-0.48027823240589235,3.5411374795417334,8.121415711947627
0.4559451923076923,-0.565374386252046,3.2773394026186575,7.942713788870703
0.4639442307692308,-0.6504705400981999,3.01354132569558,7.76401186579378
0.47194326923076924,-0.7355666939443535,2.749743248772504,7.585309942716858
0.4799423076923077,-0.8206628477905076,2.4859451718494263,7.406608019639934
0.48794134615384616,-0.905759001636661,2.2221470949263504,7.227906096563012
0.49594038461538464,-0.9908551554828151,1.9583490180032728,7.049204173486088
0.5039394230769231,-1.0759513093289688,1.6945509410801969,6.8705022504091655
0.5119384615384616,-1.1610474631751229,1.4307528641571192,6.691800327332242
0.5199375,-1.246143617021277,1.1669547872340416,6.513098404255318
0.5279365384615385,-1.2936538461538516,2.5285576923076682,6.015865384615371
0.5359355769230769,-2.527937227866473,0.8441255442670541,5.986031386066763
0.5439346153846154,-2.5732148040638605,0.7535703918722787,5.9633925979680695
0.5519336538461539,-2.6184923802612485,0.6630152394775034,5.940753809869376
0.5599326923076924,-2.663769956458636,0.5724600870827281,5.918115021770682
0.5679317307692308,-2.7090475326560233,0.481904934687954,5.895476233671989
0.5759307692307692,-2.754325108853411,0.3913497822931786,5.872837445573294
0.5839298076923077,-2.7996026850507985,0.30079462989840333,5.850198657474601
0.5919288461538462,-2.844880261248186,0.21023947750362793,5.827559869375907
0.5999278846153846,-2.890157837445573,0.11968432510885385,5.804921081277214
0.6079269230769231,-2.935435413642961,0.029129172714078555,5.78228229317852
0.6159259615384616,-2.9807129898403484,-0.06142597968069685,5.759643505079826
0.6239250000000001,-3.025990566037736,-0.15198113207547215,5.737004716981132
0.6319240384615384,-3.071268142235123,-0.24253628447024622,5.714365928882438
0.6399230769230769,-3.6884615384615373,-1.2884615384615372,4.8
0.6479221153846154,-6.16418006993007,-5.63549125874126,4.964344405594406
0.6559211538461539,-6.295073426573428,-5.91182167832168,4.891625874125873
0.6639201923076924,-6.425966783216785,-6.188152097902101,4.818907342657342
0.6719192307692308,-6.55686013986014,-6.4644825174825185,4.746188811188811
0.6799182692307693,-6.687753496503497,-6.740812937062939,4.673470279720279
0.6879173076923077,-6.818646853146855,-7.01714335664336,4.6007517482517475
0.6959163461538462,-6.949540209790212,-7.293473776223781,4.528033216783216
0.7039153846153846,-6.7,-5.7253846153846055,4.31692307692307
0.7119144230769231,-7.25400961538462,-5.541711538461538,3.6668461538461496
0.7199134615384616,-8.336736161035228,-7.268880301941051,2.6540797987059666
0.7279125000000001,-8.396542056074768,-7.381016355140188,2.5793224299065414
0.7359115384615385,-8.456347951114306,-7.493152408339324,2.504565061107117
0.7439105769230769,-8.516153846153847,-7.605288461538462,2.429807692307692
0.7519096153846154,-8.575959741193387,-7.7174245147375995,2.3550503235082667
0.7599086538461539,-8.635765636232927,-7.8295605679367375,2.2802929547088415
0.7679076923076924,-8.695571531272467,-7.9416966211358755,2.2055355859094163
0.7759067307692308,-8.755377426312005,-8.05383267433501,2.1307782171099925
0.7839057692307693,-8.815183321351546,-8.16596872753415,2.0560208483105673
0.7919048076923078,-8.874989216391086,-8.278104780733287,1.9812634795111421
0.7999038461538462,-8.934795111430626,-8.390240833932424,1.906506110711717
0.8079028846153846,-8.994601006470166,-8.502376887131561,1.8317487419122929
0.8159019230769231,-9.054406901509706,-8.614512940330698,1.7569913731128677
0.8239009615384616,-9.290096153846164,-9.555432692307738,0.5594230769230153
0.8319000000000001,-8.872673267326732,-9.679504950495048,-0.027326732673267812
0.8398990384615385,-8.840993907083016,-9.655745430312262,-0.05900609291698413
0.847898076923077,-8.8093145468393,-9.631985910129474,-0.0906854531607009
0.8558971153846154,-8.777635186595582,-9.608226389946687,-0.12236481340441765
0.8638961538461539,-8.745955826351866,-9.584466869763899,-0.1540441736481344
0.8718951923076923,-8.71427646610815,-9.560707349581111,-0.18572353389185073
0.8798942307692308,-8.682597105864433,-9.536947829398324,-0.2174028941355675
0.8878932692307693,-8.650917745620715,-9.513188309215536,-0.24908225437928425
0.8958923076923078,-8.619238385376999,-9.489428789032749,-0.280761614623001
0.9038913461538463,-8.587559025133283,-9.465669268849961,-0.3124409748667178
0.9118903846153846,-8.555879664889567,-9.441909748667175,-0.3441203351104341
0.9198894230769231,-8.524200304645849,-9.418150228484388,-0.37579969535415086
0.9278884615384616,-8.533269230769234,-8.855576923076923,-0.444423076923078
0.9358875000000001,-8.901966145833335,-8.898033854166666,-1.2980338541666667
0.9438865384615385,-8.910298477564103,-8.889701522435898,-1.2897015224358974
0.951885576923077,-8.918630809294871,-8.88136919070513,-1.2813691907051283
0.9598846153846154,-8.926963141025642,-8.87303685897436,-1.273036858974359
0.9678836538461539,-8.93529547275641,-8.86470452724359,-1.2647045272435897
0.9758826923076923,-8.94362780448718,-8.85637219551282,-1.2563721955128206
0.9838817307692308,-8.951960136217949,-8.848039863782052,-1.2480398637820513
0.9918807692307693,-8.960292467948719,-8.839707532051282,-1.239707532051282
0.9998798076923078,-8.968624799679487,-8.831375200320513,-1.2313752003205127
1.0078788461538462,-8.976957131410256,-8.823042868589745,-1.2230428685897436
1.0158778846153846,-8.985289463141026,-8.814710536858975,-1.2147105368589743
1.0238769230769231,-8.993621794871794,-8.806378205128206,-1.206378205128205
1.0318759615384616,-9.468990384615397,-9.362788461538477,-1.4813942307692383
1.039875,-9.4,-8.0,-0.5955882352941174
1.0478740384615386,-9.4,-8.0,-0.5767669683257916
1.055873076923077,-9.4,-8.0,-0.5579457013574658
1.0638721153846153,-9.4,-8.0,-0.5391244343891404
1.0718711538461538,-9.4,-8.0,-0.5203031674208145
1.0798701923076923,-9.4,-8.0,-0.5014819004524886
1.0878692307692308,-9.4,-8.0,-0.4826606334841628
1.0958682692307693,-9.4,-8.0,-0.46383936651583696
1.1038673076923078,-9.4,-8.0,-0.44501809954751115
1.1118663461538463,-9.4,-8.0,-0.4261968325791853
1.1198653846153848,-9.4,-8.0,-0.4073755656108594
1.127864423076923,-9.328389423076924,-7.437427884615389,-0.6283894230769244
1.1358634615384615,-9.128413461538463,-6.704182692307695,-0.4284134615384624
1.1438625,-8.886676136363636,-6.180014204545454,-0.3866761363636362
1.1518615384615385,-8.868496503496504,-6.152744755244755,-0.36849650349650326
1.159860576923077,-8.85031687062937,-6.125475305944056,-0.35031687062937034
1.1678596153846155,-8.832137237762238,-6.098205856643356,-0.3321372377622374
1.175858653846154,-8.813957604895105,-6.070936407342657,-0.3139576048951045
1.1838576923076924,-8.795777972027972,-6.043666958041958,-0.2957779720279716
1.191856730769231,-8.77759833916084,-6.0163975087412584,-0.2775983391608387
1.1998557692307692,-8.759418706293706,-5.98912805944056,-0.2594187062937063
1.2078548076923077,-8.741239073426573,-5.961858610139861,-0.24123907342657339
1.2158538461538462,-8.72305944055944,-5.934589160839161,-0.22305944055944046
1.2238528846153847,-8.704879807692308,-5.907319711538461,-0.20487980769230757
1.2318519230769231,-8.5,-5.345923076923077,0.07703846153846161
1.2398509615384616,-9.104376092657342,-4.3956239073426575,-0.10875218531468557
1.2478500000000001,-9.113465909090909,-4.386534090909091,-0.12693181818181848
1.2558490384615386,-9.122555725524474,-4.377444274475525,-0.1451114510489514
1.2638480769230769,-9.131645541958042,-4.368354458041958,-0.1632910839160838
1.2718471153846154,-9.140735358391607,-4.359264641608392,-0.1814707167832167
1.2798461538461539,-9.149825174825175,-4.350174825174825,-0.1996503496503496
1.2878451923076923,-9.15891499125874,-4.341085008741259,-0.21782998251748253
1.2958442307692308,-9.168004807692308,-4.3319951923076925,-0.23600961538461543
1.3038432692307693,-9.177094624125873,-4.322905375874126,-0.2541892482517484
1.3118423076923078,-9.18618444055944,-4.31381555944056,-0.27236888111888125
1.3198413461538463,-9.195274256993006,-4.304725743006993,-0.29054851398601417
1.3278403846153848,-9.6,-4.073942307692276,-0.2
1.335839423076923,-9.5,-3.8,-0.2948516775777414
1.3438384615384615,-9.5,-3.8,-0.28634206219312597
1.3518375,-9.5,-3.8,-0.2778324468085106
1.3598365384615385,-9.5,-3.8,-0.2693228314238952
1.367835576923077,-9.5,-3.8,-0.26081321603927976
1.3758346153846155,-9.5,-3.8,-0.2523036006546644
1.383833653846154,-9.5,-3.8,-0.24379398527004897
1.3918326923076925,-9.5,-3.8,-0.23528436988543355
1.3998317307692307,-9.5,-3.8,-0.2267747545008184
1.4078307692307692,-9.5,-3.8,-0.218265139116203
1.4158298076923077,-9.5,-3.8,-0.2097555237315876
1.4238288461538462,-9.5,-3.8,-0.2012459083469722
1.4318278846153847,-9.5,-3.8,-0.10245879120878942
1.4398269230769232,-9.103249336870027,-3.6902519893899206,-0.09675066312997344
1.4478259615384617,-9.112443633952255,-3.662669098143236,-0.08755636604774528
1.4558250000000001,-9.121637931034483,-3.6350862068965517,-0.07836206896551713
1.4638240384615386,-9.130832228116711,-3.607503315649867,-0.06916777188328899
1.471823076923077,-9.14002652519894,-3.5799204244031833,-0.059973474801061084
1.4798221153846154,-9.149220822281167,-3.552337533156499,-0.05077917771883293
1.4878211538461539,-9.158415119363395,-3.5247546419098144,-0.04158488063660478
1.4958201923076924,-9.167609416445623,-3.4971717506631297,-0.03239058355437663
1.5038192307692309,-9.176803713527852,-3.4695888594164455,-0.02319628647214847
1.5118182692307693,-9.18599801061008,-3.442005968169761,-0.014001989389920325
1.5198173076923078,-9.195192307692308,-3.4144230769230766,-0.004807692307692166
1.5278163461538463,-9.1,-3.3,0.2
1.5358153846153848,-9.134945054945065,-3.3116483516483552,0.2
1.543814423076923,-9.4,-3.3092788461538483,0.2
1.5518134615384616,-9.37069951923077,-3.3,0.2
1.5598125,-9.340703125000001,-3.3,0.2
1.5678115384615385,-9.310706730769231,-3.3,0.2
1.575810576923077,-9.280710336538462,-3.3,0.2
1.5838096153846155,-9.250713942307693,-3.3,0.2
1.591808653846154,-9.220717548076923,-3.3,0.2
1.5998076923076925,-9.190721153846154,-3.3,0.2
1.6078067307692308,-9.160724759615384,-3.3,0.2
1.6158057692307692,-9.130728365384616,-3.3,0.2
1.6238048076923077,-9.100731971153847,-3.3,0.2
1.6318038461538462,-8.615692307692294,-3.3039230769230734,0.6
1.6398028846153847,-8.407475697379544,-3.3074756973795436,0.7
1.6478019230769232,-8.416265849535082,-3.31626584953508,0.7
1.6558009615384617,-8.425056001690617,-3.325056001690617,0.7
1.6638000000000002,-8.433846153846154,-3.333846153846154,0.7
1.6717990384615387,-8.442636306001692,-3.342636306001691,0.7
1.679798076923077,-8.451426458157227,-3.3514264581572273,0.7
1.6877971153846154,-8.460216610312765,-3.360216610312764,0.7
1.695796153846154,-8.4690067624683,-3.3690067624683007,0.7
1.7037951923076924,-8.477796914623838,-3.3777969146238376,0.7
1.7117942307692309,-8.486587066779375,-3.3865870667793745,0.7
1.7197932692307694,-8.49537721893491,-3.3953772189349114,0.7
1.7277923076923078,-8.803384615384623,-3.4,0.8516923076923114
1.7357913461538463,-9.006038245462403,-3.5020127484874677,1.002012748487468
1.7437903846153846,-9.033001296456353,-3.5110004321521178,1.0110004321521175
1.751789423076923,-9.059964347450302,-3.5199881158167674,1.0199881158167676
1.7597884615384616,-9.086927398444253,-3.5289757994814175,1.0289757994814175
1.7677875,-9.113890449438204,-3.5379634831460676,1.0379634831460676
1.7757865384615386,-9.140853500432153,-3.5469511668107176,1.0469511668107176
1.783785576923077,-9.167816551426103,-3.5559388504753677,1.0559388504753675
1.7917846153846155,-9.194779602420052,-3.5649265341400174,1.0649265341400176
1.799783653846154,-9.221742653414003,-3.5739142178046674,1.0739142178046674
1.8077826923076925,-9.248705704407953,-3.5829019014693175,1.0829019014693175
1.8157817307692308,-9.275668755401902,-3.591889585133967,1.0918895851339674
1.8237807692307693,-9.3,-3.5609615384615347,1.0609615384615347
1.8317798076923077,-8.908807692307693,-3.6955961538461537,1.1955961538461537
1.8397788461538462,-8.58073717948718,-3.5871581196581195,1.3
1.8477778846153847,-8.554073717948718,-3.5693824786324786,1.3
1.8557769230769232,-8.527410256410256,-3.5516068376068373,1.3
1.8637759615384617,-8.500746794871795,-3.5338311965811964,1.3
1.8717750000000002,-8.474083333333333,-3.516055555555555,1.3
1.8797740384615385,-8.447419871794873,-3.4982799145299146,1.3
1.887773076923077,-8.420756410256411,-3.4805042735042733,1.3
1.8957721153846154,-8.39409294871795,-3.4627286324786324,1.3
1.903771153846154,-8.367429487179487,-3.444952991452991,1.3
1.9117701923076924,-8.340766025641026,-3.42717735042735,1.3
1.919769230769231,-8.314102564102564,-3.409401709401709,1.3
1.9277682692307694,-8.25813034188034,-3.4,1.3
1.9357673076923079,-8.13836538461539,-3.4,1.2383653846153908
1.9437663461538464,-8.42011516100179,-3.5,1.4
1.9517653846153846,-8.44801878354204,-3.5,1.4
1.9597644230769231,-8.47592240608229,-3.5,1.4
1.9677634615384616,-8.503826028622541,-3.5,1.4
1.9757625,-8.531729651162792,-3.5,1.4
1.9837615384615386,-8.559633273703042,-3.5,1.4
1.991760576923077,-8.587536896243291,-3.5,1.4
1.9997596153846156,-8.615440518783542,-3.5,1.4
2.007758653846154,-8.643344141323793,-3.5,1.4
2.0157576923076923,-8.671247763864042,-3.5,1.4
2.023756730769231,-8.699151386404294,-3.5,1.4
2.0317557692307693,-8.6,-3.634447115384617,1.468894230769234
2.039754807692308,-8.6,-3.7,1.593667108753315
2.0477538461538463,-8.6,-3.7,1.575278514588859
2.0557528846153845,-8.6,-3.7,1.5568899204244033
2.0637519230769232,-8.6,-3.7,1.5385013262599465
2.0717509615384615,-8.6,-3.7,1.5201127320954908
2.07975,-8.6,-3.7,1.501724137931034
2.0877490384615385,-8.6,-3.7,1.4833355437665783
2.095748076923077,-8.6,-3.7,1.4649469496021215
2.1037471153846155,-8.6,-3.7,1.4465583554376658
2.111746153846154,-8.6,-3.7,1.428169761273209
2.1197451923076924,-8.6,-3.7,1.4097811671087532
2.1277442307692307,-8.611634615384625,-3.774423076923083,1.3
2.1357432692307694,-8.89633241758242,-3.9,1.2036675824175815
2.1437423076923077,-8.935192307692308,-3.8824038461538466,1.2
2.1517413461538464,-8.971551573426574,-3.864224213286713,1.2
2.1597403846153846,-9.00791083916084,-3.846044580419581,1.2
2.1677394230769234,-9.044270104895105,-3.827864947552447,1.2
2.1757384615384616,-9.08062937062937,-3.8096853146853147,1.2
2.1837375000000003,-9.116988636363638,-3.7915056818181814,1.2
2.1917365384615386,-9.153347902097902,-3.773326048951049,1.2
2.199735576923077,-9.189707167832168,-3.7551464160839165,1.2
2.2077346153846156,-9.226066433566434,-3.736966783216783,1.2
2.215733653846154,-9.2624256993007,-3.718787150349651,1.2
2.2237326923076925,-9.298784965034965,-3.7006075174825175,1.2
2.231731730769231,-9.763413461538457,-3.7,1.0365865384615431
2.2397307692307695,-9.925470085470087,-3.580897435897435,0.9872649572649566
2.247729807692308,-9.961021367521369,-3.554233974358974,0.9694893162393159
2.255728846153846,-9.99657264957265,-3.527570512820513,0.9517136752136753
2.2637278846153848,-10.032123931623934,-3.5009070512820504,0.9339380341880337
2.271726923076923,-10.067675213675214,-3.4742435897435895,0.9161623931623931
2.2797259615384617,-10.103226495726497,-3.4475801282051273,0.8983867521367515
2.287725,-10.13877777777778,-3.4209166666666664,0.8806111111111109
2.2957240384615387,-10.174329059829063,-3.3942532051282037,0.8628354700854692
2.303723076923077,-10.209880341880343,-3.367589743589743,0.8450598290598287
2.3117221153846157,-10.245431623931626,-3.3409262820512806,0.827284188034187
2.319721153846154,-10.280982905982908,-3.3142628205128193,0.8095085470085465
2.3277201923076922,-10.229634615384612,-3.285596153846154,0.8
2.335719230769231,-11.515282051282052,-3.1,0.6980897435897434
2.343718269230769,-11.586384615384615,-3.1,0.6892019230769232
2.351717307692308,-11.65748717948718,-3.1,0.6803141025641023
2.359716346153846,-11.728589743589744,-3.1,0.6714262820512821
2.367715384615385,-11.799692307692311,-3.1,0.6625384615384612
2.375714423076923,-11.870794871794873,-3.1,0.6536506410256409
2.383713461538462,-11.94189743589744,-3.1,0.6447628205128201
2.3917125,-12.013000000000002,-3.1,0.6358749999999997
2.3997115384615384,-12.084102564102565,-3.1,0.6269871794871795
2.407710576923077,-12.15520512820513,-3.1,0.6180993589743586
2.4157096153846154,-12.226307692307694,-3.1,0.6092115384615384
2.423708653846154,-12.29741025641026,-3.1,0.6003237179487175
2.4317076923076923,-9.709230769230674,-3.3415384615384753,0.2707692307692376
2.439706730769231,-8.287318376068377,-3.306340811965812,0.38097756410256367
2.4477057692307693,-8.269542735042736,-3.3152286324786324,0.35431410256410273
2.455704807692308,-8.251767094017094,-3.324116452991453,0.32765064102564034
2.4637038461538463,-8.233991452991454,-3.3330042735042733,0.3009871794871794
2.4717028846153846,-8.216215811965812,-3.3418920940170938,0.27432371794871846
2.4797019230769233,-8.19844017094017,-3.3507799145299146,0.24766025641025605
2.4877009615384615,-8.18066452991453,-3.3596677350427346,0.2209967948717951
2.4957000000000003,-8.162888888888888,-3.3685555555555555,0.1943333333333327
2.5036990384615385,-8.145113247863248,-3.377443376068376,0.16766987179487175
2.5116980769230772,-8.127337606837607,-3.386331196581197,0.14100641025640936
2.5196971153846155,-8.109561965811965,-3.3952190170940173,0.11434294871794842
2.5276961538461538,-9.474038461538425,-3.53038461538463,-0.3
2.5356951923076925,-10.0,-2.992198366701791,-0.7234048998946272
2.5436942307692307,-10.0,-2.981240779768177,-0.7562776606954692
2.5516932692307694,-10.0,-2.9702831928345623,-0.7891504214963131
2.5596923076923077,-10.0,-2.9593256059009483,-0.8220231822971551
2.5676913461538464,-10.0,-2.948368018967334,-0.854895943097999
2.5756903846153847,-10.0,-2.9374104320337198,-0.8877687038988409
2.5836894230769234,-10.0,-2.926452845100105,-0.9206414646996848
2.5916884615384617,-10.0,-2.915495258166491,-0.9535142255005268
2.5996875,-10.0,-2.9045376712328768,-0.9863869863013688
2.6076865384615386,-9.843782051282046,-2.978108974358977,-1.0
2.615685576923077,-9.515721153846155,-3.0,-0.7
2.6236846153846156,-9.198315384615384,-3.0,-0.7
2.631683653846154,-9.190316346153846,-3.0,-0.7
2.6396826923076926,-9.182317307692307,-3.0,-0.7
2.647681730769231,-9.174318269230769,-3.0,-0.7
2.6556807692307696,-9.16631923076923,-3.0,-0.7
2.663679807692308,-9.158320192307691,-3.0,-0.7
2.671678846153846,-9.150321153846154,-3.0,-0.7
2.679677884615385,-9.142322115384614,-3.0,-0.7
2.687676923076923,-9.134323076923076,-3.0,-0.7
2.695675961538462,-9.126324038461538,-3.0,-0.7
2.703675,-9.118324999999999,-3.0,-0.7
2.7116740384615388,-9.11032596153846,-3.0,-0.7
2.719673076923077,-9.102326923076923,-3.0,-0.7
2.7276721153846157,-9.13442307692316,-3.2,-0.7336057692307896
2.735671153846154,-9.406738539238539,-3.2067385392385397,-0.8
2.7436701923076923,-9.414818376068377,-3.214818376068376,-0.8
2.751669230769231,-9.422898212898213,-3.222898212898213,-0.8
2.7596682692307692,-9.43097804972805,-3.2309780497280496,-0.8
2.767667307692308,-9.439057886557887,-3.239057886557887,-0.8
2.775666346153846,-9.447137723387725,-3.2471377233877234,-0.8
2.783665384615385,-9.45521756021756,-3.2552175602175604,-0.8
2.791664423076923,-9.463297397047397,-3.2632973970473973,-0.8
2.7996634615384615,-9.471377233877234,-3.271377233877234,-0.8
2.8076625,-9.47945707070707,-3.2794570707070707,-0.8
2.8156615384615384,-9.487536907536908,-3.2875369075369076,-0.8
2.823660576923077,-9.495616744366744,-3.2956167443667446,-0.8
2.8316596153846154,-8.951057692307671,-3.1510576923076714,-0.4510576923076712
2.839658653846154,-8.196944076038903,-3.3091677718832893,-0.4969440760389035
2.8476576923076924,-8.187749778956675,-3.336750663129973,-0.4877497789566756
2.855656730769231,-8.178555481874447,-3.3643335543766586,-0.4785554818744472
2.8636557692307694,-8.16936118479222,-3.391916445623342,-0.4693611847922193
2.8716548076923076,-8.160166887709991,-3.419499336870026,-0.46016688770999137
2.8796538461538463,-8.150972590627763,-3.4470822281167113,-0.4509725906277629
2.8876528846153846,-8.141778293545535,-3.474665119363395,-0.441778293545535
2.8956519230769233,-8.132583996463307,-3.50224801061008,-0.4325839964633066
2.9036509615384616,-8.123389699381079,-3.529830901856764,-0.4233896993810786
2.9116500000000003,-8.114195402298849,-3.5574137931034495,-0.4141954022988502
2.9196490384615386,-8.105001105216623,-3.5849966843501333,-0.4050011052166223
2.9276480769230773,-7.989198717948713,-3.8891987179487124,-0.4
2.9356471153846155,-8.11098076923077,-4.001830128205128,-0.2981698717948718
2.943646153846154,-8.164307692307691,-4.010717948717948,-0.2892820512820515
2.9516451923076925,-8.217634615384615,-4.019605769230769,-0.2803942307692307
2.9596442307692308,-8.270961538461536,-4.028493589743589,-0.27150641025641037
2.9676432692307695,-8.324288461538462,-4.03738141025641,-0.2626185897435896
2.9756423076923078,-8.377615384615384,-4.046269230769231,-0.25373076923076926
2.9836413461538465,-8.430942307692309,-4.055157051282051,-0.24484294871794846
2.9916403846153847,-8.48426923076923,-4.064044871794872,-0.23595512820512815
2.9996394230769234,-8.537596153846156,-4.072932692307693,-0.22706730769230737
3.0076384615384617,-8.590923076923078,-4.081820512820513,-0.21817948717948704
3.0156375,-8.64425,-4.090708333333333,-0.20929166666666674
3.0236365384615387,-8.697576923076923,-4.099596153846154,-0.20040384615384593
3.031635576923077,-9.955033936651592,-4.331006787330318,-0.1310067873303182
3.0396346153846157,-10.425565610859755,-4.42511312217195,-0.2251131221719506
3.047633653846154,-10.81675542406312,-4.493716715976331,-0.3062832840236696
3.0556326923076926,-10.898796844181465,-4.462951183431951,-0.33704881656804914
3.063631730769231,-10.980838264299805,-4.432185650887573,-0.36781434911242694
3.0716307692307696,-11.062879684418151,-4.401420118343194,-0.39857988165680647
3.079629807692308,-11.144921104536492,-4.370654585798816,-0.4293454142011843
3.087628846153846,-11.226962524654832,-4.339889053254438,-0.4601109467455622
3.095627884615385,-11.309003944773178,-4.309123520710059,-0.4908764792899417
3.103626923076923,-11.391045364891518,-4.278357988165681,-0.5216420118343195
3.111625961538462,-11.473086785009864,-4.247592455621301,-0.5524075443786991
3.119625,-11.555128205128204,-4.2168269230769235,-0.583173076923077
3.127624038461539,-10.82838942307677,-3.5219951923076223,-0.6687980769230488
3.135623076923077,-8.671174978867285,-3.0913524936601857,1.0144125105663575
3.1436221153846153,-8.583273457311918,-3.064982037193576,1.05836327134404
3.151621153846154,-8.495371935756548,-3.0386115807269647,1.1023140321217253
3.1596201923076923,-8.407470414201184,-3.0122411242603553,1.1462647928994079
3.167619230769231,-8.319568892645814,-2.985870667793744,1.190215553677093
3.1756182692307693,-8.231667371090449,-2.9595002113271347,1.2341663144547756
3.183617307692308,-8.143765849535079,-2.9331297548605235,1.2781170752324609
3.1916163461538463,-8.055864327979712,-2.9067592983939137,1.3220678360101437
3.199615384615385,-7.967962806424342,-2.8803888419273025,1.3660185967878287
3.2076144230769232,-7.880061284868978,-2.854018385460693,1.4099693575655114
3.2156134615384615,-7.792159763313612,-2.8276479289940832,1.453920118343194
3.2236125,-7.704258241758242,-2.8012774725274725,1.4978708791208792
3.2316115384615385,-9.699166666666661,-2.2611538461538436,0.05371794871794788
3.239610576923077,-9.658556611927395,-2.1948195764909246,0.8792783059636975
3.2476096153846155,-9.586655142610196,-2.185831892826275,0.8433275713050985
3.255608653846154,-9.514753673292995,-2.1768442091616245,0.8073768366464975
3.2636076923076924,-9.442852203975796,-2.167856525496975,0.7714261019878986
3.271606730769231,-9.370950734658596,-2.1588688418323247,0.7354753673292976
3.2796057692307694,-9.299049265341397,-2.1498811581676747,0.6995246326706986
3.2876048076923077,-9.2271477960242,-2.140893474503025,0.6635738980120998
3.2956038461538464,-9.155246326706997,-2.131905790838375,0.6276231633534988
3.3036028846153846,-9.0833448573898,-2.122918107173725,0.5916724286948998
3.3116019230769234,-9.011443388072598,-2.113930423509075,0.5557216940362988
3.3196009615384616,-8.939541918755399,-2.104942739844425,0.5197709593776998
3.3276000000000003,-8.579999999999911,-2.3400000000001775,0.7400000000001776
3.3355990384615386,-8.817869271685762,-2.494043576104746,0.7821307283142388
3.3435980769230773,-8.843398117839609,-2.4855339607201308,0.7566018821603917
3.3515971153846156,-8.868926963993454,-2.4770243453355154,0.7310730360065462
3.359596153846154,-8.8944558101473,-2.4685147299509,0.7055441898527006
3.3675951923076926,-8.919984656301146,-2.4600051145662847,0.6800153436988536
3.375594230769231,-8.945513502454991,-2.4514954991816693,0.6544864975450081
3.3835932692307695,-8.971042348608838,-2.4429858837970535,0.628957651391161
3.391592307692308,-8.996571194762684,-2.4344762684124386,0.6034288052373155
3.3995913461538465,-9.02210004091653,-2.4259666530278228,0.5778999590834685
3.4075903846153848,-9.047628887070378,-2.4174570376432074,0.5523711129296229
3.415589423076923,-9.073157733224223,-2.4089474222585925,0.5268422667757773
3.4235884615384617,-9.09868657937807,-2.4004378068739767,0.5013134206219303
3.4315875,-9.045875,-2.7458750000000007,1.0917500000000013
3.4395865384615387,-9.198133484162895,-3.0055995475113124,1.0
3.447585576923077,-9.188722850678733,-3.0338314479638004,1.0
3.4555846153846157,-9.17931221719457,-3.0620633484162902,1.0
3.463583653846154,-9.169901583710407,-3.0902952488687783,1.0
3.4715826923076927,-9.160490950226244,-3.1185271493212676,1.0
3.479581730769231,-9.151080316742082,-3.1467590497737556,1.0
3.487580769230769,-9.141669683257918,-3.1749909502262437,1.0
3.495579807692308,-9.132259049773754,-3.203222850678733,1.0
3.503578846153846,-9.122848416289592,-3.231454751131221,1.0
3.511577884615385,-9.113437782805429,-3.259686651583711,1.0
3.519576923076923,-9.104027149321267,-3.287918552036199,1.0
3.527575961538462,-9.051519230769241,-3.5,1.2030384615384806
3.535575,-8.897201086956521,-3.6,1.2027989130434784
3.543574038461539,-8.88850647993311,-3.6,1.2114935200668902
3.551573076923077,-8.879811872909698,-3.6,1.2201881270903012
3.5595721153846154,-8.871117265886289,-3.6,1.2288827341137125
3.567571153846154,-8.862422658862876,-3.6,1.237577341137124
3.5755701923076924,-8.853728051839465,-3.6,1.246271948160535
3.583569230769231,-8.845033444816053,-3.6,1.2549665551839468
3.5915682692307693,-8.836338837792642,-3.6,1.263661162207358
3.599567307692308,-8.82764423076923,-3.6,1.2723557692307697
3.6075663461538463,-8.81894962374582,-3.6,1.2810503762541807
3.615565384615385,-8.810255016722408,-3.6,1.2897449832775925
3.6235644230769233,-8.801560409698997,-3.6,1.2984395903010035
3.6315634615384615,-8.859667832167831,-3.719335664335663,1.2403321678321684
3.6395625000000003,-9.540625000000102,-3.7718749999999797,1.1437499999999596
3.6475615384615385,-9.93952734012975,-3.7079054680259502,1.00790546802595
3.6555605769230772,-9.987714318813719,-3.717542863762744,1.0175428637627437
3.6635596153846155,-10.035901297497684,-3.7271802594995367,1.0271802594995367
3.671558653846154,-10.084088276181651,-3.7368176552363304,1.0368176552363304
3.6795576923076925,-10.132275254865617,-3.746455050973123,1.0464550509731234
3.6875567307692307,-10.180462233549582,-3.7560924467099164,1.0560924467099164
3.6955557692307694,-10.22864921223355,-3.76572984244671,1.06572984244671
3.7035548076923077,-10.276836190917516,-3.775367238183503,1.075367238183503
3.7115538461538464,-10.325023169601485,-3.7850046339202965,1.0850046339202968
3.7195528846153847,-10.37321014828545,-3.7946420296570897,1.0946420296570898
3.7275519230769234,-10.672403846153825,-3.4724038461538265,0.5448076923076529
3.7355509615384617,-11.459687758478083,-3.4059687758478083,0.5
3.7435500000000004,-11.545698924731187,-3.4145698924731187,0.5
3.7515490384615386,-11.631710090984287,-3.4231710090984286,0.5
3.759548076923077,-11.717721257237386,-3.4317721257237386,0.5
3.7675471153846156,-11.80373242349049,-3.440373242349049,0.5
3.775546153846154,-11.88974358974359,-3.448974358974359,0.5
3.7835451923076926,-11.975754755996695,-3.4575754755996693,0.5
3.791544230769231,-12.061765922249794,-3.466176592224979,0.5
3.7995432692307696,-12.147777088502899,-3.47477770885029,0.5
3.807542307692308,-12.233788254756,-3.4833788254756,0.5
3.8155413461538465,-12.319799421009103,-3.4919799421009103,0.5
3.823540384615385,-12.363974358974344,-3.5,0.48198717948717207
3.831539423076923,-11.830705128205128,-3.6230982905982905,0.27690170940170944
3.839538461538462,-11.146153846153826,-3.764835164835168,0.2
3.8475375,-9.44759259259259,-3.5694290123456773,0.4
3.8555365384615388,-9.329088319088312,-3.500301519468182,0.4
3.863535576923077,-9.210584045584042,-3.431174026590691,0.4
3.8715346153846157,-9.092079772079765,-3.362046533713196,0.4
3.879533653846154,-8.973575498575494,-3.292919040835705,0.4
3.8875326923076927,-8.855071225071217,-3.2237915479582098,0.4
3.895531730769231,-8.736566951566946,-3.1546640550807186,0.4
3.9035307692307692,-8.618062678062676,-3.0855365622032274,0.4
3.911529807692308,-8.4995584045584,-3.016409069325732,0.4
3.9195288461538462,-8.381054131054128,-2.947281576448241,0.4
3.927527884615385,-8.38475961538473,-2.7263942307692473,-0.15278846153849462
3.935526923076923,-10.307751479289943,-2.7922485207100585,-0.8193786982248532
3.943525961538462,-10.325331783601015,-2.7746682163989846,-0.8633294590025385
3.951525,-10.342912087912088,-2.7570879120879113,-0.9072802197802214
3.9595240384615384,-10.360492392223163,-2.7395076077768383,-0.9512309805579043
3.967523076923077,-10.378072696534236,-2.721927303465764,-0.9951817413355897
3.9755221153846154,-10.395653000845309,-2.704346999154691,-1.0391325021132727
3.983521153846154,-10.413233305156384,-2.686766694843617,-1.083083262890958
3.9915201923076924,-10.430813609467457,-2.669186390532544,-1.127034023668641
3.999519230769231,-10.448393913778531,-2.6516060862214696,-1.1709847844463261
4.007518269230769,-10.465974218089604,-2.6340257819103963,-1.2149355452240092
4.015517307692308,-10.483554522400677,-2.6164454775993224,-1.2588863060016944
4.023516346153847,-10.474182692307654,-2.5741826923076534,-1.351634615384693
4.031515384615385,-9.493482216708024,-2.698370554177006,-0.998370554177006
4.039514423076923,-9.459077750206783,-2.689769437551696,-0.9897694375516957
4.047513461538462,-9.424673283705541,-2.6811683209263855,-0.9811683209263852
4.0555125,-9.390268817204303,-2.672567204301076,-0.9725672043010757
4.063511538461539,-9.355864350703062,-2.6639660876757656,-0.9639660876757652
4.071510576923077,-9.321459884201818,-2.6553649710504548,-0.9553649710504548
4.079509615384616,-9.287055417700577,-2.6467638544251444,-0.9467638544251443
4.087508653846154,-9.252650951199339,-2.638162737799835,-0.9381627377998348
4.0955076923076925,-9.218246484698097,-2.6295616211745245,-0.9295616211745245
4.103506730769231,-9.183842018196856,-2.620960504549214,-0.920960504549214
4.111505769230769,-9.149437551695618,-2.6123593879239047,-0.9123593879239045
4.119504807692308,-9.115033085194376,-2.6037582712985943,-0.9037582712985941
4.1275038461538465,-8.850384615384652,-3.051153846153956,-0.8
4.135502884615385,-8.98224875930521,-3.2059170802315973,-0.705917080231597
4.143501923076923,-8.95644540942928,-3.2145181968569068,-0.7145181968569065
4.151500961538462,-8.93064205955335,-3.223119313482217,-0.723119313482217
4.1595,-8.904838709677417,-3.2317204301075275,-0.7317204301075274
4.167499038461538,-8.879035359801488,-3.240321546732837,-0.7403215467328369
4.175498076923077,-8.853232009925557,-3.2489226633581474,-0.7489226633581474
4.183497115384616,-8.827428660049627,-3.2575237799834578,-0.7575237799834579
4.191496153846154,-8.801625310173694,-3.266124896608768,-0.7661248966087683
4.199495192307692,-8.775821960297765,-3.2747260132340776,-0.7747260132340777
4.207494230769231,-8.750018610421835,-3.283327129859388,-0.7833271298593882
4.21549326923077,-8.724215260545904,-3.2919282464846984,-0.7919282464846987
4.223492307692308,-8.692426035502946,-3.296213017751473,-0.7962130177514735
4.231491346153846,-8.56936390532544,-3.2346819526627204,-0.7346819526627204
4.239490384615385,-7.975480769230749,-3.6,-0.5754807692307485
4.247489423076924,-7.884172138836772,-3.6079139305816144,-0.5079139305816145
4.255488461538461,-7.864662288930582,-3.6176688555347094,-0.5176688555347093
4.2634875,-7.84515243902439,-3.6274237804878053,-0.5274237804878051
4.271486538461539,-7.825642589118198,-3.6371787054409013,-0.5371787054409011
4.2794855769230775,-7.806132739212006,-3.646933630393997,-0.5469336303939969
4.287484615384615,-7.786622889305817,-3.656688555347092,-0.5566885553470917
4.295483653846154,-7.767113039399625,-3.6664434803001877,-0.5664434803001877
4.303482692307693,-7.747603189493433,-3.6761984052532837,-0.5761984052532836
4.311481730769231,-7.728093339587243,-3.6859533302063787,-0.5859533302063784
4.319480769230769,-7.708583489681051,-3.6957082551594747,-0.5957082551594742
4.327479807692308,-7.6739903846154185,-3.8184975961538545,-0.4
4.335478846153847,-8.006646499567852,-3.9,-0.4
4.3434778846153845,-8.042597234226449,-3.9,-0.4
4.351476923076923,-8.078547968885049,-3.9,-0.4
4.359475961538462,-8.114498703543651,-3.9,-0.4
4.367475000000001,-8.150449438202251,-3.9,-0.4
4.3754740384615385,-8.186400172860848,-3.9,-0.4
4.383473076923077,-8.222350907519449,-3.9,-0.4
4.391472115384616,-8.25830164217805,-3.9,-0.4
4.399471153846154,-8.294252376836646,-3.9,-0.4
4.407470192307692,-8.330203111495248,-3.9,-0.4
4.415469230769231,-8.366153846153848,-3.9,-0.4
4.42346826923077,-8.423413461538493,-3.9,-0.4
4.431467307692308,-9.023365384615396,-3.9,-0.2
4.439466346153846,-9.879845505617979,-3.793858038029386,-0.21228392394122755
4.447465384615385,-9.996685393258433,-3.784870354364736,-0.23025929127052813
4.455464423076923,-10.113525280898873,-3.7758826707000868,-0.24823465859982669
4.463463461538462,-10.230365168539327,-3.7668949870354362,-0.26621002592912724
4.4714625,-10.347205056179781,-3.757907303370786,-0.28418539325842784
4.479461538461539,-10.464044943820234,-3.7489196197061356,-0.3021607605877284
4.487460576923077,-10.580884831460676,-3.7399319360414864,-0.32013612791702695
4.495459615384616,-10.697724719101128,-3.7309442523768364,-0.33811149524632755
4.503458653846154,-10.814564606741582,-3.7219565687121863,-0.3560868625756281
4.511457692307692,-10.931404494382024,-3.7129688850475366,-0.37406222990492666
4.519456730769231,-11.048244382022476,-3.7039812013828866,-0.39203759723422726
4.5274557692307695,-11.456461538461564,-3.7,-0.26632692307691364
4.535454807692308,-12.063653846153901,-3.3726923076921977,-0.263653846153901
4.543453846153846,-8.758387395736795,-3.6083225208526413,-0.07503243744207697
4.551452884615385,-8.66201343836886,-3.627597312326228,-0.017208063021315334
4.5594519230769235,-8.565639481000924,-3.6468721037998155,0.0406163113994463
4.567450961538462,-8.469265523632988,-3.6661468952734024,0.09844068582020793
4.57545,-8.372891566265062,-3.6854216867469876,0.15626506024096312
4.583449038461539,-8.276517608897125,-3.704696478220575,0.21408943466172473
4.591448076923077,-8.180143651529189,-3.7239712696941623,0.2719138090824864
4.599447115384615,-8.083769694161264,-3.743246061167747,0.3297381835032416
4.607446153846154,-7.987395736793328,-3.7625208526413343,0.3875625579240032
4.615445192307693,-7.891021779425392,-3.7817956441149216,0.4453869323447649
4.623444230769231,-7.83075443786985,-3.8068343195266334,0.5034171597633167
4.631443269230769,-8.384534023668627,-3.929896449704139,0.5649482248520696
4.639442307692308,-10.789423076923066,-3.7557692307692263,0.33365384615383975
4.647441346153847,-10.352868198874294,-3.592144699812382,0.10785530018761784
4.6554403846153845,-10.294338649155724,-3.5823897748592874,0.11761022514071276
4.663439423076923,-10.235809099437148,-3.5726348499061915,0.12736515009380878
4.671438461538462,-10.177279549718572,-3.562879924953095,0.13712007504690477
4.679437500000001,-10.118749999999995,-3.553124999999999,0.14687500000000078
4.687436538461538,-10.060220450281426,-3.543370075046904,0.1566299249530957
4.695435576923077,-10.001690900562851,-3.533615150093808,0.1663848499061917
4.703434615384616,-9.943161350844274,-3.5238602251407123,0.17613977485928772
4.711433653846154,-9.884631801125705,-3.5141053001876172,0.18589469981238266
4.719432692307692,-9.826102251407129,-3.5043503752345213,0.19564962476547865
4.727431730769231,-9.179557692307618,-3.322730769230748,0.46590384615387775
4.73543076923077,-7.802700854700856,-3.8,0.5
4.743429807692308,-7.811588675213676,-3.8,0.5
4.751428846153846,-7.820476495726496,-3.8,0.5
4.759427884615385,-7.8293643162393165,-3.8,0.5
4.767426923076924,-7.838252136752137,-3.8,0.5
4.7754259615384616,-7.847139957264957,-3.8,0.5
4.783425,-7.856027777777778,-3.8,0.5
4.791424038461539,-7.864915598290599,-3.8,0.5
4.799423076923077,-7.873803418803418,-3.8,0.5
4.8074221153846155,-7.882691239316239,-3.8,0.5
4.815421153846154,-7.89157905982906,-3.8,0.5
4.823420192307693,-7.942019230769257,-3.8,0.5420192307692571
4.831419230769231,-8.8,-3.9,0.700450785773366
4.8394182692307695,-8.8,-3.9,0.7090519023986763
4.847417307692308,-8.8,-3.9,0.7176530190239868
4.855416346153846,-8.8,-3.9,0.7262541356492963
4.863415384615385,-8.8,-3.9,0.7348552522746068
4.871414423076923,-8.8,-3.9,0.7434563688999172
4.879413461538462,-8.8,-3.9,0.7520574855252277
4.8874125,-8.8,-3.9,0.7606586021505372
4.895411538461539,-8.8,-3.9,0.7692597187758476
4.903410576923077,-8.8,-3.9,0.777860835401158
4.911409615384616,-8.8,-3.9,0.7864619520264685
4.919408653846154,-8.8,-3.9,0.795063068651778
4.927407692307693,-8.579615384615357,-3.8,0.9
4.935406730769231,-8.495210075250835,-3.909579849498329,0.8047899247491644
4.943405769230769,-8.486515468227426,-3.92696906354515,0.8134845317725752
4.951404807692308,-8.477820861204012,-3.9443582775919737,0.8221791387959868
4.9594038461538466,-8.469126254180601,-3.9617474916387967,0.8308737458193985
4.967402884615385,-8.46043164715719,-3.97913670568562,0.8395683528428102
4.975401923076923,-8.451737040133779,-3.9965259197324414,0.8482629598662209
4.983400961538462,-8.443042433110367,-4.013915133779265,0.8569575668896325
4.9914000000000005,-8.434347826086956,-4.031304347826088,0.8656521739130443
4.999399038461538,-8.425653219063545,-4.048693561872909,0.8743467809364549
5.007398076923077,-8.416958612040133,-4.066082775919733,0.8830413879598666
5.015397115384616,-8.408264005016722,-4.083471989966556,0.8917359949832783
5.0233961538461545,-8.419807692307732,-4.080192307692268,0.9198076923077317
5.031395192307692,-9.812132107023409,-3.7,0.7969669732441478
5.039394230769231,-9.881688963210703,-3.7,0.7795777591973244
5.04739326923077,-9.951245819397997,-3.7,0.762188545150501
5.0553923076923075,-10.020802675585282,-3.7,0.7447993311036797
5.063391346153846,-10.090359531772576,-3.7,0.7274101170568563
5.071390384615385,-10.159916387959868,-3.7,0.710020903010033
5.079389423076924,-10.229473244147162,-3.7,0.6926316889632096
5.0873884615384615,-10.299030100334447,-3.7,0.6752424749163881
5.0953875,-10.36858695652174,-3.7,0.6578532608695649
5.103386538461539,-10.438143812709034,-3.7,0.6404640468227414
5.111385576923078,-10.507700668896327,-3.7,0.6230748327759181
5.119384615384615,-10.577257525083613,-3.7,0.6056856187290967
5.127383653846154,-12.457548076923159,-4.2,0.042451923076840765
5.135382692307693,-12.686419803600652,-4.206790098199674,-0.2067900981996737
5.143381730769231,-12.669400572831423,-4.2152997135842885,-0.21529971358428837
5.151380769230769,-12.652381342062192,-4.223809328968904,-0.223809328968904
5.159379807692308,-12.63536211129296,-4.23231894435352,-0.2323189443535196
5.167378846153847,-12.618342880523729,-4.240828559738135,-0.24082855973813522
5.175377884615385,-12.6013236497545,-4.24933817512275,-0.2493381751227499
5.183376923076923,-12.584304418985269,-4.257847790507365,-0.2578477905073655
5.191375961538462,-12.567285188216038,-4.266357405891981,-0.26635740589198115
5.199375,-12.550265957446808,-4.274867021276596,-0.2748670212765958
5.207374038461539,-12.533246726677577,-4.283376636661211,-0.28337663666121143
5.215373076923077,-12.516227495908346,-4.291886252045827,-0.2918862520458271
5.223372115384616,-12.375961538461297,-4.3,-0.3124038461538703
5.231371153846154,-8.237115384615354,-3.6314423076923235,-0.5685576923076767
5.2393701923076925,-8.385339068825912,-3.592241902834008,-0.6232742914979758
5.247369230769231,-8.477959514170045,-3.583821862348178,-0.6485344129554665
5.25536826923077,-8.570579959514177,-3.575401821862348,-0.6737945344129572
5.263367307692308,-8.6632004048583,-3.5669817813765183,-0.6990546558704451
5.2713663461538465,-8.755820850202433,-3.558561740890688,-0.7243147773279359
5.279365384615385,-8.848441295546564,-3.5501417004048577,-0.7495748987854266
5.287364423076923,-8.941061740890687,-3.5417216599190287,-0.7748350202429146
5.295363461538462,-9.03368218623482,-3.5333016194331983,-0.8000951417004053
5.3033625,-9.126302631578952,-3.524881578947368,-0.825355263157896
5.311361538461539,-9.218923076923085,-3.5164615384615376,-0.8506153846153868
5.319360576923077,-9.311543522267208,-3.5080414979757086,-0.8758755060728747
5.327359615384616,-9.5438461538463,-3.482019230769213,-0.9539423076923621
5.335358653846154,-10.374164201183428,-3.1483284023668534,-1.6741642011834266
5.343357692307692,-10.312633136094675,-3.0252662721893473,-1.6126331360946737
5.351356730769231,-10.27729739010989,-2.965946085164833,-1.6
5.35935576923077,-10.248729395604395,-2.9230940934065903,-1.6
5.367354807692308,-10.220161401098899,-2.880242101648347,-1.6
5.375353846153846,-10.191593406593405,-2.8373901098901086,-1.6
5.383352884615385,-10.16302541208791,-2.794538118131866,-1.6
5.391351923076924,-10.134457417582414,-2.751686126373623,-1.6
5.399350961538461,-10.105889423076922,-2.7088341346153846,-1.6
5.40735,-8.499391304347826,-3.3,-1.3003043478260872
5.415349038461539,-8.485479933110367,-3.3,-1.3072600334448163
5.4233480769230775,-8.471568561872909,-3.3,-1.3142157190635457
5.431347115384615,-8.457657190635452,-3.3,-1.3211714046822742
5.439346153846154,-8.443745819397993,-3.3,-1.3281270903010034
5.447345192307693,-8.429834448160534,-3.3,-1.3350827759197328
5.4553442307692315,-8.415923076923077,-3.3,-1.342038461538462
5.463343269230769,-8.40201170568562,-3.3,-1.3489941471571905
5.471342307692308,-8.388100334448161,-3.3,-1.3559498327759198
5.479341346153847,-8.374188963210702,-3.3,-1.362905518394649
5.4873403846153845,-8.360277591973245,-3.3,-1.3698612040133777
5.495339423076923,-8.346366220735787,-3.3,-1.376816889632107
5.503338461538462,-8.332454849498328,-3.3,-1.3837725752508363
5.511337500000001,-8.31854347826087,-3.3,-1.3907282608695655
5.5193365384615385,-8.304632107023412,-3.3,-1.397683946488294
5.527335576923077,-7.82214743589743,-3.0,-1.261073717948715
5.535334615384616,-7.6953391232423485,-3.0,-1.195339123242348
5.543333653846154,-7.6867380066170385,-3.0,-1.1867380066170385
5.551332692307692,-7.678136889991729,-3.0,-1.1781368899917282
5.559331730769231,-7.669535773366418,-3.0,-1.1695357733664178
5.56733076923077,-7.660934656741107,-3.0,-1.1609346567411074
5.575329807692308,-7.652333540115798,-3.0,-1.152333540115798
5.583328846153846,-7.643732423490487,-3.0,-1.1437324234904875
5.591327884615385,-7.635131306865177,-3.0,-1.135131306865177
5.599326923076923,-7.626530190239867,-3.0,-1.1265301902398674
5.607325961538462,-7.617929073614556,-3.0,-1.117929073614557
5.615325,-7.6093279569892465,-3.0,-1.1093279569892467
5.623324038461539,-7.600726840363936,-3.0,-1.1007268403639363
5.631323076923077,-7.083076923076928,-3.6492307692307846,-0.8338461538461437
5.639322115384616,-7.511455570291777,-4.111455570291777,-0.7961814765694075
5.647321153846154,-7.539038461538463,-4.139038461538463,-0.7869871794871791
5.655320192307693,-7.566621352785148,-4.166621352785148,-0.7777928824049507
5.663319230769231,-7.594204244031831,-4.19420424403183,-0.7685985853227233
5.6713182692307695,-7.621787135278516,-4.2217871352785155,-0.7594042882404948
5.679317307692308,-7.649370026525201,-4.249370026525201,-0.7502099911582664
5.687316346153846,-7.676952917771883,-4.276952917771883,-0.741015694076039
5.695315384615385,-7.7045358090185685,-4.304535809018568,-0.7318213969938105
5.7033144230769235,-7.732118700265254,-4.332118700265254,-0.722627099911582
5.711313461538462,-7.759701591511939,-4.359701591511939,-0.7134328028293536
5.7193125,-7.787284482758621,-4.387284482758622,-0.7042385057471262
5.727311538461539,-8.338692307692323,-4.746230769230775,-0.6
5.735310576923077,-8.659317307692314,-4.959317307692314,-0.6531057692307712
5.743309615384615,-9.201616809116809,-5.20161680911681,-0.39676638176638207
5.751308653846154,-9.211492165242165,-5.2114921652421655,-0.37701566951566934
5.759307692307693,-9.22136752136752,-5.2213675213675215,-0.35726495726495655
5.767306730769231,-9.231242877492878,-5.231242877492878,-0.33751424501424376
5.775305769230769,-9.241118233618232,-5.241118233618233,-0.3177635327635332
5.783304807692308,-9.25099358974359,-5.25099358974359,-0.29801282051282046
5.791303846153847,-9.260868945868946,-5.260868945868946,-0.2782621082621077
5.799302884615385,-9.270744301994302,-5.270744301994302,-0.25851139601139494
5.807301923076923,-9.280619658119658,-5.280619658119658,-0.23876068376068432
5.815300961538462,-9.290495014245014,-5.290495014245014,-0.21900997150997156
5.823300000000001,-9.306000000000004,-5.3,-0.1879999999999922
5.831299038461538,-11.049839743589681,-4.980064102564128,0.3
5.839298076923077,-11.463876748251744,-4.7759178321678295,0.2819383741258722
5.847297115384616,-11.409337849650344,-4.739558566433563,0.25466892482517206
5.8552961538461545,-11.354798951048943,-4.703199300699296,0.22739947552447196
5.863295192307692,-11.30026005244755,-4.666840034965033,0.20013002622377485
5.871294230769231,-11.24572115384615,-4.630480769230767,0.17286057692307474
5.87929326923077,-11.19118225524475,-4.5941215034965,0.1455911276223746
5.887292307692308,-11.136643356643356,-4.557762237762237,0.11832167832167753
5.895291346153846,-11.082104458041956,-4.52140297202797,0.0910522290209774
5.903290384615385,-11.027565559440555,-4.485043706293704,0.06378277972027727
5.911289423076924,-10.973026660839155,-4.448684440559436,0.03651333041957716
5.9192884615384616,-10.91848776223776,-4.412325174825174,0.009243881118880026
5.9272875,-7.803162500000007,-4.700862500000002,0.9005750000000013
5.935286538461539,-7.891151923076933,-4.724859615384618,0.9165730769230787
5.943285576923077,-7.979141346153848,-4.748856730769232,0.9325711538461543
5.9512846153846155,-8.067130769230774,-4.772853846153848,0.9485692307692316
5.959283653846154,-8.155120192307699,-4.796850961538463,0.9645673076923089
5.967282692307693,-8.243109615384624,-4.820848076923079,0.9805653846153862
5.975281730769231,-8.33109903846154,-4.844845192307693,0.9965634615384619
5.9832807692307695,-8.419088461538465,-4.868842307692309,1.0125615384615392
5.991279807692308,-8.507077884615391,-4.892839423076925,1.0285596153846166
5.999278846153847,-8.595067307692316,-4.916836538461541,1.0445576923076938
6.007277884615385,-8.683056730769232,-4.940833653846154,1.0605557692307694
6.015276923076923,-8.771046153846157,-4.96483076923077,1.0765538461538466
6.023275961538462,-8.859035576923082,-4.988827884615386,1.092551923076924
6.031275,-9.7,-4.572500000000006,1.1483333333333374
6.039274038461539,-8.56607905982906,-3.193215811965812,0.8067841880341882
6.047273076923077,-8.502594627594624,-3.1805189255189252,0.8194810744810751
6.055272115384616,-8.43911019536019,-3.167822039072038,0.8321779609279619
6.063271153846154,-8.375625763125763,-3.155125152625153,0.8448748473748474
6.071270192307693,-8.312141330891327,-3.142428266178266,0.8575717338217343
6.079269230769231,-8.248656898656893,-3.129731379731379,0.8702686202686213
6.087268269230769,-8.185172466422467,-3.1170344932844936,0.8829655067155067
6.095267307692308,-8.12168803418803,-3.1043376068376065,0.8956623931623936
6.1032663461538466,-8.161307692307712,-3.565326923076928,0.704019230769216
6.111265384615385,-8.550615384615398,-3.5373461538461504,0.47469230769230053
6.119264423076923,-9.00646978021978,-3.5978434065934066,0.2
6.127263461538462,-9.029324175824177,-3.5902252747252748,0.2
6.1352625000000005,-9.052178571428573,-3.5826071428571424,0.2
6.143261538461539,-9.07503296703297,-3.5749890109890106,0.2
6.151260576923077,-9.097887362637362,-3.567370879120879,0.2
6.159259615384616,-9.12074175824176,-3.5597527472527473,0.2
6.1672586538461545,-9.143596153846156,-3.552134615384615,0.2
6.175257692307692,-9.166450549450548,-3.544516483516484,0.2
6.183256730769231,-9.189304945054946,-3.5368983516483516,0.2
6.19125576923077,-9.212159340659342,-3.5292802197802198,0.2
6.199254807692308,-9.235013736263738,-3.5216620879120875,0.2
6.207253846153846,-9.25786813186813,-3.5140439560439565,0.2
6.215252884615385,-9.280722527472529,-3.506425824175824,0.2
6.223251923076924,-9.237403846153832,-3.562596153846169,0.13740384615383144
6.2312509615384615,-9.2868526962728,-3.5912351308485335,-0.1
6.23925,-9.262113402061857,-3.5747422680412373,-0.1
6.247249038461539,-9.237374107850911,-3.558249405233941,-0.1
6.255248076923078,-9.212634813639967,-3.5417565424266444,-0.1
6.263247115384615,-9.187895519429025,-3.52526367961935,-0.1
6.271246153846154,-9.163156225218081,-3.5087708168120537,-0.1
6.279245192307693,-9.138416931007136,-3.492277954004757,-0.1
6.287244230769231,-9.113677636796194,-3.4757850911974626,-0.1
6.295243269230769,-9.08893834258525,-3.4592922283901664,-0.1
6.303242307692308,-9.064199048374304,-3.4427993655828697,-0.1
6.311241346153847,-9.03945975416336,-3.4263065027755735,-0.1
6.319240384615385,-9.014720459952418,-3.4098136399682786,-0.1
6.327239423076923,-8.98802884615383,-2.97605769230766,0.2760576923076601
6.335238461538462,-8.9380769230769,-2.8238461538461994,-0.02384615384619962
6.343237500000001,-8.908318965517243,-2.9083189655172417,-0.10831896551724193
6.351236538461539,-8.917513262599469,-2.9175132625994693,-0.11751326259946934
6.359235576923077,-8.926707559681699,-2.926707559681698,-0.12670755968169778
6.367234615384616,-8.935901856763927,-2.9359018567639263,-0.1359018567639262
6.375233653846154,-8.945096153846153,-2.9450961538461535,-0.1450961538461536
6.3832326923076925,-8.954290450928383,-2.954290450928382,-0.15429045092838203
6.391231730769231,-8.963484748010611,-2.9634847480106106,-0.16348474801061047
6.39923076923077,-8.972679045092839,-2.9726790450928386,-0.17267904509283888
6.407229807692308,-8.981873342175067,-2.9818733421750663,-0.1818733421750663
6.4152288461538465,-8.991067639257295,-2.991067639257295,-0.19106763925729475
6.423227884615385,-9.0,-3.0227884615385068,-0.2
6.431226923076923,-9.807564102564099,-2.9,-0.9075641025640984
6.439225961538462,-9.882384399308556,-2.9117437337942955,-1.0117437337942956
6.447225,-9.855421348314605,-2.929719101123596,-1.0297191011235962
6.455224038461539,-9.828458297320655,-2.9476944684528967,-1.0476944684528968
6.463223076923077,-9.801495246326708,-2.9656698357821956,-1.0656698357821954
6.471222115384616,-9.774532195332757,-2.9836452031114957,-1.083645203111496
6.479221153846154,-9.747569144338804,-3.0016205704407963,-1.1016205704407964
6.487220192307692,-9.720606093344857,-3.019595937770095,-1.119595937770095
6.495219230769231,-9.693643042350907,-3.0375713050993958,-1.1375713050993956
6.50321826923077,-9.666679991356956,-3.0555466724286964,-1.1555466724286962
6.511217307692308,-9.639716940363005,-3.073522039757997,-1.1735220397579968
6.519216346153846,-9.612753889369056,-3.0914974070872954,-1.1914974070872955
6.527215384615385,-10.882307692307737,-3.232153846153849,-1.532153846153849
6.535214423076924,-12.689375000000535,-3.482163461538585,-1.660721153846195
6.543213461538462,-13.280149572649583,-3.6,-1.7
6.5512125,-13.188493589743588,-3.607964743589744,-1.6840705128205125
6.559211538461539,-13.044921104536483,-3.618219921104537,-1.663560157790926
6.5672105769230775,-12.90134861932938,-3.6284750986193304,-1.6430498027613396
6.575209615384615,-12.75777613412229,-3.6387302761341225,-1.6225394477317556
6.583208653846154,-12.614203648915186,-3.6489854536489155,-1.6020290927021692
6.591207692307693,-12.470631163708081,-3.659240631163709,-1.581518737672583
6.5992067307692315,-12.327058678500975,-3.669495808678502,-1.5610083826429966
6.607205769230769,-12.183486193293888,-3.679750986193294,-1.5404980276134124
6.615204807692308,-12.039913708086782,-3.690006163708087,-1.5199876725838262
6.623203846153847,-11.573846153845421,-3.679615384615339,-1.4592307692306776
6.6312028846153845,-10.280793269230815,-3.1800721153846196,-1.960144230769239
6.639201923076923,-10.539571005917162,-3.1762573964497025,-2.0
6.647200961538462,-10.583521766694847,-3.1498869399830918,-2.0
6.655200000000001,-10.627472527472532,-3.1235164835164806,-2.0
6.6631990384615385,-10.671423288250214,-3.0971460270498725,-2.0
6.671198076923077,-10.715374049027899,-3.0707755705832613,-2.0
6.679197115384616,-10.759324809805584,-3.04440511411665,-2.0
6.687196153846155,-10.803275570583269,-3.018034657650039,-2.0
6.6951951923076924,-10.847226331360948,-2.991664201183431,-2.0
6.703194230769231,-10.891177092138633,-2.9652937447168197,-2.0
6.71119326923077,-10.935127852916319,-2.9389232882502085,-2.0
6.719192307692308,-10.979078613694,-2.9125528317836005,-2.0
6.727191346153846,-9.961730769230762,-2.419134615384619,-1.719134615384619
6.735190384615385,-9.694649088025376,-2.5107018239492467,-1.9
6.743189423076924,-9.686402656621727,-2.5271946867565434,-1.9
6.751188461538462,-9.67815622521808,-2.543687549563838,-1.9
6.7591875,-9.669909793814432,-2.560180412371134,-1.9
6.767186538461539,-9.661663362410785,-2.5766732751784307,-1.9
6.775185576923077,-9.653416931007136,-2.593166137985725,-1.9
6.783184615384616,-9.64517049960349,-2.6096590007930214,-1.9
6.791183653846154,-9.636924068199841,-2.626151863600318,-1.9
6.799182692307693,-9.628677636796192,-2.6426447264076143,-1.9
6.807181730769231,-9.620431205392546,-2.659137589214909,-1.9
6.8151807692307695,-9.612184773988897,-2.6756304520222054,-1.9
6.823179807692308,-9.603938342585248,-2.6921233148295016,-1.9
6.831178846153846,-8.782115384615423,-2.8821153846154233,-1.7178846153845768
6.839177884615385,-8.582546456352635,-2.6058178478824554,-1.7
6.8471769230769235,-8.555583405358684,-2.6148055315471055,-1.7
6.855175961538462,-8.528620354364733,-2.6237932152117556,-1.7
6.863175,-8.501657303370786,-2.6327808988764048,-1.7
6.871174038461539,-8.474694252376835,-2.6417685825410553,-1.7
6.8791730769230774,-8.447731201382885,-2.6507562662057054,-1.7
6.887172115384616,-8.420768150388934,-2.6597439498703555,-1.7
6.895171153846154,-8.393805099394987,-2.6687316335350046,-1.7
6.903170192307693,-8.366842048401036,-2.6777193171996547,-1.7
6.911169230769231,-8.339878997407085,-2.6867070008643053,-1.7
6.919168269230769,-8.312915946413138,-2.6956946845289544,-1.7
6.927167307692308,-8.17498076923076,-2.74167307692308,-1.6166538461538404
6.935166346153847,-7.692870879120842,-2.9023763736263857,-1.3
6.943165384615385,-7.283461538461469,-3.1165384615385308,-1.1834615384614693
6.951164423076923,-7.2,-3.208631835032438,-1.1
6.959163461538462,-7.2,-3.218269230769231,-1.1
6.967162500000001,-7.2,-3.227906626506025,-1.1
6.975161538461538,-7.2,-3.2375440222428176,-1.1
6.983160576923077,-7.2,-3.247181417979611,-1.1
6.991159615384616,-7.2,-3.2568188137164045,-1.1
6.9991586538461545,-7.2,-3.266456209453198,-1.1
7.007157692307692,-7.2,-3.2760936051899905,-1.1
7.015156730769231,-7.2,-3.285731000926784,-1.1
7.02315576923077,-7.2,-3.295368396663578,-1.1
7.031154807692308,-7.449288461538454,-3.383096153846151,-1.1
7.039153846153846,-8.512522361359572,-3.9050089445438285,-0.8949910554561712
7.047152884615385,-8.559028398926657,-3.9236113595706628,-0.8763886404293371
7.055151923076924,-8.605534436493743,-3.942213774597497,-0.8577862254025029
7.063150961538462,-8.652040474060822,-3.960816189624329,-0.8391838103756708
7.07115,-8.698546511627908,-3.9794186046511633,-0.8205813953488367
7.079149038461539,-8.745052549194993,-3.998021019677997,-0.8019789803220025
7.087148076923078,-8.79155858676208,-4.016623434704831,-0.7833765652951684
7.0951471153846155,-8.83806462432916,-4.035225849731663,-0.7647741502683363
7.103146153846154,-8.884570661896245,-4.053828264758497,-0.7461717352415022
7.111145192307693,-8.93107669946333,-4.072430679785332,-0.727569320214668
7.119144230769231,-8.97758273703041,-4.091033094812164,-0.7089669051878359
7.1271432692307695,-10.09985576923076,-4.342836538461538,-0.4
7.135142307692308,-10.152274959083478,-4.3,-0.3
7.143141346153847,-10.220351882160402,-4.3,-0.3
7.151140384615385,-10.28842880523732,-4.3,-0.3
7.159139423076923,-10.356505728314245,-4.3,-0.3
7.167138461538462,-10.42458265139117,-4.3,-0.3
7.1751375,-10.492659574468087,-4.3,-0.3
7.183136538461539,-10.560736497545012,-4.3,-0.3
7.191135576923077,-10.628813420621936,-4.3,-0.3
7.199134615384616,-10.696890343698863,-4.3,-0.3
7.207133653846154,-10.76496726677578,-4.3,-0.3
7.215132692307693,-10.833044189852705,-4.3,-0.3
7.223131730769231,-10.847307692307437,-4.260480769230577,-0.27365384615371824
7.23113076923077,-8.500142140468228,-3.900284280936457,0.6004264214046853
7.239129807692308,-8.508836747491639,-3.917673494983278,0.6265102424749172
7.247128846153847,-8.51753135451505,-3.935062709030101,0.6525940635451519
7.255127884615385,-8.526225961538461,-3.952451923076924,0.6786778846153867
7.263126923076923,-8.534920568561873,-3.9698411371237454,0.7047617056856186
7.271125961538462,-8.543615175585284,-3.987230351170569,0.7308455267558533
7.2791250000000005,-8.552309782608695,-4.004619565217392,0.7569293478260881
7.287124038461539,-8.561004389632107,-4.022008779264215,0.7830131688963229
7.295123076923077,-8.569698996655518,-4.039397993311036,0.8090969899665548
7.303122115384616,-8.57839360367893,-4.05678720735786,0.8351808110367895
7.3111211538461545,-8.58708821070234,-4.074176421404682,0.8612646321070243
7.319120192307692,-8.595782817725752,-4.091565635451504,0.8873484531772562
7.327119230769231,-9.791483516483497,-3.996593406593399,0.7948901098900982
7.33511826923077,-9.29371758859118,-3.7962305531547074,0.5025129645635282
7.343117307692308,-9.248779170267929,-3.7692675021607567,0.5204883318928286
7.351116346153846,-9.203840751944684,-3.742304451166809,0.538463699222127
7.359115384615385,-9.158902333621432,-3.715341400172859,0.5564390665514274
7.367114423076924,-9.11396391529818,-3.688378349178908,0.5744144338807278
7.3751134615384615,-9.069025496974936,-3.6614152981849606,0.5923898012100262
7.3831125,-9.024087078651684,-3.63445224719101,0.6103651685393265
7.391111538461539,-8.979148660328434,-3.6074891961970597,0.6283405358686269
7.399110576923078,-8.934210242005182,-3.580526145203109,0.6463159031979273
7.407109615384615,-8.889271823681936,-3.5535630942091614,0.6642912705272257
7.415108653846154,-8.844333405358686,-3.5266000432152107,0.6822666378565261
7.423107692307693,-8.767692307692169,-3.4784615384614455,0.7215384615385544
7.431106730769232,-8.321346153846243,-3.1297756410256263,0.7
7.439105769230769,-8.531581196581195,-3.1,0.6842094017094021
7.447104807692308,-8.567132478632479,-3.1,0.6664337606837606
7.455103846153847,-8.602683760683762,-3.1,0.6486581196581189
7.463102884615385,-8.638235042735042,-3.1,0.6308824786324794
7.471101923076923,-8.673786324786324,-3.1,0.6131068376068377
7.479100961538462,-8.709337606837607,-3.1,0.5953311965811962
7.487100000000001,-8.744888888888891,-3.1,0.5775555555555545
7.495099038461539,-8.780440170940171,-3.1,0.5597799145299149
7.503098076923077,-8.815991452991454,-3.1,0.5420042735042733
7.511097115384616,-8.851542735042736,-3.1,0.5242286324786316
7.519096153846154,-8.887094017094016,-3.1,0.506452991452992
7.5270951923076925,-9.069839743589762,-3.015080128205119,0.4150801282051192
7.535094230769231,-9.197673076923076,-3.2,0.4976730769230768
7.54309326923077,-9.188785256410256,-3.2,0.488785256410256
7.551092307692308,-9.179897435897436,-3.2,0.47989743589743616
7.5590913461538465,-9.171009615384614,-3.2,0.4710096153846154
7.567090384615385,-9.162121794871794,-3.2,0.4621217948717946
7.575089423076924,-9.153233974358972,-3.2,0.4532339743589738
7.583088461538462,-9.144346153846154,-3.2,0.44434615384615395
7.5910875,-9.135458333333332,-3.2,0.43545833333333317
7.599086538461539,-9.126570512820512,-3.2,0.4265705128205124
7.607085576923077,-9.117682692307692,-3.2,0.41768269230769256
7.615084615384616,-9.10879487179487,-3.2,0.40879487179487173
7.623083653846154,-9.1,-3.204182692307709,0.4
7.631082692307693,-9.136692307692265,-3.381653846153868,0.31834615384613196
7.639081730769231,-9.093895059681698,-3.4,0.3
7.64708076923077,-9.086999336870026,-3.4,0.3
7.655079807692308,-9.080103614058354,-3.4,0.3
7.663078846153846,-9.073207891246684,-3.4,0.3
7.671077884615385,-9.066312168435013,-3.4,0.3
7.679076923076924,-9.059416445623341,-3.4,0.3
7.687075961538462,-9.05252072281167,-3.4,0.3
7.695075,-9.045625,-3.4,0.3
7.703074038461539,-9.03872927718833,-3.4,0.3
7.7110730769230775,-9.031833554376657,-3.4,0.3
7.719072115384615,-9.024937831564987,-3.4,0.3
7.727071153846154,-9.018042108753315,-3.4,0.3
7.735070192307693,-9.011146385941645,-3.4,0.3
7.7430692307692315,-9.004250663129973,-3.4,0.3
7.751068269230769,-9.010240384615347,-3.296586538461551,0.29658653846155114
7.759067307692308,-9.642494259471876,-3.2,0.29392939150401776
7.767066346153847,-9.726066303099891,-3.2,0.2819905281285869
7.775065384615385,-9.809638346727908,-3.2,0.270051664753156
7.783064423076923,-9.893210390355915,-3.2,0.2581128013777264
7.791063461538462,-9.976782433983931,-3.2,0.24617393800229556
7.799062500000001,-10.060354477611948,-3.2,0.23423507462686466
7.8070615384615385,-10.143926521239955,-3.2,0.22229621125143512
7.815060576923077,-10.227498564867972,-3.2,0.21035734787600424
7.823059615384616,-10.405961538461597,-3.2,0.09403846153840305
7.831058653846155,-10.014663461538557,-3.3029326923077114,-0.20293269230771144
7.8390576923076924,-11.4,-3.7,-0.6093280282935459
7.847056730769231,-11.4,-3.7,-0.6277166224580029
7.85505576923077,-11.4,-3.7,-0.6461052166224597
7.863054807692308,-11.4,-3.7,-0.6644938107869145
7.871053846153846,-11.4,-3.7,-0.6828824049513713
7.879052884615385,-11.4,-3.7,-0.7012709991158282
7.887051923076924,-11.4,-3.7,-0.7196595932802851
7.895050961538462,-11.4,-3.7,-0.7380481874447399
7.90305,-11.4,-3.7,-0.7564367816091968
7.911049038461539,-11.4,-3.7,-0.7748253757736536
7.919048076923077,-11.4,-3.7,-0.7932139699381084
7.927047115384616,-11.4,-3.8,-0.7492147435897407
7.935046153846154,-9.002377622377622,-3.2035664335664347,-1.0047552447552461
7.943045192307693,-9.020557255244757,-3.230835882867135,-1.041114510489513
7.951044230769231,-9.038736888111888,-3.258105332167832,-1.0774737762237756
7.9590432692307695,-9.056916520979021,-3.285374781468532,-1.1138330419580424
7.967042307692308,-9.075096153846154,-3.3126442307692323,-1.1501923076923093
7.975041346153847,-9.093275786713289,-3.339913680069932,-1.1865515734265761
7.983040384615385,-9.11145541958042,-3.367183129370629,-1.222910839160839
7.9910394230769235,-9.129635052447552,-3.3944525786713293,-1.2592701048951058
7.999038461538462,-9.147814685314685,-3.4217220279720295,-1.2956293706293727
8.007037500000001,-9.16599431818182,-3.4489914772727297,-1.3319886363636395
8.015036538461539,-9.184173951048951,-3.476260926573427,-1.3683479020979021
8.023035576923077,-9.238834134615365,-3.4741105769230893,-1.3870552884615446
8.031034615384616,-9.99826923076922,-3.0965384615384406,-1.5051923076923395
8.039033653846154,-9.749158653846143,-2.6988782051281905,-1.7497195512820476
8.047032692307694,-9.602639860139861,-2.497360139860138,-1.7052797202797236
8.055031730769231,-9.613028221778222,-2.4869717782217773,-1.7260564435564454
8.06303076923077,-9.623416583416583,-2.4765834165834164,-1.746833166833167
8.071029807692309,-9.633804945054946,-2.4661950549450533,-1.7676098901098931
8.079028846153847,-9.644193306693307,-2.4558066933066924,-1.7883866133866149
8.087027884615384,-9.654581668331668,-2.4454183316683316,-1.8091633366633364
8.095026923076924,-9.66497002997003,-2.4350299700299685,-1.8299400599400626
8.103025961538462,-9.675358391608391,-2.4246416083916076,-1.8507167832167843
8.111025,-9.685746753246752,-2.4142532467532467,-1.8714935064935059
8.11902403846154,-9.696135114885115,-2.4038648851148836,-1.892270229770232
8.127023076923077,-9.570439560439569,-2.5,-2.0
8.135022115384615,-9.298838505244756,-2.7,-1.9
8.143021153846155,-9.289748688811189,-2.7,-1.9
8.151020192307692,-9.280658872377623,-2.7,-1.9
8.159019230769232,-9.271569055944054,-2.7,-1.9
8.16701826923077,-9.262479239510489,-2.7,-1.9
8.175017307692308,-9.253389423076923,-2.7,-1.9
8.183016346153847,-9.244299606643356,-2.7,-1.9
8.191015384615385,-9.235209790209788,-2.7,-1.9
8.199014423076923,-9.226119973776223,-2.7,-1.9
8.207013461538462,-9.217030157342656,-2.7,-1.9
8.2150125,-9.20794034090909,-2.7,-1.9
8.223011538461538,-9.149423076923089,-2.7,-1.9
8.231010576923078,-8.8,-2.8197884615384363,-1.9197884615384364
8.239009615384616,-8.784594251901943,-2.8,-1.8922971259509713
8.247008653846155,-8.767013947590867,-2.8,-1.8835069737954333
8.255007692307693,-8.749433643279795,-2.8,-1.8747168216398973
8.26300673076923,-8.731853338968723,-2.8,-1.8659266694843615
8.27100576923077,-8.714273034657648,-2.8,-1.8571365173288235
8.279004807692308,-8.696692730346575,-2.8,-1.8483463651732877
8.287003846153846,-8.679112426035504,-2.8,-1.8395562130177516
8.295002884615386,-8.661532121724427,-2.8,-1.8307660608622136
8.303001923076923,-8.643951817413356,-2.8,-1.8219759087066778
8.311000961538461,-8.626371513102283,-2.8,-1.8131857565511418
8.319,-8.608791208791207,-2.8,-1.804395604395604
8.326999038461539,-8.150048076923065,-3.049951923076935,-1.4500480769230648
8.334998076923076,-8.10543269230769,-3.105432692307692,-1.2945673076923083
8.342997115384616,-8.114127299331104,-3.114127299331104,-1.2858727006688957
8.350996153846154,-8.122821906354515,-3.122821906354515,-1.277178093645485
8.358995192307694,-8.131516513377926,-3.1315165133779277,-1.2684834866220727
8.366994230769231,-8.140211120401338,-3.140211120401338,-1.2597888795986618
8.37499326923077,-8.148905727424749,-3.148905727424749,-1.2510942725752512
8.382992307692309,-8.15760033444816,-3.1576003344481616,-1.2423996655518388
8.390991346153847,-8.166294941471572,-3.166294941471572,-1.2337050585284282
8.398990384615384,-8.174989548494981,-3.174989548494983,-1.2250104515050175
8.406989423076924,-8.183684155518394,-3.1836841555183955,-1.216315844481605
8.414988461538462,-8.192378762541805,-3.192378762541806,-1.2076212374581943
8.4229875,-8.348124999999936,-3.249374999999979,-1.1012500000000423
8.43098653846154,-9.287079326923077,-3.3748317307692313,-0.8625841346153843
8.438985576923077,-9.537049278846135,-3.474819711538454,-0.812590144230773
8.446984615384617,-9.79458193979933,-3.5,-0.5891638795986599
8.454983653846154,-9.78588733277592,-3.5,-0.5717746655518386
8.462982692307692,-9.77719272575251,-3.5,-0.5543854515050174
8.470981730769232,-9.768498118729097,-3.5,-0.5369962374581922
8.47898076923077,-9.759803511705686,-3.5,-0.519607023411371
8.486979807692308,-9.751108904682274,-3.5,-0.5022178093645497
8.494978846153847,-9.742414297658863,-3.5,-0.48482859531772465
8.502977884615385,-9.733719690635452,-3.5,-0.46743938127090345
8.510976923076923,-9.72502508361204,-3.5,-0.4500501672240822
8.518975961538462,-9.716330476588627,-3.5,-0.43266095317725706
8.526975,-9.707635869565218,-3.5,-0.4152717391304358
8.534974038461538,-9.602596153846214,-3.402596153846214,-0.3025961538462142
8.542973076923078,-11.103344198174707,-3.1016720990873536,0.19665580182529283
8.550972115384615,-11.116901890482398,-3.1084509452411995,0.18309810951760164
8.558971153846155,-11.130459582790092,-3.115229791395046,0.16954041720990745
8.566970192307693,-11.144017275097784,-3.122008637548892,0.15598272490221626
8.57496923076923,-11.157574967405475,-3.1287874837027374,0.14242503259452508
8.58296826923077,-11.17113265971317,-3.1355663298565846,0.1288673402868309
8.590967307692308,-11.18469035202086,-3.1423451760104304,0.11530964797913969
8.598966346153846,-11.198248044328551,-3.149124022164276,0.1017519556714485
8.606965384615386,-11.211805736636245,-3.155902868318123,0.0881942633637543
8.614964423076923,-11.225363428943938,-3.1626817144719688,0.07463657105606311
8.622963461538461,-11.238921121251629,-3.169460560625814,0.06107887874837192
8.6309625,-11.252478813559323,-3.1762394067796613,0.04752118644067774
8.638961538461539,-11.266036505867014,-3.1830182529335067,0.03396349413298655
8.646960576923078,-11.279594198174708,-3.189797099087354,0.020405801825292336
8.654959615384616,-11.293151890482399,-3.1965759452411997,0.0068481095176011475
8.662958653846154,-8.685961538461392,-3.261153846153888,0.761153846153888
8.670957692307693,-8.744325108853426,-3.9,1.4073875181422375
8.678956730769231,-8.925435413642964,-3.9,1.4375725689404941
8.686955769230769,-9.106545718432503,-3.9,1.4677576197387505
8.694954807692309,-9.287656023222082,-3.9,1.4979426705370138
8.702953846153846,-9.468766328011622,-3.9,1.5281277213352702
8.710952884615384,-9.64987663280116,-3.9,1.5583127721335268
8.718951923076924,-9.83098693759074,-3.9,1.5884978229317899
8.726950961538462,-9.70490384615377,-2.6536778846153277,0.8024519230768852
8.734950000000001,-8.993426966292132,-2.506573033707868,1.108764044943824
8.74294903846154,-8.966463915298183,-2.533536084701816,1.1447147796024215
8.750948076923077,-8.939500864304236,-2.560499135695764,1.180665514261019
8.758947115384617,-8.912537813310282,-2.5874621866897183,1.2166162489196244
8.766946153846154,-8.885574762316333,-2.6144252376836663,1.2525669835782218
8.774945192307692,-8.858611711322386,-2.6413882886776143,1.2885177182368195
8.782944230769232,-8.831648660328431,-2.6683513396715686,1.324468452895425
8.79094326923077,-8.804685609334483,-2.6953143906655166,1.3604191875540224
8.798942307692307,-8.777722558340535,-2.7222774416594646,1.39636992221262
8.806941346153847,-8.750759507346581,-2.749240492653419,1.4323206568712255
8.814940384615385,-8.723796456352632,-2.776203543647367,1.468271391529823
8.822939423076923,-8.7,-2.9409134615384804,1.3590865384615194
8.830938461538462,-8.468717948717927,-2.868717948717927,1.0458119658119513
8.8389375,-9.197720588235294,-2.7,0.9
8.84693653846154,-9.188309954751128,-2.7,0.9
8.854935576923078,-9.178899321266966,-2.7,0.9
8.862934615384615,-9.169488687782804,-2.7,0.9
8.870933653846155,-9.16007805429864,-2.7,0.9
8.878932692307693,-9.150667420814479,-2.7,0.9
8.88693173076923,-9.141256787330317,-2.7,0.9
8.89493076923077,-9.131846153846153,-2.7,0.9
8.902929807692308,-9.122435520361991,-2.7,0.9
8.910928846153846,-9.11302488687783,-2.7,0.9
8.918927884615385,-9.103614253393664,-2.7,0.9
8.926926923076923,-8.814615384615278,-2.807307692307638,1.1
8.934925961538463,-8.70637200165426,-2.9,1.1
8.942925,-8.71497311827957,-2.9,1.1
8.950924038461539,-8.723574234904879,-2.9,1.1
8.958923076923078,-8.732175351530191,-2.9,1.1
8.966922115384616,-8.7407764681555,-2.9,1.1
8.974921153846154,-8.74937758478081,-2.9,1.1
8.982920192307693,-8.757978701406122,-2.9,1.1
8.990919230769231,-8.766579818031431,-2.9,1.1
8.998918269230769,-8.77518093465674,-2.9,1.1
9.006917307692309,-8.783782051282053,-2.9,1.1
9.014916346153846,-8.792383167907362,-2.9,1.1
9.022915384615384,-8.8,-2.9,1.0542307692307755
9.030914423076924,-8.545721153846207,-2.8,1.0
9.038913461538462,-8.919933016421783,-2.893355661192739,0.8
9.046912500000001,-8.946896067415736,-2.884367977528088,0.8
9.054911538461539,-8.973859118409683,-2.8753802938634387,0.8
9.062910576923077,-9.000822169403632,-2.8663926101987895,0.8
9.070909615384616,-9.027785220397584,-2.857404926534138,0.8
9.078908653846154,-9.054748271391531,-2.848417242869489,0.8
9.086907692307692,-9.08171132238548,-2.8394295592048397,0.8
9.094906730769232,-9.108674373379433,-2.830441875540189,0.8
9.10290576923077,-9.13563742437338,-2.8214541918755396,0.8
9.110904807692307,-9.162600475367329,-2.8124665082108904,0.8
9.118903846153847,-9.189563526361281,-2.803478824546239,0.8
9.126902884615385,-10.380576923076848,-2.6097115384615757,0.13884615384630278
9.134901923076924,-10.312557283142393,-2.8062786415711964,-0.10627864157119656
9.142900961538462,-10.329576513911622,-2.814788256955811,-0.11478825695581116
9.1509,-10.346595744680853,-2.8232978723404254,-0.12329787234042575
9.15889903846154,-10.363614975450085,-2.831807487725042,-0.13180748772504225
9.166898076923077,-10.380634206219314,-2.8403171031096566,-0.14031710310965684
9.174897115384615,-10.397653436988543,-2.8488267184942715,-0.14882671849427143
9.182896153846155,-10.414672667757776,-2.8573363338788877,-0.15733633387888793
9.190895192307693,-10.431691898527005,-2.8658459492635022,-0.16584594926350252
9.19889423076923,-10.448711129296234,-2.874355564648117,-0.17435556464811713
9.20689326923077,-10.465730360065468,-2.8828651800327334,-0.1828651800327336
9.214892307692308,-10.482749590834697,-2.891374795417348,-0.1913747954173482
9.222891346153846,-10.499768821603926,-2.899884410801963,-0.1998844108019628
9.230890384615385,-11.289038461538516,-2.9,-0.2717307692307741
9.238889423076923,-12.3,-3.20415257819104,-0.7
9.246888461538463,-12.3,-3.221732882502116,-0.7
9.2548875,-12.3,-3.239313186813188,-0.7
9.262886538461538,-12.3,-3.2568934911242606,-0.7
9.270885576923078,-12.3,-3.2744737954353367,-0.7
9.278884615384616,-12.3,-3.292054099746409,-0.7
9.286883653846154,-12.3,-3.309634404057481,-0.7
9.294882692307693,-12.3,-3.3272147083685573,-0.7
9.302881730769231,-12.3,-3.3447950126796298,-0.7
9.310880769230769,-12.3,-3.362375316990702,-0.7
9.318879807692309,-12.3,-3.379955621301778,-0.7
9.326878846153846,-12.3,-3.3975359256128503,-0.7
9.334877884615386,-9.3828365384623,-3.1561057692307,-0.6877884615386
9.342876923076924,-10.031985688729877,-3.1,-0.8159928443649382
9.350875961538462,-10.069190518783541,-3.1,-0.8345952593917703
9.358875000000001,-10.106395348837212,-3.1,-0.8531976744186065
9.366874038461539,-10.143600178890877,-3.1,-0.8718000894454386
9.374873076923077,-10.180805008944542,-3.1,-0.8904025044722707
9.382872115384616,-10.218009838998213,-3.1,-0.9090049194991069
9.390871153846154,-10.255214669051878,-3.1,-0.9276073345259389
9.398870192307692,-10.292419499105542,-3.1,-0.946209749552771
9.406869230769232,-10.329624329159214,-3.1,-0.9648121645796073
9.41486826923077,-10.366829159212879,-3.1,-0.9834145796064393
9.422867307692307,-10.443365384615358,-2.9699038461539233,-1.0867307692307175
9.430866346153847,-9.895291596989962,-2.6,-1.0009416806020077
9.438865384615385,-9.851818561872909,-2.6,-1.0096362876254183
9.446864423076924,-9.808345526755845,-2.6,-1.018330894648831
9.454863461538462,-9.764872491638792,-2.6,-1.0270255016722416
9.4628625,-9.72139945652174,-2.6,-1.0357201086956522
9.47086153846154,-9.677926421404676,-2.6,-1.0444147157190649
9.478860576923077,-9.634453386287623,-2.6,-1.0531093227424755
9.486859615384615,-9.59098035117057,-2.6,-1.0618039297658861
9.494858653846155,-9.547507316053508,-2.6,-1.0704985367892987
9.502857692307693,-9.504034280936454,-2.6,-1.0791931438127094
9.51085673076923,-9.4605612458194,-2.6,-1.08788775083612
9.51885576923077,-9.417088210702339,-2.6,-1.0965823578595324
9.526854807692308,-8.692740384615426,-3.0927403846154267,-0.8072596153845735
9.534853846153847,-8.791637362637362,-2.9958186813186805,-0.9
9.542852884615385,-8.780210164835164,-2.990105082417582,-0.9
9.550851923076923,-8.768782967032967,-2.9843914835164833,-0.9
9.558850961538463,-8.757355769230768,-2.978677884615384,-0.9
9.56685,-8.745928571428571,-2.9729642857142853,-0.9
9.574849038461538,-8.734501373626374,-2.967250686813187,-0.9
9.582848076923078,-8.723074175824175,-2.9615370879120873,-0.9
9.590847115384616,-8.711646978021978,-2.9558234890109887,-0.9
9.598846153846154,-8.700219780219781,-2.9501098901098906,-0.9
9.606845192307693,-8.688792582417582,-2.9443962912087907,-0.9
9.614844230769231,-8.677365384615385,-2.938682692307692,-0.9
9.62284326923077,-8.665938186813186,-2.9329690934065926,-0.9
9.630842307692308,-8.654510989010989,-2.927255494505494,-0.9
9.638841346153846,-8.643083791208792,-2.921541895604396,-0.9
9.646840384615386,-8.631656593406593,-2.915828296703296,-0.9
9.654839423076924,-8.620229395604396,-2.9101146978021974,-0.9
9.662838461538461,-8.608802197802198,-2.9044010989010993,-0.9
9.670837500000001,-8.583295454545448,-2.916704545454552,-0.9
9.678836538461539,-8.510576923076917,-2.989423076923083,-0.9
9.686835576923077,-7.7977107481559536,-3.102289251844046,-0.9
9.694834615384616,-7.775795574288722,-3.1242044257112775,-0.9
9.702833653846154,-7.753880400421496,-3.1461195995785043,-0.9
9.710832692307692,-7.731965226554268,-3.168034773445731,-0.9
9.718831730769232,-7.710050052687037,-3.1899499473129627,-0.9
9.72683076923077,-7.6881348788198105,-3.2118651211801894,-0.9
9.734829807692309,-7.666219704952578,-3.233780295047421,-0.9
9.742828846153847,-7.644304531085352,-3.255695468914648,-0.9
9.750827884615385,-7.6223893572181245,-3.2776106427818745,-0.9
9.758826923076924,-7.600474183350893,-3.299525816649106,-0.9
9.766825961538462,-8.03651923076923,-3.79668006993007,-0.7933601398601401
9.774825,-8.196499999999988,-3.7821363636363645,-0.7642727272727297
9.78282403846154,-8.35648076923078,-3.7675926573426564,-0.7351853146853128
9.790823076923077,-8.516461538461536,-3.7530489510489513,-0.7060979020979024
9.798822115384615,-8.676442307692295,-3.738505244755246,-0.6770104895104919
9.806821153846155,-8.836423076923086,-3.7239615384615377,-0.647923076923075
9.814820192307693,-8.996403846153845,-3.7094178321678326,-0.6188356643356646
9.822819230769232,-10.063846153846391,-4.0,-0.4361538461536084
9.83081826923077,-10.11781102825746,-3.894062990580846,-0.4
9.838817307692308,-10.14229788069074,-3.88590070643642,-0.4
9.846816346153847,-10.166784733124024,-3.877738422291992,-0.4
9.854815384615385,-10.191271585557303,-3.8695761381475657,-0.4
9.862814423076923,-10.215758437990582,-3.861413854003139,-0.4
9.870813461538463,-10.240245290423866,-3.853251569858711,-0.4
9.8788125,-10.264732142857145,-3.845089285714285,-0.4
9.886811538461538,-10.289218995290424,-3.8369270015698587,-0.4
9.894810576923078,-10.313705847723709,-3.8287647174254302,-0.4
9.902809615384616,-10.338192700156988,-3.820602433281004,-0.4
9.910808653846154,-10.362679552590267,-3.812440149136578,-0.4
9.918807692307693,-10.387166405023551,-3.80427786499215,-0.4
9.926806730769231,-12.042019230769364,-3.409663461538439,-0.4
9.93480576923077,-7.698189282627481,-3.7036214347450396,0.3036214347450393
9.942804807692308,-7.680213915298182,-3.7395721694036363,0.33957216940363605
9.950803846153846,-7.662238547968884,-3.775522904062233,0.3755229040622329
9.958802884615386,-7.644263180639581,-3.8114736387208374,0.41147363872083764
9.966801923076924,-7.626287813310283,-3.847424373379434,0.4474243733794344
9.974800961538461,-7.608312445980984,-3.883375108038031,0.4833751080380312
9.982800000000001,-7.590337078651682,-3.9193258426966358,0.519325842696636
9.990799038461539,-7.572361711322384,-3.9552765773552325,0.5552765773552327
9.998798076923077,-7.554386343993086,-3.9912273120138293,0.5912273120138295
10.006797115384616,-7.536410976663783,-4.027178046672434,0.6271780466724344
10.014796153846154,-7.518435609334484,-4.063128781331031,0.6631287813310311
10.022795192307694,-7.5004602420051825,-4.099079515989636,0.6990795159896359
10.030794230769231,-10.082307692307255,-3.541153846153627,0.5808653846152204
10.03879326923077,-9.554202679343128,-3.2771013396715643,0.3923671132238548
10.046792307692309,-9.500276577355221,-3.2501382886776105,0.3833794295592036
10.054791346153847,-9.446350475367327,-3.223175237683663,0.3743917458945544
10.062790384615385,-9.39242437337943,-3.1962121866897153,0.3654040622299052
10.070789423076924,-9.338498271391524,-3.169249135695762,0.356416378565254
10.078788461538462,-9.284572169403628,-3.1422860847018144,0.3474286949006048
10.0867875,-9.230646067415734,-3.115323033707867,0.3384410112359556
10.09478653846154,-9.176719965427827,-3.088359982713913,0.3294533275713044
10.102785576923077,-9.12279386343993,-3.0613969317199654,0.3204656439066552
10.110784615384615,-9.068867761452037,-3.0344338807260183,0.311477960242006
10.118783653846155,-9.014941659464128,-3.0074708297320645,0.30249027657735483
10.126782692307692,-8.1,-3.521730769230725,0.9825961538460876
10.134781730769232,-8.114429214402621,-3.3855707855973787,0.7927853927986894
10.14278076923077,-8.13144844517185,-3.3685515548281493,0.7842757774140746
10.150779807692308,-8.148467675941081,-3.35153232405892,0.7757661620294599
10.158778846153847,-8.165486906710314,-3.3345130932896865,0.7672565466448432
10.166777884615385,-8.182506137479542,-3.317493862520457,0.7587469312602285
10.174776923076923,-8.199525368248773,-3.3004746317512277,0.7502373158756137
10.182775961538463,-8.216544599018006,-3.2834554009819943,0.741727700490997
10.190775,-8.233563829787236,-3.266436170212765,0.7332180851063823
10.198774038461538,-8.250583060556465,-3.249416939443535,0.7247084697217675
10.206773076923078,-8.267602291325698,-3.232397708674302,0.7161988543371509
10.214772115384616,-8.284621522094929,-3.2153784779050723,0.7076892389525361
10.222771153846155,-8.377115384615541,-3.1614423076922296,0.7385576923077706
10.230770192307693,-8.7,-3.4,0.9980965674110819
10.23876923076923,-8.7,-3.4,0.9894954507857724
10.24676826923077,-8.7,-3.4,0.980894334160461
10.254767307692308,-8.7,-3.4,0.9722932175351515
10.262766346153846,-8.7,-3.4,0.963692100909842
10.270765384615386,-8.7,-3.4,0.9550909842845307
10.278764423076924,-8.7,-3.4,0.9464898676592212
10.286763461538461,-8.7,-3.4,0.9378887510339117
10.294762500000001,-8.7,-3.4,0.9292876344086003
10.302761538461539,-8.7,-3.4,0.9206865177832908
10.310760576923077,-8.7,-3.4,0.9120854011579813
10.318759615384616,-8.7,-3.4,0.9034842845326699
10.326758653846154,-8.62068910256409,-3.4,0.9793108974359106
10.334757692307694,-8.624846153846116,-3.1375769230769417,0.9624230769230585
10.342756730769231,-8.50867521367522,-3.20433760683761,0.897831196581195
10.35075576923077,-8.54817663817664,-3.2240883190883207,0.8879558404558399
10.358754807692309,-8.587678062678071,-3.2438390313390353,0.8780804843304825
10.366753846153847,-8.627179487179491,-3.2635897435897454,0.8682051282051273
10.374752884615384,-8.666680911680912,-3.283340455840456,0.8583297720797721
10.382751923076924,-8.70618233618234,-3.3030911680911705,0.8484544159544147
10.390750961538462,-8.745683760683763,-3.322841880341881,0.8385790598290596
10.39875,-8.785185185185183,-3.3425925925925912,0.8287037037037044
10.40674903846154,-8.824686609686612,-3.3623433048433062,0.818828347578347
10.414748076923077,-8.864188034188032,-3.3820940170940164,0.8089529914529918
10.422747115384617,-9.273557692308277,-3.474711538461655,0.7252884615383448
10.430746153846155,-10.447692307693153,-3.4253846153844747,0.4253846153844747
10.438745192307692,-10.945186905790841,-3.406455272255834,0.2935447277441657
10.446744230769232,-11.0081006914434,-3.4154429559204855,0.2845570440795145
10.45474326923077,-11.071014477095943,-3.4244306395851347,0.2755693604148653
10.462742307692308,-11.133928262748487,-3.433418323249784,0.2665816767502161
10.470741346153847,-11.196842048401045,-3.442406006914435,0.2575939930855649
10.478740384615385,-11.259755834053589,-3.451393690579084,0.24860630942091572
10.486739423076923,-11.322669619706135,-3.4603813742437333,0.23961862575626652
10.494738461538462,-11.385583405358693,-3.4693690579083847,0.23063094209161533
10.5027375,-11.448497191011237,-3.478356741573034,0.22164325842696614
10.51073653846154,-11.511410976663795,-3.487344425237685,0.21265557476231495
10.518735576923078,-11.574324762316339,-3.496332108902334,0.20366789109766575
10.526734615384616,-13.231282051282014,-3.97346153846151,-0.11564102564100681
10.534733653846155,-12.211057692307403,-4.042211538461481,-0.1
10.542732692307693,-11.840358842188714,-3.9722363203806457,-0.10694091990483855
10.55073173076923,-11.650690919904825,-3.9392505947660568,-0.11518735130848583
10.55873076923077,-11.461022997620896,-3.9062648691514603,-0.12343378271213494
10.566729807692308,-11.27135507533701,-3.873279143536871,-0.13168021411578223
10.574728846153846,-11.081687153053121,-3.840293417922282,-0.1399266455194295
10.582727884615386,-10.892019230769192,-3.8073076923076856,-0.1481730769230786
10.590726923076923,-10.702351308485305,-3.7743219666930967,-0.15641950832672588
10.598725961538461,-10.512683386201417,-3.7413362410785074,-0.16466593973037316
10.606725,-10.323015463917487,-3.708350515463911,-0.17291237113402227
10.614724038461539,-10.1333475416336,-3.675364789849322,-0.18115880253766956
10.622723076923078,-9.94367961934967,-3.6423790642347256,-0.18940523394131867
10.630722115384616,-9.754011697065783,-3.6093933386201362,-0.19765166534496595
10.638721153846154,-9.81634615384613,-3.468028846153844,-0.4360576923076884
10.646720192307694,-10.611800480769235,-3.2763990384615296,-0.7177007211538526
10.654719230769231,-10.63179807692308,-3.2364038461538405,-0.7476971153846195
10.66271826923077,-10.651795673076924,-3.1964086538461514,-0.7776935096153863
10.670717307692309,-10.671793269230774,-3.1564134615384534,-0.8076899038461597
10.678716346153847,-10.691790865384618,-3.1164182692307643,-0.8376862980769265
10.686715384615384,-10.711788461538463,-3.0764230769230756,-0.8676826923076933
10.694714423076924,-10.731786057692311,-3.0364278846153776,-0.8976790865384668
10.702713461538462,-10.751783653846156,-2.9964326923076885,-0.9276754807692336
10.710712500000001,-10.771781250000005,-2.9564374999999905,-0.9576718750000071
10.71871153846154,-10.79177884615385,-2.9164423076923014,-0.9876682692307739
10.726710576923077,-10.068898601398592,-2.3077753496503517,-0.9922246503496482
10.734709615384617,-9.92346153846151,-2.3441346153846223,-0.9558653846153777
10.742708653846154,-9.778024475524461,-2.3804938811188845,-0.9195061188811153
10.750707692307692,-9.385363825363822,-2.6036590436590448,-1.0036590436590445
10.758706730769232,-9.34212577962577,-2.614468555093558,-1.0144685550935575
10.76670576923077,-9.298887733887728,-2.625278066528068,-1.025278066528068
10.774704807692308,-9.255649688149685,-2.636087577962579,-1.0360875779625787
10.782703846153847,-9.212411642411633,-2.646897089397092,-1.0468970893970917
10.790702884615385,-9.169173596673591,-2.6577066008316024,-1.0577066008316023
10.798701923076923,-9.125935550935548,-2.668516112266113,-1.0685161122661129
10.806700961538462,-9.082697505197496,-2.679325623700626,-1.079325623700626
10.8147,-9.039459459459454,-2.6901351351351366,-1.0901351351351365
10.82269903846154,-8.720384615384091,-2.839807692307954,-1.030096153846023
10.830698076923078,-7.991296526054587,-3.0,-0.9970988420181954
10.838697115384615,-7.965493176178658,-3.0,-0.9884977253928859
10.846696153846155,-7.939689826302724,-3.0,-0.9798966087675746
10.854695192307693,-7.9138864764267955,-3.0,-0.9712954921422651
10.86269423076923,-7.888083126550867,-3.0,-0.9626943755169556
10.87069326923077,-7.862279776674932,-3.0,-0.9540932588916442
10.878692307692308,-7.836476426799004,-3.0,-0.9454921422663347
10.886691346153846,-7.810673076923075,-3.0,-0.9368910256410252
10.894690384615386,-7.784869727047141,-3.0,-0.9282899090157138
10.902689423076923,-7.759066377171213,-3.0,-0.9196887923904044
10.910688461538463,-7.733263027295279,-3.0,-0.911087675765093
10.9186875,-7.707459677419351,-3.0,-0.9024865591397835
10.926686538461539,-6.896522601110232,-3.503477398889769,-0.9
10.934685576923078,-6.880029738302933,-3.519970261697067,-0.9
10.942684615384616,-6.8635368754956385,-3.536463124504362,-0.9
10.950683653846154,-6.847044012688344,-3.5529559873116563,-0.9
10.958682692307693,-6.830551149881046,-3.5694488501189543,-0.9
10.966681730769231,-6.814058287073752,-3.585941712926249,-0.9
10.974680769230769,-6.797565424266457,-3.6024345757335436,-0.9
10.982679807692309,-6.781072561459158,-3.6189274385408416,-0.9
10.990678846153846,-6.764579698651864,-3.6354203013481365,-0.9
10.998677884615384,-6.748086835844569,-3.651913164155431,-0.9
11.006676923076924,-6.731593973037271,-3.668406026962729,-0.9
11.014675961538462,-6.715101110229977,-3.684898889770024,-0.9
11.022675000000001,-6.7,-3.7337500000000734,-0.9
11.03067403846154,-7.714223608837972,-4.305689443535188,-0.7971552782324057
11.038673076923077,-7.756771685761046,-4.322708674304418,-0.7886456628477909
11.046672115384617,-7.799319762684129,-4.3397279050736515,-0.7801360474631742
11.054671153846154,-7.841867839607202,-4.356747135842881,-0.7716264320785595
11.062670192307692,-7.884415916530276,-4.37376636661211,-0.7631168166939447
11.070669230769232,-7.926963993453359,-4.390785597381344,-0.7546072013093281
11.07866826923077,-7.9695120703764335,-4.4078048281505735,-0.7460975859247133
11.086667307692307,-8.012060147299508,-4.4248240589198025,-0.7375879705400985
11.094666346153847,-8.05460822422259,-4.441843289689036,-0.7290783551554819
11.102665384615385,-8.097156301145663,-4.458862520458266,-0.7205687397708671
11.110664423076924,-8.139704378068746,-4.475881751227499,-0.7120591243862505
11.118663461538462,-8.18225245499182,-4.492900981996728,-0.7035495090016357
11.1266625,-9.130227272727275,-4.7,-0.4
11.13466153846154,-9.275664335664356,-4.7,-0.4
11.142660576923078,-9.421101398601406,-4.7,-0.4
11.150659615384615,-11.03643308746049,-4.492713382507902,-0.6
11.158658653846155,-11.146008956796647,-4.47079820864067,-0.6
11.166657692307693,-11.25558482613278,-4.448883034773444,-0.6
11.17465673076923,-11.365160695468914,-4.426967860906217,-0.6
11.18265576923077,-11.474736564805074,-4.405052687038985,-0.6
11.190654807692308,-11.584312434141207,-4.383137513171759,-0.6
11.198653846153846,-11.69388830347734,-4.361222339304532,-0.6
11.206652884615385,-11.803464172813499,-4.3393071654373,-0.6
11.214651923076923,-11.913040042149634,-4.317391991570073,-0.6
11.222650961538463,-12.908028846154226,-4.382548076923111,-0.5174519230768886
11.23065,-7.549999999999378,-4.130000000000124,0.3250000000003109
11.238649038461539,-7.3274839743589775,-4.215935496794872,0.5
11.246648076923078,-7.460801282051304,-4.232600160256413,0.5
11.254647115384616,-7.5941185897436005,-4.24926482371795,0.5
11.262646153846154,-7.727435897435898,-4.265929487179488,0.5
11.270645192307693,-7.8607532051282245,-4.282594150641028,0.5
11.278644230769231,-7.994070512820521,-4.299258814102566,0.5
11.286643269230769,-8.12738782051282,-4.315923477564103,0.5
11.294642307692309,-8.260705128205146,-4.332588141025643,0.5
11.302641346153846,-8.394022435897442,-4.349252804487181,0.5
11.310640384615386,-8.527339743589769,-4.365917467948721,0.5
11.318639423076924,-8.660657051282065,-4.382582131410258,0.5
11.326638461538462,-8.793974358974362,-4.399246794871796,0.5
11.334637500000001,-9.394137931034468,-3.0,0.10439655172414915
11.342636538461539,-9.320583554376649,-3.0,0.1595623342175136
11.350635576923077,-9.24702917771883,-3.0,0.21472811671087805
11.358634615384616,-9.173474801060994,-3.0,0.2698938992042548
11.366633653846154,-9.099920424403175,-3.0,0.3250596816976192
11.374632692307692,-9.026366047745356,-3.0,0.3802254641909837
11.382631730769232,-8.95281167108752,-3.0,0.43539124668436036
11.39063076923077,-8.8792572944297,-3.0,0.4905570291777248
11.39862980769231,-8.805702917771864,-3.0,0.5457228116711015
11.406628846153847,-8.732148541114045,-3.0,0.6008885941644659
11.414627884615385,-8.658594164456225,-3.0,0.6560543766578304
11.422626923076924,-8.111923076922656,-3.5694230769235684,1.0253846153848962
11.430625961538462,-7.906918985270051,-3.1982702536824874,0.7034594926350254
11.438625,-7.94095744680851,-3.1897606382978725,0.7204787234042549
11.44662403846154,-7.974995908346977,-3.1812510229132562,0.7374979541734882
11.454623076923077,-8.009034369885436,-3.1727414075286413,0.7545171849427177
11.462622115384615,-8.043072831423896,-3.1642317921440264,0.7715364157119473
11.470621153846155,-8.077111292962362,-3.1557221767594097,0.7885556464811806
11.478620192307693,-8.11114975450082,-3.147212561374795,0.8055748772504101
11.48661923076923,-8.14518821603928,-3.1387029459901803,0.8225941080196396
11.49461826923077,-8.179226677577747,-3.1301933306055636,0.8396133387888729
11.502617307692308,-8.213265139116205,-3.121683715220949,0.8566325695581024
11.510616346153848,-8.247303600654671,-3.1131740998363324,0.8736518003273357
11.518615384615385,-8.281342062193131,-3.1046644844517175,0.8906710310965652
11.526614423076923,-8.948432692307685,-3.216144230769229,0.7677115384615427
11.534613461538463,-9.188403846153879,-3.2961346153846263,0.6077307692307472
11.5426125,-9.4,-3.3306250000000293,0.7
11.550611538461538,-9.374240759240761,-3.4,0.7
11.558610576923078,-9.343075674325672,-3.4,0.7
11.566609615384616,-9.311910589410589,-3.4,0.7
11.574608653846154,-9.280745504495506,-3.4,0.7
11.582607692307693,-9.249580419580418,-3.4,0.7
11.590606730769231,-9.218415334665336,-3.4,0.7
11.59860576923077,-9.187250249750246,-3.4,0.7
11.606604807692309,-9.156085164835163,-3.4,0.7
11.614603846153846,-9.12492007992008,-3.4,0.7
11.622602884615386,-8.779423076922724,-3.319855769230681,0.780144230769319
11.630601923076924,-9.2,-3.1,0.6849519230769052
11.638600961538462,-9.20534995527728,-3.1,0.6
11.646600000000001,-9.214651162790698,-3.1,0.6
11.654599038461539,-9.223952370304115,-3.1,0.6
11.662598076923077,-9.23325357781753,-3.1,0.6
11.670597115384616,-9.242554785330949,-3.1,0.6
11.678596153846154,-9.251855992844364,-3.1,0.6
11.686595192307692,-9.261157200357781,-3.1,0.6
11.694594230769232,-9.2704584078712,-3.1,0.6
11.70259326923077,-9.279759615384615,-3.1,0.6
11.710592307692309,-9.289060822898033,-3.1,0.6
11.718591346153847,-9.29836203041145,-3.1,0.6
11.726590384615385,-9.659038461538502,-3.153012820512834,0.44698717948716615
11.734589423076924,-9.50398824786325,-3.4039882478632495,0.19601175213675062
11.742588461538462,-9.51287606837607,-3.412876068376069,0.1871239316239308
11.7505875,-9.52176388888889,-3.421763888888889,0.17823611111111098
11.75858653846154,-9.530651709401711,-3.430651709401711,0.1693482905982892
11.766585576923077,-9.539539529914531,-3.4395395299145304,0.16046047008546938
11.774584615384615,-9.54842735042735,-3.4484273504273504,0.15157264957264957
11.782583653846155,-9.557315170940171,-3.457315170940172,0.14268482905982777
11.790582692307693,-9.566202991452991,-3.466202991452992,0.13379700854700793
11.798581730769232,-9.575090811965813,-3.475090811965814,0.12490918803418616
11.80658076923077,-9.583978632478633,-3.4839786324786335,0.11602136752136635
11.814579807692308,-9.592866452991453,-3.4928664529914535,0.10713354700854653
11.822578846153847,-10.626250000000685,-3.657884615384721,-0.057884615384720756
11.830577884615385,-12.177824648469798,-3.8972280810587248,-0.5
11.838576923076923,-12.109015715467322,-3.8886269644334153,-0.5
11.846575961538463,-12.040206782464832,-3.880025847808104,-0.5
11.854575,-11.971397849462356,-3.8714247311827945,-0.5
11.862574038461538,-11.90258891645988,-3.862823614557485,-0.5
11.870573076923078,-11.833779983457388,-3.8542224979321733,-0.5
11.878572115384616,-11.764971050454912,-3.845621381306864,-0.5
11.886571153846154,-11.696162117452436,-3.8370202646815543,-0.5
11.894570192307693,-11.627353184449946,-3.828419148056243,-0.5
11.902569230769231,-11.55854425144747,-3.8198180314309336,-0.5
11.91056826923077,-11.489735318444978,-3.8112169148056223,-0.5
11.918567307692308,-11.420926385442502,-3.802615798180313,-0.5
11.926566346153846,-10.23106730769213,-3.63300961538459,-0.55566346153847
11.934565384615386,-9.869615384615766,-3.443461538461411,-1.2130769230771774
11.942564423076924,-10.0439792039356,-3.3736124776386403,-1.31759168157424
11.950563461538461,-10.09048524150268,-3.345708855098392,-1.336194096601072
11.958562500000001,-10.13699127906977,-3.3178052325581375,-1.3547965116279082
11.966561538461539,-10.183497316636851,-3.2899016100178895,-1.3733989266547404
11.974560576923077,-10.23000335420393,-3.2619979874776415,-1.3920013416815724
11.982559615384616,-10.276509391771022,-3.2340943649373872,-1.4106037567084087
11.990558653846154,-10.323015429338101,-3.206190742397139,-1.4292061717352407
11.998557692307694,-10.369521466905192,-3.178287119856885,-1.447808586762077
12.006556730769232,-10.416027504472272,-3.1503834973166365,-1.466411001788909
12.01455576923077,-10.462533542039353,-3.1224798747763884,-1.485013416815741
12.022554807692309,-10.5,-2.7890384615381874,-1.5777403846154532
12.030553846153847,-10.036153846153814,-2.2,-1.6546153846153953
12.038552884615385,-9.296669369786843,-2.2019983781278953,-1.5993338739573684
12.046551923076924,-9.248482391102868,-2.2309105653382795,-1.5896964782205736
12.054550961538462,-9.200295412418905,-2.259822752548657,-1.580059082483781
12.06255,-9.152108433734943,-2.288734939759035,-1.5704216867469885
12.07054903846154,-9.103921455050969,-2.3176471269694185,-1.560784291010194
12.078548076923077,-9.055734476367007,-2.3465593141797965,-1.5511468952734013
12.086547115384615,-9.007547497683044,-2.375471501390174,-1.5415094995366088
12.094546153846155,-8.959360518999071,-2.404383688600558,-1.531872103799814
12.102545192307693,-8.911173540315108,-2.4332958758109355,-1.5222347080630216
12.110544230769232,-8.862986561631136,-2.4622080630213197,-1.5125973123262269
12.11854326923077,-8.814799582947172,-2.491120250231697,-1.5029599165894343
12.126542307692308,-8.518653846153775,-2.527115384615408,-1.7
12.134541346153847,-8.285932588916458,-2.607033705541771,-1.6929662944582287
12.142540384615385,-8.26873035566584,-2.6156348221670807,-1.6843651778329192
12.150539423076923,-8.25152812241522,-2.62423593879239,-1.6757640612076097
12.158538461538463,-8.234325889164596,-2.632837055417702,-1.6671629445822984
12.1665375,-8.217123655913978,-2.6414381720430113,-1.658561827956989
12.174536538461538,-8.199921422663358,-2.650039288668321,-1.6499607113316794
12.182535576923078,-8.182719189412737,-2.658640405293632,-1.641359594706368
12.190534615384616,-8.165516956162117,-2.6672415219189416,-1.6327584780810585
12.198533653846155,-8.148314722911493,-2.675842638544253,-1.6241573614557472
12.206532692307693,-8.131112489660875,-2.6844437551695624,-1.6155562448304377
12.214531730769231,-8.113910256410255,-2.693044871794872,-1.6069551282051282
12.22253076923077,-7.946923076923007,-2.7,-1.6
12.230529807692308,-7.805440446650126,-3.205440446650126,-1.502720223325063
12.238528846153846,-7.822642679900745,-3.222642679900745,-1.5113213399503724
12.246527884615386,-7.839844913151367,-3.239844913151368,-1.519922456575684
12.254526923076924,-7.857047146401986,-3.257047146401987,-1.5285235732009934
12.262525961538461,-7.874249379652605,-3.274249379652606,-1.537124689826303
12.270525000000001,-7.891451612903229,-3.2914516129032285,-1.5457258064516144
12.278524038461539,-7.908653846153848,-3.3086538461538475,-1.5543269230769239
12.286523076923078,-7.92585607940447,-3.3258560794044705,-1.5629280397022352
12.294522115384616,-7.943058312655089,-3.3430583126550895,-1.5715291563275446
12.302521153846154,-7.960260545905708,-3.3602605459057084,-1.5801302729528541
12.310520192307694,-7.977462779156331,-3.377462779156331,-1.5887313895781656
12.318519230769231,-7.99466501240695,-3.39466501240695,-1.597332506203475
12.32651826923077,-8.877740384615365,-3.5,-1.2
12.334517307692309,-9.121023573200999,-3.507007857733666,-1.1859842845326676
12.342516346153847,-9.146826923076926,-3.5156089743589756,-1.1687820512820486
12.350515384615385,-9.172630272952855,-3.524210090984285,-1.1515798180314296
12.358514423076924,-9.198433622828789,-3.5328112076095968,-1.1343775847808069
12.366513461538462,-9.224236972704718,-3.5414123242349063,-1.1171753515301879
12.3745125,-9.250040322580647,-3.5500134408602158,-1.099973118279569
12.38251153846154,-9.275843672456581,-3.558614557485527,-1.0827708850289461
12.390510576923077,-9.30164702233251,-3.5672156741108365,-1.0655686517783272
12.398509615384617,-9.327450372208444,-3.5758167907361478,-1.0483664185277044
12.406508653846155,-9.353253722084371,-3.5844179073614573,-1.0311641852770854
12.414507692307692,-9.3790570719603,-3.5930190239867668,-1.0139619520264664
12.422506730769232,-9.626009615384827,-3.7506730769232184,-0.9246634615383907
12.43050576923077,-10.316166253101736,-3.494611248966088,-0.497305624483044
12.438504807692308,-10.367772952853594,-3.477409015715469,-0.48870450785773456
12.446503846153847,-10.419379652605462,-3.460206782464846,-0.4801033912324231
12.454502884615385,-10.470986352357318,-3.443004549214227,-0.47150227460711364
12.462501923076923,-10.522593052109176,-3.425802315963608,-0.46290115798180415
12.470500961538463,-10.574199751861045,-3.4086000827129856,-0.45430004135649277
12.4785,-10.6258064516129,-3.3913978494623667,-0.4456989247311833
12.48649903846154,-10.67741315136477,-3.3741956162117437,-0.4370978081058719
12.494498076923078,-10.729019851116625,-3.3569933829611247,-0.4284966914805624
12.502497115384616,-10.780626550868483,-3.3397911497105057,-0.4198955748552529
12.510496153846155,-10.832233250620352,-3.3225889164598827,-0.4112944582299415
12.518495192307693,-10.883839950372208,-3.3053866832092638,-0.402693341604632
12.52649423076923,-10.251730769230512,-3.333717948717892,0.10785256410263544
12.53449326923077,-9.13087278106506,-3.1,0.4148129754860584
12.542492307692308,-9.007810650887556,-3.1,0.4411834319526663
12.550491346153846,-8.884748520710053,-3.1,0.46755388841927414
12.558490384615386,-8.761686390532523,-3.1,0.4939243448858879
12.566489423076924,-8.63862426035502,-3.1,0.5202948013524957
12.574488461538461,-8.515562130177516,-3.1,0.5466652578191037
12.582487500000001,-8.392499999999984,-3.1,0.5730357142857174
12.590486538461539,-8.269437869822482,-3.1,0.5994061707523253
12.598485576923078,-8.14637573964495,-3.1,0.625776627218939
12.606484615384616,-8.023313609467447,-3.1,0.652147083685547
12.614483653846154,-7.900251479289944,-3.1,0.6785175401521548
12.622482692307694,-7.577596153845903,-3.3224038461540966,0.774134615384699
12.630481730769231,-10.210560556464813,-3.392079582651389,0.5920795826513894
12.63848076923077,-10.244599018003273,-3.366550736497545,0.5665507364975451
12.646479807692309,-10.27863747954174,-3.3410218903436952,0.5410218903436952
12.654478846153847,-10.312675941080197,-3.315493044189851,0.5154930441898509
12.662477884615384,-10.346714402618657,-3.2899641980360066,0.48996419803600666
12.670476923076924,-10.380752864157124,-3.264435351882157,0.4644353518821567
12.678475961538462,-10.414791325695584,-3.2389065057283126,0.43890650572831247
12.686475000000002,-10.44882978723405,-3.2133776595744625,0.4133776595744625
12.69447403846154,-10.482868248772508,-3.187848813420618,0.3878488134206182
12.702473076923077,-10.516906710310968,-3.162319967266774,0.36231996726677396
12.710472115384617,-10.550945171849435,-3.1367911211129242,0.33679112111292403
12.718471153846155,-10.584983633387893,-3.11126227495908,0.31126227495907977
12.726470192307692,-9.905961538461645,-3.117548076922945,0.776490384615411
12.734469230769232,-8.890177514792898,-3.590177514792898,0.8
12.74246826923077,-8.872597210481825,-3.5725972104818253,0.8
12.750467307692308,-8.855016906170754,-3.5550169061707533,0.8
12.758466346153847,-8.837436601859677,-3.537436601859677,0.8
12.766465384615385,-8.819856297548604,-3.5198562975486047,0.8
12.774464423076923,-8.802275993237533,-3.5022759932375322,0.8
12.782463461538462,-8.784695688926456,-3.484695688926456,0.8
12.7904625,-8.767115384615384,-3.4671153846153837,0.8
12.79846153846154,-8.749535080304307,-3.4495350803043077,0.8
12.806460576923078,-8.731954775993234,-3.431954775993235,0.8
12.814459615384616,-8.714374471682163,-3.414374471682163,0.8
12.822458653846155,-8.7,-3.181201923076763,0.6541346153845087
12.830457692307693,-8.9,-2.9,1.0
12.83845673076923,-8.9,-2.9,1.0
12.84645576923077,-8.9,-2.9,1.0
12.854454807692308,-8.9,-2.9,1.0
12.862453846153846,-8.9,-2.9,1.0
12.870452884615386,-8.9,-2.9,1.0
12.878451923076923,-8.9,-2.9,1.0
12.886450961538463,-8.9,-2.9,1.0
12.89445,-8.9,-2.9,1.0
12.902449038461539,-8.9,-2.9,1.0
12.910448076923078,-8.9,-2.9,1.0
12.918447115384616,-8.9,-2.9,1.0
12.926446153846154,-9.077692307692319,-2.9,0.8
12.934445192307694,-8.993069685690653,-2.9,0.7930696856906531
12.942444230769231,-8.984468569065344,-2.9,0.7844685690653436
12.95044326923077,-8.975867452440035,-2.9,0.7758674524400341
12.958442307692309,-8.967266335814722,-2.9,0.7672663358147227
12.966441346153847,-8.958665219189413,-2.9,0.7586652191894132
12.974440384615384,-8.950064102564104,-2.9,0.7500641025641037
12.982439423076924,-8.941462985938793,-2.9,0.7414629859387922
12.990438461538462,-8.932861869313482,-2.9,0.7328618693134827
12.998437500000001,-8.924260752688172,-2.9,0.7242607526881714
13.00643653846154,-8.915659636062863,-2.9,0.7156596360628619
13.014435576923077,-8.907058519437554,-2.9,0.7070585194375524
13.022434615384617,-8.828269230769168,-2.9717307692308332,0.6282692307691669
13.030433653846154,-8.788673076923095,-3.2113269230769044,0.5113269230769044
13.038432692307692,-8.905466724286951,-3.0945332757130504,0.402733362143475
13.046431730769232,-8.923442091616252,-3.076557908383748,0.4117210458081262
13.05443076923077,-8.941417458945551,-3.058582541054449,0.4207087294727754
13.062429807692308,-8.959392826274849,-3.0406071737251508,0.42969641313742457
13.070428846153847,-8.977368193604152,-3.0226318063958484,0.43868409680207576
13.078427884615385,-8.99534356093345,-3.00465643906655,0.44767178046672496
13.086426923076925,-9.013318928262752,-2.9866810717372476,0.45665946413137615
13.094425961538462,-9.031294295592051,-2.9687057044079492,0.46564714779602534
13.102425,-9.049269662921349,-2.950730337078651,0.47463483146067453
13.11042403846154,-9.067245030250652,-2.9327549697493485,0.4836225151253257
13.118423076923078,-9.085220397579949,-2.91477960242005,0.4926101987899749
13.126422115384615,-9.36331730769238,-2.9,0.47889423076920673
13.134421153846155,-9.630410256410265,-3.1,0.09239743589743372
13.142420192307693,-9.701512820512823,-3.1,0.07462179487179409
13.15041923076923,-9.772615384615381,-3.1,0.056846153846154455
13.15841826923077,-9.843717948717956,-3.1,0.03907051282051087
13.166417307692308,-9.914820512820516,-3.1,0.021294871794871245
13.174416346153846,-9.985923076923074,-3.1,0.003519230769231607
13.182415384615386,-10.057025641025648,-3.1,-0.014256410256411972
13.190414423076923,-10.128128205128206,-3.1,-0.03203205128205161
13.198413461538463,-10.19923076923078,-3.1,-0.04980769230769519
13.2064125,-10.27033333333334,-3.1,-0.06758333333333483
13.214411538461539,-10.341435897435899,-3.1,-0.08535897435897447
13.222410576923078,-10.823173076923291,-3.170528846153882,-0.1
13.230409615384616,-11.875897435897803,-3.340961538461676,-0.2
13.238408653846154,-11.52273493259318,-3.3954549960348928,-0.5
13.246407692307693,-11.382545598731145,-3.3872085646312438,-0.5
13.254406730769231,-11.24235626486914,-3.3789621332275965,-0.5
13.262405769230769,-11.102166931007137,-3.3707157018239493,-0.5
13.270404807692309,-10.961977597145102,-3.3624692704203,-0.5
13.278403846153847,-10.821788263283098,-3.3542228390166526,-0.5
13.286402884615386,-10.681598929421064,-3.3459764076130036,-0.5
13.294401923076924,-10.54140959555906,-3.3377299762093564,-0.5
13.302400961538462,-10.401220261697055,-3.329483544805709,-0.5
13.310400000000001,-10.261030927835021,-3.3212371134020597,-0.5
13.31839903846154,-10.120841593973019,-3.3129906819984125,-0.5
13.326398076923077,-9.980652260111015,-3.3047442505947653,-0.5
13.334397115384617,-8.098557692308411,-3.260288461538318,-0.539711538461682
13.342396153846154,-9.820215201465203,-3.1959569597069595,-1.008086080586081
13.350395192307692,-9.867828525641023,-3.1864342948717956,-1.027131410256409
13.358394230769232,-9.915441849816855,-3.176911630036629,-1.0461767399267417
13.36639326923077,-9.963055173992675,-3.1673889652014653,-1.0652220695970698
13.37439230769231,-10.010668498168506,-3.157866300366299,-1.0842673992674023
13.382391346153847,-10.058281822344327,-3.148343635531135,-1.1033127289377305
13.390390384615385,-10.105895146520147,-3.1388209706959707,-1.1223580586080588
13.398389423076924,-10.153508470695979,-3.1292983058608046,-1.1414033882783912
13.406388461538462,-10.2011217948718,-3.1197756410256403,-1.1604487179487195
13.4143875,-10.24873511904762,-3.110252976190476,-1.1794940476190476
13.42238653846154,-10.29634844322345,-3.10073031135531,-1.1985393772893802
13.430385576923078,-10.207211538460976,-2.6228846153843905,-1.4771153846156098
13.438384615384615,-9.678461538461548,-2.5,-1.5261538461538495
13.446383653846155,-9.278309911242594,-2.7043380177514815,-1.6
13.454382692307693,-9.227034023668635,-2.714593195266273,-1.6
13.46238173076923,-9.175758136094675,-2.7248483727810653,-1.6
13.47038076923077,-9.124482248520705,-2.735103550295859,-1.6
13.478379807692308,-9.073206360946745,-2.7453587278106513,-1.6
13.486378846153848,-9.021930473372773,-2.755613905325445,-1.6
13.494377884615385,-8.970654585798814,-2.7658690828402372,-1.6
13.502376923076923,-8.919378698224854,-2.776124260355029,-1.6
13.510375961538463,-8.868102810650884,-2.7863794378698232,-1.6
13.518375,-8.816826923076924,-2.7966346153846153,-1.6
13.526374038461539,-8.737403846153859,-3.3,-1.7561057692307889
13.534373076923078,-8.893147229114971,-3.3,-2.0
13.542372115384616,-8.88454611248966,-3.3,-2.0
13.550371153846154,-8.875944995864351,-3.3,-2.0
13.558370192307693,-8.86734387923904,-3.3,-2.0
13.566369230769231,-8.858742762613732,-3.3,-2.0
13.57436826923077,-8.850141645988419,-3.3,-2.0
13.582367307692309,-8.84154052936311,-3.3,-2.0
13.590366346153846,-8.832939412737801,-3.3,-2.0
13.598365384615386,-8.82433829611249,-3.3,-2.0
13.606364423076924,-8.81573717948718,-3.3,-2.0
13.614363461538462,-8.80713606286187,-3.3,-2.0
13.622362500000001,-8.868125000000079,-3.3,-2.0
13.630361538461539,-8.818205128205118,-3.3,-1.836410256410234
13.638360576923077,-8.69957074175824,-3.400858516483517,-1.7991414835164834
13.646359615384617,-8.690048076923075,-3.419903846153849,-1.7800961538461508
13.654358653846154,-8.68052541208791,-3.4389491758241775,-1.7610508241758227
13.662357692307692,-8.671002747252746,-3.4579945054945056,-1.7420054945054944
13.670356730769232,-8.661480082417581,-3.477039835164838,-1.722960164835162
13.67835576923077,-8.651957417582416,-3.4960851648351663,-1.7039148351648339
13.68635480769231,-8.642434752747251,-3.515130494505499,-1.6848695054945013
13.694353846153847,-8.632912087912086,-3.534175824175827,-1.6658241758241732
13.702352884615385,-8.623389423076922,-3.553221153846155,-1.6467788461538448
13.710351923076924,-8.613866758241755,-3.5722664835164877,-1.6277335164835125
13.718350961538462,-8.604344093406592,-3.591311813186816,-1.6086881868131842
13.72635,-9.102499999999994,-3.8674999999999975,-1.2
13.73434903846154,-9.405865384615387,-3.9014663461538466,-0.9970673076923062
13.742348076923077,-9.44064381270903,-3.9101609531772574,-0.9796780936454846
13.750347115384615,-9.475422240802674,-3.9188555602006683,-0.962288879598663
13.758346153846155,-9.510200668896326,-3.9275501672240813,-0.9448996655518376
13.766345192307693,-9.544979096989968,-3.9362447742474918,-0.9275104515050161
13.774344230769232,-9.57975752508362,-3.944939381270905,-0.9101212374581906
13.78234326923077,-9.614535953177263,-3.9536339882943157,-0.892732023411369
13.790342307692308,-9.649314381270905,-3.962328595317726,-0.8753428093645474
13.798341346153848,-9.684092809364557,-3.971023202341139,-0.857953595317722
13.806340384615385,-9.7188712374582,-3.97971780936455,-0.8405643812709004
13.814339423076923,-9.753649665551842,-3.9884124163879604,-0.8231751672240788
13.822338461538463,-9.788428093645495,-3.9971070234113735,-0.8057859531772533
13.8303375,-10.55031250000004,-3.8721874999999955,-0.8278125000000045
13.838336538461538,-11.150240384615353,-3.8055288461538495,-0.8944711538461505
13.846335576923078,-9.666222005842247,-3.7084444985394382,-0.1
13.854334615384616,-9.585219084712751,-3.7286952288218123,-0.1
13.862333653846154,-9.504216163583255,-3.7489459591041863,-0.1
13.870332692307693,-9.423213242453741,-3.7691966893865647,-0.1
13.878331730769231,-9.342210321324245,-3.7894474196689387,-0.1
13.88633076923077,-9.26120740019473,-3.8096981499513176,-0.1
13.894329807692309,-9.180204479065234,-3.8299488802336916,-0.1
13.902328846153846,-9.099201557935737,-3.8501996105160656,-0.1
13.910327884615386,-9.018198636806224,-3.870450340798444,-0.1
13.918326923076924,-8.937195715676728,-3.890701071080818,-0.1
13.926325961538462,-8.467403846153816,-4.073038461538474,0.2460769230769478
13.934325000000001,-8.755000000000049,-3.8449999999999527,0.8775000000000237
13.942324038461539,-8.817032647584973,-3.7574183810375668,0.8829673524150268
13.950323076923077,-8.835635062611805,-3.7109123434704867,0.8643649373881948
13.958322115384616,-8.854237477638643,-3.664406305903396,0.8457625223613585
13.966321153846154,-8.872839892665475,-3.617900268336316,0.8271601073345264
13.974320192307694,-8.89144230769231,-3.5713942307692252,0.8085576923076903
13.982319230769232,-8.910044722719142,-3.524888193202145,0.7899552772808581
13.99031826923077,-8.928647137745974,-3.4783821556350647,0.771352862254026
13.998317307692309,-8.94724955277281,-3.4318761180679744,0.7527504472271898
14.006316346153847,-8.965851967799642,-3.3853700805008944,0.7341480322003577
14.014315384615385,-8.984454382826474,-3.338864042933814,0.7155456171735257
14.022314423076924,-9.065721153846212,-3.1028365384613608,0.6342788461537869
14.030313461538462,-9.5,-3.247019230769403,0.9686538461537315
14.0383125,-9.492986111111112,-3.5140277777777778,0.8
14.04631153846154,-9.48409829059829,-3.5318034188034213,0.8
14.054310576923077,-9.47521047008547,-3.549579059829061,0.8
14.062309615384615,-9.46632264957265,-3.5673547008547004,0.8
14.070308653846155,-9.457434829059828,-3.585130341880344,0.8
14.078307692307693,-9.448547008547008,-3.602905982905984,0.8
14.086306730769232,-9.439659188034186,-3.6206816239316275,0.8
14.09430576923077,-9.430771367521366,-3.638457264957267,0.8
14.102304807692308,-9.421883547008546,-3.6562329059829066,0.8
14.110303846153847,-9.412995726495724,-3.67400854700855,0.8
14.118302884615385,-9.404107905982906,-3.69178418803419,0.8
14.126301923076923,-8.654711538461465,-4.1,0.8849038461538214
14.134300961538463,-8.3,-4.205699958643509,0.8886000827129825
14.1423,-8.3,-4.214301075268819,0.8713978494623635
14.150299038461538,-8.3,-4.222902191894128,0.8541956162117446
14.158298076923078,-8.3,-4.231503308519439,0.8369933829611217
14.166297115384616,-8.3,-4.240104425144748,0.8197911497105027
14.174296153846155,-8.3,-4.24870554177006,0.80258891645988
14.182295192307693,-8.3,-4.257306658395369,0.785386683209261
14.190294230769231,-8.3,-4.265907775020679,0.768184449958642
14.19829326923077,-8.3,-4.27450889164599,0.7509822167080191
14.206292307692308,-8.3,-4.2831100082713,0.7337799834574001
14.214291346153846,-8.3,-4.291711124896609,0.7165777502067812
14.222290384615386,-8.3,-4.297766272189336,0.7022337278106641
14.230289423076924,-8.3,-4.236235207100583,0.763764792899417
14.238288461538462,-8.336538461538467,-4.2365384615384665,0.8365384615384661
14.246287500000001,-8.198849999999997,-4.4007666666666685,0.8996166666666658
14.254286538461539,-8.166853846153845,-4.422097435897436,0.8889512820512819
14.262285576923079,-8.134857692307687,-4.443428205128209,0.8782858974358957
14.270284615384616,-8.102861538461536,-4.464758974358976,0.8676205128205119
14.278283653846154,-8.070865384615384,-4.486089743589744,0.856955128205128
14.286282692307694,-8.038869230769224,-4.5074205128205165,0.8462897435897417
14.294281730769232,-8.006873076923073,-4.528751282051284,0.8356243589743579
14.30228076923077,-7.974876923076922,-4.550082051282052,0.824958974358974
14.310279807692309,-7.942880769230763,-4.571412820512824,0.8142935897435878
14.318278846153847,-7.910884615384612,-4.592743589743592,0.803628205128204
14.326277884615385,-9.441682692307644,-4.8583173076923565,0.6722115384615707
14.334276923076924,-9.7,-4.579751861042178,0.4865012406947853
14.342275961538462,-9.7,-4.553948511166249,0.4692990074441663
14.350275,-9.7,-4.528145161290321,0.4520967741935473
14.35827403846154,-9.7,-4.502341811414387,0.4348945409429245
14.366273076923077,-9.7,-4.476538461538458,0.41769230769230553
14.374272115384617,-9.7,-4.450735111662524,0.4004900744416827
14.382271153846155,-9.7,-4.4249317617865955,0.38328784119106374
14.390270192307693,-9.7,-4.399128411910667,0.36608560794044476
