accel_time_list,vertical_Accel_x,vertical_Accel_y,vertical_Accel_z
0.0,0.941,7.859,-3.688
0.00799894847528917,1.1703461055115283,8.132905072110658,-5.389460884135655
0.01599789695057834,1.1350336744376908,8.174720713327007,-5.532401443068058
0.02399684542586751,1.0997212433638532,8.216536354543356,-5.675342002000462
0.03199579390115668,1.0644088122900155,8.258351995759705,-5.8182825609328646
0.039994742376445847,1.0290963812161782,8.300167636976054,-5.961223119865267
0.04799369085173502,0.9937839501423404,8.341983278192403,-6.104163678797671
0.05599263932702419,0.9584715190685029,8.383798919408752,-6.247104237730074
0.06399158780231336,0.9231590879946654,8.425614560625101,-6.390044796662478
0.07199053627760253,0.8878466569208279,8.46743020184145,-6.532985355594881
0.07998948475289169,0.8525342258469903,8.5092458430578,-6.675925914527284
0.08798843322818087,0.8172217947731528,8.551061484274149,-6.818866473459687
0.09598738170347004,0.7819093636993152,8.592877125490498,-6.961807032392091
0.1039863301787592,0.7465969326254777,8.634692766706847,-7.104747591324494
0.11198527865404838,0.71128450155164,8.676508407923198,-7.247688150256897
0.11998422712933754,0.6759720704778026,8.718324049139547,-7.390628709189301
0.12798317560462671,0.8175473186119879,9.172358044164039,-7.642338065194532
0.1359821240799159,-1.4172018927444805,8.130310900806169,-0.9051009463722393
0.14398107255520506,0.8640602402329531,8.329227190002428,-3.8734062120844457
0.1519800210304942,0.8629834587074334,8.322612674917092,-3.8967877537814446
0.15997896950578339,0.8619066771819137,8.315998159831757,-3.920169295478444
0.16797791798107256,0.8608298956563941,8.309383644746422,-3.943550837175443
0.17597686645636174,0.8597531141308744,8.302769129661087,-3.966932378872442
0.1839758149316509,0.8586763326053547,8.296154614575752,-3.990313920569441
0.19197476340694009,0.857599551079835,8.289540099490416,-4.0136954622664405
0.19997371188222923,0.8565227695543153,8.28292558440508,-4.037077003963439
0.2079726603575184,0.8554459880287956,8.276311069319744,-4.060458545660438
0.21597160883280758,0.8543692065032759,8.26969655423441,-4.083840087357437
0.22397055730809676,0.8532924249777561,8.263082039149074,-4.107221629054437
0.23196950578338593,0.8522156434522364,8.256467524063739,-4.130603170751436
0.23996845425867508,0.8511388619267168,8.249853008978404,-4.153984712448435
0.24796740273396425,0.5985716789344544,8.736934805467929,-4.305902208201893
0.25596635120925343,0.4990273112228947,8.640683604740387,-3.9395912410833547
0.2639652996845426,0.33191414442834033,8.645223548469605,-3.978937420069912
0.2719642481598318,0.16480097763378487,8.649763492198822,-4.01828359905647
0.2799631966351209,-0.0023121891607694733,8.65430343592804,-4.057629778043027
0.28796214511041013,-0.16942535595532493,8.65884337965726,-4.096975957029585
0.2959610935856993,-0.3365385227498793,8.663383323386476,-4.136322136016142
0.3039600420609884,-0.5036516895444337,8.667923267115695,-4.175668315002699
0.3119589905362776,-0.6707648563389891,8.672463210844914,-4.2150144939892575
0.31995793901156677,-0.8378780231335435,8.677003154574132,-4.254360672975815
0.327956887486856,-1.033801261829654,8.640810725552049,-4.235414300736066
0.3359558359621451,-1.102396424815983,8.624309148264985,-4.081212407991588
0.34395478443743427,-1.2152459386334906,8.573426753624217,-3.8761374307352403
0.35195373291272347,-1.2075166176348966,8.583402970261936,-3.877665319769846
0.3599526813880126,-1.1997872966363026,8.593379186899657,-3.879193208804452
0.3679516298633018,-1.1920579756377083,8.603355403537376,-3.8807210978390576
0.37595057833859097,-1.1843286546391143,8.613331620175098,-3.8822489868736634
0.38394952681388017,-1.1765993336405203,8.623307836812817,-3.883776875908269
0.3919484752891693,-1.1688700126419262,8.633284053450536,-3.885304764942875
0.39994742376445847,-1.1611406916433322,8.643260270088257,-3.8868326539774807
0.40794637223974767,-1.1534113706447382,8.653236486725977,-3.8883605430120864
0.4159453207150368,-1.1456820496461442,8.663212703363698,-3.889888432046692
0.423944269190326,-1.1379527286475501,8.673188920001417,-3.891416321081298
0.43194321766561516,-1.0324321766561515,8.76219242902208,-4.010217665615139
0.4399421661409043,-1.0515527401829428,8.728689619302829,-3.800845776375745
0.4479411146161935,-1.0509506687923296,8.740387006320455,-3.822176305643183
0.45594006309148266,-1.0503485974017164,8.752084393338082,-3.8435068349106207
0.46393901156677186,-1.0497465260111032,8.76378178035571,-3.8648373641780585
0.471937960042061,-1.04914445462049,8.775479167373337,-3.886167893445496
0.47993690851735016,-1.0485423832298768,8.787176554390964,-3.907498422712934
0.48793585699263936,-1.0479403118392636,8.79887394140859,-3.928828951980372
0.4959348054679285,-1.0473382404486504,8.810571328426217,-3.95015948124781
0.5039337539432177,-1.0467361690580372,8.822268715443846,-3.9714900105152475
0.5119327024185069,-1.0461340976674243,8.833966102461472,-3.9928205397826853
0.519931650893796,-1.045532026276811,8.845663489479099,-4.014151069050123
0.5279305993690852,-1.0026577287066267,8.939753943217662,-4.098141955835959
0.5359295478443744,-0.20938044164037162,8.965295478443744,-3.8600786540483703
0.5439284963196636,-0.007698329244070586,8.970765136114032,-3.8584540717373526
0.5519274447949527,-0.016586049772169643,8.964721486154925,-3.8474332982825095
0.5599263932702419,-0.0254737703002687,8.958677836195818,-3.836412524827667
0.567925341745531,-0.03436149082836776,8.952634186236711,-3.825391751372824
0.5759242902208203,-0.043249211356466935,8.946590536277602,-3.814370977917981
0.5839232386961094,-0.05213693188456599,8.940546886318495,-3.8033502044631384
0.5919221871713986,-0.06102465241266505,8.934503236359388,-3.7923294310082953
0.5999211356466877,-0.0699123729407641,8.92845958640028,-3.7813086575534527
0.6079200841219768,-0.07880009346886316,8.922415936441173,-3.77028788409861
0.6159190325972661,-0.08768781399696234,8.916372286482066,-3.759267110643767
0.6239179810725552,-0.0965755345250614,8.910328636522959,-3.7482463371889243
0.6319169295478444,-0.2,8.87334174553102,-3.733891342446548
0.6399158780231335,-0.2,8.903765476783441,-3.736278222369805
0.6479148264984227,-0.2,8.898039913664286,-3.7258374896231117
0.655913774973712,-0.2,8.892314350545131,-3.715396756876418
0.6639127234490011,-0.2,8.886588787425978,-3.704956024129725
0.6719116719242902,-0.2,8.880863224306824,-3.694515291383032
0.6799106203995794,-0.2,8.875137661187669,-3.684074558636339
0.6879095688748685,-0.2,8.869412098068516,-3.6736338258896453
0.6959085173501578,-0.2,8.86368653494936,-3.663193093142952
0.7039074658254469,-0.2,8.857960971830206,-3.652752360396259
0.7119064143007361,-0.2,8.852235408711051,-3.6423116276495655
0.7199053627760252,-0.2,8.846509845591898,-3.6318708949028724
0.7279043112513144,-0.2,8.840784282472743,-3.6214301621561793
0.7359032597266036,-0.38096740273396346,8.549728706624604,-3.11867087276551
0.7439022082018928,-0.30097791798107204,8.47293880126183,-3.0962738170347004
0.7519011566771819,-0.2866082090217255,8.482713432782619,-3.1549238803044077
0.7599001051524711,-0.27305066923309984,8.49355946461352,-3.2145770553743604
0.7678990536277603,-0.259493129444474,8.50440549644442,-3.2742302304443145
0.7758980021030495,-0.24593558965584836,8.515251528275321,-3.333883405514267
0.7838969505783386,-0.2323780498672227,8.526097560106221,-3.39353658058422
0.7918958990536278,-0.21882051007859704,8.536943591937122,-3.453189755654173
0.7998948475289169,-0.20526297028997137,8.547789623768022,-3.512842930724126
0.8078937960042062,0.03627760252368217,8.85398107255521,-3.5530998948475183
0.8158927444794953,0.011884042206026351,8.985344936364626,-3.4788173610355706
0.8238916929547845,0.025675332680662813,8.97762181369883,-3.5052966387468727
0.8318906414300736,0.03946662315529927,8.969898691033034,-3.5317759164581743
0.8398895899053628,0.05325791362993573,8.962175568367236,-3.5582551941694764
0.847888538380652,0.0670492041045724,8.95445244570144,-3.584734471880779
0.8558874868559412,0.08084049457920885,8.946729323035644,-3.611213749592081
0.8638864353312303,0.09463178505384531,8.939006200369848,-3.6376930273033827
0.8718853838065195,0.10842307552848177,8.931283077704052,-3.664172305014685
0.8798843322818086,0.12221436600311823,8.923559955038254,-3.690651582725987
0.8878832807570979,0.1360056564777549,8.915836832372458,-3.7171308604372895
0.895882229232387,0.14979694695239135,8.908113709706662,-3.743610138148591
0.9038811777076762,0.1635882374270278,8.900390587040865,-3.770089415859893
0.9118801261829653,0.17737952790166428,8.89266746437507,-3.7965686935711953
0.9198790746582545,0.19117081837630073,8.884944341709271,-3.8230479712824974
0.9278780231335437,0.36445846477392463,8.894801261829654,-4.229766561514201
0.9358769716088329,1.3018859604491029,9.328639462704793,-5.536299989823955
0.943875920084122,1.3190880001809075,9.370956480445033,-5.575520640412469
0.9518748685594112,1.3362900399127122,9.413273498185271,-5.614741291000984
0.9598738170347003,1.3534920796445167,9.455590515925511,-5.653961941589499
0.9678727655099896,1.3706941193763216,9.497907533665751,-5.6931825921780135
0.9758717139852787,1.3878961591081262,9.540224551405991,-5.732403242766528
0.9838706624605679,1.405098198839931,9.58254156914623,-5.771623893355042
0.991869610935857,1.4223002385717354,9.62485858688647,-5.810844543943557
0.9998685594111462,1.43950227830354,9.66717560462671,-5.850065194532071
1.0078675078864354,1.456704318035345,9.709492622366948,-5.889285845120587
1.0158664563617246,1.4739063577671496,9.751809640107188,-5.928506495709101
1.0238654048370137,1.4911083974989543,9.794126657847428,-5.967727146297616
1.0318643533123029,2.286435331230283,8.578801261829653,-1.3316719242902284
1.039863301787592,0.7998741405807652,8.257891854727816,3.261821483458706
1.0478622502628812,0.7995225384499833,8.25200251903722,3.0992933985047535
1.0558611987381703,0.7991709363192013,8.24611318334662,2.9367653135508016
1.0638601472134597,0.7988193341884194,8.240223847656024,2.774237228596845
1.0718590956887488,0.7984677320576374,8.234334511965427,2.611709143642893
1.079858044164038,0.7981161299268555,8.228445176274828,2.449181058688941
1.0878569926393271,0.7977645277960735,8.222555840584231,2.2866529737349888
1.0958559411146163,0.7974129256652916,8.216666504893634,2.124124888781037
1.1038548895899054,0.7970613235345096,8.210777169203036,1.961596803827085
1.1118538380651946,0.7967097214037278,8.204887833512439,1.799068718873133
1.1198527865404837,0.7963581192729459,8.198998497821842,1.6365406339191808
1.1278517350157728,0.7960065171421639,8.193109162131243,1.4740125489652287
1.135850683491062,1.1858643533123017,8.316036277602523,-1.8302885383806535
1.1438496319663514,1.3538422712933782,8.448018927444798,-1.5791215562565677
1.1518485804416405,1.8202644808376418,8.13240603396201,-1.3349500302033706
1.1598475289169297,1.9394828511980682,8.0654361142806,-1.4157053717251726
1.1678464773922188,2.0587012215584948,7.99846619459919,-1.4964607132469747
1.175845425867508,2.177919591918921,7.931496274917779,-1.5772160547687766
1.183844374342797,2.2971379622793475,7.86452635523637,-1.6579713962905787
1.1918433228180862,2.416356332639774,7.797556435554959,-1.7387267378123807
1.1998422712933754,2.5355747030002003,7.730586515873549,-1.8194820793341828
1.2078412197686645,2.6547930733606266,7.663616596192139,-1.900237420855985
1.2158401682439537,2.7740114437210535,7.596646676510729,-1.9809927623777868
1.223839116719243,2.893229814081483,7.529676756829317,-2.0617481038995913
1.2318380651945322,3.0124481844419098,7.462706837147907,-2.142503445421393
1.2398370136698214,3.1316665548023357,7.395736917466497,-2.2232587869431955
1.2478359621451105,3.2018264984227067,7.170766561514199,-0.02069400630909979
1.2558349106203996,2.5822297581493183,8.319296529968453,-1.5477586750788659
1.2638338590956888,2.6686394515468495,8.288353229287729,-1.6251169267806755
1.271832807570978,2.755049144944381,8.257409928607006,-1.702475178482485
1.279831756046267,2.8414588383419126,8.226466627926282,-1.7798334301842944
1.2878307045215562,2.9278685317394437,8.195523327245558,-1.8571916818861038
1.2958296529968454,3.0142782251369753,8.164580026564835,-1.9345499335879133
1.3038286014721348,3.1006879185345086,8.13363672588411,-2.011908185289725
1.311827549947424,3.18709761193204,8.102693425203386,-2.0892664369915344
1.319826498422713,3.273507305329572,8.071750124522662,-2.166624688693344
1.3278254468980022,3.470277076761323,8.240456361724531,-2.3449589905362953
1.3358243953732913,3.8870354352520833,8.721678527413136,-3.406031014325611
1.3438233438485805,3.85211529459652,8.65011804212883,-3.5113935076829144
1.3518222923238696,3.8171951539409563,8.57855755684452,-3.6167560010402173
1.3598212407991588,3.782275013285393,8.506997071560214,-3.7221184943975207
1.367820189274448,3.74735487262983,8.435436586275907,-3.827480987754824
1.375819137749737,3.712434731974266,8.3638761009916,-3.9328434811121276
1.3838180862250264,3.677514591318702,8.29231561570729,-4.038205974469434
1.3918170347003156,3.6425944506631387,8.220755130422983,-4.1435684678267375
1.3998159831756047,3.607674310007575,8.149194645138676,-4.2489309611840405
1.4078149316508939,3.5727541693520117,8.07763415985437,-4.354293454541343
1.415813880126183,3.5378340286964485,8.006073674570061,-4.459655947898647
1.4238128286014722,3.5029138880408848,7.934513189285754,-4.56501844125595
1.4318117770767613,3.5258902909218364,7.71834069400631,-4.561288117770768
1.4398107255520505,1.6595333002516568,6.337153546237549,-4.688016623542339
1.4478096740273396,1.6265488722692847,6.205305710133626,-4.780858351351032
1.4558086225026288,1.5935644442869126,6.073457874029702,-4.873700079159725
1.4638075709779181,1.5605800163045396,5.941610037925775,-4.966541806968421
1.4718065194532073,1.5275955883221675,5.809762201821852,-5.0593835347771146
1.4798054679284964,1.4946111603397954,5.677914365717928,-5.152225262585808
1.4878044164037856,1.4616267323574232,5.546066529614006,-5.245066990394501
1.4958033648790747,1.4286423043750511,5.414218693510082,-5.337908718203194
1.5038023133543639,1.395657876392679,5.282370857406159,-5.430750446011888
1.511801261829653,1.362673448410307,5.150523021302235,-5.523592173820581
1.5198002103049422,1.3296890204279348,5.018675185198312,-5.616433901629273
1.5277991587802313,1.6588222923238989,4.8724290220820174,-5.754742376445851
1.5357981072555207,2.8064305993691083,5.019987381703477,-5.763580441640376
1.5437970557308098,4.106620099143763,5.0421068048670525,-5.464767913474547
1.551796004206099,4.009900052576229,4.854305559936904,-5.785445491587809
1.5597949526813881,3.729536908517344,4.6830280757097755,-6.05471009463723
1.5677939011566773,3.4491737644584597,4.511750591482647,-6.32397469768665
1.5757928496319664,3.1688106203995754,4.340473107255518,-6.593239300736071
1.5837917981072556,2.888447476340691,4.169195623028389,-6.862503903785491
1.5917907465825447,2.608084332281807,3.9979181388012606,-7.131768506834912
1.5997896950578339,2.327721188222922,3.826640654574132,-7.401033109884333
1.607788643533123,2.047358044164038,3.6553631703470035,-7.6702977129337535
1.6157875920084124,1.766994900105146,3.4840856861198697,-7.939562315983181
1.6237865404837015,1.4866317560462616,3.312808201892741,-8.208826919032603
1.6317854889589907,1.9641009463721617,1.976363827549814,-10.835401682439594
1.6397844374342798,2.9004971224404352,1.2217085467476256,-12.447903768528882
1.647783385909569,2.6394561695103005,1.3394565087118282,-12.401200230657032
1.6557823343848581,2.378415216580166,1.4572044706760305,-12.354496692785183
1.6637812828601473,2.1173742636500315,1.5749524326402329,-12.307793154913334
1.6717802313354364,1.856333310719897,1.6927003946044352,-12.261089617041485
1.6797791798107256,1.5952923577897624,1.8104483565686378,-12.214386079169635
1.6877781282860147,1.334251404859628,1.92819631853284,-12.167682541297784
1.695777076761304,1.073210451929486,2.0459442804970456,-12.120979003425933
1.7037760252365932,0.8121694989993515,2.163692242461248,-12.074275465554084
1.7117749737118824,0.5511285460692168,2.2814402044254507,-12.027571927682235
1.7197739221871715,0.2900875931390825,2.399188166389653,-11.980868389810386
1.7277728706624607,0.02904664020894776,2.516936128353855,-11.934164851938537
1.7357718191377498,0.3001796004206215,1.405581913774967,-12.667835120925345
1.743770767613039,0.6363953568612013,1.39325506046267,-12.638860656545742
1.751769716088328,0.17933044164038114,1.5697318611987372,-12.601740536277603
1.7597686645636172,-0.277734473580439,1.7462086619348045,-12.564620416009465
1.7677676130389064,-0.7347993888012592,1.9226854626708718,-12.527500295741325
1.7757665615141958,-1.191864304022092,2.099162263406944,-12.490380175473186
1.783765509989485,-1.648929219242912,2.2756390641430113,-12.453260055205046
1.791764458464774,-2.1059941344637325,2.4521158648790786,-12.416139934936908
1.7997634069400632,-2.5630590496845524,2.628592665615146,-12.37901981466877
1.8077623554153524,-4.1523112513144165,2.09505783385908,-12.69417875920084
1.8157613038906415,-4.0041759012106,0.9133744057087889,-13.56913568263726
1.8237602523659306,-3.9381333009787256,0.8108921513117083,-13.556282671412008
1.8317592008412198,-3.8720907007468512,0.7084098969146277,-13.543429660186758
1.839758149316509,-3.8060481005149764,0.605927642517547,-13.530576648961507
1.847757097791798,-3.740005500283102,0.5034453881204664,-13.517723637736255
1.8557560462670875,-3.673962900051226,0.4009631337233829,-13.504870626511005
1.8637549947423766,-3.607920299819351,0.2984808793263023,-13.492017615285754
1.8717539432176657,-3.541877699587477,0.1959986249292217,-13.479164604060502
1.879752891692955,-3.4758350993556024,0.09351637053214101,-13.466311592835252
1.887751840168244,-3.4097924991237276,-0.008965883864939572,-13.45345858161
1.8957507886435332,-3.3437498988918533,-0.11144813826202027,-13.440605570384749
1.9037497371188223,-3.277707298659979,-0.21393039265910097,-13.427752559159499
1.9117486855941115,-3.2116646984281045,-0.31641264705618144,-13.414899547934247
1.9197476340694006,-3.14562209819623,-0.41889490145326214,-13.402046536708996
1.9277465825446898,-2.9273760252365886,-0.2674031545741267,-13.076567192429014
1.9357455310199791,-2.164276340693984,0.7932574132492426,-11.631957097791755
1.9437444794952683,-2.76316043262731,0.5667908621347101,-9.244290810136235
1.9517434279705574,-2.78944269190326,0.5155448515732421,-9.153313758796408
1.9597423764458466,-2.81572495117921,0.4642988410117743,-9.06233670745658
1.9677413249211357,-2.84200721045516,0.4130528304503065,-8.971359656116753
1.9757402733964249,-2.8682894697311103,0.36180681988883867,-8.880382604776926
1.983739221871714,-2.8945717290070605,0.3105608093273708,-8.7894055534371
1.9917381703470032,-2.9208539882830102,0.25931479876590297,-8.698428502097272
1.9997371188222923,-2.9471362475589604,0.20806878820443508,-8.607451450757445
2.0077360672975817,-2.973418506834911,0.15682277764296582,-8.516474399417614
2.015735015772871,-2.9997007661108612,0.10557676708149799,-8.425497348077787
2.02373396424816,-3.0259830253868114,0.054330756520030166,-8.33452029673796
2.031732912723449,-2.945378548895903,1.2696787592008207,-11.502651945320718
2.0397318611987383,-3.216971608832806,-0.8691356466876945,-14.319482649842271
2.0477308096740274,-3.0925923550686942,-0.6336501195964892,-14.288365861268069
2.0557297581493166,-2.9682131013045825,-0.3981645925052838,-14.257249072693867
2.0637287066246057,-2.8438338475404707,-0.1626790654140785,-14.226132284119664
2.071727655099895,-2.719454593776359,0.07280646167712679,-14.195015495545464
2.079726603575184,-2.5950753400122473,0.3082919887683321,-14.163898706971262
2.087725552050473,-2.470696086248135,0.5437775158595374,-14.13278191839706
2.0957245005257623,-2.346316832484024,0.7792630429507427,-14.101665129822859
2.1037234490010515,-2.2219375787199116,1.0147485700419479,-14.070548341248656
2.1117223974763406,-2.0975583249558003,1.2502340971331534,-14.039431552674454
2.1197213459516298,-1.9731790711916881,1.4857196242243584,-14.008314764100254
2.1277202944269193,-1.1915667718188665,1.7720294426919325,-13.184794952681065
2.1357192429022085,1.6384947423765293,1.8,-10.973517350157701
2.1437181913774976,1.0614662507827424,0.8309763820461166,-10.746738595682833
2.151717139852787,1.1978078781649182,1.154079974952459,-10.563122284053442
2.159716088328076,1.3341495055470938,1.477183567858802,-10.379505972424052
2.167715036803365,1.4704911329292694,1.8002871607651443,-10.195889660794663
2.1757139852786542,1.6068327603114452,2.123390753671487,-10.012273349165271
2.1837129337539434,1.743174387693621,2.4464943465778295,-9.828657037535882
2.1917118822292325,1.8795160150757968,2.7695979394841723,-9.645040725906492
2.1997108307045217,2.0158576424579726,3.092701532390515,-9.4614244142771
2.207709779179811,2.152199269840148,3.4158051252968575,-9.277808102647711
2.2157087276551,2.288540897222324,3.7389087182032004,-9.094191791018321
2.223707676130389,2.4248825246044996,4.062012311109543,-8.910575479388932
2.2317066246056783,-0.30592271293371626,3.055714511041037,-8.72581072555204
2.2397055730809674,-0.4420980546792882,2.486916014721344,-8.384827087276554
2.2477045215562566,-0.188131440588858,2.62041846477392,-8.171095184016828
2.2557034700315457,0.0658351735015722,2.753920914826496,-7.957363280757102
2.263702418506835,0.3198017875920024,2.8874233648790715,-7.743631377497376
2.271701366982124,0.5737684016824327,3.020925814931647,-7.52989947423765
2.279700315457413,0.8277350157728629,3.154428264984223,-7.316167570977925
2.2876992639327027,1.081701629863307,3.287930715036806,-7.102435667718187
2.295698212407992,1.3356682439537373,3.4214331650893817,-6.888703764458461
2.303697160883281,1.5896348580441673,3.5549356151419573,-6.674971861198736
2.31169610935857,1.8436014721345975,3.688438065194533,-6.46123995793901
2.3196950578338593,2.097568086225028,3.8219405152471086,-6.247508054679284
2.3276940063091485,2.351534700315458,3.9554429652996843,-6.033776151419558
2.3356929547844376,2.4499831756046255,3.976137539432175,-5.666868980021026
2.3436919032597268,2.0593480546792535,3.606569926393241,-5.385345951629915
2.351690851735016,0.961999833969783,4.55712684708617,-6.238290718910842
2.359689800210305,0.9851546848193041,4.616487464718579,-6.2648135480657485
2.367688748685594,1.0083095356688252,4.6758480823509885,-6.291336377220654
2.3756876971608833,1.0314643865183464,4.7352086999833976,-6.3178592063755605
2.3836866456361725,1.0546192373678678,4.794569317615806,-6.344382035530467
2.3916855941114616,1.077774088217389,4.853929935248215,-6.3709048646853725
2.399684542586751,1.1009289390669101,4.913290552880624,-6.397427693840279
2.40768349106204,1.1240837899164313,4.972651170513033,-6.423950522995185
2.415682439537329,1.1472386407659525,5.032011788145441,-6.450473352150091
2.4236813880126182,1.1703934916154737,5.09137240577785,-6.476996181304997
2.4316803364879074,1.1238359621451108,5.441751419558358,-6.92233522607781
2.4396792849631965,-0.021383198971841433,5.395480500058418,-7.7428957588503335
2.447678233438486,0.15361601822643806,5.310336137399225,-7.775424815983178
2.4556771819137753,0.3286152354247078,5.225191774740036,-7.80795387311602
2.4636761303890644,0.5036144526229777,5.140047412080847,-7.840482930248863
2.4716750788643536,0.6786136698212474,5.054903049421658,-7.873011987381705
2.4796740273396427,0.8536128870195171,4.96975868676247,-7.905541044514548
2.487672975814932,1.0286121042177867,4.884614324103281,-7.93807010164739
2.495671924290221,1.2036113214160566,4.7994699614440925,-7.9705991587802325
2.50367087276551,1.3786105386143264,4.714325598784904,-8.003128215913074
2.5116698212407993,1.553609755812596,4.629181236125715,-8.035657273045917
2.5196687697160884,1.7286089730108658,4.544036873466527,-8.06818633017876
2.5276677181913776,1.9223859095688764,4.3658422712933715,-7.964456361724495
2.5356666666666667,3.227763440860212,4.156265232974906,-5.730322580645161
2.543665615141956,3.1258413554492694,4.056751433126417,-5.731870764221024
2.551664563617245,3.023919270038327,3.9572376332779275,-5.733418947796887
2.559663512092534,2.9219971846273847,3.8577238334294375,-5.734967131372749
2.5676624605678233,2.8200750992164423,3.758210033580948,-5.736515314948611
2.5756614090431125,2.7181530138055,3.6586962337324582,-5.738063498524474
2.5836603575184016,2.6162309283945575,3.5591824338839686,-5.739611682100336
2.5916593059936908,2.514308842983615,3.459668634035479,-5.741159865676199
2.5996582544689804,2.412386757572667,3.3601548341869836,-5.7427080492520615
2.6076572029442695,2.3104646721617246,3.260641034338494,-5.744256232827923
2.6156561514195587,2.208542586750782,3.1611272344900043,-5.745804416403786
2.623655099894848,2.10662050133984,3.0616134346415143,-5.747352599979648
2.631654048370137,2.5601293375394407,1.7106493165089227,-3.919827549947412
2.639652996845426,4.181829652996861,1.0173501577286996,-4.8595583596215235
2.6476519453207152,4.152289181522509,0.7264874428386244,-5.197665664050084
2.6556508937960044,4.081507788619078,0.4405715403614282,-5.362481207052554
2.6636498422712935,4.010726395715647,0.15465563788423187,-5.527296750055023
2.6716487907465827,3.9399450028122165,-0.13126026459296436,-5.692112293057493
2.679647739221872,3.8691636099087856,-0.4171761670701606,-5.856927836059962
2.687646687697161,3.798382217005355,-0.7030920695473568,-6.021743379062432
2.69564563617245,3.7276008241019243,-0.989007972024553,-6.186558922064902
2.7036445846477393,3.6568194311984934,-1.2749238745017495,-6.351374465067372
2.7116435331230284,3.5860380382950625,-1.5608397769789457,-6.516190008069842
2.7196424815983176,3.5152566453916316,-1.846755679456142,-6.681005551072311
2.7276414300736067,4.420133543638274,-1.5138696109358758,-8.211863301787618
2.735640378548896,6.806725552050235,-2.3392586750789692,-11.478107255520495
2.743639327024185,7.199522110906978,-2.366716099883282,-11.503832102702765
2.751638275499474,6.928876370737578,-2.6952003905663107,-11.503656301637374
2.7596372239747637,6.6582306305681636,-3.0236846812493576,-11.503480500571984
2.767636172450053,6.387584890398764,-3.352168971932387,-11.503304699506593
2.775635120925342,6.116939150229364,-3.6806532626154156,-11.5031288984412
2.783634069400631,5.846293410059965,-4.009137553298444,-11.50295309737581
2.7916330178759203,5.575647669890565,-4.3376218439814735,-11.50277729631042
2.7996319663512095,5.305001929721166,-4.666106134664502,-11.50260149524503
2.8076309148264986,5.034356189551766,-4.994590425347531,-11.502425694179637
2.8156298633017878,4.7637104493823665,-5.323074716030559,-11.502249893114247
2.823628811777077,4.493064709212967,-5.651559006713589,-11.502074092048856
2.831627760252366,4.27893123028391,-5.2761154574132485,-10.838963406940064
2.839626708727655,2.863624836782567,-4.891274817716456,-10.466459966952083
2.8476256572029444,2.6828134410279536,-5.187499612900241,-10.279056031245307
2.8556246056782335,2.5020020452733402,-5.483724408084027,-10.091652095538533
2.8636235541535227,2.321190649518727,-5.779949203267813,-9.904248159831758
2.871622502628812,2.1403792537641135,-6.076173998451598,-9.716844224124983
2.879621451104101,1.9595678580095,-6.372398793635384,-9.529440288418208
2.88762039957939,1.7787564622548866,-6.66862358881917,-9.342036352711434
2.8956193480546792,1.5979450665002732,-6.964848384002956,-9.15463241700466
2.9036182965299684,1.4171336707456597,-7.2610731791867416,-8.967228481297884
2.9116172450052575,1.2363222749910463,-7.557297974370527,-8.77982454559111
2.919616193480547,1.055510879236423,-7.8535227695543295,-8.592420609884325
2.9276151419558363,0.8746994834818094,-8.149747564738114,-8.40501667417755
2.9356140904311254,1.395791198851236,-8.279958153839198,-8.897470133306197
2.9436130389064146,1.2906867360899097,-8.339219180715265,-8.875021471456192
2.9516119873817037,1.1855822733285835,-8.398480207591332,-8.852572809606187
2.959610935856993,1.080477810567257,-8.457741234467399,-8.830124147756182
2.967609884332282,0.9753733478059309,-8.517002261343466,-8.807675485906175
2.975608832807571,0.8702688850446046,-8.576263288219533,-8.78522682405617
2.9836077812828603,0.7651644222832784,-8.6355243150956,-8.762778162206166
2.9916067297581495,0.6600599595219522,-8.694785341971667,-8.740329500356161
2.9996056782334386,0.5549554967606259,-8.754046368847733,-8.717880838506156
3.0076046267087277,0.4498510339992996,-8.8133073957238,-8.695432176656151
3.015603575184017,0.34474657123797336,-8.872568422599867,-8.672983514806146
3.023602523659306,0.23964210847664713,-8.931829449475934,-8.650534852956142
3.031601472134595,0.3540794652245792,-9.111477993089984,-8.746833859095691
3.0396004206098843,0.4832616384666889,-9.607196730714083,-8.537133926010899
3.0475993690851735,0.9639257241181496,-9.890795813019785,-8.663662747347288
3.0555983175604626,1.0329166367181777,-10.063121950245575,-8.630084787498836
3.0635972660357518,1.0802015599834947,-10.229581080541466,-8.58806499487548
3.0715962145110414,1.1274864832488145,-10.396040210837368,-8.546045202252124
3.0795951629863305,1.1747714065141315,-10.56249934113326,-8.50402540962877
3.0875941114616197,1.2220563297794484,-10.72895847142915,-8.462005617005415
3.095593059936909,1.2693412530447654,-10.895417601725041,-8.419985824382062
3.103592008412198,1.3166261763100824,-11.061876732020933,-8.377966031758707
3.111590956887487,1.3639110995753996,-11.228335862316824,-8.335946239135353
3.1195899053627762,1.4111960228407165,-11.394794992612715,-8.293926446511998
3.1275888538380654,1.006882229232215,-11.720945320715103,-8.160194532071467
3.1355878023133545,-0.2996859968230524,-7.481228348658744,-6.27278419133275
3.1435867507886437,-0.27398724746627234,-7.355202362574667,-6.213387744143901
3.151585699263933,-0.2482884981094923,-7.22917637649059,-6.153991296955052
3.159584647739222,-0.22258974875271226,-7.103150390406513,-6.094594849766202
3.167583596214511,-0.1968909993959322,-6.977124404322436,-6.035198402577353
3.1755825446898003,-0.17119225003915212,-6.851098418238359,-5.975801955388504
3.1835814931650894,-0.14549350068237205,-6.725072432154282,-5.916405508199655
3.1915804416403786,-0.119794751325592,-6.599046446070204,-5.857009061010805
3.1995793901156677,-0.09409600196881193,-6.473020459986127,-5.797612613821956
3.207578338590957,-0.06839725261203186,-6.3469944739020505,-5.738216166633107
3.215577287066246,-0.04269850325525182,-6.220968487817974,-5.678819719444258
3.223576235541535,-0.016999753898471748,-6.094942501733897,-5.619423272255409
3.2315751840168248,1.0357865404837545,-8.055545741324984,-6.163231335436376
3.239574132492114,1.325485804416401,-8.84419873817035,-6.078709779179811
3.247573080967403,1.2630424001899503,-8.927714641068262,-6.092643431362573
3.255572029442692,1.2005989959634995,-9.011230543966173,-6.106577083545335
3.2635709779179813,1.1381555917370487,-9.094746446864084,-6.120510735728097
3.2715699263932705,1.075712187510598,-9.178262349761996,-6.134444387910858
3.2795688748685596,1.0132687832841472,-9.261778252659907,-6.14837804009362
3.287567823343849,0.9508253790576964,-9.345294155557818,-6.162311692276382
3.295566771819138,0.8883819748312456,-9.428810058455731,-6.176245344459144
3.303565720294427,0.8259385706047948,-9.512325961353643,-6.190178996641905
3.3115646687697162,0.763495166378344,-9.595841864251554,-6.204112648824667
3.3195636172450054,0.7010517621518932,-9.679357767149465,-6.218046301007429
3.3275625657202945,0.6390620399579385,-9.845322818086236,-6.220592534174552
3.3355615141955837,-0.4142783408282448,-9.71700335592993,-4.420421034968787
3.343560462670873,-0.3245880036691514,-9.6358225384254,-4.58099567085039
3.351559411146162,-0.23489766651005808,-9.554641720920868,-4.741570306731993
3.359558359621451,-0.14520732935096475,-9.473460903416338,-4.902144942613595
3.3675573080967403,-0.05551699219187145,-9.392280085911807,-5.062719578495198
3.3755562565720294,0.03417334496722191,-9.311099268407277,-5.223294214376801
3.3835552050473185,0.12386368212631521,-9.229918450902748,-5.383868850258403
3.391554153522608,0.21355401928541357,-9.148737633398213,-5.544443486140015
3.3995531019978973,0.3032443564445069,-9.067556815893681,-5.705018122021618
3.4075520504731864,0.3929346936036003,-8.986375998389152,-5.86559275790322
3.4155509989484756,0.48262503076269353,-8.90519518088462,-6.026167393784823
3.4235499474237647,0.5723153679217869,-8.82401436338009,-6.186742029666425
3.431548895899054,1.2322198738170365,-8.32131324921135,-6.05367665615142
3.439547844374343,1.3418054679285,-7.971759200841208,-6.0416782334384855
3.447546792849632,1.510121952412397,-7.411421563592788,-5.861598097473893
3.4555457413249213,1.5945759665468449,-7.353289670603768,-5.809790954442079
3.4635446898002105,1.679029980681293,-7.295157777614748,-5.757983811410265
3.4715436382754996,1.7634839948157408,-7.237025884625729,-5.70617666837845
3.4795425867507888,1.8479380089501887,-7.178893991636709,-5.6543695253466355
3.487541535226078,1.9323920230846365,-7.120762098647689,-5.602562382314821
3.495540483701367,2.016846037219085,-7.062630205658669,-5.550755239283006
3.503539432176656,2.1013000513535323,-7.00449831266965,-5.498948096251192
3.5115383806519453,2.1857540654879806,-6.94636641968063,-5.447140953219378
3.5195373291272345,2.2702080796224284,-6.88823452669161,-5.395333810187564
3.5275362776025236,2.3211135646687775,-6.791741324921147,-5.317075709779188
3.535535226077813,1.924493165089378,-5.739298107255501,-4.7267344900104975
3.543534174553102,2.0402961637070383,-5.986298727536951,-5.065344250286511
3.5515331230283915,2.1569549852904752,-6.0062511608123925,-5.2261321022223886
3.5595320715036807,2.273613806873906,-6.026203594087833,-5.386919954158257
3.56753101997897,2.3902726284573363,-6.046156027363273,-5.547707806094126
3.575529968454259,2.506931450040767,-6.066108460638714,-5.708495658029994
3.583528916929548,2.6235902716241974,-6.086060893914154,-5.869283509965863
3.5915278654048373,2.7402490932076278,-6.106013327189594,-6.030071361901731
3.5995268138801264,2.8569079147910585,-6.125965760465035,-6.190859213837599
3.6075257623554156,2.9735667363744893,-6.145918193740475,-6.351647065773467
3.6155247108307047,3.0902255579579196,-6.165870627015916,-6.512434917709336
3.623523659305994,3.20688437954135,-6.185823060291356,-6.673222769645204
3.631522607781283,2.479862239309498,-6.463629819488258,-7.209105097704172
3.639521556256572,2.462447861899754,-6.457963897651595,-7.22601954083421
3.6475205047318613,2.44503348449001,-6.452297975814932,-7.242933983964249
3.6555194532071504,2.4276191070802655,-6.446632053978268,-7.259848427094287
3.6635184016824396,2.4102047296705216,-6.440966132141606,-7.276762870224326
3.6715173501577287,2.3927903522607776,-6.435300210304942,-7.293677313354364
3.679516298633018,2.3753759748510332,-6.429634288468279,-7.310591756484403
3.687515247108307,2.3579615974412893,-6.423968366631616,-7.327506199614441
3.695514195583596,2.3405472200315454,-6.418302444794953,-7.344420642744479
3.7035131440588858,2.3231328426218,-6.412636522958289,-7.361335085874519
3.711512092534175,2.305718465212056,-6.406970601121626,-7.378249529004558
3.719511041009464,2.288304087802312,-6.401304679284963,-7.395163972134596
3.727509989484753,2.0715741324920054,-6.597445846477501,-7.572666666666754
3.7355089379600424,2.0075720294427053,-6.158393094987637,-8.470044865054334
3.7435078864353315,2.1289398858682147,-5.0198574770495865,-8.418037748555625
3.7515068349106206,2.073666253145711,-4.9949618733680685,-8.256890393317496
3.75950578338591,2.0183926204232074,-4.9700662696865505,-8.095743038079368
3.767504731861199,1.9631189877007036,-4.9451706660050325,-7.9345956828412385
3.775503680336488,1.9078453549782,-4.9202750623235145,-7.77344832760311
3.7835026288117772,1.8525717222556963,-4.8953794586419965,-7.612300972364982
3.7915015772870664,1.7972980895331927,-4.8704838549604785,-7.451153617126852
3.7995005257623555,1.742024456810689,-4.8455882512789605,-7.290006261888724
3.8074994742376447,1.6867508240881854,-4.8206926475974425,-7.128858906650596
3.815498422712934,1.6314771913656818,-4.7957970439159245,-6.967711551412467
3.823497371188223,1.576203558643178,-4.7709014402344065,-6.806564196174339
3.831496319663512,2.6303188222923226,-5.557808622502629,-6.815486435331229
3.8394952681388013,3.2414384858044265,-5.973753943217672,-7.496996845425879
3.8474942166140904,3.4614215635927996,-6.736401046633892,-8.312062015503876
3.8554931650893796,3.103515124838001,-6.953674809869654,-8.282577519379846
3.863492113564669,2.7456086860831825,-7.170948573105427,-8.253093023255813
3.8714910620399583,2.3877022473283835,-7.3882223363411885,-8.223608527131782
3.8794900105152474,2.029795808573585,-7.605496099576951,-8.194124031007751
3.8874889589905366,1.6718893698187864,-7.822769862812712,-8.16463953488372
3.8954879074658257,1.3139829310639874,-8.040043626048474,-8.13515503875969
3.903486855941115,0.9560764923091889,-8.257317389284236,-8.105670542635659
3.911485804416404,0.5981700535543903,-8.474591152519997,-8.076186046511628
3.919484752891693,0.24026361479959135,-8.691864915755758,-8.046701550387596
3.9274837013669823,-0.12647318611988706,-8.587882229232253,-8.011744479495265
3.9354826498422715,5.651226391032937,-3.948411168534805,-9.185864386871588
3.9434815983175606,5.242769447613918,-4.0335063650804335,-8.853567644360906
3.9514805467928498,4.8343125041949,-4.118601561626063,-8.521270901850226
3.959479495268139,4.42585556077588,-4.2036967581716915,-8.188974159339544
3.967478443743428,4.017398617356862,-4.28879195471732,-7.856677416828863
3.975477392218717,3.6089416739378426,-4.37388715126295,-7.5243806743181825
3.9834763406940064,3.2004847305188235,-4.458982347808578,-7.192083931807502
3.9914752891692955,2.7920277870998045,-4.544077544354208,-6.859787189296821
3.9994742376445847,2.3835708436807854,-4.629172740899836,-6.52749044678614
4.007473186119874,1.9751139002617437,-4.71426793744547,-6.19519370427544
4.015472134595163,1.566656956842725,-4.799363133991099,-5.8628969617647595
4.0234710830704525,1.1582000134237056,-4.884458330536727,-5.530600219254078
4.031470031545742,-0.5847381703468151,-7.999249211356374,-5.994359621451273
4.039468980021031,-0.0546216885451645,-7.011229062786201,-6.688099352125098
4.04746792849632,-0.11474281740782166,-7.089412333367253,-6.637525355313592
4.055466876971609,-0.17486394627047883,-7.167595603948305,-6.586951358502087
4.063465825446898,-0.23498507513313596,-7.245778874529357,-6.536377361690581
4.071464773922187,-0.2951062039957931,-7.32396214511041,-6.485803364879075
4.079463722397477,-0.35522733285845026,-7.402145415691462,-6.43522936806757
4.087462670872766,-0.41534846172110745,-7.480328686272514,-6.3846553712560645
4.095461619348055,-0.4754695905837646,-7.5585119568535655,-6.334081374444558
4.103460567823344,-0.5355907194464218,-7.636695227434617,-6.283507377633053
4.111459516298633,-0.5957118483090789,-7.714878498015669,-6.232933380821548
4.119458464773922,-0.655832977171736,-7.793061768596721,-6.1823593840100415
4.1274574132492114,-0.871873817034691,-8.198034700315437,-6.345766561514184
4.135456361724501,-0.6321107040692873,-9.375766188392525,-8.080285257171285
4.14345531019979,-0.590137727123684,-9.495492384925885,-8.006316486324526
4.151454258675079,-0.5481647501780806,-9.615218581459246,-7.932347715477765
4.159453207150368,-0.5061917732324774,-9.734944777992606,-7.8583789446310055
4.167452155625657,-0.4642187962868741,-9.854670974525966,-7.784410173784245
4.175451104100946,-0.4222458193412708,-9.974397171059326,-7.7104414029374855
4.1834500525762355,-0.38027284239566755,-10.094123367592687,-7.636472632090726
4.191449001051525,-0.3382998654500643,-10.213849564126047,-7.5625038612439655
4.199447949526814,-0.29632688850446104,-10.333575760659407,-7.488535090397206
4.207446898002103,-0.2543539115588577,-10.453301957192767,-7.414566319550446
4.215445846477392,-0.21238093461325447,-10.573028153726126,-7.340597548703686
4.223444794952681,-0.17040795766765116,-10.692754350259486,-7.266628777856926
4.23144374342797,-0.006609156353635612,-11.117644341988195,-7.166900509585052
4.2394426919032595,0.019848903987705616,-11.567431367790995,-7.131828197039553
4.247441640378549,-0.49939537329126843,-12.245860497721704,-6.557003505082365
4.255440588853839,-0.5924201814853828,-12.088152834573084,-6.648744531422421
4.263439537329128,-0.6854449896794867,-11.93044517142448,-6.740485557762466
4.271438485804417,-0.7784697978735906,-11.772737508275876,-6.832226584102512
4.279437434279706,-0.8714946060676947,-11.615029845127273,-6.923967610442556
4.287436382754995,-0.9645194142617985,-11.45732218197867,-7.015708636782602
4.295435331230284,-1.0575442224559026,-11.299614518830067,-7.107449663122647
4.303434279705574,-1.1505690306500065,-11.141906855681464,-7.199190689462692
4.311433228180863,-1.2435938388441106,-10.984199192532861,-7.290931715802738
4.319432176656152,-1.3366186470382146,-10.826491529384258,-7.382672742142783
4.327431125131441,-1.463089379600432,-9.509881703469762,-6.693063617244833
4.33543007360673,0.020662986330250432,-6.478180599369024,-4.731182833859043
4.343429022082019,0.5485803303024706,-8.126015661532762,-5.37589686398219
4.3514279705573085,0.587257598812398,-8.284677157172027,-5.424643397043363
4.359426919032598,0.6259348673223256,-8.443338652811292,-5.4733899301045374
4.367425867507887,0.6646121358322532,-8.602000148450557,-5.522136463165711
4.375424815983176,0.7032894043421807,-8.760661644089822,-5.570882996226885
4.383423764458465,0.7419666728521083,-8.919323139729086,-5.6196295292880585
4.391422712933754,0.7806439413620357,-9.07798463536835,-5.668376062349233
4.399421661409043,0.8193212098719633,-9.236646131007616,-5.717122595410407
4.4074206098843325,0.8579984783818908,-9.395307626646881,-5.76586912847158
4.415419558359622,0.8966757468918184,-9.553969122286144,-5.814615661532755
4.423418506834911,0.935353015401746,-9.71263061792541,-5.863362194593928
4.4314174553102,2.105401857693733,-9.927189975464382,-5.6328576936558
4.439416403785489,0.6237024775812554,-8.466234643604013,-4.635710204515648
4.447415352260778,0.7021640732995414,-8.420667600042535,-4.621509824076371
4.455414300736067,0.7806256690178276,-8.375100556481057,-4.607309443637094
4.4634132492113565,0.8590872647361136,-8.329533512919577,-4.593109063197817
4.471412197686646,0.9375488604543998,-8.283966469358099,-4.578908682758539
4.479411146161935,1.016010456172686,-8.238399425796619,-4.564708302319262
4.487410094637224,1.094472051890972,-8.19283238223514,-4.550507921879984
4.495409043112513,1.1729336476092582,-8.14726533867366,-4.536307541440707
4.503407991587802,1.2513952433275444,-8.101698295112183,-4.52210716100143
4.511406940063091,1.3298568390458303,-8.056131251550703,-4.507906780562152
4.5194058885383805,1.4083184347641164,-8.010564207989225,-4.493706400122875
4.52740483701367,1.4503665147797637,-7.9227380535109235,-4.381320014020329
4.535403785488959,1.3645425867507661,-7.541574132492181,-3.8240788643533206
4.543402733964248,2.123523828906754,-6.567765758737268,-4.093708852028989
4.551401682439537,2.1083000237441065,-6.499043610008709,-4.135337788179956
4.559400630914826,2.0930762185814595,-6.430321461280149,-4.176966724330923
4.567399579390115,2.0778524134188125,-6.361599312551589,-4.21859566048189
4.5753985278654055,2.062628608256164,-6.2928771638230225,-4.260224596632862
4.583397476340695,2.047404803093517,-6.224155015094463,-4.30185353278383
4.591396424815984,2.03218099793087,-6.155432866365904,-4.343482468934797
4.599395373291273,2.0169571927682224,-6.086710717637343,-4.385111405085764
4.607394321766562,2.0017333876055754,-6.017988568908784,-4.426740341236731
4.615393270241851,1.9865095824429284,-5.949266420180225,-4.468369277387699
4.62339221871714,1.9712857772802814,-5.880544271451665,-4.509998213538665
4.6313911671924295,1.9560619721176342,-5.811822122723106,-4.551627149689633
4.639390115667719,2.0254213109008083,-5.678717840869257,-4.635261362308683
4.647389064143008,1.295724207696096,-4.936837226636851,-4.487659931584342
4.655388012618297,1.2900540670047518,-4.954050153735575,-4.50122776823863
4.663386961093586,1.2843839263134076,-4.971263080834299,-4.514795604892918
4.671385909568875,1.2787137856220632,-4.988476007933023,-4.528363441547206
4.679384858044164,1.273043644930719,-5.0056889350317455,-4.541931278201494
4.6873838065194535,1.2673735042393748,-5.022901862130469,-4.555499114855782
4.695382754994743,1.2617033635480306,-5.040114789229193,-4.56906695151007
4.703381703470032,1.2560332228566864,-5.057327716327916,-4.582634788164358
4.711380651945321,1.2503630821653422,-5.07454064342664,-4.596202624818646
4.71937960042061,1.244692941473998,-5.091753570525364,-4.609770461472934
4.727378548895899,1.1524621451103862,-5.647080441640527,-4.977354889590003
4.735377497371188,0.8686403785488858,-8.313323869610967,-6.094914826498427
4.7433764458464776,0.7830160649608602,-8.59198270826031,-6.172636347704173
4.751375394321767,0.7873710480196286,-8.603892253767963,-6.212364458464776
4.759374342797056,0.7917260310783972,-8.615801799275616,-6.252092569225379
4.767373291272345,0.7960810141371658,-8.62771134478327,-6.291820679985982
4.775372239747634,0.8004359971959343,-8.639620890290923,-6.331548790746584
4.783371188222923,0.8047909802547029,-8.651530435798575,-6.371276901507187
4.791370136698212,0.8091459633134713,-8.663439981306228,-6.41100501226779
4.799369085173502,0.8135009463722399,-8.67534952681388,-6.450733123028393
4.807368033648791,0.8178559294310085,-8.687259072321533,-6.490461233788996
4.81536698212408,0.822210912489777,-8.699168617829185,-6.530189344549599
4.823365930599369,0.8265658955485455,-8.711078163336838,-6.569917455310201
4.831364879074658,1.033921135646626,-9.49750578338575,-7.764275499474092
4.839363827549947,1.8476974680702751,-11.323732983612757,-9.614237490991155
4.8473627760252365,1.840058022897246,-11.263516180484174,-9.422082975933085
4.855361724500526,1.832418577724217,-11.203299377355593,-9.229928460875014
4.863360672975815,1.8247791325511882,-11.143082574227012,-9.037773945816943
4.871359621451104,1.8171396873781591,-11.08286577109843,-8.845619430758873
4.879358569926393,1.80950024220513,-11.022648967969848,-8.653464915700802
4.887357518401683,1.8018607970321003,-10.96243216484126,-8.46131040064271
4.895356466876972,1.7942213518590713,-10.90221536171268,-8.26915588558464
4.903355415352261,1.7865819066860422,-10.841998558584097,-8.077001370526569
4.9113543638275505,1.7789424615130132,-10.781781755455516,-7.884846855468498
4.91935331230284,1.7713030163399843,-10.721564952326935,-7.692692340410428
4.927352260778129,1.754567239163429,-10.615857693655675,-7.510252482766682
4.935351209253418,1.5403731744362499,-9.522668068699533,-7.538693188456598
4.943350157728707,-0.8419415894983396,-8.319992401885973,-5.936661069841581
4.951349106203996,-1.069782605746092,-8.452706138416845,-5.789153579141357
4.959348054679285,-1.2976236219938442,-8.585419874947718,-5.6416460884411315
4.967347003154575,-1.5254646382415964,-8.71813361147859,-5.494138597740907
4.975345951629864,-1.7533056544893486,-8.850847348009463,-5.3466311070406825
4.983344900105153,-1.9811466707371008,-8.983561084540336,-5.199123616340458
4.991343848580442,-2.208987686984853,-9.116274821071208,-5.0516161256402325
4.999342797055731,-2.4368287032326053,-9.24898855760208,-4.904108634940008
5.00734174553102,-2.6646697194803575,-9.381702294132953,-4.7566011442397835
5.015340694006309,-2.8925107357281097,-9.514416030663826,-4.609093653539559
5.023339642481599,-3.120351751975862,-9.647129767194699,-4.461586162839334
5.031338590956888,-3.348192768223614,-9.779843503725571,-4.314078672139109
5.039337539432177,-1.5933564668769162,-7.094618296529949,-3.6142965299685184
5.047336487907466,-0.746029281870479,-6.080661013174985,-3.9730083008597794
5.055335436382755,-0.641290109482281,-6.145875969567636,-3.8051244881548874
5.063334384858044,-0.5365509370940831,-6.211090925960288,-3.637240675449995
5.0713333333333335,-0.4318117647058852,-6.27630588235294,-3.4693568627451024
5.079332281808623,-0.32707259231768726,-6.341520838745591,-3.3014730500402103
5.087331230283912,-0.2223334199294893,-6.406735795138243,-3.1335892373353182
5.095330178759201,-0.11759424754129144,-6.471950751530894,-2.9657054246304257
5.10332912723449,-0.012855075153093476,-6.5371657079235455,-2.7978216119255332
5.111328075709779,0.09188409723510449,-6.602380664316198,-2.629937799220641
5.119327024185068,0.19662326962330234,-6.667595620708849,-2.462053986515749
5.1273259726603575,0.45040956887484274,-6.824099894847514,-2.3578012618296476
5.135324921135647,0.7971435331230292,-7.2690094637224085,-2.9690094637224087
5.143323869610936,0.6390267448406249,-7.800145450296869,-3.4988082082656207
5.151322818086225,0.6391883397593177,-7.825192662694239,-3.5157756747283555
5.159321766561514,0.6393499346780104,-7.850239875091609,-3.53274314119109
5.167320715036803,0.6395115295967031,-7.87528708748898,-3.5497106076538247
5.175319663512092,0.6396731245153958,-7.9003342998863495,-3.5666780741165596
5.1833186119873815,0.6398347194340885,-7.92538151228372,-3.583645540579294
5.191317560462671,0.6399963143527813,-7.95042872468109,-3.600613007042029
5.199316508937961,0.640157909271474,-7.975475937078463,-3.6175804735047654
5.20731545741325,0.6403195041901667,-8.000523149475834,-3.6345479399675
5.215314405888539,0.6404810991088594,-8.025570361873203,-3.6515154064302346
5.223313354363828,0.6406426940275521,-8.050617574270573,-3.6684828728929695
5.231312302839117,0.6408042889462449,-8.075664786667943,-3.685450339355704
5.2393112513144064,0.6409658838649376,-8.100711999065314,-3.7024178058184387
5.247310199789696,0.0726498422712937,-9.263682439537332,-3.840286014721346
5.255309148264985,0.09493262730959952,-9.389951554754397,-3.8237167643082466
5.263308096740274,0.11721541234790533,-9.516220669971464,-3.8071475138951474
5.271307045215563,0.13949819738621116,-9.64248978518853,-3.790578263482048
5.279305993690852,0.16178098242451697,-9.768758900405597,-3.774009013068949
5.287304942166141,0.18406376746282277,-9.895028015622662,-3.75743976265585
5.2953038906414305,0.2063465525011286,-10.021297130839729,-3.7408705122427506
5.30330283911672,0.2354227129337598,-10.525668769716312,-3.8216729758149848
5.311301787592009,0.26700510740573874,-10.953173952230733,-4.123250563316813
5.319300736067298,0.4539453207150381,-11.041233438485808,-3.5671009463722356
5.327299684542587,0.5597003154574142,-11.359000000000004,-3.337864353312301
5.335298633017876,0.6492270080077664,-11.651576923076927,-3.168963479737925
5.343297581493165,0.7387537005581188,-11.944153846153851,-3.0000626061635494
5.3512965299684545,0.75711675968616,-12.065272587559654,-2.8973683571948543
5.359295478443744,0.7391704009274985,-12.09890919140446,-2.828454339561594
5.367294426919033,0.7212240421688371,-12.132545795249266,-2.759540321928334
5.375293375394322,0.7032776834101756,-12.16618239909407,-2.690626304295074
5.383292323869611,0.685331324651514,-12.199819002938876,-2.621712286661814
5.3912912723449,0.6673849658928526,-12.233455606783682,-2.552798269028554
5.399290220820189,0.6494386071341911,-12.267092210628487,-2.4838842513952937
5.4072891692954785,0.6314922483755296,-12.300728814473294,-2.414970233762034
5.415288117770768,0.6135458896168682,-12.334365418318098,-2.3460562161287735
5.423287066246057,0.5955995308582067,-12.368002022162905,-2.277142198495514
5.431286014721346,0.06676295628660678,-13.143357969055133,-1.9209004055881034
5.439284963196635,-0.25890233257578243,-13.126446671867761,-1.9230535259997972
5.447283911671924,-0.3011333401173628,-12.950039754418103,-1.89286394627048
5.455282860147213,-0.34336434765894314,-12.773632836968448,-1.862674366541163
5.463281808622503,-0.38559535520052346,-12.597225919518792,-1.832484786811846
5.471280757097792,-0.42782636274210384,-12.420819002069134,-1.8022952070825287
5.479279705573081,-0.4700573702836842,-12.244412084619478,-1.7721056273532116
5.48727865404837,-0.5122883778252645,-12.068005167169822,-1.7419160476238944
5.495277602523659,-0.5545193853668449,-11.891598249720165,-1.7117264678945774
5.503276550998948,-0.5967503929084252,-11.715191332270509,-1.6815368881652604
5.5112754994742374,-0.6389814004500056,-11.538784414820853,-1.6513473084359431
5.5192744479495275,-0.6812124079915907,-11.362377497371178,-1.6211577287066228
5.527273396424817,-0.6760694006308234,-10.88811987381643,-1.4931671924288257
5.535272344900106,0.7399277683410191,-10.596745207473916,-1.6967452074739153
5.543271293375395,0.7671769334766195,-10.61863244011509,-1.7186324401150912
5.551270241850684,0.7944260986122198,-10.640519672756268,-1.7405196727562668
5.559269190325973,0.8216752637478202,-10.662406905397443,-1.7624069053974427
5.567268138801262,0.8489244288834206,-10.684294138038618,-1.7842941380386184
5.5752670872765515,0.8761735940190208,-10.706181370679795,-1.8061813706797942
5.583266035751841,0.9034227591546211,-10.72806860332097,-1.8280686033209699
5.59126498422713,0.9306719242902215,-10.749955835962146,-1.8499558359621457
5.599263932702419,0.9579210894258219,-10.771843068603323,-1.8718430686033214
5.607262881177708,0.9851702545614222,-10.793730301244498,-1.8937303012444973
5.615261829652997,1.0124194196970224,-10.815617533885673,-1.915617533885673
5.623260778128286,1.0396685848326228,-10.83750476652685,-1.9375047665268488
5.6312597266035755,0.8850031545740686,-9.010455310199774,-1.7104553101997744
5.639258675078865,0.6904666113232588,-8.969382035530465,-1.506482085339518
5.647257623554154,0.6645331783717953,-8.969803032818639,-1.3273898389506769
5.655256572029443,0.6385997454203316,-8.970224030106813,-1.148297592561836
5.663255520504732,0.612666312468868,-8.970645027394985,-0.9692053461729947
5.671254468980021,0.5867328795174045,-8.971066024683159,-0.7901130997841537
5.67925341745531,0.5607994465659409,-8.971487021971331,-0.6110208533953125
5.6872523659306,0.5348660136144773,-8.971908019259505,-0.4319286070064714
5.695251314405889,0.5089325806630137,-8.972329016547679,-0.25283636061763026
5.703250262881178,0.48299914771155017,-8.972750013835851,-0.07374411422878913
5.711249211356467,0.45706571476008656,-8.973171011124025,0.10534813216005179
5.719248159831756,0.431132281808623,-8.973592008412197,0.2844403785488929
5.727247108307045,0.35781388012622756,-8.932485804416443,0.48460532772517695
5.7352460567823345,-0.04886119873817003,-7.740151419558359,0.12116088328075625
5.743245005257624,-0.07548412197687249,-7.274533228180848,-0.19250115667718967
5.751243953732913,-0.21372104551599896,-6.957154123479042,-0.4015060838215473
5.759242902208202,-0.2305500020484255,-6.886410176574212,-0.5352027940513802
5.767241850683491,-0.24737895858085202,-6.8156662296693815,-0.6688995042812131
5.77524079915878,-0.2642079151132785,-6.744922282764551,-0.8025962145110461
5.783239747634069,-0.28103687164570507,-6.674178335859722,-0.9362929247408791
5.7912386961093585,-0.29786582817813156,-6.603434388954891,-1.069989634970712
5.799237644584648,-0.3146947847105581,-6.532690442050061,-1.2036863452005448
5.807236593059937,-0.33152374124298467,-6.461946495145232,-1.337383055430378
5.815235541535226,-0.34835269777541117,-6.391202548240401,-1.4710797656602108
5.823234490010515,-0.36518165430783767,-6.320458601335571,-1.604776475890044
5.831233438485805,-0.01696214511034686,-6.101652996845434,-1.8241104100946186
5.839232386961094,0.4386837714686311,-7.904999883163927,-1.6070486739104994
5.847231335436383,0.47254598668068853,-8.031205514662934,-1.5180825914242277
5.8552302839116726,0.506408201892746,-8.157411146161941,-1.429116508937956
5.863229232386962,0.5402704171048034,-8.283616777660948,-1.3401504264516846
5.871228180862251,0.5741326323168608,-8.409822409159954,-1.251184343965413
5.87922712933754,0.6079948475289183,-8.53602804065896,-1.1622182614791412
5.887226077812829,0.6418570627409758,-8.662233672157967,-1.0732521789928695
5.895225026288118,0.6757192779530332,-8.788439303656974,-0.9842860965065979
5.903223974763407,0.7095814931650907,-8.91464493515598,-0.8953200140203262
5.911222923238697,0.7434437083771481,-9.040850566654987,-0.8063539315340547
5.919221871713986,0.7773059235892056,-9.167056198153993,-0.717387849047783
5.927220820189275,0.9500567823344327,-10.046779179810981,-0.517476340693965
5.935219768664564,1.0442313354363557,-12.202854438936438,-0.6241719993991615
5.943218717139853,0.8553977033744318,-12.040297593442302,-0.6641066102666893
5.951217665615142,0.7747719386291878,-11.951854674505299,-0.4726772297103378
5.9592166140904315,0.694146173883944,-11.863411755568295,-0.2812478491539864
5.967215562565721,0.6135204091387,-11.774968836631292,-0.08981846859763498
5.97521451104101,0.532894644393456,-11.686525917694288,0.10161091195871652
5.983213459516299,0.45226887964821205,-11.598082998757285,0.293040292515068
5.991212407991588,0.3716431149029681,-11.50964007982028,0.4844696730714194
5.999211356466877,0.2910173501577241,-11.421197160883276,0.6758990536277708
6.007210304942166,0.21039158541248026,-11.332754241946272,0.8673284341841222
6.0152092534174555,0.1297658206672363,-11.244311323009269,1.0587578147404737
6.023208201892745,0.04914005592199233,-11.155868404072265,1.2501871952968249
6.031207150368034,0.7617076761304157,-15.788075184016833,2.993806519453176
6.039206098843323,0.763009520255989,-15.630468618206084,2.908262168854514
6.047205047318612,0.6006222651877534,-15.370717818255835,2.989799837183268
6.055203995793901,0.43823501011951776,-15.110967018305585,3.0713375055120222
6.06320294426919,0.2758477550512821,-14.851216218355335,3.152875173840776
6.0712018927444795,0.11346049998304653,-14.591465418405086,3.23441284216953
6.079200841219769,-0.04892675508518918,-14.331714618454836,3.3159505104982836
6.087199789695058,-0.21131401015342477,-14.071963818504585,3.3974881788270377
6.095198738170347,-0.3737012652216605,-13.812213018554335,3.4790258471557918
6.103197686645636,-0.5360885202898962,-13.552462218604084,3.5605635154845454
6.111196635120925,-0.6984757753581317,-13.292711418653836,3.6421011838132995
6.119195583596214,-0.8608630304263674,-13.032960618703585,3.723638852142053
6.1271945320715036,-1.1086580441639977,-12.14186750788668,3.485049631966464
6.135193480546793,-2.00242530130227,-8.413242659548663,1.2267434279705602
6.143192429022083,-2.1790174714875206,-7.889003882552727,1.0507665615141781
6.151191377497372,-2.308536632662807,-7.590450585166681,2.11373246207002
6.159190325972661,-2.208290070602365,-7.676049722097048,2.3354176055280336
6.16718927444795,-2.108043508541923,-7.761648859027415,2.5571027489860474
6.175188222923239,-2.007796946481481,-7.847247995957781,2.778787892444061
6.1831871713985285,-1.9075503844210393,-7.932847132888149,3.0004730359020746
6.191186119873818,-1.8073038223605973,-8.018446269818515,3.2221581793600884
6.199185068349107,-1.7070572603001555,-8.104045406748883,3.4438433228181022
6.207184016824396,-1.6068106982397135,-8.18964454367925,3.6655284662761156
6.215182965299685,-1.5065641361792714,-8.275243680609616,3.8872136097341294
6.223181913774974,-1.4063175741188294,-8.360842817539984,4.108898753192143
6.231180862250263,-1.1534574132492101,-6.827072555204975,4.377488117770721
6.2391798107255525,-1.1216908517350146,-6.235360672975809,3.2706256572029035
6.247178759200842,-1.098800992834959,-6.142205658670186,3.245502628811781
6.255177707676131,-1.0774084562149995,-6.0577516445357364,3.3574879074658295
6.26317665615142,-1.0560159195950398,-5.973297630401287,3.4694731861198784
6.271175604626709,-1.0346233829750804,-5.888843616266839,3.5814584647739274
6.279174553101998,-1.013230846355121,-5.80438960213239,3.6934437434279763
6.287173501577287,-0.9918383097351614,-5.719935587997941,3.8054290220820253
6.2951724500525765,-0.9704457731152019,-5.635481573863492,3.9174143007360738
6.303171398527866,-0.9490532364952424,-5.551027559729043,4.029399579390123
6.311170347003155,-0.9276606998752829,-5.466573545594595,4.141384858044171
6.319169295478444,-0.9062681632553234,-5.3821195314601455,4.25337013669822
6.327168243953733,-0.6648654048369771,-5.56409305993695,4.306359095688742
6.335167192429022,-0.43864037854886206,-7.484227129337584,3.2112018927443873
6.343166140904311,-0.2788597890017447,-7.6932577853271855,2.8555482256964893
6.351165089379601,-0.2943302827561502,-7.672337458545661,2.9856410140858083
6.35916403785489,-0.3098007765105557,-7.651417131764135,3.1157338024751273
6.367162986330179,-0.32527127026496117,-7.630496804982609,3.2458265908644464
6.375161934805468,-0.3407417640193667,-7.609576478201084,3.3759193792537654
6.383160883280757,-0.3562122577737722,-7.588656151419558,3.5060121676430844
6.391159831756046,-0.3716827515281777,-7.567735824638032,3.6361049560324035
6.399158780231335,-0.3871532452825832,-7.546815497856507,3.7661977444217225
6.407157728706625,-0.40262373903698867,-7.525895171074981,3.8962905328110415
6.415156677181914,-0.4180942327913942,-7.504974844293455,4.026383321200361
6.423155625657203,-0.4335647265457997,-7.48405451751193,4.156476109589679
6.431154574132492,-0.8033764458464887,-6.937563617244976,4.7162029442691615
6.439153522607781,-0.49944118471784055,-8.257243357868909,6.822080196284613
6.44715247108307,-0.5589000350508233,-8.389759270942866,6.8679408342096036
6.4551514195583595,-0.618358885383806,-8.522275184016824,6.913801472134595
6.4631503680336495,-0.6778177357167954,-8.654791097090795,6.9596621100595915
6.471149316508939,-0.7372765860497781,-8.787307010164753,7.005522747984583
6.479148264984228,-0.7967354363827609,-8.919822923238709,7.051383385909574
6.487147213459517,-0.8561942867157437,-9.052338836312666,7.097244023834564
6.495146161934806,-0.9156531370487264,-9.184854749386623,7.143104661759556
6.503145110410095,-0.9751119873817091,-9.317370662460581,7.188965299684547
6.511144058885384,-1.0345708377146918,-9.449886575534537,7.234825937609538
6.5191430073606735,-1.0940296880476748,-9.582402488608494,7.28068657553453
6.527141955835963,-1.0342302839115882,-10.06428075709807,7.820176656151798
6.535140904311252,-0.8041013970256705,-10.233886435331218,8.324026213008876
6.543139852786541,-0.41451209253399923,-9.635164037854539,8.359801261829592
6.55113880126183,0.10264909305993336,-9.748440575709775,8.447101064668773
6.559137749737119,-0.03643262355415658,-9.626156650893794,8.571784674027343
6.567136698212408,-0.17551434016824652,-9.50387272607781,8.696468283385913
6.575135646687698,-0.31459605678233643,-9.381588801261827,8.821151892744481
6.583134595162987,-0.4536777733964264,-9.259304876445844,8.945835502103051
6.591133543638276,-0.5927594900105162,-9.137020951629863,9.070519111461621
6.599132492113565,-0.7318412066246063,-9.01473702681388,9.195202720820191
6.607131440588854,-0.8709229232386961,-8.892453101997896,9.31988633017876
6.615130389064143,-1.0100046398527862,-8.770169177181913,9.44456993953733
6.6231293375394324,-1.149086356466876,-8.647885252365931,9.5692535488959
6.631128286014722,-1.3843217665615033,-7.087484752891715,7.87193901156679
6.639127234490011,-0.7524700539186052,-8.094542743360847,8.89553307828266
6.6471261829653,-0.6643114302973336,-7.933372441103427,8.975862943821735
6.655125131440589,-0.5761528066760621,-7.772202138846005,9.056192809360809
6.663124079915878,-0.4879941830547905,-7.611031836588584,9.136522674899881
6.671123028391167,-0.3998355594335189,-7.449861534331163,9.216852540438955
6.6791219768664565,-0.3116769358122473,-7.288691232073742,9.29718240597803
6.687120925341746,-0.22351831219097573,-7.1275209298163205,9.377512271517103
6.695119873817035,-0.13535968856970415,-6.966350627558899,9.457842137056177
6.703118822292324,-0.04720106494843257,-6.805180325301478,9.538172002595251
6.711117770767613,0.04095755867283901,-6.644010023044057,9.618501868134326
6.719116719242902,0.1291161822941106,-6.482839720786635,9.698831733673398
6.727115667718191,0.2339284963196224,-6.2366708727657105,9.763888538380685
6.7351146161934805,-0.13995583596215322,-5.046860848229928,8.292073957237976
6.74311356466877,-0.42357725162159376,-4.988356856768161,7.030931591819375
6.751112513144059,-0.408837616228926,-4.9185233403041195,7.027696062099033
6.759111461619348,-0.3940979808362583,-4.848689823840078,7.024460532378691
6.767110410094637,-0.3793583454435906,-4.778856307376036,7.021225002658349
6.775109358569927,-0.3646187100509212,-4.709022790911987,7.017989472938007
6.783108307045216,-0.3498790746582535,-4.639189274447945,7.0147539432176655
6.791107255520505,-0.33513943926558576,-4.569355757983904,7.011518413497324
6.799106203995795,-0.32039980387291805,-4.499522241519862,7.008282883776982
6.807105152471084,-0.30566016848025035,-4.42968872505582,7.00504735405664
6.815104100946373,-0.29092053308758264,-4.359855208591779,7.001811824336299
6.823103049421662,-0.27618089769491494,-4.290021692127738,6.998576294615956
6.831101997896951,-0.19602313354359807,-3.818741324921038,6.953567823343902
6.83910094637224,-0.0465615141955788,-4.168349256421807,6.97189905362776
6.8470998948475295,0.018660681064471038,-4.120267665037377,6.9639001051524705
6.855098843322819,0.08388287632452086,-4.072186073652947,6.955901156677181
6.863097791798108,0.1491050715845707,-4.024104482268517,6.947902208201892
6.871096740273397,0.2143272668446205,-3.976022890884087,6.939903259726603
6.879095688748686,0.27954946210467035,-3.9279412994996568,6.931904311251314
6.887094637223975,0.3447716573647202,-3.879859708115226,6.923905362776025
6.895093585699264,0.40999385262477006,-3.831778116730796,6.915906414300736
6.9030925341745535,0.4752160478848199,-3.783696525346366,6.9079074658254465
6.911091482649843,0.5404382431448698,-3.7356149339619353,6.899908517350157
6.919090431125132,0.6056604384049196,-3.687533342577505,6.891909568874868
6.927089379600421,0.655463722397475,-3.632080149550178,6.877495384974878
6.93508832807571,0.6085962145110456,-3.531165615141957,6.820372239747614
6.943087276550999,0.6495630914825605,-3.5530694006309655,6.5826435331230115
6.951086225026288,0.3850160036931599,-3.725071118976174,6.540129337539432
6.9590851735015775,0.39555120412402855,-3.747507193967839,6.5521277602523655
6.967084121976867,0.40608640455489725,-3.7699432689595036,6.5641261829653
6.975083070452156,0.4166216049857659,-3.7923793439511684,6.576124605678233
6.983082018927445,0.42715680541663453,-3.814815418942833,6.588123028391167
6.991080967402734,0.4376920058475032,-3.8372514939344975,6.6001214511041
6.999079915878023,0.44822720627837187,-3.8596875689261623,6.612119873817035
7.007078864353312,0.4587624067092405,-3.882123643917827,6.624118296529968
7.0150778128286015,0.46929760714010915,-3.904559718909492,6.636116719242902
7.023076761303891,0.4798328075709778,-3.9269957939011566,6.648115141955835
7.03107570977918,1.2034826498422666,-4.25264984227129,7.810447949526799
7.039074658254469,1.4766081239145072,-4.515644974538923,8.581506704946893
7.047073606729758,1.4442528267110906,-4.429454057822045,8.687560179113648
7.055072555205047,1.411897529507674,-4.343263141105165,8.793613653280403
7.063071503680336,1.3795422323042574,-4.257072224388286,8.899667127447156
7.071070452155626,1.3471869351008408,-4.170881307671406,9.00572060161391
7.079069400630915,1.314831637897424,-4.084690390954528,9.111774075780666
7.087068349106204,1.2824763406940074,-3.998499474237648,9.21782754994742
7.095067297581494,1.2501210434905872,-3.912308557520759,9.323881024114186
7.103066246056783,1.2177657462871707,-3.8261176408038797,9.429934498280941
7.111065194532072,1.185410449083754,-3.7399267240870007,9.535987972447696
7.119064143007361,1.1530551518803374,-3.653735807370121,9.64204144661445
7.1270630914826505,0.9618154574131828,-3.7480315457413935,9.650015772870628
7.13506203995794,2.308019718915011,-4.458560722725344,12.258145178250416
7.143060988433229,2.350766787648545,-4.103854663455532,12.46818208337575
7.151059936908518,2.39351385638208,-3.749148604185721,12.678218988501085
7.159058885383807,2.436260925115614,-3.3944425449159095,12.888255893626418
7.167057833859096,2.479007993849149,-3.0397364856460984,13.098292798751753
7.175056782334385,2.5217550625826832,-2.6850304263762874,13.308329703877089
7.1830557308096745,2.5645021313162175,-2.330324367106476,13.518366609002422
7.191054679284964,2.6072492000497522,-1.9756183078366645,13.728403514127757
7.199053627760253,2.6499962687832865,-1.6209122485668535,13.93844041925309
7.207052576235542,2.6927433375168213,-1.266206189297042,14.148477324378426
7.215051524710831,2.7354904062503556,-0.911500130027231,14.35851422950376
7.22305047318612,2.7782374749838903,-0.5567940707574195,14.568551134629095
7.231049421661409,1.8235115667715742,-1.109419558359776,11.183044689799681
7.2390483701366986,0.780712492791959,-1.6463300656920195,9.027768653256892
7.247047318611988,0.6798225297649249,-1.551546826769776,8.941500424001893
7.255046267087277,0.5789325667378908,-1.4567635878475325,8.855232194746891
7.263045215562566,0.47804260371085666,-1.361980348925289,8.768963965491892
7.271044164037855,0.37715264068382254,-1.2671971100030457,8.68269573623689
7.279043112513144,0.27626267765678847,-1.1724138710808023,8.596427506981891
7.287042060988433,0.17537271462975434,-1.0776306321585587,8.510159277726892
7.295041009463723,0.07448275160272022,-0.9828473932363152,8.42389104847189
7.303039957939012,-0.026407211424313903,-0.8880641543140718,8.337622819216891
7.311038906414301,-0.12729717445134803,-0.7932809153918283,8.25135458996189
7.31903785488959,-0.22818713747838215,-0.6984976764695849,8.16508636070689
7.327036803364879,-0.314156794017992,-0.5795966818553417,8.091152003738754
7.335035751840168,-0.29624605678232263,-0.29624605678232263,8.119109358569986
7.3430347003154575,0.15731875871175963,0.07849108649402191,8.916945491893477
7.351033648790747,0.14234398307778814,0.1193229281295094,8.858813598904456
7.359032597266036,0.12736920744381663,0.16015476976499687,8.800681705915437
7.367031545741325,0.11239443180984515,0.20098661140048435,8.742549812926418
7.375030494216614,0.09741965617587366,0.24181845303597185,8.684417919937397
7.383029442691903,0.08244488054190217,0.2826502946714593,8.626286026948378
7.391028391167192,0.06747010490793068,0.32348213630694683,8.568154133959359
7.3990273396424815,0.05249532927395918,0.3643139779424343,8.510022240970338
7.4070262881177715,0.03752055363998602,0.4051458195779263,8.451890347981312
7.415025236593061,0.02254577800601454,0.4459776612134138,8.393758454992293
7.42302418506835,0.007571002372043056,0.4868095028489013,8.335626562003274
7.431023133543639,0.18403364879069156,-0.21480967402736229,7.609852786540648
7.439022082018928,0.0909846341711716,-0.12969224246122454,8.117252399850752
7.447021030494217,0.19058444421832038,0.07527006094322752,8.126885542100563
7.455019978969506,0.2901842542654691,0.28023236434767956,8.136518684350373
7.463018927444796,0.3897840643126179,0.48519466775213166,8.146151826600184
7.471017875920085,0.48938387435976666,0.6901569711565838,8.155784968849995
7.479016824395374,0.5889836844069154,0.8951192745610359,8.165418111099806
7.487015772870663,0.6885834944540642,1.1000815779654878,8.175051253349615
7.495014721345952,0.788183304501213,1.3050438813699399,8.184684395599426
7.503013669821241,0.8877831145483617,1.510006184774392,8.194317537849237
7.51101261829653,0.9873829245955105,1.714968488178844,8.203950680099048
7.51901156677182,1.0869827346426593,1.9199307915832964,8.213583822348857
7.527010515247109,1.2008508337088923,2.1057848880877312,8.280321165690282
7.535009463722398,1.0757318611987026,2.3035157728706768,8.937862776025318
7.543008412197687,0.6192432965299682,2.498554284963197,9.873358307045216
7.551007360672976,0.6020637367364494,2.539367101615525,9.889901586846381
7.559006309148265,0.5848841769429307,2.580179918267852,9.906444866647547
7.5670052576235545,0.567704617149412,2.62099273492018,9.922988146448715
7.575004206098844,0.5505250573558933,2.6618055515725074,9.93953142624988
7.583003154574133,0.5333454975623746,2.702618368224835,9.956074706051046
7.591002103049422,0.5161659377688559,2.7434311848771626,9.972617985852212
7.599001051524711,0.4989863779753372,2.78424400152949,9.98916126565338
7.607,0.4818068181818184,2.825056818181818,10.005704545454545
7.614998948475289,0.4646272583882997,2.8658696348341453,10.022247825255711
7.6229978969505785,0.44744769859478095,2.9066824514864726,10.038791105056877
7.630996845425868,1.1648406940063047,4.6859463722397185,11.880572555205037
7.638995793901157,1.0150427696246493,4.857556416586659,10.696435879851872
7.646994742376446,0.8923632446395077,4.8329509555159325,10.694349197640927
7.654993690851735,0.769683719654366,4.808345494445206,10.692262515429983
7.662992639327024,0.6470041946692244,4.78374003337448,10.690175833219037
7.670991587802313,0.5243246696840828,4.759134572303753,10.688089151008093
7.6789905362776025,0.4016451446989411,4.7345291112330266,10.686002468797147
7.686989484752892,0.2789656197137994,4.7099236501623,10.683915786586201
7.694988433228181,0.15628609472865784,4.685318189091573,10.681829104375257
7.70298738170347,0.03360656974351617,4.660712728020847,10.679742422164312
7.710986330178759,-0.0890729552416254,4.636107266950121,10.677655739953368
7.718985278654049,-0.21175248022678073,4.611501805879391,10.675569057742422
7.726984227129338,-0.009342271293308002,4.684274447949547,11.739529968454502
7.7349831756046274,-1.2144357675011705,4.494962279347601,9.499045126071094
7.742982124079917,-1.1539330827572278,4.411739177125975,9.386549276237771
7.750981072555206,-1.093430398013285,4.32851607490435,9.274053426404448
7.758980021030495,-1.0329277132693422,4.245292972682724,9.161557576571125
7.766978969505784,-0.9724250285253995,4.162069870461098,9.049061726737802
7.774977917981073,-0.9119223437814568,4.078846768239472,8.936565876904481
7.782976866456362,-0.8514196590375139,3.995623666017846,8.824070027071159
7.7909758149316515,-0.7909169742935711,3.9124005637962203,8.711574177237836
7.798974763406941,-0.7304142895496284,3.829177461574594,8.599078327404513
7.80697371188223,-0.6699116048056857,3.7459543593529685,8.48658247757119
7.814972660357519,-0.6094089200617429,3.6627312571313424,8.374086627737867
7.822971608832808,-0.5489062353178001,3.5795081549097167,8.261590777904544
7.830970557308097,0.6049846777828132,3.571477091783105,8.837062791047064
7.838969505783386,1.6068832807571043,4.21985015772871,10.175057308096745
7.8469684542586755,1.770460676601763,4.247645599912977,10.176076580006528
7.854967402733965,1.930531588044044,4.273389342132299,10.174145799340078
7.862966351209254,2.090602499486325,4.29913308435162,10.17221501867363
7.870965299684543,2.2506734109286057,4.324876826570942,10.17028423800718
7.878964248159832,2.4107443223708866,4.350620568790263,10.16835345734073
7.886963196635121,2.570815233813168,4.376364311009585,10.166422676674282
7.89496214511041,2.730886145255449,4.402108053228906,10.164491896007833
7.9029610935856995,2.89095705669773,4.427851795448228,10.162561115341383
7.910960042060989,3.0510279681400108,4.453595537667549,10.160630334674934
7.918958990536278,3.211098879582292,4.4793392798868705,10.158699554008486
7.926957939011567,3.112036277602485,4.325739221871685,10.027199263932681
7.934956887486856,2.196058735165937,3.8577121826648413,9.23503409944414
7.942955835962145,1.490698651506222,4.816783513016952,6.869261864318647
7.950954784437434,1.4557142394934186,4.806235449093493,6.8576589940028425
7.958953732912724,1.4207298274806153,4.795687385170035,6.846056123687038
7.966952681388013,1.385745415467812,4.785139321246576,6.834453253371234
7.974951629863302,1.3507610034550086,4.774591257323118,6.82285038305543
7.982950578338591,1.3157765914422053,4.76404319339966,6.811247512739626
7.99094952681388,1.280792179429402,4.753495129476201,6.7996446424238215
7.998948475289169,1.2458077674165984,4.742947065552743,6.788041772108018
8.006947423764458,1.2108233554037953,4.732399001629285,6.776438901792214
8.014946372239748,1.175838943390988,4.721850937705826,6.764836031476408
8.022945320715037,1.1408545313781886,4.711302873782368,6.753233161160606
8.030944269190327,1.0896982124079673,4.52778233438465,6.927132492113786
8.038943217665615,1.659472899340407,3.9455890450243754,6.602047605391452
8.046942166140905,1.6143554153522643,3.7888071503680436,6.196736908517328
8.054941114616193,1.634352786540485,3.8465995531020014,6.067153943217658
8.062940063091483,1.65435015772871,3.9043919558359717,5.937570977917959
8.070939011566772,1.6743475289169307,3.9621843585699295,5.8079880126182895
8.078937960042062,1.6943449001051558,4.0199767613039,5.678405047318591
8.08693690851735,1.7143422712933765,4.077769164037858,5.548822082018922
8.09493585699264,1.7343396424816013,4.135561566771828,5.419239116719224
8.102934805467928,1.754337013669822,4.193353969505786,5.289656151419554
8.110933753943218,1.774334384858047,4.251146372239756,5.160073186119855
8.118932702418507,1.7943317560462677,4.308938774973714,5.030490220820186
8.126931650893797,1.707655099894729,4.241990886785706,4.9321486154924825
8.134930599369085,1.5946119873817004,3.9141044514546106,5.126149316508934
8.142929547844375,2.1840723048420254,4.90708226929048,6.243585398828305
8.150928496319663,2.2191153172099543,4.968026638626008,6.274438485804416
8.158927444794953,2.254158329577891,5.02897100796155,6.3052915727805345
8.166926393270241,2.28920134194582,5.089915377297078,6.336144659756646
8.174925341745531,2.3242443543137568,5.15085974663262,6.366997746732764
8.18292429022082,2.3592873666816856,5.211804115968149,6.397850833708875
8.19092323869611,2.3943303790496224,5.2727484853036914,6.428703920684994
8.1989221871714,2.4293733914175593,5.333692854639233,6.459557007661112
8.206921135646688,2.464416403785488,5.394637223974762,6.490410094637223
8.214920084121978,2.4994594161534245,5.455581593310304,6.5212631816133415
8.222919032597266,2.5345024285213538,5.516525962645832,6.552116268589453
8.230917981072556,2.990813880126328,6.37867507886469,7.474082018927854
8.238916929547845,2.851442326155536,6.459300598911905,7.903440451698441
8.246915878023135,2.915607804142101,6.6208445800759135,7.883008355049602
8.254914826498423,2.9797732821286522,6.782388561239887,7.862576258400768
8.262913774973713,3.0439387601152177,6.943932542403895,7.842144161751929
8.270912723449001,3.1081042381017685,7.1054765235678685,7.821712065103095
8.278911671924291,3.172269716088334,7.267020504731877,7.801279968454257
8.28691062039958,3.2364351940748852,7.4285644858958495,7.780847871805423
8.29490956887487,3.3006006720614507,7.590108467059858,7.760415775156584
8.302908517350158,3.3647661500480015,7.751652448223831,7.73998367850775
8.310907465825448,3.428931628034567,7.91319642938784,7.719551581858911
8.318906414300736,3.493097106021118,8.074740410551813,7.699119485210078
8.326905362776026,4.4961041009472735,9.939094637225615,8.866119873818164
8.334904311251314,6.062872966865807,10.284553840302483,9.074812090296902
8.342903259726604,5.844944168512424,10.264045897934984,8.939340537396244
8.350902208201893,5.62701537015909,10.24353795556749,8.803868984495615
8.358901156677183,5.409086571805709,10.22303001319999,8.668397431594958
8.366900105152471,5.191157773452375,10.202522070832496,8.53292587869433
8.374899053627761,4.973228975098992,10.182014128464997,8.397454325793673
8.38289800210305,4.755300176745659,10.161506186097503,8.261982772893045
8.39089695057834,4.537371378392277,10.140998243730003,8.126511219992388
8.398895899053628,4.3194425800389435,10.120490301362508,7.99103966709176
8.406894847528918,4.101513781685561,10.09998235899501,7.855568114191103
8.414893796004206,3.883584983332228,10.079474416627516,7.720096561290475
8.422892744479496,3.665656184978846,10.058966474260016,7.584625008389818
8.430891692954784,1.0328976515948018,6.475412548194847,5.9349050122678015
8.438890641430074,1.1635471433578675,6.912688398177353,5.769593410445148
8.446889589905362,1.4124665692082787,7.765933138416558,5.187886512272063
8.454888538380652,1.4175390731194382,7.776078146238877,5.222613654433078
8.46288748685594,1.4226115770305967,7.786223154061194,5.257340796594085
8.47088643533123,1.4276840809417561,7.796368161883512,5.2920679387551
8.478885383806519,1.4327565848529145,7.80651316970583,5.326795080916107
8.486884332281809,1.437829088764074,7.816658177528148,5.361522223077122
8.494883280757097,1.4429015926752324,7.826803185350465,5.39624936523813
8.502882229232387,1.4479740965863919,7.836948193172784,5.430976507399144
8.510881177707677,1.4530466004975513,7.847093200995103,5.46570364956016
8.518880126182966,1.4581191044087096,7.85723820881742,5.500430791721167
8.526879074658256,1.290064668769543,7.68930651945303,6.025894321767064
8.534878023133544,0.6618881878723561,6.820170814347389,5.807653931534034
8.542876971608834,-0.1733174879437367,5.998150513071534,4.709591428260631
8.550875920084122,-0.2722470116151182,5.944272538283959,4.695800137785996
8.558874868559412,-0.37117653528652167,5.890394563496374,4.682008847311359
8.5668738170347,-0.4701060589579032,5.8365165887087995,4.668217556836724
8.57487276550999,-0.5690355826293068,5.782638613921214,4.654426266362085
8.582871713985279,-0.6679651063006882,5.72876063913364,4.64063497588745
8.590870662460569,-0.7668946299720917,5.674882664346054,4.626843685412812
8.598869610935857,-0.8658241536434732,5.621004689558481,4.613052394938177
8.606868559411147,-0.9647536773148767,5.567126714770894,4.599261104463539
8.614867507886435,-1.0636832009862582,5.513248739983321,4.5854698139889045
8.622866456361725,-1.1626127246576616,5.459370765195735,4.571678523514266
8.630865404837014,0.5806321766561977,5.072674027339651,5.378879705573072
8.638864353312304,1.503552050473186,5.227916282455721,5.523017714147055
8.646863301787592,1.5046947573982274,5.269141632289898,5.547893564899875
8.654862250262882,1.5058374643232688,5.310366982124084,5.572769415652699
8.66286119873817,1.50698017124831,5.351592331958262,5.597645266405518
8.67086014721346,1.5081228781733513,5.392817681792448,5.6225211171583425
8.678859095688749,1.5092655850983925,5.434043031626626,5.647396967911162
8.686858044164039,1.510408292023434,5.475268381460812,5.672272818663987
8.694856992639327,1.5115509989484752,5.5164937312949895,5.697148669416806
8.702855941114617,1.5126937058735166,5.557719081129176,5.722024520169631
8.710854889589905,1.5138364127985577,5.598944430963353,5.74690037092245
8.718853838065195,1.514979119723599,5.640169780797541,5.771776221675275
8.726852786540483,1.4452187171399054,6.340467928495828,5.874161934805408
8.734851735015773,1.420208832807579,10.074986750788671,6.7483545741324935
8.742850683491062,1.3332112973924728,10.275074989071232,6.800412658467132
8.750849631966352,1.162986483772253,10.27165970769976,6.8499342383534785
8.75884858044164,0.992761670152071,10.26824442632829,6.899455818239815
8.76684752891693,0.8225368565318512,10.264829144956817,6.9489773981261616
8.774846477392218,0.6523120429116692,10.261413863585345,6.998498978012497
8.782845425867508,0.4820872292914494,10.257998582213872,7.048020557898845
8.790844374342797,0.3118624156712675,10.254583300842402,7.09754213778518
8.798843322818087,0.1416376020510477,10.25116801947093,7.147063717671528
8.806842271293375,-0.028587211569134352,10.247752738099457,7.1965852975578635
8.814841219768665,-0.19881202518935415,10.244337456727985,7.24610687744421
8.822840168243955,-0.36903683880957394,10.240922175356513,7.295628457330557
8.830839116719243,0.39344479495267876,10.774646687697166,7.445334384858052
8.838838065194533,0.547606347385552,10.516498805085513,6.985758436095901
8.846837013669822,0.6603462520655052,10.54737013669822,6.825723599218857
8.854835962145112,0.7759222747985071,10.630215825446925,6.7165403522607505
8.8628349106204,0.9761181796939133,10.737535050823707,6.606888100245342
8.87083385909569,1.176314084589364,10.844854276200513,6.497235848229909
8.878832807570978,1.3765099894847703,10.952173501577297,6.387583596214501
8.886831756046268,1.576705894380221,11.059492726954103,6.277931344199068
8.894830704521556,1.7769017992756275,11.166811952330885,6.16827909218366
8.902829652996846,1.977097704171078,11.274131177707693,6.058626840168227
8.910828601472135,2.1772936090664845,11.381450403084475,5.948974588152819
8.918827549947425,2.377489513961935,11.488769628461283,5.839322336137386
8.926826498422713,4.569523659306963,11.027940063091215,8.354388012619555
8.934825446898003,-3.269683276234376,8.458061678142977,-0.7690272265752719
8.942824395373291,-2.7875101025519458,8.359149949685111,-0.2651794828307704
8.950823343848581,-2.3053369288694086,8.260238221227224,0.23866826091384297
8.95882229232387,-1.8231637551869788,8.161326492769359,0.7425160046583442
8.96682124079916,-1.3409905815044416,8.062414764311471,1.2463637484029575
8.974820189274448,-0.8588174078220119,7.963503035853606,1.750211492147459
8.982819137749738,-0.3766442341394747,7.8645913073957185,2.2540592358920724
8.990818086225026,0.1055289395429555,7.765679578937853,2.757906979636574
8.998817034700316,0.5877021132254927,7.666767850479965,3.2617547233811868
9.006815983175605,1.0698752869079224,7.5678561220221,3.7656024671256887
9.014814931650895,1.5520484605904596,7.468944393564212,4.269450210870302
9.022813880126183,2.0342216342728894,7.370032665106346,4.7732979546148036
9.030812828601473,3.2999116719243116,7.497284963196898,7.264860497721598
9.038811777076761,4.039243798394061,8.022711953924084,5.02599669008702
9.046810725552051,3.8328163894465175,8.145059506739317,4.7875734872383156
9.05480967402734,3.6263889804990197,8.267407059554522,4.549150284389665
9.06280862250263,3.419961571551476,8.389754612369755,4.310727081540961
9.070807570977918,3.2135341626039784,8.51210216518496,4.07230387869231
9.078806519453208,3.0071067536564344,8.634449718000193,3.8338806758436057
9.086805467928496,2.8006793447089366,8.7567972708154,3.5954574729949544
9.094804416403786,2.5942519357613936,8.87914482363063,3.3570342701462503
9.102803364879074,2.3878245268138953,9.001492376445837,3.118611067297599
9.110802313354364,2.181397117866352,9.12383992926107,2.8801878644488954
9.118801261829653,1.974969708918854,9.246187482076275,2.641764661600244
9.126800210304943,1.7186887486856033,8.574110410094711,2.4930042060988398
9.13479915878023,2.8603309618095163,5.010299080475198,4.198239031702354
9.142798107255521,2.9098563661990773,5.079736760856438,4.11033569367071
9.150797055730811,2.9593817705886383,5.149174441237678,4.022432355639066
9.1587960042061,3.0089071749781886,5.218612121618903,3.934529017607442
9.16679495268139,3.0584325793677496,5.288049802000144,3.8466256795757987
9.174793901156677,3.1079579837572995,5.3574874823813685,3.7587223415441744
9.182792849631968,3.1574833881468605,5.4269251627626085,3.670819003512531
9.190791798107256,3.207008792536411,5.496362843143833,3.5829156654809067
9.198790746582546,3.256534196925972,5.565800523525073,3.4950123274492633
9.206789695057834,3.3060596013155217,5.635238203906298,3.407108989417639
9.214788643533124,3.355585005705083,5.704675884287539,3.319205651385995
9.222787592008412,3.405110410094633,5.774113564668763,3.2313023133543712
9.230786540483702,4.400355596649634,7.13985604989304,3.024744189419495
9.23878548895899,4.504617752637874,7.200813553790926,3.123489829217881
9.24678443743428,4.608879908626138,7.261771057688827,3.2222354690162893
9.254783385909569,4.713142064614378,7.322728561586713,3.3209811088146757
9.262782334384859,3.560818781849074,5.713333317156024,3.277150206260589
9.270781282860147,3.6177959071422814,5.668293084202862,3.0907131764134843
9.278780231335437,3.674773032435502,5.62325285124969,2.904276146566338
9.286779179810726,3.731750157728709,5.5782126182965275,2.7178391167192335
9.294778128286016,3.7887272830219296,5.533172385343356,2.5314020868720872
9.302777076761304,3.845704408315137,5.488132152390194,2.3449650570249827
9.310776025236594,3.9026815336083573,5.443091919437022,2.1585280271778364
9.318774973711882,3.9596586589015645,5.398051686483861,1.972090997330732
9.326773922187172,3.927721345951569,5.202755695758723,1.8240434630213787
9.33477287066246,4.216832807570737,6.239280757097447,2.617851735015703
9.34277181913775,4.2477623904661765,6.364154398878373,2.73750165907232
9.350770767613039,4.218699544339295,6.405482299334029,2.842998901740844
9.358769716088329,4.189636698212408,6.446810199789694,2.9484961444093916
9.366768664563617,4.160573852085528,6.48813810024535,3.0539933870779157
9.374767613038907,4.13151100595864,6.5294660007010155,3.1594906297464638
9.382766561514195,4.102448159831759,6.570793901156671,3.264987872414988
9.390765509989485,4.073385313704873,6.612121801612337,3.3704851150835355
9.398764458464774,4.044322467577992,6.653449702067992,3.4759823577520597
9.406763406940064,4.015259621451104,6.694777602523658,3.5814796004206073
9.414762355415352,3.986196775324224,6.736105502979314,3.6869768430891314
9.422761303890642,3.9571339291973366,6.777433403434979,3.792474085757679
9.43076025236593,3.839132492113348,10.659359621452074,5.936498422713047
9.43875920084122,3.73859200841221,11.739108207427131,5.934112612762174
9.446758149316508,3.8185814931650923,12.029933134097083,5.835262449499139
9.454757097791799,3.898570977917992,12.3207580607671,5.736412286236082
9.462756046267089,3.9785604626708917,12.611582987437117,5.637562122973025
9.470754994742377,4.058549947423773,12.90240791410707,5.538711959709989
9.478753943217667,4.138539432176674,13.193232840777085,5.439861796446932
9.486752891692955,4.2185289169295555,13.484057767447037,5.341011633183896
9.494751840168245,4.298518401682456,13.774882694117053,5.242161469920839
9.502750788643533,4.3785078864353375,14.065707620787006,5.143311306657804
9.510749737118823,4.458497371188237,14.356532547457023,5.044461143394747
9.518748685594112,4.53848685594112,14.647357474126975,4.945610980131711
9.526747634069402,5.018086750789212,15.878812302840469,4.872447949526837
9.53474658254469,1.661158288757794,7.970339985370096,6.219335870708161
9.54274553101998,1.2588633475059812,8.026854295249862,6.005624834270521
9.550744479495268,0.8565684062542577,8.083368605129616,5.79191379783293
9.558743427970558,0.4542734650024447,8.139882915009382,5.578202761395291
9.566742376445847,0.051978523750721095,8.196397224889136,5.364491724957698
9.574741324921137,-0.35031641750109177,8.252911534768902,5.15078068852006
9.582740273396425,-0.7526113587528154,8.309425844648656,4.937069652082468
9.590739221871715,-1.1549063000046282,8.365940154528422,4.723358615644829
9.598738170347003,-1.5572012412563518,8.422454464408176,4.509647579207238
9.606737118822293,-1.9594961825081647,8.478968774287942,4.295936542769598
9.614736067297581,-2.3617911237598883,8.535483084167696,4.082225506332007
9.622735015772871,-2.764086065011701,8.591997394047462,3.8685144698943676
9.63073396424816,-3.8539810725551846,9.372427970557293,3.033311251314422
9.63873291272345,-5.215486302507174,10.438814101499899,1.9526112125739283
9.646731861198738,-4.332882229233109,11.828071503680752,1.8698170346997847
9.654730809674028,2.9935300537130165,8.077154574132509,7.050633927302656
9.662729758149316,2.975370278796146,8.221135646687697,6.70894911472987
9.670728706624606,2.9572105038792715,8.36511671924292,6.367264302157007
9.678727655099895,2.9390507289624006,8.509097791798109,6.02557948958422
9.686726603575185,2.920890954045526,8.65307886435333,5.683894677011357
9.694725552050473,2.902731179128655,8.797059936908518,5.34220986443857
9.702724500525763,2.8845714042117807,8.941041009463738,5.000525051865707
9.710723449001051,2.8664116292949102,9.085022082018929,4.658840239292919
9.718722397476341,2.8482518543780353,9.22900315457415,4.317155426720057
9.72672134595163,-0.7093906414289064,8.37718559411178,2.9094689800214057
9.73472029442692,0.19384825254683138,5.668396741404089,2.7589249912372598
9.742719242902208,0.14929496964146233,5.801884569722877,2.5322881177707592
9.750718191377498,0.10474168673608342,5.935372398041696,2.305651244304208
9.758717139852786,0.06018840383071439,6.068860226360485,2.0790143708377076
9.766716088328076,0.015635120925335477,6.2023480546793035,1.8523774973711564
9.774715036803366,-0.02891816198004346,6.335835882998122,1.6257406239046053
9.782713985278654,-0.07347144488541249,6.469323711316911,1.3991037504381045
9.790712933753944,-0.1180247277907914,6.60281153963573,1.1724668769715536
9.798711882229233,-0.16257801069616043,6.736299367954519,0.9458300035050529
9.806710830704523,-0.20713129360153934,6.869787196273338,0.7191931300385019
9.814709779179811,-0.25168457650690834,7.003275024592127,0.49255625657200097
9.822708727655101,-0.2962378594122873,7.1367628529109455,0.2659193831054498
9.83070767613039,2.0696256572029794,9.497049947423777,-0.17988012618292382
9.83870662460568,1.224697500084799,9.169048471897154,-1.1471587463111832
9.846705573080968,1.1957120631367115,9.139288943161135,-1.140191920219803
9.854704521556258,1.1667266261886176,9.10952941442511,-1.1332250941284214
9.862703470031546,1.13774118924053,9.07976988568909,-1.1262582680370414
9.870702418506836,1.1087557522924358,9.050010356953065,-1.1192914419456597
9.878701366982124,1.0797703153443483,9.020250828217046,-1.1123246158542797
9.886700315457414,1.0507848783962543,8.990491299481022,-1.105357789762898
9.894699263932702,1.0217994414481668,8.960731770745003,-1.098390963671518
9.902698212407993,0.9928140045000727,8.930972242008977,-1.0914241375801361
9.91069716088328,0.9638285675519851,8.901212713272958,-1.0844573114887561
9.91869610935857,0.9348431306038911,8.871453184536934,-1.0774904853973746
9.926695057833859,0.9408159831756082,9.300580441640436,-1.316088328075741
9.93469400630915,1.913437400359557,10.847611546419722,-3.651310538991221
9.942692954784437,1.971150243659755,10.76332155173389,-3.7620916748640307
9.950691903259727,2.0288630869599658,10.679031557048038,-3.872872810736865
9.958690851735016,2.086575930260164,10.594741562362204,-3.983653946609674
9.966689800210306,2.144288773560375,10.510451567676352,-4.094435082482509
9.974688748685594,2.202001616860573,10.42616157299052,-4.205216218355318
9.982687697160884,2.259714460160784,10.341871578304668,-4.315997354228152
9.990686645636172,2.317427303460982,10.257581583618833,-4.426778490100961
9.998685594111462,2.375140146761193,10.173291588932983,-4.537559625973795
10.00668454258675,2.432852990061391,10.089001594247149,-4.648340761846605
10.01468349106204,2.490565833361602,10.004711599561297,-4.759121897719439
10.022682439537329,2.5482786766618,9.920421604875465,-4.869903033592248
10.030681388012619,3.5563608832807856,11.131805047318617,-6.034370977917991
10.038680336487907,3.314278186704062,11.155675896716915,-4.687400397242682
10.046679284963197,3.186650519920545,11.0158720528099,-4.464407489192651
10.054678233438485,3.0590228531370567,10.876068208902918,-4.241414581142671
10.062677181913775,2.93139518635354,10.736264364995904,-4.01842167309264
10.070676130389064,2.8037675195700515,10.596460521088922,-3.7954287650426592
10.078675078864354,2.6761398527865348,10.456656677181908,-3.572435856992629
10.086674027339644,2.548512186003018,10.316852833274893,-3.3494429489425985
10.094672975814932,2.4208845192195296,10.177048989367911,-3.126450040892618
10.102671924290222,2.293256852436013,10.037245145460897,-2.9034571328425876
10.11067087276551,2.1656291856525245,9.897441301553915,-2.6804642247926065
10.1186698212408,2.0380015188690077,9.7576374576469,-2.4574713167425766
10.126668769716089,1.7943201892744685,8.243564668769917,-3.308127760252219
10.134667718191379,1.5646741743269579,9.425672523546238,-3.943204775957397
10.142666666666667,1.5127240143369136,9.415695340501792,-3.946817204301076
10.150665615141957,1.460773854346858,9.405718157457343,-3.950429632644755
10.158664563617245,1.4088236943568138,9.395740974412899,-3.9540420609884337
10.166663512092535,1.356873534366758,9.38576379136845,-3.957654489332113
10.174662460567824,1.3049233743767137,9.375786608324004,-3.9612669176757915
10.182661409043114,1.252973214386658,9.365809425279558,-3.9648793460194707
10.190660357518402,1.2010230543966138,9.355832242235111,-3.9684917743631494
10.198659305993692,1.149072894406558,9.345855059190663,-3.972104202706829
10.20665825446898,1.097122734416514,9.335877876146219,-3.975716631050507
10.21465720294427,1.0451725744264582,9.32590069310177,-3.979329059394187
10.222656151419558,0.993222414436414,9.315923510057326,-3.982941487737865
10.230655099894848,0.8000131717305494,9.107035309092877,-3.694994631689571
10.238654048370137,0.5482567934030576,8.815705185677118,-3.286206264873526
10.246652996845427,0.19249737118828797,8.256291272344763,-2.297980021030484
10.254651945320715,0.33974807457299133,7.84931690681217,-2.3164259385568604
10.262650893796005,0.2734865149060616,7.779920624094114,-2.4203041748373164
10.270649842271293,0.20722495523914652,7.710524341376072,-2.5241824111177493
10.278648790746583,0.14096339557221677,7.6411280586580155,-2.628060647398205
10.286647739221872,0.07470183590530172,7.571731775939973,-2.731938883678638
10.294646687697162,0.008440276238371958,7.502335493221916,-2.835817119959094
10.30264563617245,-0.05782128342854309,7.432939210503875,-2.9396953562395267
10.31064458464774,-0.12408284309547285,7.363542927785818,-3.0435735925199827
10.318643533123028,-0.19034440276238784,7.2941466450677765,-3.1474518288004156
10.326642481598318,0.07810515247124228,7.278419558359641,-2.8415531019977043
10.334641430073606,0.6491146840337954,8.06133724545753,-1.9636366812523327
10.342640378548897,0.5616423119975592,8.035104134866526,-1.959508191716699
10.350639327024185,0.4741699399613424,8.008871024275525,-1.9553797021810664
10.358638275499475,0.3866975679251061,7.9826379136845205,-1.9512512126454329
10.366637223974763,0.2992251958888893,7.9564048030935215,-1.9471227231098
10.374636172450053,0.2117528238526531,7.930171692502516,-1.9429942335741666
10.382635120925341,0.12428045181643632,7.903938581911517,-1.938865744038534
10.390634069400631,0.036808079780200065,7.877705471320512,-1.9347372545029002
10.398633017875921,-0.05066429225603619,7.851472360729507,-1.9306087649672667
10.40663196635121,-0.13813666429225302,7.825239250138508,-1.9264802754316341
10.4146309148265,-0.22560903632848928,7.799006139547503,-1.9223517858960006
10.422629863301788,-0.3130814083647061,7.772773028956504,-1.9182232963603678
10.430628811777078,-0.4814589154273457,6.761090881778628,-2.0070090130689335
10.438627760252366,-0.23999168339545454,8.733786349297404,-2.4935398623458545
10.446626708727656,-0.11709874772963627,8.855588519262046,-2.481450542491155
10.454625657202945,0.0057941879361547155,8.977390689226661,-2.4693612226364583
10.462624605678235,0.12868712360197299,9.099192859191303,-2.4572719027817587
10.470623554153523,0.25158005926776394,9.220995029155919,-2.4451825829270617
10.478622502628813,0.3744729949335822,9.342797199120561,-2.433093263072362
10.486621451104101,0.4973659305993732,9.464599369085176,-2.421003943217665
10.494620399579391,0.6202588662651914,9.58640153904982,-2.4089146233629655
10.50261934805468,0.7431518019309825,9.708203709014434,-2.396825303508269
10.51061829652997,0.8660447375968007,9.830005878979078,-2.3847359836535693
10.518617245005258,0.9889376732625917,9.951808048943693,-2.3726466637988723
10.526616193480548,1.2494274447951061,10.455472660357902,-2.738764984227484
10.534615141955836,0.3254533573681824,11.898102748986027,-4.540707525912578
10.542614090431126,0.344351971897714,11.938449093493258,-4.484890687650938
10.550613038906414,0.36325058642724134,11.978795438000482,-4.429073849389311
10.558611987381704,0.38214920095677285,12.019141782507715,-4.373257011127671
10.566610935856993,0.4010478154863002,12.059488127014937,-4.317440172866044
10.574609884332283,0.41994643001583176,12.09983447152217,-4.261623334604404
10.582608832807571,0.4388450445453591,12.140180816029394,-4.205806496342777
10.590607781282861,0.4577436590748907,12.180527160536627,-4.149989658081137
10.59860672975815,0.476642273604418,12.22087350504385,-4.0941728198195095
10.60660567823344,0.4955408881339496,12.261219849551082,-4.03835598155787
10.614604626708728,0.5144395026634769,12.301566194058307,-3.982539143296243
10.622603575184018,0.5333381171930085,12.341912538565538,-3.926722305034603
10.630602523659306,1.6383564668771347,12.211455835963372,-3.899648264984848
10.638601472134596,1.1635284194339677,9.347920909512313,-2.465266759381737
10.646600420609884,1.019977397872074,9.12850889273317,-2.372289734631343
10.654599369085174,0.8764263763101485,8.909096875953978,-2.279312709880929
10.662598317560462,0.7328753547482549,8.689684859174834,-2.186335685130535
10.670597266035752,0.5893243331863294,8.47027284239564,-2.093358660380121
10.67859621451104,0.4457733116244358,8.250860825616499,-2.0003816356297275
10.68659516298633,0.3022222900625102,8.031448808837306,-1.907404610879313
10.694594111461619,0.15867126850061664,7.812036792058162,-1.8144275861289194
10.702593059936909,0.015120246938691073,7.59262477527897,-1.7214505613785052
10.710592008412197,-0.12843077462320251,7.373212758499826,-1.6284735366281113
10.718590956887487,-0.2719817961851281,7.153800741720634,-1.535496511877697
10.726589905362777,-0.8401230283914929,6.805495268138677,-1.388659305993639
10.734588853838066,-0.24924481407131616,8.47546678137845,-3.956129528725744
10.742587802313356,0.18088046075904785,8.910318707580576,-3.9023184208010657
10.750586750788644,0.6110057355893164,9.345170633782606,-3.8485073128764
10.758585699263934,0.8019339844143992,9.505358713970883,-3.7533859095688658
10.766584647739222,0.9415320715036791,9.606605678233437,-3.6493995793901166
10.774583596214512,1.08113015859299,9.707852642496015,-3.5454132492113444
10.7825825446898,1.22072824568227,9.80909960675857,-3.441426919032595
10.79058149316509,1.3603263327715809,9.910346571021147,-3.3374405888538226
10.798580441640379,1.4999244198608608,10.011593535283701,-3.2334542586750734
10.806579390115669,1.6395225069501715,10.112840499546278,-3.1294679284963007
10.814578338590957,1.7791205940394517,10.214087463808832,-3.0254815983175516
10.822577287066247,1.9187186811287624,10.31533442807141,-2.921495268138779
10.830576235541535,0.6848096740273264,8.176962145110455,-2.1581577287067
10.838575184016825,0.9042671211967056,7.558241025293123,-1.3272377802652577
10.846574132492114,0.982450391777749,7.436880634985255,-1.3920034598554951
10.854573080967404,1.0606336623588097,7.3155202446773595,-1.4567691394457467
10.862572029442692,1.138816932939853,7.194159854369492,-1.5215348190359839
10.870570977917982,1.2170002035209138,7.072799464061596,-1.5863004986262355
10.87856992639327,1.295183474101957,6.951439073753728,-1.6510661782164728
10.88656887486856,1.3733667446830178,6.830078683445833,-1.7158318578067244
10.894567823343849,1.451550015264061,6.708718293137965,-1.7805975373969616
10.902566771819139,1.5297332858451218,6.587357902830069,-1.8453632169872132
10.910565720294427,1.607916556426165,6.465997512522201,-1.9101288965774503
10.918564668769717,1.6860998270072258,6.344637122214307,-1.974894576167702
10.926563617245005,1.8826892744479522,6.570668769716095,-2.21619768664564
10.934562565720295,1.5231972980386796,6.7622357015498595,-2.2055923170118445
10.942561514195583,1.5581492250720048,6.841007955013025,-2.279234810039771
10.950560462670873,1.5931011521053378,6.919780208476209,-2.3528773030677144
10.958559411146162,1.6280530791386632,6.998552461939375,-2.426519796095641
10.966558359621452,1.663005006171996,7.0773247154025585,-2.5001622891235837
10.97455730809674,1.6979569332053213,7.156096968865724,-2.57380478215151
10.98255625657203,1.7329088602386542,7.234869222328908,-2.647447275179453
10.990555205047318,1.7678607872719796,7.313641475792074,-2.72108976820738
10.998554153522608,1.8028127143053125,7.3924137292552565,-2.794732261235323
11.006553101997897,1.8377646413386377,7.471185982718422,-2.8683747542632494
11.014552050473187,1.8727165683719709,7.549958236181606,-2.9420172472911923
11.022550998948475,1.907668495405296,7.628730489644772,-3.015659740319119
11.030549947423765,2.506894254647961,10.423128274828287,-2.8753336577398674
11.038548895899055,2.490811262500835,10.410449090542986,-2.691102557218562
11.046547844374343,2.4747282703537135,10.39776990625769,-2.5068714566972976
11.054546792849633,2.4586452782065877,10.38509072197239,-2.322640356175992
11.062545741324922,2.442562286059466,10.372411537687093,-2.138409255654728
11.070544689800212,2.4264792939123403,10.359732353401792,-1.9541781551334223
11.0785436382755,2.4103963017652186,10.347053169116496,-1.7699470546121578
11.08654258675079,2.394313309618093,10.334373984831196,-1.5857159540908525
11.094541535226078,2.378230317470971,10.321694800545897,-1.4014848535695879
11.102540483701368,2.3621473253238454,10.309015616260599,-1.2172537530482825
11.110539432176656,2.3460643331767237,10.2963364319753,-1.033022652527018
11.118538380651946,2.329981341029598,10.283657247690002,-0.8487915520057125
11.126537329127235,1.9529902733964342,10.619442429022074,-1.2383949789694924
11.134536277602525,-0.1062166140905994,12.283353838065645,-4.543788380652085
11.142535226077813,-0.8154567122327983,14.180437784788104,-5.131044514546142
11.150534174553103,1.337302839116732,17.090563617244992,-5.871856992639321
11.158533123028391,1.7100720174935213,16.71579470174938,-5.693425903355332
11.166532071503681,2.0828411958703934,16.341025786253688,-5.514994814071304
11.17453101997897,2.4556103742471826,15.966256870758075,-5.336563724787315
11.18252996845426,2.828379552624055,15.59148795526238,-5.158132635503287
11.190528916929548,3.201148731000844,15.216719039766769,-4.979701546219299
11.198527865404838,3.5739179093777165,14.841950124271076,-4.801270456935271
11.206526813880126,3.9466870877545057,14.467181208775463,-4.622839367651282
11.214525762355416,4.319456266131377,14.092412293279768,-4.444408278367253
11.222524710830704,4.692225444508167,13.717643377784157,-4.265977189083265
11.230523659305994,5.064994622885039,13.342874462288464,-4.087546099799236
11.238522607781283,4.296247318612151,8.217794742377318,-1.6971383806523521
11.246521556256573,3.3946193480543725,8.97286961093561,-6.968588328076689
11.254520504731861,3.2339545659387934,9.159331844811339,-7.290784055061658
11.262519453207151,3.2136974886312406,9.478770371584286,-7.153347576713493
11.27051840168244,3.1934404113236923,9.79820889835716,-7.0159110983653585
11.27851735015773,3.1731833340161395,10.117647425130107,-6.878474620017193
11.286516298633018,3.152926256708591,10.437085951902983,-6.741038141669058
11.294515247108308,3.1326691794010384,10.756524478675928,-6.603601663320894
11.302514195583596,3.1124121020934905,11.075963005448804,-6.466165184972759
11.310513144058886,3.0921550247859377,11.39540153222175,-6.328728706624593
11.318512092534174,3.0718979474783894,11.714840058994625,-6.191292228276459
11.326511041009464,2.3043596214510362,10.691397476340407,-5.224738170346733
11.334509989484753,0.9532854380787631,6.81146559931255,-2.3701547663466873
11.342508937960043,0.9881195685356713,6.723649186481677,-2.4252012934884686
11.350507886435333,1.0229536989925796,6.635832773650805,-2.4802478206302494
11.35850683491062,1.05778782944948,6.548016360819952,-2.535294347772018
11.366505783385911,1.0926219599063882,6.46019994798908,-2.590340874913799
11.3745047318612,1.1274560903632886,6.372383535158227,-2.6453874020555674
11.38250368033649,1.1622902208201968,6.2845671223273545,-2.7004339291973487
11.390502628811777,1.1971243512770975,6.196750709496502,-2.755480456339117
11.398501577287067,1.2319584817340057,6.1089342966656295,-2.810526983480898
11.406500525762356,1.266792612190906,6.021117883834777,-2.8655735106226667
11.414499474237646,1.3016267426478145,5.9333014710039045,-2.920620037764448
11.422498422712934,1.336460873104715,5.845485058173052,-2.9756665649062164
11.430497371188224,2.8293112513148517,8.014614090431698,-4.217298633017845
11.438496319663512,2.9641101751795427,8.209200393762448,-4.21533682350046
11.446495268138802,2.9674288878448225,8.236090475870869,-4.223165581582658
11.45449421661409,2.9707476005101014,8.262980557979285,-4.230994339664855
11.46249316508938,2.9740663131753813,8.289870640087706,-4.238823097747054
11.470492113564669,2.9773850258406607,8.316760722196122,-4.246651855829251
11.478491062039959,2.9807037385059405,8.343650804304543,-4.25448061391145
11.486490010515247,2.9840224511712194,8.37054088641296,-4.262309371993647
11.494488958990537,2.9873411638364993,8.39743096852138,-4.2701381300758445
11.502487907465826,2.9906598765017787,8.424321050629796,-4.2779668881580415
11.510486855941116,2.9939785891670585,8.451211132738218,-4.28579564624024
11.518485804416404,2.9972973018323374,8.478101214846633,-4.293624404322437
11.526484752891694,2.2329579974295495,7.7671738520855,-4.162373466526466
11.534483701366982,1.8032367098960242,7.588530669470736,-4.1850371538731155
11.542482649842272,1.373515422362404,7.409887486855933,-4.207700841219769
11.55048159831756,-0.735708976700424,7.473358860479275,-4.417703995793902
11.55848054679285,-0.6963457302562339,7.486094028446512,-4.437701366982127
11.566479495268139,-0.6569824838120525,7.498829196413748,-4.457698738170348
11.574478443743429,-0.6176192373678623,7.511564364380986,-4.477696109358573
11.582477392218717,-0.5782559909236809,7.524299532348221,-4.497693480546793
11.590476340694007,-0.5388927444794906,7.537034700315458,-4.517690851735018
11.598475289169295,-0.49952949803530927,7.549769868282694,-4.537688222923238
11.606474237644585,-0.46016625159111907,7.562505036249932,-4.557685594111463
11.614473186119874,-0.4208030051469377,7.575240204217167,-4.577682965299684
11.622472134595164,-0.3814397587027475,7.587975372184405,-4.597680336487909
11.630471083070452,2.4242187171394898,7.190350157728808,-4.128340694006916
11.638470031545742,3.1669961331026855,6.853276381398168,-3.101502968013311
11.64646898002103,3.2498239544113154,6.671880872426309,-3.2269918478568114
11.65446792849632,3.332651775719964,6.490485363454409,-3.35248072770034
11.66246687697161,3.4154795970286127,6.309089854482509,-3.477969607543869
11.670465825446898,3.4983074183372427,6.127694345510649,-3.6034584873873694
11.678464773922189,3.581135239645891,5.94629883653875,-3.728947367230898
11.686463722397477,3.663963060954521,5.7649033275668895,-3.854436247074399
11.694462670872767,3.7467908822631695,5.58350781859499,-3.9799251269179274
11.702461619348055,3.8296187035717995,5.4021123096231305,-4.105414006761428
11.710460567823345,3.9124465248804476,5.22071680065123,-4.230902886604957
11.718459516298633,3.9952743461890776,5.0393212916793715,-4.356391766448458
11.726458464773923,4.307292849632146,5.214779179810964,-6.119462145111636
11.734457413249212,7.354451104101053,9.443302839116187,-10.227529968454203
11.742456361724502,7.004005080400185,8.818724973121112,-10.226953898321117
11.75045531019979,6.5180464915700345,8.696134347050403,-10.284833929985
11.75845425867508,6.032087902739775,8.573543720979666,-10.342713961648897
11.766453207150368,5.546129313909625,8.450953094908957,-10.40059399331278
11.774452155625658,5.060170725079367,8.32836246883822,-10.458474024976676
11.782451104100947,4.574212136249216,8.205771842767511,-10.51635405664056
11.790450052576237,4.088253547418956,8.083181216696774,-10.574234088304456
11.798449001051525,3.602294958588806,7.960590590626064,-10.632114119968339
11.806447949526815,3.1163363697585478,7.837999964555328,-10.689994151632236
11.814446898002103,2.630377780928397,7.715409338484618,-10.747874183296119
11.822445846477393,2.1444191920981384,7.592818712413882,-10.805754214960015
11.830444794952681,-0.6576000920084054,6.291669164037862,-5.460444137749718
11.838443743427971,-0.7495046770942898,6.19018250525762,-5.717577002278312
11.84644269190326,-0.8414092621801538,6.0886958464774,-5.974709866806848
11.85444164037855,-0.933313847266038,5.987209187697158,-6.231842731335442
11.862440588853838,-1.025218432351902,5.885722528916938,-6.488975595863979
11.870439537329128,-1.1171230174377864,5.784235870136696,-6.746108460392573
11.878438485804416,-1.2090276025236504,5.682749211356477,-7.0032413249211105
11.886437434279706,-1.300932187609535,5.581262552576234,-7.2603741894497045
11.894436382754995,-1.3928367726953987,5.479775893796014,-7.517507053978242
11.902435331230285,-1.4847413577812834,5.378289235015772,-7.774639918506836
11.910434279705573,-1.576645942867147,5.276802576235553,-8.031772783035372
11.918433228180863,-1.6685505279530315,5.17531591745531,-8.288905647563967
11.926432176656151,-1.2885089379600492,4.140821240799147,-10.336014721345919
11.934431125131441,-1.1498604977216937,4.378123378899409,-11.002593760953395
11.94243007360673,-2.1276111765674734,4.477481940379814,-9.395056744327473
11.95042902208202,-2.0459833529702367,4.505044582113946,-9.303117023298237
11.958427970557308,-1.9643555293730182,4.532607223848072,-9.21117730226902
11.966426919032598,-1.8827277057757814,4.560169865582203,-9.119237581239782
11.974425867507888,-1.8010998821785447,4.5877325073163355,-9.027297860210545
11.982424815983176,-1.7194720585813261,4.6152951490504615,-8.935358139181329
11.990423764458466,-1.6378442349840894,4.642857790784593,-8.84341841815209
11.998422712933754,-1.5562164113868708,4.670420432518719,-8.751478697122874
12.006421661409044,-1.474588587789634,4.697983074252851,-8.659538976093637
12.014420609884333,-1.3929607641924155,4.725545715986976,-8.56759925506442
12.022419558359623,-1.3113329405951788,4.753108357721108,-8.475659534035184
12.030418506834911,-2.088324921135533,5.571625657202956,-10.975249211356266
12.038417455310201,-1.8765112647381184,5.56866581649775,-10.717325816050291
12.04641640378549,-1.7929477817303192,5.551051110812806,-10.69503087455534
12.05441535226078,-1.7093842987225014,5.533436405127859,-10.672735933060382
12.062414300736068,-1.6258208157147023,5.515821699442916,-10.65044099156543
12.070413249211358,-1.5422573327068847,5.498206993757969,-10.628146050070473
12.078412197686646,-1.4586938496990856,5.480592288073026,-10.60585110857552
12.086411146161936,-1.3751303666912678,5.462977582388078,-10.583556167080562
12.094410094637224,-1.2915668836834686,5.445362876703134,-10.56126122558561
12.102409043112514,-1.208003400675651,5.427748171018187,-10.538966284090654
12.110407991587802,-1.124439917667852,5.410133465333244,-10.5166713425957
12.118406940063092,-1.040876434660034,5.392518759648296,-10.494376401100743
12.12640588853838,-0.15457308096736522,7.172284963196853,-9.068797055730563
12.13440483701367,0.4295859453654616,6.921290422175979,-8.627696668680219
12.142403785488959,0.43801036982347796,6.8561925968185795,-8.55885465467481
12.150402733964249,0.44643479428149624,6.791094771461165,-8.49001264066939
12.158401682439537,0.4548592187395127,6.725996946103765,-8.421170626663983
12.166400630914827,0.46328364319753096,6.660899120746352,-8.35232861265856
12.174399579390116,0.47170806765554735,6.595801295388952,-8.283486598653154
12.182398527865406,0.4801324921135656,6.530703470031538,-8.214644584647731
12.190397476340694,0.48855691657158207,6.465605644674139,-8.145802570642324
12.198396424815984,0.49698134102960034,6.400507819316725,-8.076960556636902
12.206395373291272,0.5054057654876167,6.335409993959325,-8.008118542631495
12.214394321766562,0.513830189945635,6.270312168601912,-7.939276528626073
12.22239327024185,0.5222546144036515,6.205214343244512,-7.8704345146206665
12.23039221871714,-0.26393375394315893,6.581864353312626,-7.768334384857898
12.238391167192429,0.008094703636058131,6.9079213016769065,-7.621166395483978
12.246390115667719,0.2235611157230798,6.826668825059487,-7.659224550334831
12.254389064143007,0.43902752781005366,6.7454163484420855,-7.6972827051856765
12.262388012618297,0.6544939398970753,6.664163871824666,-7.73534086003653
12.270386961093585,0.8699603519840491,6.582911395207265,-7.773399014887374
12.278385909568875,1.0854267640710706,6.501658918589846,-7.811457169738228
12.286384858044165,1.3008931761580924,6.4204064419724265,-7.849515324589081
12.294383806519454,1.5163595882450662,6.339153965355026,-7.887573479439926
12.302382754994744,1.731826000332088,6.257901488737606,-7.925631634290779
12.310381703470032,1.9472924124190618,6.176649012120205,-7.9636897891416245
12.318380651945322,2.1627588245060836,6.095396535502786,-8.001747943992477
12.32637960042061,2.377218867357667,6.024887036202492,-8.036843122527666
12.3343785488959,2.57147904461472,6.170010815682761,-8.012465374793447
12.342377497371189,2.76573922187173,6.315134595162998,-7.988087627059234
12.350376445846479,0.47498317560431536,6.899532071504103,-7.909599369085749
12.358375394321767,0.5771952425611545,7.176441725637305,-8.040306164208385
12.366374342797057,0.871318739875536,7.227894421235117,-7.843250987580631
12.374373291272345,1.1654422371898523,7.279347116832918,-7.646195810952921
12.382372239747635,1.4595657345042339,7.33079981243073,-7.449140634325167
12.390371188222923,1.7536892318185502,7.38225250802853,-7.252085457697458
12.398370136698214,2.0478127291329313,7.433705203626341,-7.055030281069705
12.406369085173502,2.341936226447248,7.485157899224142,-6.857975104441994
12.414368033648792,2.6360597237616292,7.536610594821954,-6.660919927814241
12.42236698212408,2.9301832210759455,7.588063290419754,-6.463864751186532
12.43036593059937,1.9587965299692522,7.786059936908738,-5.249201892744132
12.438364879074658,2.426369868223834,7.925793364207895,-4.994545360986183
12.446363827549948,2.5723081302996023,7.977701434100733,-4.875667371411927
12.454362776025237,2.718246392375338,8.02960950399356,-4.756789381837698
12.462361724500527,2.8641846544511065,8.0815175738864,-4.637911392263442
12.470360672975815,3.010122916526843,8.133425643779226,-4.519033402689213
12.478359621451105,3.156061178602611,8.185333713672065,-4.400155413114957
12.486358569926393,3.3019994406783475,8.237241783564894,-4.281277423540728
12.494357518401683,3.447937702754116,8.289149853457731,-4.162399433966472
12.502356466876972,3.5938759648298517,8.34105792335056,-4.043521444392243
12.510355415352262,3.7398142269056205,8.392965993243399,-3.9246434548179874
12.51835436382755,3.885752488981356,8.444874063136226,-3.805765465243758
12.52635331230284,3.137353312302974,8.733684542586836,-4.861012618296961
12.534352260778128,2.691829652996851,9.234236593059826,-5.749868559411412
12.542351209253418,2.6535932962345923,9.451346117038234,-5.064791514550029
12.550350157728706,2.6241140254492605,9.36991861907631,-5.0569723177258705
12.558349106203996,2.594634754663922,9.28849112111437,-5.04915312090171
12.566348054679285,2.5651554838785904,9.207063623152447,-5.041333924077553
12.574347003154575,2.535676213093252,9.125636125190505,-5.033514727253393
12.582345951629863,2.50619694230792,9.044208627228583,-5.025695530429235
12.590344900105153,2.4767176715225814,8.962781129266641,-5.0178763336050745
12.598343848580441,2.4472384007372496,8.88135363130472,-5.010057136780917
12.606342797055731,2.4177591299519112,8.799926133342778,-5.002237939956757
12.614341745531021,2.388279859166573,8.718498635380838,-4.994418743132597
12.62234069400631,2.358800588381241,8.637071137418914,-4.9865995463084385
12.6303396424816,1.38808307045203,8.64571293375431,-5.986303890640921
12.638338590956888,0.7894902848260527,8.859879897590634,-6.283572715219666
12.646337539432178,0.9125175901796976,8.837013338362361,-6.168196577972821
12.654336487907466,1.0355448955333153,8.814146779134092,-6.052820440726
12.662335436382756,1.1585722008869603,8.791280219905817,-5.937444303479155
12.670334384858045,1.2815995062405778,8.768413660677547,-5.822068166232334
12.678333333333335,1.4046268115942229,8.745547101449272,-5.706692028985488
12.686332281808623,1.5276541169478404,8.722680542221003,-5.5913158917386685
12.694331230283913,1.6506814223014854,8.699813982992728,-5.475939754491822
12.702330178759201,1.7737087276551031,8.676947423764458,-5.360563617245003
12.710329127234491,1.8967360330087482,8.654080864536184,-5.245187479998156
12.71832807570978,2.019763338362366,8.631214305307914,-5.129811342751337
12.72632702418507,0.6454794952677417,8.021149316508701,-3.631955835961992
12.734325972660358,-1.0970611502062624,6.730712225996926,-3.4626578702580266
12.742324921135648,-1.0306083474884677,6.726482012860956,-3.5174968150934287
12.750323869610936,-0.9641555447706878,6.722251799724986,-3.572335759928819
12.758322818086226,-0.8977027420528931,6.718021586589015,-3.6271747047642213
12.766321766561514,-0.8312499393351133,6.713791373453045,-3.6820136495996114
12.774320715036804,-0.7647971366173186,6.709561160317074,-3.7368525944350135
12.782319663512093,-0.6983443338995388,6.705330947181105,-3.7916915392704036
12.790318611987383,-0.6318915311817441,6.701100734045134,-3.846530484105806
12.79831756046267,-0.5654387284639643,6.696870520909164,-3.901369428941196
