gyro_time_list,gyro_x_list,gyro_y_list,gyro_z_list
0.0,-0.1,0.1,0.1
0.007999378881987578,-0.10219643710326941,0.1,0.0
0.015998757763975156,-0.1197774895911542,0.1,0.0
0.023998136645962734,-0.13735854207903897,0.1,0.0
0.03199751552795031,-0.15493959456692377,0.1,0.0
0.039996894409937894,-0.17252064705480857,0.1,0.0
0.04799627329192547,-0.19010169954269335,0.1,0.0
0.055995652173913044,-0.20768275203057812,0.1,0.0
0.06399503105590063,-0.2252638045184629,0.1,0.0
0.0719944099378882,-0.24284485700634767,0.1,0.0
0.07999378881987579,-0.2604259094942325,0.1,0.0
0.08799316770186336,-0.2780069619821173,0.1,0.0
0.09599254658385094,-0.29558801447000205,0.1,0.0
0.10399192546583852,-0.14016149068322964,0.04016149068322963,0.05983850931677038
0.11199130434782609,-0.1,0.0,0.1
0.11999068322981367,-0.1,0.0,0.1
0.12799006211180125,-0.1,0.0,0.1
0.13598944099378882,-0.1,0.0,0.1
0.1439888198757764,-0.1,0.0,0.1
0.15198819875776398,-0.1,0.0,0.1
0.15998757763975158,-0.1,0.0,0.1
0.16798695652173914,-0.1,0.0,0.1
0.1759863354037267,-0.1,0.0,0.1
0.1839857142857143,-0.1,0.0,0.1
0.19198509316770188,-0.1,0.0,0.1
0.19998447204968944,0.0,0.0,0.1
0.20798385093167704,0.0,0.0,0.0
0.2159832298136646,0.0,0.0,0.0
0.22398260869565217,0.0,0.0,0.0
0.23198198757763977,0.0,0.0,0.0
0.23998136645962734,0.0,0.0,0.0
0.24798074534161493,0.0,0.0,0.0
0.2559801242236025,0.0,0.0,0.0
0.2639795031055901,0.0,0.0,0.0
0.27197888198757764,0.0,0.0,0.0
0.27997826086956523,0.0,0.0,0.0
0.2879776397515528,0.0,0.0,0.0
0.29597701863354037,0.0,0.0,0.0
0.30397639751552796,0.0,0.0,0.0
0.31197577639751556,0.0,0.0,0.0
0.31997515527950315,0.0,0.0,0.0
0.3279745341614907,0.0,0.0,0.0
0.3359739130434783,-0.01308924485125862,0.0,0.0
0.3439732919254659,-0.034140241909120725,0.0,0.0
0.3519726708074534,-0.055191238966982685,0.0,0.0
0.359972049689441,-0.0762422360248448,0.0,0.0
0.3679714285714286,-0.0972932330827069,0.0,0.0
0.37597080745341616,0.09708074534161551,-0.001459627329192248,0.0
0.38397018633540375,0.1,0.0,0.0
0.39196956521739135,0.1,0.0,0.0
0.3999689440993789,0.1,0.0,0.0
0.4079683229813665,0.1,0.0,0.0
0.4159677018633541,0.1,0.0,0.0
0.4239670807453416,0.1,0.0,0.0
0.4319664596273292,0.1,0.0,0.0
0.4399658385093168,0.1,0.0,0.0
0.44796521739130435,0.1,0.0,0.0
0.45596459627329194,0.1,0.0,0.0
0.46396397515527954,0.1,0.0,0.0
0.47196335403726714,0.19938923395445268,0.0,0.0
0.4799627329192547,0.0,0.0,0.1
0.48796211180124227,0.0,0.0,0.1
0.49596149068322987,0.0,0.0,0.1
0.5039608695652175,0.0,0.0,0.1
0.511960248447205,0.0,0.0,0.1
0.5199596273291925,0.0,0.0,0.1
0.5279590062111802,0.0,0.0,0.1
0.5359583850931677,0.0,0.0,0.1
0.5439577639751553,0.0,0.0,0.1
0.5519571428571429,0.0,0.0,0.1
0.5599565217391305,0.0,0.0,0.1
0.567955900621118,0.0,0.0,0.1
0.5759552795031057,0.0,0.0,0.1
0.5839546583850932,0.0,0.0,0.1
0.5919540372670807,0.0,0.0,0.1
0.5999534161490684,-0.11906832298136817,0.0,0.2
0.6079527950310559,-0.5071010728402034,0.0017752682100508573,0.3035505364201017
0.6159521739130435,-0.5361897233201581,0.009047430830039532,0.31809486166007905
0.6239515527950311,-0.5652783738001133,0.016319593450028307,0.3326391869000566
0.6319509316770187,-0.5943670242800679,0.02359175607001698,0.34718351214003396
0.6399503105590063,-0.6234556747600231,0.030863918690005758,0.3617278373800115
0.6479496894409938,-0.6525443252399777,0.03813608130999443,0.37627216261998886
0.6559490683229814,-0.6816329757199324,0.045408243929983105,0.3908164878599662
0.663948447204969,-0.7107216261998875,0.05268040654997188,0.40536081309994376
0.6719478260869566,-0.7398102766798422,0.05995256916996056,0.4199051383399211
0.6799472049689441,-0.7688989271597969,0.06722473178994923,0.43444946357989844
0.6879465838509318,-0.797987577639752,0.07449689440993801,0.448993788819876
0.6959459627329193,-0.8270762281197067,0.08176905702992668,0.46353811405985335
0.7039453416149068,-0.8561648785996614,0.08904121964991535,0.4780824392998307
0.7119447204968945,-0.8852535290796165,0.09631338226990413,0.49262676453980825
0.719944099378882,-2.672049689441034,0.2,1.19161490683231
0.7279434782608696,-2.942717391304349,0.2,1.2882608695652178
0.7359428571428572,-3.1871428571428604,0.2,1.3771428571428583
0.7439422360248448,-3.4315683229813683,0.2,1.4660248447204975
0.7519416149068323,-3.675993788819876,0.2,1.554906832298137
0.75994099378882,-4.826449275362328,0.3323498964803326,2.2293995859213305
0.7679403726708075,-5.3516770186335405,0.4064596273291926,2.532298136645963
0.775939751552795,-5.456586905610426,0.41957336320130334,2.597866816006517
0.7839391304347827,-5.561496792587314,0.4326870990734143,2.663435495367071
0.7919385093167702,-5.6664066795642,0.445800834945525,2.729004174727625
0.7999378881987578,-5.771316566541086,0.45891457081763576,2.7945728540881785
0.8079372670807454,-5.8762264535179725,0.47202830668974666,2.8601415334487332
0.815936645962733,-5.981136340494858,0.4851420425618574,2.925710212809287
0.8239360248447205,-6.086046227471744,0.4982557784339681,2.9912788921698406
0.8319354037267082,-7.887080745341639,0.5532298136645903,3.8403105590062294
0.8399347826086957,-7.940442278860568,0.6,4.208508245877062
0.8479341614906832,-7.843898050974512,0.6,4.222300278432213
0.8559335403726709,-7.747353823088455,0.6,4.236092310987364
0.8639329192546584,-7.650809595202398,0.6,4.249884343542514
0.871932298136646,-7.554265367316342,0.6,4.263676376097665
0.8799316770186336,-7.457721139430284,0.6,4.277468408652816
0.8879310559006212,-7.361176911544227,0.6,4.291260441207967
0.8959304347826087,-6.220869565217397,0.6930434782608679,4.3
0.9039298136645963,-6.066906832298136,0.5875900621118011,4.504136645962733
0.9119291925465839,-5.999543641712978,0.5623288656423667,4.512557044785877
0.9199285714285715,-5.932180451127818,0.537067669172932,4.520977443609023
0.9279279503105591,-5.86481726054266,0.5118064727034977,4.529397842432167
0.9359273291925466,-5.797454069957502,0.4865452762340633,4.537818241255312
0.9439267080745343,-5.730090879372343,0.4612840797646286,4.546238640078457
0.9519260869565218,-5.662727688787185,0.4360228832951943,4.554659038901602
0.9599254658385094,-5.595364498202026,0.41076168682576,4.563079437724746
0.967924844720497,-5.528001307616867,0.3855004903563253,4.571499836547892
0.9759242236024845,-5.460638117031709,0.3602392938868909,4.579920235371036
0.9839236024844721,-5.3932749264465505,0.33497809741745654,4.588340634194181
0.9919229813664597,-5.325911735861391,0.30971690094802184,4.596761033017326
0.9999223602484473,-3.771350931677,-0.24805900621118182,4.651940993788818
1.007921739130435,-0.6325752508361147,-0.7962541806020064,4.311237458193981
1.0159211180124224,-0.447974199713328,-0.7859985666507405,4.342004300047779
1.02392049689441,-0.2633731485905363,-0.7757429526994742,4.372771141901577
1.0319198757763977,-0.0787720974677445,-0.7654873387482081,4.403537983755376
1.039919254658385,0.10582895365504219,-0.7552317247969421,4.434304825609173
1.0479186335403727,0.2904300047778339,-0.7449761108456758,4.465071667462972
1.0559180124223604,0.47503105590062566,-0.7347204968944097,4.495838509316771
1.0639173913043478,0.6596321070234124,-0.7244648829431437,4.526605351170568
1.0719167701863355,0.8442331581462041,-0.7142092689918775,4.557372193024367
1.0799161490683231,1.028834209268996,-0.7039536550406112,4.588139034878166
1.0879155279503105,1.700786749482397,-0.5907660455486552,4.654616977225673
1.0959149068322982,2.3872360248447166,-0.3,5.1
1.1039142857142858,3.573556231003041,-0.09264437689969589,5.085288753799391
1.1119136645962733,3.6586560063433327,-0.08413439936566672,5.068268798731333
1.119913043478261,3.743755781683627,-0.07562442183163731,5.0512488436632745
1.1279124223602486,3.828855557023921,-0.0671144442976079,5.034228888595216
1.135911801242236,3.9139553323642127,-0.05860446676357873,5.017208933527157
1.1439111801242237,3.999055107704507,-0.05009448922954932,5.000188978459098
1.1519105590062113,4.084154883044801,-0.04158451169551991,4.9831690233910395
1.1599099378881987,4.169254658385093,-0.03307453416149074,4.966149068322982
1.1679093167701864,4.2543544337253865,-0.024564556627461334,4.949129113254923
1.175908695652174,4.339454209065681,-0.016054579093431928,4.932109158186864
1.1839080745341615,4.424553984405972,-0.007544601559402744,4.915089203118805
1.1919074534161491,5.22596273291933,0.09074534161491621,4.627763975155251
1.1999068322981368,4.8379288326464245,0.6,3.6780925291693265
1.2079062111801242,4.710835897138213,0.6,3.6332361989899575
1.2159055900621119,4.583742961629998,0.6,3.5883798688105877
1.2239049689440995,4.456650026121783,0.6,3.5435235386312174
1.231904347826087,4.329557090613571,0.6,3.498667208451849
1.2399037267080746,4.202464155105357,0.6,3.453810878272479
1.2479031055900622,4.075371219597141,0.6,3.4089545480931087
1.2559024844720497,3.94827828408893,0.6,3.36409821791374
1.2639018633540373,3.821185348580715,0.6,3.31924188773437
1.271901242236025,3.6940924130725,0.6,3.274385557555
1.2799006211180126,3.566999477564285,0.6,3.2295292273756298
1.2879,3.4399065420560735,0.6,3.1846728971962612
1.2958993788819877,3.3128136065478584,0.6,3.139816567016891
1.3038987577639753,2.3012422360245903,0.510124223602459,2.7404968944098362
1.3118981366459628,-1.545739130434793,-0.2559254658385123,-0.023701863354049224
1.3198975155279504,-2.218429736024845,-0.41228649068323,-0.9307162267080749
1.327896894409938,-2.2434277950310566,-0.4289518633540376,-0.972379658385094
1.3358962732919255,-2.2684258540372673,-0.44561723602484477,-1.0140430900621118
1.3438956521739132,-2.293423913043479,-0.4622826086956524,-1.0557065217391308
1.3518950310559008,-2.31842197204969,-0.47894798136646,-1.09736995341615
1.3598944099378882,-2.343420031055901,-0.49561335403726714,-1.139033385093168
1.3678937888198759,-2.368418090062112,-0.5122787267080748,-1.180696816770187
1.3758931677018635,-2.3934161490683237,-0.5289440993788824,-1.222360248447206
1.383892546583851,-2.4184142080745343,-0.5456094720496896,-1.264023680124224
1.3918919254658386,-2.443412267080746,-0.5622748447204973,-1.305687111801243
1.3998913043478263,-2.4684103260869574,-0.5789402173913049,-1.347350543478262
1.4078906832298137,-2.493408385093168,-0.595605590062112,-1.38901397515528
1.4158900621118014,-2.7670186335403946,-0.9445031055900658,-2.922515527950329
1.423889440993789,-3.0741645962732913,-1.0,-3.2086118012422364
1.4318888198757764,-3.044166925465839,-1.0,-3.2186110248447206
1.439888198757764,-3.014169254658385,-1.0,-3.2286102484472052
1.4478875776397517,-2.984171583850931,-1.0,-3.2386094720496894
1.4558869565217392,-2.9541739130434785,-1.0,-3.248608695652174
1.4638863354037268,-2.9241762422360247,-1.0,-3.258607919254658
1.4718857142857145,-2.894178571428571,-1.0,-3.268607142857143
1.479885093167702,-2.8641809006211183,-1.0,-3.278606366459627
1.4878844720496895,-2.8341832298136644,-1.0,-3.2886055900621116
1.4958838509316772,-2.8041855590062106,-1.0,-3.2986048136645962
1.5038832298136646,-1.0,-0.7116770186335379,-3.323354037267076
1.5118826086956523,-0.9660963066853666,-0.6745722300140249,-3.2491444600280497
1.51988198757764,-0.9316903760101508,-0.6487677820076131,-3.1975355640152263
1.5278813664596274,-0.8972844453349361,-0.6229633340012021,-3.145926668002404
1.535880745341615,-0.8628785146597204,-0.5971588859947903,-3.0943177719895805
1.5438801242236027,-0.8284725839845046,-0.5713544379883785,-3.042708875976757
1.55187950310559,-0.7940666533092899,-0.5455499899819674,-2.991099979963935
1.5598788819875777,-0.7596607226340741,-0.5197455419755557,-2.9394910839511112
1.5678782608695654,-0.7252547919588584,-0.4939410939691439,-2.887882187938288
1.5758776397515528,-0.6908488612836436,-0.4681366459627328,-2.836273291925466
1.5838770186335405,-0.6564429306084281,-0.442332197956321,-2.784664395912642
1.5918763975155281,-0.6220369999332123,-0.41652774994990927,-2.7330554998998187
1.5998757763975155,-0.49378881987577294,-0.20621118012422707,-2.7937888198757728
1.6078751552795032,-0.2874996696180785,-0.19374983480903926,-2.9
1.6158745341614908,-0.2704797145500196,-0.18523985727500983,-2.9
1.6238739130434783,-0.2534597594819612,-0.17672987974098062,-2.9
1.631873291925466,-0.23643980441390236,-0.1682199022069512,-2.9
1.6398726708074536,-0.21941984934584352,-0.15970992467292178,-2.9
1.647872049689441,-0.20239989427778513,-0.15119994713889257,-2.9
1.6558714285714287,-0.18537993920972629,-0.14268996960486316,-2.9
1.6638708074534163,-0.16835998414166742,-0.13417999207083373,-2.9
1.6718701863354037,-0.15134002907360902,-0.12567001453680454,-2.9
1.6798695652173914,-0.13432007400555018,-0.11716003700277511,-2.9
1.687868944099379,-0.11730011893749132,-0.10865005946874567,-2.9
1.6958683229813665,-0.10028016386943292,-0.10014008193471648,-2.9
1.7038677018633541,0.4911801242236109,-0.19779503105590274,-2.2110248447204865
1.7118670807453418,0.9910403726708071,-0.4029865424430643,-1.1880538302277428
1.7198664596273292,0.9660423136645964,-0.4113192287784679,-1.1547230848861285
1.7278658385093169,0.9410442546583849,-0.4196519151138717,-1.1213923395445133
1.7358652173913045,0.9160461956521735,-0.4279846014492755,-1.088061594202898
1.743864596273292,0.8910481366459628,-0.4363172877846791,-1.0547308488612837
1.7518639751552796,0.8660500776397513,-0.4446499741200829,-1.0214001035196685
1.7598633540372672,0.8410520186335398,-0.4529826604554867,-0.9880693581780532
1.7678627329192547,0.8160539596273291,-0.4613153467908903,-0.9547386128364389
1.7758621118012423,0.7910559006211176,-0.4696480331262941,-0.9214078674948236
1.78386149068323,0.7660578416149062,-0.4779807194616979,-0.8880771221532084
1.7918608695652174,0.7410597826086955,-0.4863134057971015,-0.854746376811594
1.799860248447205,0.716061723602484,-0.4946460921325053,-0.8214156314699788
1.8078596273291927,0.028074534161448533,-0.45701863354036215,-0.1710559006210864
1.8158590062111803,-0.2,-0.09091998538545813,0.9181600292290838
1.8238583850931678,-0.2,-0.07209791742784065,0.9558041651443188
1.8318577639751554,-0.2,-0.05327584947022264,0.9934483010595547
1.839857142857143,-0.2,-0.03445378151260463,1.0310924369747907
1.8478565217391305,-0.2,-0.015631713554987145,1.0687365728900258
1.8558559006211182,-0.2,0.0031903544026308656,1.1063807088052617
1.8638552795031058,-0.2,0.022012422360248876,1.1440248447204977
1.8718546583850932,-0.2,0.04083449031786637,1.1816689806357328
1.879854037267081,-0.2,0.059656558275484384,1.2193131165509687
1.8878534161490685,-0.2,0.0784786262331024,1.2569572524662047
1.895852795031056,-0.2,0.09730069419071988,1.2946013883814398
1.9038521739130436,-0.47408695652174665,0.5370434782608733,2.5740869565217466
1.9118515527950313,-0.5834606154714844,0.5944868718238281,2.7
1.9198509316770187,-0.5561900056465273,0.5853966685488424,2.7
1.9278503105590064,-0.5289193958215694,0.5763064652738564,2.7
1.935849689440994,-0.5016487859966116,0.5672162619988705,2.7
1.9438490683229814,-0.4743781761716544,0.5581260587238848,2.7
1.951848447204969,-0.4471075663466965,0.5490358554488989,2.7
1.9598478260869567,-0.41983695652173864,0.5399456521739129,2.7
1.9678472049689442,-0.39256634669678153,0.5308554488989272,2.7
1.9758465838509318,-0.36529573687182365,0.5217652456239412,2.7
1.9838459627329195,-0.33802512704686577,0.5126750423489552,2.7
1.991845341614907,-0.31075451722190867,0.5035848390739696,2.7
1.9998447204968945,0.1548654244306521,0.4859213250517589,2.471842650103518
2.007844099378882,1.1201552795031224,0.5577950310559024,1.8889751552795124
2.01584347826087,0.5838976982097177,0.5080511508951411,1.583897698209718
2.0238428571428573,0.5650756302521003,0.5174621848739499,1.5650756302521003
2.0318422360248447,0.5462535622944827,0.5268732188527586,1.5462535622944829
2.0398416149068326,0.5274314943368642,0.5362842528315679,1.5274314943368643
2.04784099378882,0.5086094263792468,0.5456952868103766,1.5086094263792467
2.0558403726708074,0.48978735842162924,0.5551063207891853,1.4897873584216292
2.0638397515527953,0.47096529046401076,0.5645173547679946,1.4709652904640107
2.0718391304347827,0.45214322250639327,0.5739283887468034,1.4521432225063933
2.07983850931677,0.43332115454877573,0.5833394227256121,1.4333211545487756
2.087837888198758,0.41449908659115725,0.5927504567044214,1.414499086591157
2.0958372670807455,0.6,0.7,1.2
2.103836645962733,0.3104635798983622,0.6965121400338792,1.3965121400338791
2.1118360248447208,0.3322800677583292,0.6892399774138902,1.3892399774138902
2.119835403726708,0.3540965556182949,0.6819678147939017,1.3819678147939016
2.1278347826086956,0.37591304347826066,0.674695652173913,1.374695652173913
2.1358341614906835,0.3977295313382276,0.667423489553924,1.3674234895539241
2.143833540372671,0.41954601919819334,0.6601513269339355,1.3601513269339356
2.1518329192546584,0.44136250705815905,0.6528791643139469,1.352879164313947
2.1598322981366462,0.463178994918126,0.6456070016939579,1.345607001693958
2.1678316770186337,0.4849954827780918,0.6383348390739694,1.3383348390739693
2.175831055900621,0.5068119706380575,0.6310626764539808,1.3310626764539808
2.183830434782609,0.5286284584980244,0.6237905138339919,1.3237905138339918
2.1918298136645964,0.5504449463579901,0.6165183512140032,1.3165183512140033
2.199829192546584,0.5722614342179559,0.6092461885940147,1.3092461885940148
2.2078285714285717,0.5940779220779229,0.6019740259740257,1.3019740259740258
2.215827950310559,1.0528674948240142,0.3057349896480284,0.8586024844720426
2.2238273291925466,0.9034534161490684,0.1034534161490684,0.5069068322981367
2.2318267080745344,0.7911665372670803,-0.008833462732919788,0.2734996118012406
2.239826086956522,0.7661684782608695,-0.03383152173913048,0.19850543478260857
2.2478254658385093,0.7411704192546589,-0.05882958074534118,0.12351125776397648
2.255824844720497,0.7161723602484468,-0.08382763975155326,0.048517080745340224
2.2638242236024846,0.691174301242236,-0.10882569875776395,-0.02647709627329181
2.271823602484472,0.6661762422360253,-0.13382375776397465,-0.1014712732919239
2.27982298136646,0.6411781832298132,-0.15882181677018672,-0.17646545031056016
2.2878223602484473,0.6161801242236026,-0.1838198757763974,-0.2514596273291922
2.2958217391304347,0.5,-0.4328695652173934,-1.0821739130434835
2.3038211180124226,0.4910559006211387,-0.7910559006211387,-2.1821118012422778
2.31182049689441,0.5168182728912047,-0.8,-2.2084091364456024
2.3198198757763975,0.5340212382288122,-0.8,-2.217010619114406
2.3278192546583854,0.5512242035664205,-0.8,-2.2256121017832102
2.335818633540373,0.5684271689040279,-0.8,-2.234213584452014
2.34381801242236,0.5856301342416352,-0.8,-2.2428150671208176
2.351817391304348,0.6028330995792436,-0.8,-2.2514165497896217
2.3598167701863355,0.6200360649168509,-0.8,-2.2600180324584254
2.367816149068323,0.6372390302544584,-0.8,-2.268619515127229
2.375815527950311,0.6544419955920666,-0.8,-2.277220997796033
2.3838149068322982,0.6716449609296741,-0.8,-2.285822480464837
2.3918142857142857,0.6888479262672814,-0.8,-2.2944239631336405
2.3998136645962735,1.0906832298136806,-0.9,-1.9279503105589582
2.407813043478261,0.8741234221598874,-1.0,-1.3896493688639548
2.4158124223602484,0.8311160088158689,-1.0,-1.3724464035263475
2.4238118012422363,0.7881085954718481,-1.0,-1.355243438188739
2.4318111801242237,0.7451011821278297,-1.0,-1.3380404728511317
2.439810559006211,0.7020937687838112,-1.0,-1.3208375075135244
2.447809937888199,0.6590863554397903,-1.0,-1.3036345421759161
2.4558093167701864,0.616078942095772,-1.0,-1.2864315768383088
2.463808695652174,0.5730715287517535,-1.0,-1.2692286115007012
2.4718080745341617,0.5300641154077327,-1.0,-1.252025646163093
2.479807453416149,0.4870567020637142,-1.0,-1.2348226808254856
2.4878068322981366,0.4440492887196958,-1.0,-1.2176197154878783
2.4958062111801245,0.4010418753756749,-1.0,-1.2004167501502698
2.503805590062112,-1.1194409937888128,-0.6597204968944064,-1.0402795031055936
2.5118049689440993,-0.9867864680697098,-0.5933932340348549,-1.1
2.519804347826087,-0.9712536935415781,-0.585626846770789,-1.1
2.5278037267080746,-0.9557209190134472,-0.5778604595067236,-1.1
2.535803105590062,-0.9401881444853163,-0.5700940722426582,-1.1
2.54380248447205,-0.9246553699571846,-0.5623276849785923,-1.1
2.5518018633540374,-0.9091225954290536,-0.5545612977145268,-1.1
2.5598012422360252,-0.8935898209009219,-0.5467949104504609,-1.1
2.5678006211180127,-0.878057046372791,-0.5390285231863955,-1.1
2.5758,-0.8625242718446601,-0.5312621359223301,-1.1
2.583799378881988,-0.8469914973165283,-0.5234957486582641,-1.1
2.5917987577639754,-0.8314587227883974,-0.5157293613941987,-1.1
2.599798136645963,-0.8159259482602665,-0.5079629741301332,-1.1
2.6077975155279507,-0.8003931737321348,-0.5001965868660674,-1.1
2.615796894409938,-0.17343685300206443,-0.2578122843340215,-0.815624568668043
2.6237962732919256,0.2,0.001090785331404564,-0.5978184293371909
2.6317956521739134,0.2,0.012048838594401659,-0.5759023228111967
2.639795031055901,0.2,0.023006891857398144,-0.5539862162852037
2.6477944099378883,0.2,0.03396494512039463,-0.5320701097592108
2.655793788819876,0.2,0.04492299838339173,-0.5101540032332166
2.6637931677018636,0.2,0.055881051646388215,-0.4882378967072236
2.671792546583851,0.2,0.0668391049093847,-0.46632179018123066
2.679791925465839,0.2,0.0777971581723818,-0.44440568365523647
2.6877913043478263,0.2,0.08875521143537828,-0.4224895771292435
2.6957906832298137,0.2,0.09971326469837477,-0.40057347060325055
2.7037900621118016,-0.05801242236033638,0.2395031055900841,0.21850931677025232
2.711789440993789,-0.3399378881987589,0.3199689440993794,0.4399378881987589
2.7197888198757765,-0.3869930580928029,0.34349652904640143,0.48699305809280286
2.7277881987577643,-0.43404822798684944,0.3670241139934247,0.5340482279868495
2.7357875776397518,-0.4811033978808934,0.3905516989404467,0.5811033978808934
2.743786956521739,-0.5082533733133436,0.40825337331334366,0.6247601199400309
2.751786335403727,-0.522045405868495,0.4220454058684951,0.6661362176054852
2.7597857142857145,-0.5358374384236457,0.43583743842364575,0.7075123152709373
2.767785093167702,-0.5496294709787964,0.4496294709787964,0.7488884129363893
2.77578447204969,-0.5634215035339478,0.46342150353394784,0.7902645106018436
2.7837838509316772,-0.5772135360890985,0.47721353608909856,0.8316406082672956
2.7917832298136647,-0.5910055686442492,0.4910055686442492,0.8730167059327476
2.7997826086956525,-0.6217391304347478,0.5782608695652521,1.2173913043478781
2.80778198757764,-0.2919532179199146,1.0,2.1
2.8157813664596274,-0.2749332628518563,1.0,2.1
2.8237807453416153,-0.25791330778379706,1.0,2.1
2.8317801242236027,-0.24089335271573875,1.0,2.1
2.83977950310559,-0.22387339764768044,1.0,2.1
2.847778881987578,-0.20685344257962118,1.0,2.1
2.8557782608695654,-0.1898334875115629,1.0,2.1
2.863777639751553,-0.17281353244350459,1.0,2.1
2.8717770186335407,-0.15579357737544536,1.0,2.1
2.879776397515528,-0.13877362230738705,1.0,2.1
2.8877757763975156,-0.12175366723932873,1.0,2.1
2.8957751552795035,-0.1047337121712695,1.0,2.1
2.903774534161491,0.709813664596382,0.6225465838509044,1.2127329192545226
2.9117739130434783,0.8880950246526224,0.3880950246526223,0.6821425369789335
2.919773291925466,0.8716014599474927,0.37160145994749266,0.657402189921239
2.9277726708074536,0.855107895242364,0.35510789524236397,0.6326618428635459
2.935772049689441,0.8386143305372352,0.3386143305372352,0.6079214958058528
2.943771428571429,0.8221207658321056,0.3221207658321056,0.5831811487481583
2.9517708074534164,0.8056272011269768,0.30562720112697683,0.5584408016904653
2.959770186335404,0.7891336364218481,0.28913363642184814,0.5337004546327722
2.9677695652173917,0.7726400717167184,0.2726400717167185,0.5089601075750777
2.975768944099379,0.7561465070115898,0.2561465070115898,0.48421976051738463
2.9837683229813665,0.7396529423064611,0.23965294230646106,0.45947941345969157
2.9917677018633544,0.7231593776013314,0.2231593776013314,0.4347390664019971
2.999767080745342,0.7066658128962027,0.20666581289620267,0.40999871934430404
3.0077664596273292,0.18700621118012026,0.06233540372670676,0.3
3.015765838509317,-0.07658385093170805,0.0,0.6148757763975621
3.0237652173913045,-0.2513813979086428,-0.008563566318107127,0.8171271326362143
3.031764596273292,-0.3121361742275345,-0.01868936237125575,0.8373787247425115
3.03976397515528,-0.3728909505464296,-0.028815158424404932,0.8576303168488099
3.0477633540372673,-0.4336457268653213,-0.03894095447755355,0.8778819089551071
3.0557627329192547,-0.4944005031842131,-0.049066750530702176,0.8981335010614043
3.0637621118012426,-0.5551552795031083,-0.05919254658385136,0.9183850931677027
3.07176149068323,-0.6159100558219999,-0.06931834263699999,0.938636685274
3.0797608695652174,-0.6766648321408917,-0.0794441386901486,0.9588882773802971
3.0877602484472053,-0.7374196084597868,-0.08956993474329779,0.9791398694865956
3.0957596273291927,-0.7981743847786784,-0.0996957307964464,0.9993914615928928
3.10375900621118,-0.6722981366459682,0.0,1.1120496894409948
3.111758385093168,-0.06284912843117325,0.1,0.77213684632338
3.1197577639751555,-0.011240232418351356,0.1,0.7334301743137636
3.127757142857143,0.04036866359447053,0.1,0.6947235023041471
3.1357565217391308,0.09197755960729528,0.1,0.6560168302945286
3.143755900621118,0.14358645562011718,0.1,0.6173101582849121
3.1517552795031056,0.19519535163293908,0.1,0.5786034862752957
3.1597546583850935,0.24680424764576384,0.1,0.5398968142656771
3.167754037267081,0.29841314365858573,0.1,0.5011901422560607
3.1757534161490684,0.44637976929902307,0.0,0.14637976929902305
3.1837527950310562,0.4034748102139408,0.1,-0.003474810213940824
3.1917521739130437,0.41088164251207737,0.1,-0.010881642512077357
3.199751552795031,0.4182884748102139,0.1,-0.018288474810213888
3.207750931677019,0.42569530710835085,0.1,-0.025695307108350832
3.2157503105590064,0.4331021394064874,0.1,-0.03310213940648737
3.223749689440994,0.4405089717046239,0.1,-0.0405089717046239
3.2317490683229817,0.4479158040027609,0.1,-0.04791580400276084
3.239748447204969,0.45532263630089737,0.1,-0.05532263630089737
3.2477478260869566,0.4627294685990339,0.1,-0.0627294685990339
3.2557472049689444,0.47013630089717084,0.1,-0.07013630089717085
3.263746583850932,0.4775431331953074,0.1,-0.07754313319530738
3.2717459627329193,0.48494996549344394,0.1,-0.08494996549344391
3.279745341614907,0.49235679779158087,0.1,-0.09235679779158086
3.2877447204968946,0.49976363008971736,0.1,-0.09976363008971739
3.295744099378882,0.7041253038077235,0.1,-0.2
3.30374347826087,0.7110812854442347,0.1,-0.2
3.3117428571428573,0.7180372670807456,0.1,-0.2
3.3197422360248448,0.7249932487172563,0.1,-0.2
3.3277416149068326,0.7319492303537675,0.1,-0.2
3.33574099378882,0.7389052119902783,0.1,-0.2
3.3437403726708075,0.745861193626789,0.1,-0.2
3.3517397515527954,0.7528171752633003,0.1,-0.2
3.359739130434783,0.7597731568998111,0.1,-0.2
3.36773850931677,0.7667291385363219,0.1,-0.2
3.375737888198758,0.7736851201728331,0.1,-0.2
3.3837372670807455,0.7806411018093439,0.1,-0.2
3.391736645962733,0.7875970834458547,0.1,-0.2
3.399736024844721,0.7945530650823659,0.1,-0.2
3.4077354037267082,0.8,0.1,-0.2
3.4157347826086957,0.8,0.1,-0.236739130434786
3.4237341614906835,0.848101153504883,0.1,-0.3
3.431733540372671,0.9366770186335504,0.06332298136644963,-0.3
3.4397329192546584,0.8907533560408738,-0.11849328791825245,-0.3092466439591262
3.4477322981366463,0.8778511320376675,-0.144297735924665,-0.3221488679623325
3.4557316770186337,0.864948908034462,-0.17010218393107612,-0.33505109196553806
3.463731055900621,0.8520466840312564,-0.19590663193748725,-0.3479533159687436
3.471730434782609,0.8391444600280501,-0.22171107994389982,-0.3608555399719499
3.4797298136645964,0.8262422360248446,-0.24751552795031095,-0.3737577639751555
3.487729192546584,0.813340012021639,-0.2733199759567221,-0.38665998797836104
3.4957285714285717,0.8004377880184327,-0.29912442396313466,-0.39956221198156733
3.503727950310559,0.5424016563146913,-0.4717322291235391,-0.6575983436853087
3.5117273291925466,1.401985435853502,-0.6019854358535021,-1.6039708717070043
3.5197267080745345,1.411180124223603,-0.611180124223603,-1.6223602484472062
3.527726086956522,1.4203748125937035,-0.6203748125937035,-1.6407496251874072
3.5357254658385093,1.4295695009638039,-0.6295695009638039,-1.659139001927608
3.543724844720497,1.438764189333905,-0.638764189333905,-1.6775283786678101
3.5517242236024846,1.4479588777040053,-0.6479588777040054,-1.695917755408011
3.559723602484472,1.457153566074106,-0.6571535660741059,-1.714307132148212
3.56772298136646,1.4663482544442068,-0.6663482544442069,-1.7326965088884139
3.5757223602484474,1.4755429428143074,-0.6755429428143074,-1.751085885628615
3.583721739130435,1.4847376311844078,-0.6847376311844078,-1.7694752623688157
3.5917211180124227,1.493932319554509,-0.6939323195545088,-1.7878646391090178
3.59972049689441,1.5544099378882035,-0.7,-1.8
3.607719875776398,0.7921263586956495,-0.9011248059006215,-1.0966255822981357
3.6157192546583854,0.7046331521739114,-0.9136238354037269,-1.0591284937888192
3.623718633540373,0.6171399456521733,-0.9261228649068324,-1.021631405279503
3.6317180124223607,0.5296467391304305,-0.9386218944099385,-0.9841343167701846
3.639717391304348,0.44215353260869245,-0.9511209239130439,-0.9466372282608683
3.6477167701863356,0.3546603260869544,-0.9636199534161494,-0.909140139751552
3.6557161490683234,0.26716711956521155,-0.9761189829192555,-0.8716430512422335
3.663715527950311,0.17967391304347347,-0.9886180124223609,-0.8341459627329173
3.6717149068322983,-0.25745341614911443,-1.0,-0.6570186335403543
3.679714285714286,-0.3285714285713969,-0.8142857142856985,-0.6
3.6877136645962736,-0.09392163340821952,-0.7939216334082195,-0.7060783665917805
3.695713043478261,-0.08541165587419033,-0.7854116558741904,-0.7145883441258096
3.703712422360249,-0.07690167834016066,-0.7769016783401607,-0.7230983216598393
3.7117118012422363,-0.06839170080613147,-0.7683917008061315,-0.7316082991938685
3.7197111801242237,-0.059881723272102276,-0.7598817232721022,-0.7401182767278978
3.7277105590062116,-0.05137174573807261,-0.7513717457380726,-0.7486282542619274
3.735709937888199,-0.04286176820404342,-0.7428617682040434,-0.7571382317959566
3.7437093167701865,-0.03435179067001423,-0.7343517906700142,-0.7656482093299858
3.7517086956521744,-0.025841813135984562,-0.7258418131359845,-0.7741581868640155
3.759708074534162,-0.017331835601955378,-0.7173318356019553,-0.7826681643980447
3.767707453416149,-0.00882185806792618,-0.7088218580679262,-0.7911781419320738
3.775706832298137,-0.0003118805338965108,-0.7003118805338965,-0.7996881194661035
3.7837062111801245,0.0,-0.6229378881987546,-0.8770621118012454
3.791705590062112,-0.0633954451345775,-0.6,-0.9
3.7997049689441,-0.3,-0.49619018458577513,-0.9038098154142249
3.8077043478260872,-0.3,-0.4849234537660745,-0.9150765462339255
3.8157037267080747,-0.3,-0.47365672294637384,-0.9263432770536262
3.8237031055900625,-0.3,-0.46238999212667253,-0.9376100078733275
3.83170248447205,-0.3,-0.4511232613069719,-0.9488767386930281
3.8397018633540374,-0.3,-0.43985653048727125,-0.9601434695127288
3.8477012422360253,-0.3,-0.42858979966757,-0.9714102003324301
3.8557006211180127,-0.3,-0.41732306884786935,-0.9826769311521306
3.8637,-0.3,-0.4060563380281687,-0.9939436619718314
3.871699378881988,-0.6199822537710856,-0.2800177462289143,-0.8900088731144572
3.8796987577639754,-1.2246894409938776,0.06987577639755096,-0.630124223602449
3.887698136645963,-1.3648264138607407,0.11620660346518517,-0.5918966982674074
3.8956975155279507,-1.4321896044459017,0.1330474011114754,-0.5834762994442623
3.903696894409938,-1.4995527950310588,0.14988819875776468,-0.5750559006211177
3.9116962732919256,-1.566915985616216,0.16672899640405398,-0.566635501797973
3.9196956521739135,-1.6342791762013769,0.18356979405034418,-0.5582151029748279
3.927695031055901,-1.7016423667865341,0.2004105916966335,-0.5497947041516833
3.9356944099378883,-1.7690055573716912,0.21725138934292276,-0.5413743053285386
3.943693788819876,-1.8363687479568522,0.234092186989213,-0.5329539065053935
3.9516931677018636,-1.9037319385420093,0.2509329846355023,-0.5245335076822488
3.959692546583851,-1.9710951291271663,0.2677737822817916,-0.5161131088591042
3.967691925465839,-2.038458319712327,0.2846145799280818,-0.5076927100359591
3.9756913043478264,-2.2382608695652695,0.3345652173913174,-0.43086956521736525
3.983690683229814,-2.1872877846790755,0.5563561076604622,0.1563561076604622
3.9916900621118017,-1.3570561350052717,0.6,0.6214719324973641
3.999689440993789,-1.296683464197819,0.6,0.6516582679010904
4.007688819875777,-1.2363107933903632,0.6,0.6818446033048183
4.015688198757764,-1.175938122582914,0.6,0.7120309387085431
4.023687577639752,-1.1155654517754579,0.6,0.742217274112271
4.03168695652174,-1.055192780968002,0.6,0.772403609515999
4.039686335403727,-0.9948201101605527,0.6,0.8025899449197236
4.0476857142857146,-0.9344474393530967,0.6,0.8327762803234516
4.055685093167702,-0.8740747685456408,0.6,0.8629626157271796
4.063684472049689,-0.8137020977381915,0.6,0.8931489511309042
4.071683850931677,-0.7533294269307356,0.6,0.9233352865346323
4.079683229813665,-0.6929567561232796,0.6,0.9535216219383602
4.087682608695652,-0.6325840853158303,0.6,0.9837079573420848
4.09568198757764,0.7681987577640238,0.7,1.8
4.103681366459628,1.5296201899050546,0.5957685442992778,1.6915370885985557
4.111680745341615,1.593983008495754,0.586573855929178,1.673147711858356
4.119680124223603,1.6583458270864606,0.577379167559077,1.654758335118154
4.127679503105591,1.7227086456771672,0.5681844791889761,1.6363689583779522
4.135678881987578,1.7870714642678667,0.5589897908188762,1.6179795816377525
4.1436782608695655,1.8514342828585733,0.5497951024487753,1.5995902048975505
4.151677639751553,1.9157971014492798,0.5406004140786743,1.5812008281573486
4.15967701863354,1.9801599200399793,0.5314057257085744,1.5628114514171487
4.167676397515528,2.0445227386306857,0.5222110373384735,1.544422074676947
4.175675776397516,2.1088855572213925,0.5130163489683726,1.5260326979367451
4.183675155279503,2.1732483758120917,0.5038216605982726,1.5076433211965452
4.191674534161491,2.340236024844723,0.4532546583850924,1.4065093167701848
4.199673913043479,2.180434782608679,0.25217391304347164,1.2
4.207673291925466,0.9760958296362084,0.1,1.4047808340727581
4.215672670807454,0.8618189884649522,0.1,1.4276362023070095
4.2236720496894415,0.7475421472936958,0.1,1.4504915705412609
4.2316714285714285,0.6332653061224522,0.1,1.4733469387755096
4.239670807453416,0.5189884649511959,0.1,1.4962023070097608
4.247670186335404,0.40471162377993963,0.1,1.5190576752440121
4.255669565217391,0.29043478260869593,0.1,1.5419130434782609
4.263668944099379,0.17615794143743968,0.1,1.564768411712512
4.271668322981367,0.06188110026618332,0.1,1.5876237799467634
4.279667701863354,-2.266925465838537,0.13338509316770747,1.9
4.287667080745342,-2.568862193706913,0.2062275612586174,1.7937724387413827
4.29566645962733,-2.5249095624871996,0.2150180875025601,1.78498191249744
4.303665838509317,-2.480956931267491,0.22380861374650182,1.7761913862534982
4.311665217391305,-2.4370043000477777,0.23259913999044451,1.7674008600095554
4.3196645962732925,-2.393051668828064,0.2413896662343872,1.7586103337656127
4.3276639751552795,-2.3490990376083554,0.2501801924783289,1.749819807521671
4.335663354037267,-2.305146406388642,0.2589707187222716,1.7410292812777284
4.343662732919255,-2.2611937751689286,0.26776124496621434,1.7322387550337857
4.351662111801242,-2.2172411439492197,0.27655177121015606,1.7234482287898438
4.35966149068323,-2.1732885127295063,0.2853422974540987,1.714657702545901
4.367660869565218,-2.129335881509793,0.29413282369804145,1.7058671763019584
4.375660248447205,-0.1868633540374185,0.3830124223602347,1.4169875776397653
4.383659627329193,1.7140754897276649,0.5,1.094369804108934
4.391659006211181,1.7448423315814645,0.5,1.0820630673674143
4.399658385093168,1.7756091734352606,0.5,1.069756330625896
4.4076577639751555,1.8063760152890602,0.5,1.057449593884376
4.415657142857143,1.8371428571428599,0.5,1.0451428571428563
4.42365652173913,1.867909698996656,0.5,1.0328361204013377
4.431655900621118,1.8986765408504553,0.5,1.020529383659818
4.439655279503106,1.929443382704255,0.5,1.008222646918298
4.447654658385093,1.960210224558051,0.5,0.9959159101767796
4.455654037267081,1.9909770664118507,0.5,0.9836091734352598
4.463653416149069,2.02174390826565,0.5,0.97130243669374
4.471652795031056,2.0525107501194464,0.5,0.9589956999522216
4.479652173913044,2.083277591973246,0.5,0.9466889632107017
4.487651552795032,2.114044433827045,0.5,0.9343822264691819
4.495650931677019,2.1448112756808415,0.5,0.9220754897276635
4.503650310559006,2.1755781175346414,0.5,0.9097687529861436
4.511649689440994,2.4474534161492065,0.5,0.8175155279502645
4.519649068322981,2.291413956887103,0.2957069784435514,0.2957069784435514
4.527648447204969,2.272591888929484,0.28629594446474216,0.28629594446474216
4.535647826086957,2.2537698209718657,0.2768849104859329,0.2768849104859329
4.543647204968944,2.234947753014249,0.2674738765071247,0.2674738765071247
4.551646583850932,2.216125685056631,0.2580628425283154,0.2580628425283154
4.55964596273292,2.197303617099012,0.24865180854950614,0.24865180854950614
4.567645341614907,2.178481549141396,0.23924077457069792,0.23924077457069792
4.575644720496895,2.1596594811837773,0.22982974059188865,0.22982974059188865
4.5836440993788825,2.140837413226159,0.22041870661307938,0.22041870661307938
4.5916434782608695,2.1220153452685424,0.21100767263427117,0.21100767263427117
4.599642857142857,2.1031932773109236,0.2015966386554619,0.2015966386554619
4.607642236024845,0.9357763975154896,-0.0660559006211276,-0.5642236024845104
4.615641614906832,0.49050013502565537,-0.30633324331622974,-1.3094998649743448
4.62364099378882,0.4696321901161218,-0.3202452065892521,-1.3303678098838783
4.631640372670808,0.44876424520658825,-0.3341571698622745,-1.3512357547934117
4.639639751552795,0.42789630029705705,-0.3480691331352953,-1.372103699702943
4.647639130434783,0.40702835538752347,-0.36198109640831766,-1.3929716446124765
4.655638509316771,0.38616041047798993,-0.37589305968134,-1.4138395895220102
4.663637888198758,0.36529246556845874,-0.3898050229543608,-1.4347075344315414
4.671637267080746,0.34442452065892515,-0.4037169862273832,-1.455575479341075
4.679636645962733,0.3235565757493917,-0.4176289495004056,-1.4764434242506084
4.68763602484472,0.3026886308398604,-0.4315409127734264,-1.4973113691601396
4.695635403726708,0.28182068593032683,-0.4454528760464488,-1.5181793140696733
4.703634782608696,0.26095274102079336,-0.45936483931947114,-1.5390472589792068
4.711634161490683,0.2400847961112621,-0.47327680259249194,-1.559915203888738
4.719633540372671,0.21921685120172857,-0.4871887658655143,-1.5807831487982715
4.727632919254659,0.2,-0.5316459627329325,-1.6632919254658651
4.735632298136646,1.0123388975155292,-0.9,-2.5041129658385097
4.743631677018634,1.0498359860248474,-0.9,-2.516611995341616
4.751631055900622,1.0873330745341654,-0.9,-2.5291110248447217
4.759630434782609,1.1248301630434794,-0.9,-2.5416100543478266
4.7676298136645965,1.1623272515527976,-0.9,-2.5541090838509324
4.775629192546584,1.1998243400621156,-0.9,-2.5666081133540386
4.783628571428571,1.2373214285714296,-0.9,-2.5791071428571435
4.791627950310559,1.2748185170807478,-0.9,-2.5916061723602493
4.799627329192547,1.8440993788820834,-0.9,-2.4372670807452774
4.807626708074534,2.195551242236025,-1.0,-1.7866537267080747
4.815626086956522,2.1878595317725753,-1.0,-1.763578595317725
4.82362546583851,2.180167821309125,-1.0,-1.7405034639273755
4.831624844720497,2.1724761108456763,-1.0,-1.7174283325370283
4.839624223602485,2.1647844003822265,-1.0,-1.6943532011466789
4.8476236024844725,2.1570926899187763,-1.0,-1.6712780697563292
4.8556229813664595,2.1494009794553275,-1.0,-1.6482029383659822
4.863622360248447,2.1417092689918777,-1.0,-1.6251278069756325
4.871621739130435,2.1340175585284276,-1.0,-1.6020526755852829
4.879621118012422,2.1263258480649787,-1.0,-1.5789775441949359
4.88762049689441,2.118634137601529,-1.0,-1.5559024128045862
4.895619875776398,2.110942427138079,-1.0,-1.5328272814142365
4.903619254658385,2.10325071667463,-1.0,-1.5097521500238895
4.911618633540373,1.5676273291925449,-1.0161863354037277,-0.8838136645962724
4.919618012422361,1.4076397515527839,-1.0961801242236082,-0.803819875776392
4.927617391304348,1.3699313501144168,-1.1100228832951944,-0.8
4.935616770186336,1.3383548545276227,-1.1205483818241257,-0.8
4.9436161490683235,1.3067783589408286,-1.1310738803530571,-0.8
4.9516155279503105,1.2752018633540383,-1.1415993788819874,-0.8
4.959614906832298,1.2436253677672442,-1.1521248774109185,-0.8
4.967614285714286,1.2120488721804503,-1.1626503759398499,-0.8
4.975613664596273,1.1804723765936598,-1.1731758744687801,-0.8
4.983613043478261,1.1488958810068657,-1.1837013729977115,-0.8
4.991612422360249,1.1173193854200716,-1.1942268715266429,-0.8
4.999611801242236,0.5388198757764361,-1.2,-0.9537267080745213
5.007611180124224,-0.20851471779638225,-0.9943235214690785,-1.2
5.015610559006212,-0.23459964893329907,-0.9769335673778007,-1.2
5.023609937888199,-0.260684580070213,-0.9595436132865247,-1.2
5.0316093167701865,-0.28676951120712985,-0.9421536591952469,-1.2
5.039608695652174,-0.31285444234404663,-0.9247637051039689,-1.2
5.047608074534161,-0.3389393734809606,-0.9073737510126929,-1.2
5.055607453416149,-0.3650243046178774,-0.889983796921415,-1.2
5.063606832298137,-0.3911092357547942,-0.8725938428301372,-1.2
5.071606211180124,-0.4171941668917082,-0.8552038887388612,-1.2
5.079605590062112,-0.443279098028625,-0.8378139346475834,-1.2
5.0876049689441,-0.4693640291655418,-0.8204239805563055,-1.2
5.095604347826087,-0.4954489603024558,-0.8030340264650295,-1.2
5.103603726708075,-1.180186335403729,-0.3396273291925419,-0.919813664596271
5.111603105590063,-1.2935596487470544,-0.08067894624116298,-0.7871192974941087
5.1196024844720505,-1.2843649603769534,-0.053094881130859896,-0.7687299207539067
5.1276018633540374,-1.2751702720068534,-0.025510816020559865,-0.7503405440137066
5.135601242236025,-1.2659755836367523,0.002073249089743226,-0.7319511672735045
5.143600621118013,-1.2567808952666513,0.02965731420004633,-0.7135617905333025
5.1516,-1.2475862068965513,0.05724137931034637,-0.6951724137931025
5.159599378881988,-1.2383915185264502,0.08482544442064946,-0.6767830370529004
5.167598757763976,-1.2291968301563492,0.11240950953095255,-0.6583936603126983
5.175598136645963,-1.2200021417862492,0.1399935746412526,-0.6400042835724983
5.183597515527951,-1.2108074534161481,0.16757763975155568,-0.6216149068322963
5.191596894409939,-1.201612765046047,0.19516170486185877,-0.6032255300920941
5.199596273291926,0.1023156244346633,1.2011578122173316,0.30173671832599747
5.2075956521739135,0.13338117349092696,1.2166905867454634,0.3250358801181952
5.215595031055901,0.16444672254719062,1.2322233612735953,0.34833504191039294
5.223594409937888,0.19551227160345083,1.2477561358017253,0.3716342037025881
5.231593788819876,0.2265778206597145,1.2632889103298572,0.39493336549478586
5.239593167701864,0.2576433697159781,1.278821684857989,0.41823252728698357
5.247592546583851,0.28870891877223837,1.2943544593861191,0.4415316890791787
5.255591925465839,0.31977446782850205,1.3098872339142509,0.4648308508713765
5.263591304347827,0.3508400168847656,1.3254200084423828,0.48813001266357425
5.271590683229814,0.38190556594102587,1.3409527829705128,0.5114291744557694
5.279590062111802,0.41297111499728956,1.3564855574986447,0.5347283362479671
5.28758944099379,0.44403666405355324,1.3720183320267765,0.5580274980401649
5.295588819875777,0.4751022131098134,1.3875511065549067,0.5813266598323601
5.303588198757764,0.7382298136646459,1.6382298136646458,0.8382298136646458
5.311587577639752,1.4878343685300313,1.8878343685300314,1.331751552795047
5.319586956521739,1.5944927536231872,1.9944927536231871,1.4917391304347807
5.327586335403727,1.0629981157093966,1.9,1.3925996231418791
5.335585714285715,1.0180577849117123,1.9,1.3836115569823424
5.343585093167702,0.9731174541140327,1.9,1.3746234908228065
5.35158447204969,0.9281771233163482,1.9,1.3656354246632696
5.359583850931678,0.8832367925186637,1.9,1.3566473585037326
5.367583229813665,0.8382964617209843,1.9,1.3476592923441968
5.375582608695653,0.7933561309232997,1.9,1.33867122618466
5.3835819875776405,0.7484158001256153,1.9,1.329683160025123
5.3915813664596275,0.7034754693279357,1.9,1.3206950938655873
5.399580745341615,0.6585351385302513,1.9,1.3117070277060503
5.407580124223603,0.6135948077325668,1.9,1.3027189615465133
5.41557950310559,-0.48692546583853724,1.0420496894409752,0.8289751552795125
5.423578881987578,-0.7386993058092838,0.8742004627938108,0.9257995372061892
5.431578260869566,-0.78575447570333,0.8428303495311134,0.9571696504688867
5.439577639751553,-0.8328096455973709,0.8114602362684193,0.9885397637315807
5.447577018633541,-0.8798648154914172,0.7800901230057219,1.0199098769942783
5.455576397515529,-0.9269199853854633,0.7487200097430244,1.0512799902569756
5.463575776397516,-0.9739751552795042,0.7173498964803304,1.0826501035196696
5.4715751552795036,-1.8007114624507228,0.3856804065499656,1.2143195934500344
5.479574534161491,-3.327865612648391,0.3129587803500766,1.2870412196499235
5.487573913043478,-2.9283214089158,0.20325811777655456,1.4967418822234455
5.495573291925466,-2.705553895746516,0.21338391382970381,1.4866160861702962
5.503572670807454,-2.482786382577233,0.22350970988285304,1.4764902901171468
5.511572049689441,-2.2600188694079746,0.23363550593600116,1.4663644940639988
5.519571428571429,-2.0372513562386914,0.2437613019891504,1.4562386980108495
5.527570807453417,-1.814483843069408,0.25388709804229964,1.4461129019577004
5.535570186335404,-1.5917163299001493,0.26401289409544776,1.4359871059045521
5.543569565217392,-1.368948816730866,0.274138690148597,1.425861309851403
5.55156894409938,-1.1461813035615827,0.2842644862017462,1.4157355137982537
5.559568322981367,-0.9234137903923241,0.29439028225489433,1.4056097177451057
5.5675677018633545,1.2514285714290188,0.3,1.132422360248389
5.575567080745342,3.497539944313557,0.5,0.49507988862711405
5.583566459627329,3.492023131291497,0.5,0.48404626258299405
5.591565838509317,3.4865063182694365,0.5,0.4730126365388728
5.599565217391305,3.4809895052473756,0.5,0.4619790104947516
5.607564596273292,3.4754726922253156,0.5,0.4509453844506316
5.61556397515528,3.469955879203255,0.5,0.4399117584065103
5.623563354037268,3.4644390661811943,0.5,0.4288781323623891
5.631562732919255,3.4589222531591344,0.5,0.4178445063182691
5.639562111801243,3.453405440137074,0.5,0.40681088027414786
5.6475614906832305,3.447888627115013,0.5,0.39577725423002663
5.6555608695652175,3.442371814092953,0.5,0.38474362818590657
5.663560248447205,3.4368550010708927,0.5,0.3737100021417854
5.671559627329193,3.431338188048832,0.5,0.3626763760976641
5.67955900621118,3.425821375026772,0.5,0.3516427500535441
5.687558385093168,3.4203045620047114,0.5,0.3406091240094229
5.695557763975156,3.4147877489826506,0.5,0.3295754979653016
5.703557142857143,3.4092709359605906,0.5,0.31854187192118166
5.711556521739131,3.40375412293853,0.5,0.3075082458770604
5.719555900621119,2.968234250221802,0.5920585625554505,0.0920585625554506
5.727555279503106,2.561118012422358,0.5,-0.012960662525880712
5.735554658385094,2.3611335403726685,0.5,-0.07962215320911047
5.7435540372670815,2.0907125917560663,0.5,-0.19535629587803313
5.7515534161490685,2.061623941276114,0.5,-0.18081197063805696
5.759552795031056,2.0325352907961585,0.5,-0.16626764539807917
5.767552173913044,2.0034466403162026,0.5,-0.15172332015810136
5.775551552795031,1.9743579898362504,0.5,-0.13717899491812519
5.783550931677019,1.9452693393562948,0.5,-0.1226346696781474
5.791550310559007,1.916180688876339,0.5,-0.1080903444381696
5.799549689440994,1.8290062111801255,0.42900621118012544,-0.1
5.807549068322982,2.101401952085191,0.2492990239574045,0.1
5.81554844720497,2.0085902714774266,-0.005726847651617814,0.1
5.823547826086957,2.0355544699560344,-0.023702979970689608,0.1
5.8315472049689445,2.0625186684346453,-0.04167911228976339,0.1
5.839546583850932,2.0894828669132557,-0.059655244608837185,0.1
5.847545962732919,2.1164470653918634,-0.07763137692790897,0.1
5.855545341614907,2.143411263870474,-0.09560750924698276,0.1
5.863544720496895,2.1703754623490847,-0.11358364156605655,0.1
5.871544099378882,2.1973396608276925,-0.13155977388512835,0.1
5.87954347826087,2.224303859306303,-0.14953590620420212,0.1
5.887542857142858,2.251268057784914,-0.16751203852327592,0.1
5.895542236024845,2.2782322562635215,-0.1854881708423477,0.1
5.903541614906833,2.4233291925466087,-0.26166459627330446,0.1
5.911540993788821,1.0836024844717547,-1.131149068323092,-0.4540993788820613
5.919540372670808,0.3844276841171254,-1.3077861579414374,-0.9311446317657492
5.927539751552795,0.3653815439219161,-1.317309228039042,-0.9692369121561679
5.935539130434783,0.3463354037267068,-1.3268322981366467,-1.0073291925465866
5.94353850931677,0.32728926353149956,-1.3363553682342502,-1.0454214729370008
5.951537888198758,0.3082431233362903,-1.345878438331855,-1.0835137533274195
5.959537267080746,0.289196983141081,-1.3554015084294595,-1.1216060337178382
5.967536645962733,0.27015084294587377,-1.3649245785270632,-1.1596983141082524
5.975536024844721,0.2511047027506645,-1.3744476486246677,-1.197790594498671
5.983535403726709,0.23205856255545518,-1.3839707187222723,-1.2358828748890898
5.991534782608696,0.21301242236024798,-1.393493788819876,-1.273975155279504
5.999534161490684,0.2801242236025689,-1.3,-1.6534161490683794
6.0075335403726715,1.100508133688259,-1.3,-1.699491866311741
6.0155329192546585,1.1081265897663417,-1.3,-1.6918734102336583
6.023532298136646,1.1157450458444254,-1.3,-1.6842549541555747
6.031531677018634,1.123363501922509,-1.3,-1.676636498077491
6.039531055900621,1.130981958000592,-1.3,-1.669018041999408
6.047530434782609,1.1386004140786756,-1.3,-1.6613995859213244
6.055529813664597,1.1462188701567593,-1.3,-1.6537811298432408
6.063529192546584,1.153837326234842,-1.3,-1.646162673765158
6.071528571428572,1.1614557823129257,-1.3,-1.6385442176870744
6.07952795031056,1.1690742383910093,-1.3,-1.6309257616089907
6.087527329192547,1.176692694469092,-1.3,-1.623307305530908
6.095526708074535,1.1843111505471757,-1.3,-1.6156888494528243
6.103526086956522,1.1919296066252594,-1.3,-1.6080703933747407
6.111525465838509,1.1995480627033421,-1.3,-1.600451937296658
6.119524844720497,1.2,-1.383609385783299,-1.516390614216701
6.127524223602485,1.2,-1.2993010351966863,-1.5006989648033138
6.135523602484472,1.2,-1.2886351966873701,-1.51136480331263
6.14352298136646,1.2,-1.2779693581780531,-1.522030641821947
6.151522360248448,1.2,-1.267303519668736,-1.5326964803312642
6.159521739130435,1.2,-1.25663768115942,-1.54336231884058
6.167521118012423,1.2,-1.2459718426501027,-1.5540281573498973
6.175520496894411,1.2,-1.2353060041407857,-1.5646939958592143
6.183519875776398,1.2,-1.2246401656314698,-1.5753598343685304
6.1915192546583855,1.2,-1.2139743271221526,-1.5860256728778475
6.199518633540373,1.2,-1.2033084886128353,-1.5966915113871647
6.20751801242236,1.2,-1.009639751552797,-1.6
6.215517391304348,0.7835122282608666,-0.8945040760869556,-1.2890081521739112
6.223516770186336,0.7460151397515484,-0.8820050465838495,-1.264010093167699
6.231516149068323,0.7085180512422345,-0.8695060170807448,-1.2390120341614896
6.239515527950311,0.6710209627329164,-0.8570069875776388,-1.2140139751552776
6.247514906832299,0.6335238742235982,-0.8445079580745328,-1.1890159161490657
6.255514285714286,0.5960267857142842,-0.8320089285714282,-1.1640178571428563
6.263513664596274,0.5585296972049661,-0.8195098990683221,-1.1390197981366441
6.2715130434782616,0.521032608695648,-0.8070108695652161,-1.1140217391304321
6.2795124223602485,-0.05124223602486775,-0.5487577639751322,-0.8743788819875662
6.287511801242236,-0.4056397515527951,-0.1887204968944099,-0.794360248447205
6.295511180124224,-0.4156389751552799,-0.16872204968944024,-0.7843610248447201
6.303510559006211,-0.42563819875776365,-0.1487236024844728,-0.7743618012422364
6.311509937888199,-0.43563742236024844,-0.12872515527950312,-0.7643625776397516
6.319509316770187,-0.4456366459627333,-0.10872670807453347,-0.7543633540372667
6.327508695652174,-0.455635869565217,-0.08872826086956602,-0.744364130434783
6.335508074534162,-0.46563509316770185,-0.06872981366459635,-0.7343649068322982
6.34350745341615,-0.47563431677018664,-0.048731366459626696,-0.7243656832298133
6.351506832298137,-0.48563354037267037,-0.028732919254659234,-0.7143664596273296
6.359506211180125,-0.4956327639751552,-0.008734472049689579,-0.7043672360248447
6.3675055900621125,-0.398679306963059,0.6039620791108231,-0.701320693036941
6.3755049689440995,-0.39166230794377216,0.6250130761686835,-0.7083376920562278
6.383504347826087,-0.3846453089244846,0.6460640732265461,-0.7153546910755154
6.391503726708075,-0.3776283099051971,0.6671150702844089,-0.722371690094803
6.399503105590062,-0.37061131088591026,0.6881660673422693,-0.7293886891140897
6.40750248447205,-0.3635943118666227,0.7092170644001319,-0.7364056881333773
6.415501863354038,-0.3565773128473351,0.7302680614579946,-0.7434226871526649
6.423501242236025,-0.34956031382804836,0.7513190585158549,-0.7504396861719517
6.431500621118013,-0.34254331480876077,0.7723700555737176,-0.7574566851912392
6.439500000000001,-0.33552631578947323,0.7934210526315804,-0.7644736842105267
6.447499378881988,-0.32850931677018647,0.8144720496894406,-0.7714906832298136
6.4554987577639755,-0.32149231775089887,0.8355230467473034,-0.7785076822491012
6.463498136645963,-0.31447531873161133,0.8565740438051661,-0.7855246812683887
6.47149751552795,-0.3074583197123245,0.8776250408630264,-0.7925416802876755
6.479496894409938,-0.300441320693037,0.8986760379208891,-0.799558679306963
6.487496273291926,-0.3,1.2716905211990348,-0.5522063192006434
6.495495652173913,-0.3,1.3760302457466924,-0.48264650283553834
6.503495031055901,-0.3,1.4803699702943618,-0.41308668647042546
6.511494409937889,0.2,1.9038975155279507,0.1
6.519493788819876,0.2,1.9163965450310554,0.1
6.527493167701864,0.2,1.9288955745341614,0.1
6.535492546583852,0.2,1.9413946040372676,0.1
6.543491925465839,0.2,1.953893633540372,0.1
6.5514913043478264,0.2,1.9663926630434783,0.1
6.559490683229814,0.2,1.9788916925465843,0.1
6.567490062111801,0.2,1.991390722049689,0.1
6.575489440993789,0.2,2.0,0.050211180124223286
6.583488819875777,1.646645962733077,1.9755590062111539,-0.47332298136653844
6.591488198757764,2.121099833358582,1.8947250416603543,-0.7105499166792911
6.599487577639752,2.1471140736252097,1.8882214815936975,-0.7235570368126047
6.60748695652174,2.1731283138918367,1.8817179215270408,-0.7365641569459183
6.615486335403727,2.199142554158461,1.8752143614603847,-0.7495712770792304
6.623485714285715,2.225156794425088,1.868710801393728,-0.7625783972125441
6.6314850931677025,2.2511710346917155,1.8622072413270712,-0.7755855173458577
6.6394844720496895,2.27718527495834,1.855703681260415,-0.7885926374791699
6.647483850931677,2.303199515224967,1.8492001211937583,-0.8015997576124834
6.655483229813665,2.329213755491594,1.8426965611271016,-0.814606877745797
6.663482608695652,2.3552279957582183,1.8361930010604455,-0.8276139978791092
6.67148198757764,2.3812422360248453,1.8296894409937887,-0.8406211180124228
6.679481366459628,2.4072564762914728,1.8231858809271317,-0.8536282381457363
6.687480745341615,2.433270716558097,1.8166823208604759,-0.8666353582790485
6.695480124223603,2.459284956824724,1.810178760793819,-0.8796424784123621
6.703479503105591,2.485299197091351,1.8036752007271621,-0.8926495985456757
6.711478881987578,2.5739440993788945,1.5521118012422108,-0.7521118012422108
6.719478260869566,0.36565217391302884,0.8664130434782572,-0.5
6.727477639751553,0.12567080745339287,0.8064177018633483,-0.5
6.73547701863354,-0.11431055900621645,0.7464223602484459,-0.5
6.743476397515528,-0.3542919254658524,0.6864270186335368,-0.5
6.751475776397516,-0.5942732919254883,0.6264316770186279,-0.5
6.759475155279503,-0.8342546583850976,0.5664363354037255,-0.5
6.767474534161491,-1.0742360248447336,0.5064409937888166,-0.5
6.775473913043479,-1.3142173913043695,0.4464456521739075,-0.5
6.783473291925466,-1.554198757763979,0.38645031055900514,-0.5
6.791472670807454,-1.7941801242236148,0.3264549689440962,-0.5
6.799472049689442,-3.369387755102343,0.17222715173023107,-1.0749778172139601
6.807471428571429,1.804399999999997,0.10062857142857098,-0.499371428571429
6.8154708074534165,1.8790608695652178,0.11129440993788825,-0.4887055900621117
6.823470186335404,1.9537217391304387,0.12196024844720552,-0.4780397515527945
6.831469565217391,2.0283826086956513,0.13262608695652162,-0.4673739130434784
6.839468944099379,2.1030434782608722,0.14329192546583888,-0.4567080745341611
6.847468322981367,2.1777043478260927,0.15395776397515615,-0.4460422360248439
6.855467701863354,2.2523652173913056,0.16462360248447222,-0.4353763975155278
6.863467080745342,2.3270260869565265,0.17528944099378949,-0.4247105590062106
6.87146645962733,2.401686956521747,0.18595527950310675,-0.4140447204968933
6.879465838509317,2.47634782608696,0.19662111801242282,-0.4033788819875772
6.887465217391305,2.617111801242248,0.23903726708074943,-0.3609627329192506
6.895464596273293,2.7885270629991283,0.29617568766637614,-0.30382431233362384
6.9034639751552795,2.8943693263258483,0.4,0.2018768912247172
6.911463354037267,2.863602484472049,0.4,0.21213250517598364
6.919462732919255,2.8328356426182495,0.4,0.22238811912725012
6.927462111801242,2.8020688007644536,0.4,0.23264373307851544
6.93546149068323,2.7713019589106542,0.4,0.24289934702978191
6.943460869565218,2.740535117056855,0.4,0.2531549609810484
6.951460248447205,2.709768275203059,0.4,0.2634105749323137
6.959459627329193,2.6790014333492596,0.4,0.2736661888835802
6.967459006211181,2.64823459149546,0.4,0.28392180283484664
6.975458385093168,2.6174677496416643,0.4,0.294177416786112
6.983457763975156,2.5,0.4,0.4457763975155562
6.9914571428571435,2.381428571428569,0.5046428571428577,0.6046428571428577
6.9994565217391305,2.3480978260869567,0.5129755434782608,0.6129755434782608
7.007455900621118,2.314767080745341,0.5213082298136648,0.6213082298136647
7.015455279503106,2.2814363354037246,0.5296409161490688,0.6296409161490688
7.023454658385093,2.2481055900621123,0.5379736024844719,0.6379736024844719
7.031454037267081,2.214774844720496,0.546306288819876,0.646306288819876
7.039453416149069,2.18144409937888,0.5546389751552799,0.6546389751552799
7.047452795031056,2.1481133540372674,0.5629716614906831,0.6629716614906831
7.055452173913044,2.1147826086956516,0.5713043478260871,0.6713043478260871
7.063451552795032,2.0814518633540353,0.5796370341614911,0.6796370341614911
7.071450931677019,2.048121118012423,0.5879697204968942,0.6879697204968942
7.0794503105590065,2.0147903726708067,0.5963024068322983,0.6963024068322983
7.087449689440994,1.2201242236021959,0.7,1.0
7.095449068322981,0.4757819185645265,0.5878909592822632,0.8757819185645265
7.103448447204969,0.4402291235334692,0.5701145617667346,0.8402291235334692
7.111447826086957,0.404676328502412,0.552338164251206,0.804676328502412
7.119447204968944,0.3691235334713586,0.5345617667356793,0.7691235334713586
7.127446583850932,0.3335707384403014,0.5167853692201507,0.7335707384403014
7.13544596273292,0.29801794340924403,0.49900897170462205,0.6980179434092441
7.143445341614907,0.26246514837819074,0.4812325741890954,0.6624651483781907
7.151444720496895,0.2269123533471335,0.46345617667356676,0.6269123533471335
7.159444099378883,0.1913595583160762,0.44567977915803814,0.5913595583160762
7.16744347826087,0.15580676328502285,0.42790338164251146,0.5558067632850229
7.1754428571428575,0.12025396825396562,0.4101269841269828,0.5202539682539656
7.183442236024845,0.558964803312731,0.2,-0.5368530020704568
7.191441614906833,2.101748969928053,0.2,-1.4013117274460396
7.19944099378882,2.1334296783715656,0.2,-1.4250722587786742
7.207440372670808,2.165110386815082,0.2,-1.4488327901113114
7.215439751552796,2.1967910952585985,0.2,-1.4725933214439488
7.223439130434783,2.2284718037021114,0.2,-1.4963538527765834
7.231438509316771,2.260152512145628,0.2,-1.5201143841092206
7.239437888198759,2.291833220589144,0.2,-1.5438749154418578
7.247437267080746,2.3235139290326567,0.2,-1.5676354467744924
7.2554366459627335,2.355194637476173,0.2,-1.5913959781071298
7.263436024844721,2.386875345919689,0.2,-1.615156509439767
7.271435403726708,2.418556054363202,0.2,-1.6389170407724016
7.279434782608696,2.4502367628067185,0.2,-1.6626775721050389
7.287434161490684,2.481917471250235,0.2,-1.686438103437676
7.295433540372671,2.6283229813664484,-0.07167701863355184,-1.8
7.303432919254659,1.9826160029229074,-0.40434599926927317,-1.904345999269273
7.311432298136647,1.9512458896602096,-0.4121885275849476,-1.9121885275849475
7.319431677018634,1.9198757763975154,-0.4200310559006212,-1.920031055900621
7.327431055900622,1.8885056631348176,-0.4278735842162956,-1.9278735842162955
7.33543043478261,1.85713554987212,-0.43571611253197,-1.93571611253197
7.343429813664597,1.8257654366094258,-0.44355864084764357,-1.9435586408476435
7.3514291925465844,1.794395323346728,-0.451401169163318,-1.951401169163318
7.359428571428572,1.7630252100840302,-0.45924369747899246,-1.9592436974789924
7.367427950310559,1.7316550968213362,-0.46708622579466597,-1.967086225794666
7.375427329192547,1.7002849835586384,-0.4749287541103404,-1.9749287541103404
7.383426708074535,1.6689148702959407,-0.48277128242601486,-1.9827712824260149
7.391426086956522,1.6375447570332464,-0.4906138107416884,-1.9906138107416884
7.39942546583851,1.6061746437705486,-0.49845633905736286,-1.9984563390573629
7.407424844720498,1.1,-0.7,-1.957515527950239
7.415424223602485,1.0933850931677018,-0.8,-1.7867701863354033
7.423423602484473,1.0836297530677166,-0.8,-1.767259506135433
7.4314229813664605,1.0738744129677313,-0.8,-1.7477488259354625
7.4394223602484475,1.0641190728677472,-0.8,-1.7282381457354943
7.447421739130435,1.054363732767762,-0.8,-1.7087274655355238
7.455421118012423,1.0446083926677767,-0.8,-1.6892167853355533
7.46342049689441,1.0348530525677926,-0.8,-1.669706105135585
7.471419875776398,1.0250977124678073,-0.8,-1.6501954249356146
7.479419254658386,1.015342372367822,-0.8,-1.630684744735644
7.487418633540373,1.005587032267838,-0.8,-1.6111740645356758
7.495418012422361,0.21639751552784575,-0.8,-1.2790993788819616
7.503417391304349,-0.31391304347828586,-0.7286956521739048,-1.1286956521739047
7.511416770186336,-0.41062111801242257,-0.6946894409937887,-1.0946894409937888
7.519416149068324,-0.4263061746437714,-0.6868469126781143,-1.0868469126781144
7.527415527950311,-0.44199123127512024,-0.6790043843624398,-1.07900438436244
7.535414906832298,-0.45767628790646736,-0.6711618560467663,-1.0711618560467664
7.543414285714286,-0.47336134453781625,-0.6633193277310918,-1.063319327731092
7.551413664596274,-0.4890464011691651,-0.6554767994154174,-1.0554767994154175
7.559413043478261,-0.5047314578005122,-0.6476342710997438,-1.047634271099744
7.567412422360249,-0.5204165144318611,-0.6397917427840695,-1.0397917427840695
7.575411801242237,-0.5361015710632099,-0.631949214468395,-1.031949214468395
7.583411180124224,-0.551786627694557,-0.6241066861527215,-1.0241066861527215
7.591410559006212,-0.5674716843259059,-0.616264157837047,-1.016264157837047
7.5994099378882,-0.5831567409572547,-0.6084216295213726,-1.0084216295213726
7.607409316770187,-0.5988417975886018,-0.600579101205699,-1.000579101205699
7.6154086956521745,-0.6559130434782557,-0.11182608695651154,-0.8118260869565115
7.623408074534162,-0.5,0.10156951743908517,-0.5984304825609148
7.631407453416149,-0.5,0.1323363592928815,-0.5676636407071185
7.639406832298137,-0.5,0.16310320114668125,-0.5368967988533188
7.647406211180125,-0.5,0.193870043000481,-0.506129956999519
7.655405590062112,-0.5,0.22463688485427735,-0.47536311514572266
7.6634049689441,-0.5,0.2554037267080771,-0.4445962732919229
7.671404347826088,-0.5,0.28617056856187684,-0.4138294314381232
7.679403726708075,-0.5,0.31693741041567314,-0.3830625895843268
7.687403105590063,-0.5,0.34770425226947294,-0.3522957477305271
7.6954024844720506,-0.5,0.3784710941232726,-0.32152890587672733
7.7034018633540375,-0.3799068322981355,0.6602795031055936,0.10046583850932264
7.711401242236025,-0.4,1.2,1.2037376288307968
7.719400621118013,-0.4,1.2,1.2125281550747395
7.7274,-0.4,1.2,1.2213186813186814
7.735399378881988,-0.4,1.2,1.230109207562624
7.743398757763976,-0.4,1.2,1.2388997338065668
7.751398136645963,-0.4,1.2,1.2476902600505084
7.759397515527951,-0.4,1.2,1.2564807862944511
7.767396894409939,-0.4,1.2,1.2652713125383939
7.775396273291926,-0.4,1.2,1.2740618387823357
7.783395652173914,-0.4,1.2,1.2828523650262784
7.7913950310559015,-0.4,1.2,1.2916428912702211
7.7993944099378885,-0.3013975155279679,1.2,1.3
7.807393788819876,1.1393788819876491,1.0121242236024701,1.0121242236024701
7.815393167701864,1.3768921649330215,0.8922973883110072,0.8
7.823392546583851,1.3479787472872855,0.8826595824290953,0.8
7.831391925465839,1.3190653296415462,0.8730217765471822,0.8
7.839391304347827,1.2901519119958071,0.8633839706652691,0.8
7.847390683229814,1.261238494350071,0.8537461647833571,0.8
7.855390062111802,1.232325076704332,0.844108358901444,0.8
7.86338944099379,1.2034116590585926,0.8344705530195309,0.8
7.871388819875777,1.1744982414128566,0.8248327471376189,0.8
7.8793881987577645,1.1455848237671173,0.8151949412557058,0.8
7.887387577639752,1.116671406121378,0.8055571353737927,0.8
7.895386956521739,0.06782608695619041,0.6032608695650793,1.2580434782609524
7.903386335403727,-2.8092559523809753,-0.10080486542443266,1.2004024327122162
7.911385714285715,-3.0009077380952682,-0.11747023809524072,1.2087351190476203
7.919385093167702,-3.1925595238095394,-0.1341356107660469,1.2170678053830235
7.92738447204969,-3.384211309523832,-0.15080098343685497,1.2254004917184276
7.935383850931678,-3.5758630952381245,-0.16746635610766303,1.2337331780538314
7.943383229813665,-3.7675148809523957,-0.18413172877846923,1.2420658643892346
7.951382608695653,-3.9591666666666887,-0.20079710144927726,1.2503985507246387
7.959381987577641,-4.150818452380982,-0.21746247412008535,1.2587312370600428
7.967381366459628,-4.3424702380952525,-0.23412784679089155,1.2670639233954457
7.9753807453416155,-4.5341220238095445,-0.2507932194616996,1.2753966097308498
7.983380124223603,-4.7257738095238375,-0.26745859213250767,1.2837292960662539
7.99137950310559,-4.917425595238109,-0.2841239648033138,1.292061982401657
7.999378881987578,-5.175776397515711,-0.35683229813678374,1.2052795031053605
8.007378260869565,-4.288130434782487,-0.4724347826086829,0.9275652173913171
8.015377639751554,-1.7997653554174804,-0.13752933057281497,0.7249413388543701
8.023377018633541,-1.2444333306445168,-0.1907388884407528,0.5969129628135842
8.031376397515528,-1.0574348632733923,-0.15957247721223206,0.586524159070744
8.039375776397517,-0.8704363959022263,-0.1284060659837044,0.5761353553279014
8.047375155279504,-0.683437928531102,-0.09723965475518365,0.5657465515850612
8.05537453416149,-0.4964394611599775,-0.06607324352666291,0.5553577478422209
8.06337391304348,-0.3094409937888116,-0.03490683229813524,0.5449689440993783
8.071373291925466,-0.12244252641768716,-0.0037404210696145024,0.5345801403565382
8.079372670807453,0.06455594095343731,0.027425990158906233,0.5241913366136979
8.087372049689442,0.2515544083246033,0.05859240138743388,0.5138025328708553
8.095371428571429,0.43855287569572754,0.08975881261595464,0.5034137291280152
8.103370807453416,1.9854037267082691,0.3,0.3629192546583462
8.111370186335405,2.6863431677018577,0.5045522774327141,0.30455227743271407
8.119369565217392,2.6613451086956488,0.5128849637681172,0.3128849637681172
8.127368944099379,2.636347049689439,0.5212176501035203,0.32121765010352027
8.135368322981368,2.6113489906832243,0.5295503364389252,0.32955033643892523
8.143367701863355,2.586350931677015,0.5378830227743283,0.33788302277432836
8.151367080745342,2.5613528726708057,0.5462157091097315,0.34621570910973143
8.15936645962733,2.536354813664591,0.5545483954451363,0.3545483954451364
8.167365838509317,2.5113567546583813,0.5628810817805395,0.3628810817805395
8.175365217391304,2.4863586956521724,0.5712137681159426,0.37121376811594264
8.183364596273293,2.4613606366459573,0.5795464544513476,0.3795464544513476
8.19136397515528,2.436362577639748,0.5878791407867506,0.3878791407867507
8.199363354037267,2.4113645186335386,0.5962118271221537,0.3962118271221538
8.207362732919256,2.1,0.7,0.6
8.215362111801243,2.076251252254056,0.7,0.6
8.22336149068323,2.0504468042476462,0.7,0.6
8.231360869565219,2.0246423562412303,0.7,0.6
8.239360248447205,1.9988379082348207,0.7,0.6
8.247359627329192,1.9730334602284108,0.7,0.6
8.255359006211181,1.947229012221995,0.7,0.6
8.263358385093168,1.9214245642155852,0.7,0.6
8.271357763975155,1.967888198757759,0.5642236024844819,0.6678881987577591
8.279357142857144,1.3857142857136386,0.06428571428560645,0.6642857142856065
8.287356521739131,0.3161777353081703,-0.12794075489727658,0.45808886765408513
8.295355900621118,0.21069142038086858,-0.16310285987304382,0.4053457101904343
8.303355279503107,0.10520510545354345,-0.19826496484881886,0.3526025527267717
8.311354658385094,-0.00028120947375831484,-0.2334270698245861,0.2998593952631209
8.31935403726708,-0.10576752440105996,-0.2685891748003534,0.24711623779947
8.32735341614907,-0.21125383932838515,-0.30375127977612837,0.19437308033580747
8.335352795031056,-0.3167401542556869,-0.33891338475189564,0.1416299228721566
8.343352173913043,-0.42222646918298856,-0.3740754897276629,0.08888676540850576
8.351351552795032,-0.5277127841103137,-0.4092375947034379,0.03614360794484317
8.35935093167702,-0.6331990990376154,-0.4443996996792051,-0.01659954951880771
8.367350310559006,-0.7386854139649172,-0.47956180465497245,-0.06934270698245848
8.375349689440995,-1.3083917480035554,-0.7083917480035554,-0.758742236024888
8.383349068322982,-1.3369609582963655,-0.7369609582963657,-0.9587267080745593
8.391348447204969,-1.3655301685891756,-0.7655301685891758,-1.1587111801242305
8.399347826086958,-1.3940993788819922,-0.7940993788819923,-1.3586956521739464
8.407347204968945,-0.5012823698040876,-0.9,-1.824679407548978
8.415346583850932,-0.35360152890586916,-0.9,-1.8615996177735328
8.42334596273292,-0.20592068800761804,-0.9,-1.8985198279980955
8.431345341614907,-0.05823984710939967,-0.9,-1.9354400382226502
8.439344720496894,0.08944099378881865,-0.9,-1.9723602484472047
8.447344099378883,0.23712183468706982,-0.9,-2.0092804586717676
8.45534347826087,0.38480267558528813,-0.9,-2.046200668896322
8.463342857142857,0.5324835164835066,-0.9,-2.0831208791208766
8.471342236024846,0.4959937888193351,-1.0671118012422962,-2.0986645962731116
8.479341614906833,0.0,-1.0,-1.997018633540371
8.48734099378882,0.0,-1.0,-1.9792422360248443
8.495340372670809,0.0,-1.0,-1.9614658385093138
8.503339751552796,0.0,-1.0,-1.943689440993787
8.511339130434783,0.0,-1.0,-1.9259130434782605
8.519338509316771,0.0,-1.0,-1.9081366459627298
8.527337888198758,0.0,-1.0,-1.890360248447203
8.535337267080745,0.0,-1.0,-1.8725838509316766
8.543336645962734,0.0,-1.0,-1.8548074534161458
8.551336024844721,0.0,-1.0,-1.8370310559006193
8.559335403726708,0.0,-1.0,-1.8192546583850926
8.567334782608697,0.0,-1.0,-1.8014782608695619
8.575334161490684,0.47780538302277464,-1.0,-1.581463077984817
8.58333354037267,0.9988698810401102,-0.9988698810401102,-1.1977397620802204
8.59133291925466,0.9920907463943569,-0.9920907463943569,-1.1841814927887138
8.599332298136646,0.9853116117486052,-0.9853116117486052,-1.1706232234972103
8.607331677018633,0.9785324771028534,-0.9785324771028534,-1.1570649542057068
8.615331055900622,0.9717533424571001,-0.9717533424571001,-1.1435066849142002
8.62333043478261,0.9649742078113484,-0.9649742078113484,-1.1299484156226967
8.631329813664596,0.9581950731655966,-0.9581950731655966,-1.1163901463311932
8.639329192546585,0.9514159385198433,-0.9514159385198433,-1.1028318770396865
8.647328571428572,0.9446368038740915,-0.9446368038740915,-1.089273607748183
8.655327950310559,0.9378576692283398,-0.9378576692283398,-1.0757153384566795
8.663327329192548,0.9310785345825865,-0.9310785345825865,-1.062157069165173
8.671326708074535,0.9242993999368347,-0.9242993999368347,-1.0485987998736694
8.679326086956522,0.917520265291083,-0.917520265291083,-1.035040530582166
8.68732546583851,0.9107411306453297,-0.9107411306453297,-1.0214822612906593
8.695324844720497,0.9039619959995779,-0.9039619959995779,-1.0079239919991558
8.703324223602484,0.3792960662526068,-0.8558592132505214,-0.7117184265010428
8.711323602484473,-0.6040764955867955,-0.6979617522066022,-0.2979617522066022
8.71932298136646,-0.6181104936253692,-0.6909447531873154,-0.29094475318731544
8.727322360248447,-0.6321444916639427,-0.6839277541680286,-0.2839277541680286
8.735321739130436,-0.6461784897025193,-0.6769107551487402,-0.2769107551487403
8.743321118012423,-0.660212487741093,-0.6698937561294535,-0.26989375612945354
8.75132049689441,-0.6742464857796665,-0.6628767571101667,-0.2628767571101667
8.759319875776399,-0.6882804838182432,-0.6558597580908784,-0.2558597580908784
8.767319254658386,-0.7023144818568168,-0.6488427590715916,-0.24884275907159162
8.775318633540373,-0.7163484798953903,-0.6418257600523049,-0.24182576005230486
8.783318012422361,-0.730382477933967,-0.6348087610330164,-0.2348087610330165
8.791317391304348,-0.7444164759725406,-0.6277917620137297,-0.22779176201372975
8.799316770186335,-0.7584504740111142,-0.6207747629944429,-0.22077476299444293
8.807316149068324,-0.7724844720496908,-0.6137577639751546,-0.2137577639751546
8.815315527950311,-0.7865184700882644,-0.6067407649558678,-0.20674076495586785
8.823314906832298,-0.8034989648033068,-0.5965010351966932,-0.1965010351966932
8.831314285714287,-0.8923809523809564,-0.5076190476190436,-0.10761904761904367
8.839313664596274,-0.9,-0.42686335403726816,-0.1
8.84731304347826,-0.6,0.2011383399209499,0.10113833992094991
8.85531242236025,-0.6,0.2302269904009092,0.13022699040090918
8.863311801242236,-0.6,0.259315640880862,0.159315640880862
8.871311180124223,-0.6,0.28840429136081486,0.18840429136081482
8.879310559006212,-0.6,0.31749294184077415,0.2174929418407741
8.8873099378882,-0.6,0.34658159232072694,0.24658159232072693
8.895309316770186,-0.6,0.3756702428006798,0.27567024280067975
8.903308695652175,-0.6,0.4654347826087646,0.36543478260876455
8.911308074534162,0.30269565217392075,1.4007701863354058,1.7015403726708118
8.919307453416149,0.3726902173913068,1.4207686335403733,1.7415372670807467
8.927306832298138,0.44268478260870836,1.4407670807453452,1.7815341614906905
8.935306211180125,0.5126793478260945,1.4607655279503127,1.8215310559006255
8.943305590062112,0.5826739130434805,1.4807639751552801,1.8615279503105604
8.9513049689441,0.652668478260882,1.500762422360252,1.901524844720504
8.959304347826087,0.7226630434782682,1.5207608695652195,1.941521739130439
8.967303726708074,0.7926576086956542,1.540759316770187,1.9815186335403738
8.975303105590063,0.8626521739130557,1.5607577639751589,2.0215155279503176
8.98330248447205,0.9326467391304418,1.5807562111801263,2.0615124223602526
8.991301863354037,1.0754658385093445,1.5849068322981312,2.1
8.999301242236026,1.6934114317163211,0.8967057158581606,0.8967057158581606
9.007300621118013,1.6529082475037291,0.8764541237518646,0.8764541237518646
9.0153,1.612405063291137,0.8562025316455686,0.8562025316455686
9.023299378881989,1.5719018790785362,0.8359509395392681,0.8359509395392681
9.031298757763976,1.5313986948659442,0.8156993474329721,0.8156993474329721
9.039298136645963,1.4908955106533521,0.7954477553266761,0.7954477553266761
9.047297515527951,1.4503923264407512,0.7751961632203755,0.7751961632203755
9.055296894409938,1.4098891422281592,0.7549445711140796,0.7549445711140796
9.063296273291925,1.3693859580155672,0.7346929790077836,0.7346929790077836
9.071295652173914,1.3288827738029663,0.7144413869014831,0.7144413869014831
9.079295031055901,1.1278726708074354,0.6139363354037176,0.7
9.087294409937888,-1.2532919254658637,-0.12944099378882198,0.714720496894411
9.095293788819877,-4.955000403323398,-0.6,0.6068750504154246
9.103293167701864,-5.03811083326612,-0.6,0.6172638541582649
9.11129254658385,-5.121221263208842,-0.6,0.6276526579011051
9.11929192546584,-5.204331693151582,-0.6,0.6380414616439476
9.127291304347827,-5.287442123094304,-0.6,0.6484302653867879
9.135290683229814,-5.370552553037026,-0.6,0.6588190691296282
9.143290062111802,-5.4536629829797665,-0.6,0.6692078728724706
9.15128944099379,-5.5367734129224875,-0.6,0.679596676615311
9.159288819875776,-5.61988384286521,-0.6,0.6899854803581512
9.167288198757765,-5.656770186335234,-0.5855900621117447,0.7
9.175287577639752,-2.139615920902525,-0.19664532893902917,0.5966453289390291
9.183286956521739,-1.9926885536823542,-0.18848269742679746,0.5884826974267974
9.191286335403728,-1.8457611864621508,-0.18032006591456393,0.5803200659145639
9.199285714285715,-1.69883381924198,-0.17215743440233222,0.5721574344023322
9.207285093167702,-1.5519064520218095,-0.16399480289010054,0.5639948028901005
9.21528447204969,-1.4049790848016062,-0.155832171377867,0.555832171377867
9.223283850931677,-1.2580517175814356,-0.1476695398656353,0.5476695398656353
9.231283229813664,-1.111124350361265,-0.13950690835340362,0.5395069083534036
9.239282608695653,-0.9641969831410617,-0.13134427684117012,0.53134427684117
9.24728198757764,-0.817269615920891,-0.1231816453289384,0.5231816453289384
9.255281366459627,-0.6703422487007202,-0.11501901381670669,0.5150190138167067
9.263280745341616,-0.5234148814805171,-0.10685638230447317,0.5068563823044732
9.271280124223603,0.7840372670806854,0.11400621118011424,0.5
9.27927950310559,2.003416149068323,0.5,0.5
9.287278881987579,2.011748835403728,0.5,0.5
9.295278260869566,2.0200815217391312,0.5,0.5
9.303277639751553,2.028414208074534,0.5,0.5
9.311277018633541,2.036746894409939,0.5,0.5
9.319276397515528,2.0450795807453424,0.5,0.5
9.327275776397515,2.0534122670807453,0.5,0.5
9.335275155279504,2.0617449534161505,0.5,0.5
9.343274534161491,2.0700776397515535,0.5,0.5
9.351273913043478,2.0784103260869564,0.5,0.5
9.359273291925467,2.0867430124223616,0.5,0.5
9.367272670807454,2.0950756987577646,0.5,0.5
9.37527204968944,2.2,0.6054409937888158,0.5
9.38327142857143,1.9953484320557442,0.6,0.5015505226480853
9.391270807453417,1.966082411755792,0.6,0.5113058627480693
9.399270186335404,1.93681639145584,0.6,0.5210612028480534
9.407269565217392,1.9075503711558814,0.6,0.5308165429480395
9.41526894409938,1.8782843508559293,0.6,0.5405718830480236
9.423268322981366,1.849018330555977,0.6,0.5503272231480076
9.431267701863355,1.8197523102560185,0.6,0.5600825632479938
9.439267080745342,1.7904862899560663,0.6,0.5698379033479779
9.447266459627329,1.7612202696561141,0.6,0.5795932434479619
9.455265838509318,1.7319542493561557,0.6,0.5893485835479481
9.463265217391305,1.7026882290562035,0.6,0.5991039236479321
9.471264596273292,1.789689440993773,0.43677018633540904,0.4
9.47926397515528,1.8939466873705992,0.38789337474119845,0.38789337474119845
9.487263354037268,1.8872805383022768,0.3745610766045536,0.3745610766045536
9.495262732919254,1.8806143892339544,0.36122877846790874,0.36122877846790874
9.503262111801243,1.8739482401656304,0.3478964803312609,0.3478964803312609
9.51126149068323,1.867282091097308,0.33456418219461603,0.33456418219461603
9.519260869565217,1.8606159420289856,0.3212318840579712,0.3212318840579712
9.527260248447206,1.8539497929606616,0.3078995859213234,0.3078995859213234
9.535259627329193,1.8472836438923392,0.2945672877846785,0.2945672877846785
9.54325900621118,1.8406174948240168,0.2812349896480336,0.2812349896480336
9.551258385093169,1.8339513457556929,0.2679026915113858,0.2679026915113858
9.559257763975156,1.8272851966873704,0.25457039337474097,0.25457039337474097
9.567257142857143,1.820619047619048,0.24123809523809608,0.24123809523809608
9.575256521739131,1.813952898550724,0.22790579710144826,0.22790579710144826
9.583255900621118,1.8072867494824016,0.21457349896480338,0.21457349896480338
9.591255279503105,1.8006206004140792,0.20124120082815852,0.20124120082815852
9.599254658385094,1.609087937234379,0.08545276234062736,0.12363517489375159
9.607254037267081,1.3985779666557756,-0.04085322000653471,0.039431186662310214
9.615253416149068,0.5059937888199364,-0.3626708074533757,-0.5880124223601273
9.623252795031057,0.2,-0.7040659937888221,-1.5203299689441105
9.631252173913044,0.2,-0.7140652173913058,-1.5703260869565292
9.63925155279503,0.2,-0.7240644409937895,-1.6203222049689479
9.64725093167702,0.2,-0.7340636645962755,-1.6703183229813774
9.655250310559007,0.2,-0.7440628881987592,-1.720314440993796
9.663249689440994,0.2,-0.7540621118012429,-1.7703105590062147
9.671249068322982,0.2,-0.7640613354037289,-1.8203066770186445
9.67924844720497,0.2,-0.7740605590062126,-1.870302795031063
9.687247826086956,0.2,-0.7840597826086964,-1.9202989130434815
9.695247204968945,0.2,-0.7940590062111823,-1.9702950310559113
9.703246583850932,3.1616459627331497,-0.7,-2.2
9.711245962732919,2.572177462289267,-0.9046370896184556,-1.8814516415261777
9.719245341614908,2.5036113575865064,-0.9160647737355823,-1.8357409050576707
9.727244720496895,2.435045252883761,-0.9274924578527065,-1.790030168589174
9.735244099378882,2.366479148181016,-0.9389201419698308,-1.744319432120677
9.74324347826087,2.297913043478255,-0.9503478260869574,-1.69860869565217
9.751242857142858,2.22934693877551,-0.9617755102040817,-1.6528979591836732
9.759242236024845,2.1607808340727646,-0.9732031943212059,-1.6071872227151762
9.767241614906833,2.092214729370004,-0.9846308784383326,-1.5614764862466695
9.77524099378882,2.023648624667259,-0.9960585625554569,-1.5157657497781725
9.783240372670807,0.805931677018574,-1.0080124223602593,-1.0919875776397407
9.791239751552796,0.6119875776397893,-1.2,-0.7
9.799239130434783,0.6854903943377122,-1.2,-0.6927451971688561
9.80723850931677,0.666887187635417,-1.2,-0.6834435938177085
9.815237888198759,0.6482839809331176,-1.2,-0.6741419904665588
9.823237267080746,0.6296807742308224,-1.2,-0.6648403871154112
9.831236645962733,0.6110775675285272,-1.2,-0.6555387837642636
9.839236024844721,0.5924743608262277,-1.2,-0.6462371804131138
9.847235403726708,0.5738711541239325,-1.2,-0.6369355770619662
9.855234782608695,0.5552679474216373,-1.2,-0.6276339737108186
9.863234161490684,0.5366647407193379,-1.2,-0.6183323703596689
9.871233540372671,0.5180615340170427,-1.2,-0.6090307670085213
9.879232919254658,0.4301242236024977,-1.2,-0.5767080745341658
9.887232298136647,-0.214594131505682,-1.1963514671235795,-0.4963514671235795
9.895231677018634,-0.2421781966159816,-1.1894554508460047,-0.4894554508460046
9.903231055900621,-0.2697622617262812,-1.1825594345684296,-0.4825594345684297
9.91123043478261,-0.2973463268365869,-1.1756634182908532,-0.4756634182908533
9.919229813664597,-0.32493039194688655,-1.1687674020132783,-0.4687674020132784
9.927229192546584,-0.35251445705718615,-1.1618713857357035,-0.46187138573570347
9.935228571428572,-0.38009852216749185,-1.154975369458127,-0.45497536945812705
9.94322795031056,-0.4076825872777915,-1.1480793531805522,-0.44807935318055214
9.951227329192546,-0.4352666523880911,-1.1411833369029774,-0.44118333690297723
9.959226708074535,-0.4628507174983968,-1.134287320625401,-0.4342873206254008
9.967226086956522,-0.49043478260869644,-1.1273913043478259,-0.4273913043478259
9.975225465838509,-0.518018847718996,-1.120495288070251,-0.420495288070251
9.983224844720498,-0.5456029128293017,-1.1135992717926746,-0.4135992717926746
9.991224223602485,-0.5731869779396014,-1.1067032555150997,-0.40670325551509967
9.999223602484472,-0.6670807453414229,-1.077639751552859,-0.4
10.00722298136646,-1.316066252588017,-0.783933747411983,-0.3
10.015222360248448,-1.5037910120569966,-0.48862696382901,-0.2
10.023221739130435,-1.513202046035805,-0.460393861892585,-0.2
10.031221118012423,-1.5226130800146154,-0.43216075995615383,-0.2
10.03922049689441,-1.5320241139934236,-0.40392765801972885,-0.2
10.047219875776397,-1.5414351479722321,-0.37569455608330393,-0.2
10.055219254658386,-1.5508461819510424,-0.3474614541468727,-0.2
10.063218633540373,-1.560257215929851,-0.3192283522104477,-0.2
10.07121801242236,-1.5696682499086592,-0.29099525027402273,-0.2
10.079217391304349,-1.5790792838874697,-0.26276214833759154,-0.2
10.087216770186336,-1.588490317866278,-0.23452904640116656,-0.2
10.095216149068323,-1.5979013518450862,-0.20629594446474164,-0.2
10.103215527950312,-0.6461180124220762,0.7323291925467542,-0.2676708074532458
10.111214906832299,0.11158868184955255,1.2057943409247762,0.21738302277432883
10.119214285714285,0.1293650793650792,1.2146825396825396,0.24404761904761882
10.127213664596274,0.1471414768806098,1.223570738440305,0.2707122153209147
10.135213043478261,0.16491787439613648,1.2324589371980683,0.2973768115942047
10.143212422360248,0.18269427191166315,1.2413471359558315,0.3240414078674947
10.151211801242237,0.20047066942719374,1.2502353347135968,0.3507060041407906
10.159211180124224,0.2182470669427204,1.2591235334713602,0.3773706004140806
10.167210559006211,0.23602346445824707,1.2680117322291236,0.4040351966873706
10.1752099378882,0.2537998619737777,1.276899930986889,0.4306997929606665
10.183209316770187,0.2715762594893043,1.2857881297446523,0.4573643892339565
10.191208695652174,0.289352657004831,1.2946763285024154,0.4840289855072465
10.199208074534162,-0.010403726708126804,1.1,0.38959627329187324
10.20720745341615,-0.21287995943719387,1.0,0.40429331981239797
10.215206832298136,-0.23736785397388854,1.0,0.41245595132462953
10.223206211180125,-0.2618557485105886,1.0,0.4206185828368629
10.231205590062112,-0.2863436430472833,1.0,0.42878121434909444
10.239204968944101,-0.3108315375839834,1.0,0.43694384586132784
10.247204347826088,-0.33531943212067805,1.0,0.44510647737355935
10.255203726708075,-0.3598073266573727,1.0,0.4532691088857909
10.263203105590064,-0.38429522119407283,1.0,0.4614317403980243
10.27120248447205,-0.40878311573076753,1.0,0.4695943719102558
10.279201863354038,-0.4332710102674622,1.0,0.4777570034224874
10.287201242236026,-0.45775890480416226,1.0,0.4859196349347208
10.295200621118013,-0.4822467993408569,1.0,0.4940822664469523
10.3032,-0.5825000000000167,1.0,0.555000000000011
10.31119937888199,-0.6920248447204327,1.1019937888198919,1.1119627329193509
10.319198757763976,-0.3720496894409465,1.1819875776397633,1.5919254658385802
10.327198136645963,-0.6643963243427131,0.8786377946056279,2.3142414702629144
10.335197515527952,-0.6096060580277218,0.8457636348166332,2.336157576788911
10.343196894409939,-0.5548157917127429,0.8128894750276457,2.3580736833149025
10.351196273291926,-0.5000255253977638,0.7800153152386583,2.379989789840894
10.359195652173915,-0.44523525908277256,0.7471411554496635,2.4019058963668907
10.367195031055902,-0.39044499276779354,0.7142669956606761,2.4238220028928827
10.375194409937889,-0.33565472645281447,0.6813928358716886,2.4457381094188744
10.383193788819877,-0.2808644601378233,0.648518676082694,2.4676542159448704
10.391193167701864,-0.22607419382284422,0.6156445162937065,2.489570322470862
10.399192546583851,-3.072670807451747,0.4,2.0807453416148087
10.40719192546584,1.855757763975221,0.49423119392684367,1.5538495514147495
10.415191304347827,2.095739130434826,0.4853429951690805,1.482743961352644
10.423190683229814,2.3357204968944316,0.4764547964113174,1.411638371290539
10.431190062111803,2.57570186335409,0.46756659765355224,1.340532781228418
10.43918944099379,2.815683229813695,0.4586783988957891,1.2694271911663126
10.447188819875777,3.0556645962733002,0.44979020013802595,1.1983216011042073
10.455188198757766,3.2956459627329586,0.4409020013802608,1.1272160110420864
10.463187577639752,3.5356273291925637,0.43201380262249767,1.056110420979981
10.47118695652174,3.775608695652169,0.4231256038647345,0.9850048309178758
10.479186335403728,4.015590062111828,0.4142374051069694,0.9138992408557548
10.487185714285715,4.255571428571433,0.40534920634920624,0.8427936507936497
10.495185093167702,4.877763975155322,0.4530848861283691,0.4814906832297853
10.503184472049691,3.0991861527219524,0.299728717573984,-0.10027128242601596
10.511183850931678,3.063894775301421,0.28796492510047367,-0.1120350748995263
10.519183229813665,3.02860339788089,0.27620113262696333,-0.12379886737303665
10.527182608695654,2.993312020460351,0.26443734015345044,-0.13556265984654958
10.53518198757764,2.9580206430398204,0.2526735476799401,-0.14732645232005992
10.543181366459628,2.922729265619289,0.24090975520642974,-0.15909024479357026
10.551180745341616,2.8874378881987504,0.2291459627329168,-0.1708540372670832
10.559180124223603,2.852146510778219,0.21738217025940645,-0.18261782974059357
10.56717950310559,2.8168551333576883,0.20561837778589612,-0.1943816222141039
10.57517888198758,2.141055900621054,0.04105590062105386,-0.4
10.583178260869566,2.0887667984189706,-0.1,-0.5
10.591177639751553,2.074222473178994,-0.1,-0.5
10.599177018633542,2.0596781479390147,-0.1,-0.5
10.607176397515529,2.045133822699038,-0.1,-0.5
10.615175776397516,2.0305894974590615,-0.1,-0.5
10.623175155279505,2.016045172219082,-0.1,-0.5
10.631174534161492,2.0015008469791056,-0.1,-0.5
10.639173913043479,1.9869565217391292,-0.1,-0.5
10.647173291925467,1.9724121964991495,-0.1,-0.5
10.655172670807454,1.957867871259173,-0.1,-0.5
10.663172049689441,1.9433235460191967,-0.1,-0.5
10.67117142857143,1.928779220779217,-0.1,-0.5
10.679170807453417,1.9142348955392405,-0.1,-0.5
10.687170186335404,1.9170186335404606,-0.10850931677023042,-0.5
10.695169565217393,2.223391304347858,-0.26169565217392887,-0.5616956521739289
10.70316894409938,2.080194099378872,-0.5118835403726769,-0.7079223602484512
10.711168322981367,2.0301979813664532,-0.5418812111801281,-0.7279208074534187
10.719167701863356,1.9802018633540235,-0.571878881987586,-0.7479192546583906
10.727167080745343,1.930205745341605,-0.601876552795037,-0.7679177018633581
10.73516645962733,1.8802096273291864,-0.6318742236024882,-0.7879161490683255
10.743165838509318,1.8302135093167566,-0.6618718944099461,-0.8079145962732974
10.751165217391305,1.780217391304338,-0.6918695652173973,-0.8279130434782649
10.759164596273292,1.7302212732919195,-0.7218672360248484,-0.8479114906832322
10.767163975155281,1.6802251552794898,-0.7518649068323062,-0.8679099378882041
10.775163354037268,1.6302290372670711,-0.7818625776397574,-0.8879083850931716
10.783162732919255,0.8593167701861376,-1.016273291925545,-1.5244099378883174
10.791162111801244,-0.20566883805485162,-1.1985827904862871,-2.0028344190274256
10.79916149068323,-0.2446901984547878,-1.188827450386303,-2.022345099227394
10.807160869565218,-0.28371155885472393,-1.179072110286319,-2.041855779427362
10.815160248447206,-0.32273291925466874,-1.1693167701863327,-2.0613664596273344
10.823159627329193,-0.36175427965460494,-1.1595614300863488,-2.0808771398273027
10.83115900621118,-0.4007756400545411,-1.1498060899863647,-2.1003878200272705
10.83915838509317,-0.4397970004544859,-1.1400507498863786,-2.1198985002272432
10.847157763975156,-0.47881836085442203,-1.1302954097863944,-2.139409180427211
10.855157142857143,-0.5178397212543582,-1.1205400696864105,-2.1589198606271793
10.863156521739132,-0.556861081654303,-1.1107847295864244,-2.1784305408271516
10.871155900621119,-0.5958824420542392,-1.1010293894864402,-2.19794122102712
10.879155279503106,0.762111801242461,-0.6,-2.1534161490681543
10.887154658385095,1.1372638457556974,-0.6,-1.8776416925465815
10.895154037267082,1.1789272774327129,-0.6,-1.8526436335403722
10.903153416149069,1.2205907091097283,-0.6,-1.8276455745341629
10.911152795031057,1.2622541407867531,-0.6,-1.8026475155279482
10.919152173913044,1.3039175724637686,-0.6,-1.777649456521739
10.927151552795031,1.345581004140784,-0.6,-1.7526513975155296
10.93515093167702,1.3872444358178089,-0.6,-1.7276533385093147
10.943150310559007,1.4289078674948243,-0.6,-1.7026552795031054
10.951149689440994,1.4705712991718398,-0.6,-1.677657220496896
10.959149068322983,1.5122347308488646,-0.6,-1.6526591614906814
10.96714844720497,1.55389816252588,-0.6,-1.627661102484472
10.975147826086957,1.5955615942028958,-0.6,-1.6026630434782627
10.983147204968946,2.114720496894513,-0.7073602484472564,-1.0
10.991146583850933,2.3050798213644073,-0.8050798213644076,-1.0152394640932225
10.99914596273292,2.311690878291669,-0.8116908782916695,-1.0350726348750086
11.007145341614908,2.318301935218933,-0.8183019352189329,-1.0549058056567988
11.015144720496895,2.324912992146195,-0.8249129921461948,-1.0747389764385846
11.023144099378882,2.331524049073457,-0.8315240490734568,-1.0945721472203704
11.031143478260871,2.33813510600072,-0.8381351060007203,-1.1144053180021607
11.039142857142858,2.344746162927982,-0.8447461629279822,-1.1342384887839465
11.047142236024845,2.351357219855244,-0.8513572198552442,-1.1540716595657323
11.055141614906834,2.357968276782507,-0.8579682767825075,-1.1739048303475226
11.06314099378882,2.364579333709769,-0.8645793337097695,-1.1937380011293084
11.071140372670808,2.3711903906370315,-0.8711903906370314,-1.2135711719110942
11.079139751552797,2.377801447564295,-0.8778014475642948,-1.2334043426928845
11.087139130434783,2.3844125044915567,-0.8844125044915568,-1.2532375134746703
11.09513850931677,2.3910235614188187,-0.8910235614188188,-1.273070684256456
11.10313788819876,2.397634618346082,-0.8976346183460822,-1.2929038550382463
11.111137267080746,1.78795474711622,-0.9224090505767559,-1.622409050576756
11.119136645962733,1.5022626441881002,-0.97954747116238,-1.67954747116238
11.127136024844722,0.4921109385783159,-1.0015778122843368,-2.5047334368530105
11.135135403726709,0.4365596963422959,-1.012688060731541,-2.5380641821946224
11.143134782608696,0.38100845410627593,-1.0237983091787448,-2.571394927536234
11.151134161490685,0.32545721187024357,-1.0349085576259514,-2.6047256728778536
11.159133540372672,0.2699059696342236,-1.0460188060731552,-2.638056418219466
11.167132919254659,0.2143547273982036,-1.0571290545203593,-2.6713871635610777
11.175132298136647,0.15880348516217124,-1.0682393029675659,-2.704717908902697
11.183131677018634,0.10325224292615126,-1.0793495514147697,-2.738048654244309
11.191131055900621,0.04770100069013128,-1.0904597998619738,-2.7713793995859213
11.19913043478261,-0.05652173913049464,-1.0858695652173764,-2.8141304347826237
11.207129813664597,-0.3548074534161017,-1.0,-2.945192546583898
11.215129192546584,0.5935403726707882,-0.6870807453415765,-3.5064596273292117
11.223128571428573,0.4773015873015837,-0.48486772486772245,-3.5924338624338614
11.23112795031056,0.4476742581090391,-0.46511617207269274,-3.5825580860363466
11.239127329192547,0.41804692891649453,-0.445364619277663,-3.5726823096388314
11.247126708074536,0.3884195997239434,-0.4256130664826289,-3.5628065332413144
11.255126086956523,0.35879227053139884,-0.4058615136875992,-3.5529307568437996
11.26312546583851,0.3291649413388543,-0.3861099608925695,-3.5430549804462848
11.271124844720498,0.29953761214630314,-0.3663584080975354,-3.5331792040487677
11.279124223602485,0.2699102829537586,-0.3466068553025057,-3.523303427651253
11.287123602484472,0.240282953761214,-0.32685530250747596,-3.513427651253738
11.295122981366461,0.21065562456866288,-0.3071037497124419,-3.503551874856221
11.303122360248448,0.6081573498965447,0.05611801242240855,-3.3479606625258636
11.311121739130435,0.8,0.4,-3.3121739130435075
11.319121118012424,0.8450082206795827,0.4,-3.536006576543666
11.32712049689441,0.9038271830471344,0.4,-3.5830617464377075
11.335119875776398,0.9626461454146861,0.4,-3.630116916331749
11.343119254658387,1.0214651077822507,0.4,-3.6771720862258004
11.351118633540374,1.0802840701498027,0.4,-3.7242272561198417
11.35911801242236,1.1391030325173541,0.4,-3.771282426013883
11.36711739130435,1.197921994884919,0.4,-3.818337595907935
11.375116770186336,1.2567409572524708,0.4,-3.8653927658019764
11.383116149068323,1.8029037267081025,0.29419254658379523,-4.21161490683241
11.391115527950312,1.9,0.1,-4.558167701863316
11.399114906832299,1.8964606132307957,0.09823030661539794,-4.294690919846194
11.407114285714286,1.8710657596371865,0.08553287981859332,-4.25659863945578
11.415113664596275,1.8456709060435716,0.07283545302178589,-4.2185063590653575
11.423113043478262,1.8202760524499624,0.060138026224981274,-4.180414078674944
11.431112422360249,1.7948811988563533,0.04744059942817666,-4.14232179828453
11.439111801242237,1.7694863452627385,0.034743172631369224,-4.104229517894107
11.447111180124224,1.7440914916691292,0.022045745834564617,-4.0661372375036935
11.455110559006211,1.71869663807552,0.009348319037759997,-4.02804495711328
11.4631099378882,1.6945031055899509,-0.1,-3.7890062111799017
11.471109316770187,1.5785638008063605,-0.1,-3.5946409502015904
11.479108695652174,1.5504958047292132,-0.1,-3.5876239511823034
11.487108074534163,1.52242780865206,-0.1,-3.580606952163015
11.49510745341615,1.494359812574913,-0.1,-3.573589953143728
11.503106832298137,1.4662918164977656,-0.1,-3.5665729541244415
11.511106211180126,1.4382238204206124,-0.1,-3.559555955105153
11.519105590062113,1.410155824343465,-0.1,-3.5525389560858662
11.5271049689441,1.382087828266318,-0.1,-3.5455219570665797
11.535104347826088,1.3540198321891648,-0.1,-3.5385049580472914
11.543103726708075,1.3259518361120175,-0.1,-3.5314879590280044
11.551103105590062,1.2978838400348705,-0.1,-3.524470960008718
11.559102484472051,1.269815843957717,-0.1,-3.517453960989429
11.567101863354038,1.24174784788057,-0.1,-3.5104369619701425
11.575101242236025,1.2136798518034229,-0.1,-3.5034199629508556
11.583100621118014,1.5449689440993133,-0.05503105590068665,-3.444968944099313
11.5911,1.7061445783132536,-0.10614457831325366,-3.4061445783132536
11.599099378881988,1.7157823841951656,-0.11578238419516568,-3.4157823841951656
11.607098757763977,1.7254201900770798,-0.12542019007707983,-3.4254201900770798
11.615098136645964,1.7350579959589918,-0.13505799595899184,-3.4350579959589918
11.62309751552795,1.7446958018409038,-0.14469580184090386,-3.4446958018409037
11.63109689440994,1.754333607722818,-0.15433360772281798,-3.454333607722818
11.639096273291926,1.76397141360473,-0.16397141360473,-3.46397141360473
11.647095652173913,1.773609219486642,-0.173609219486642,-3.473609219486642
11.655095031055902,1.7832470253685562,-0.18324702536855617,-3.483247025368556
11.663094409937889,1.7928848312504682,-0.19288483125046818,-3.492884831250468
11.671093788819876,1.6018757763975329,-0.2018757763975327,-3.5
11.679093167701865,1.9093167701864568,-0.45465838509322837,-3.5
11.687092546583852,2.0186645962732945,-0.4953338509316763,-3.4906677018633525
11.695091925465839,2.039715593331155,-0.49007110166721124,-3.4801422033344225
11.703091304347828,2.06076659038902,-0.484808352402745,-3.46961670480549
11.711090683229815,2.0818175874468805,-0.4795456031382799,-3.4590912062765597
11.719090062111801,2.1028685845047406,-0.4742828538738148,-3.4485657077476297
11.72708944099379,2.123919581562606,-0.46902010460934856,-3.438040209218697
11.735088819875777,2.144970578620466,-0.4637573553448835,-3.427514710689767
11.743088198757764,2.1660215756783265,-0.45849460608041837,-3.4169892121608365
11.751087577639753,2.1870725727361915,-0.4532318568159521,-3.4064637136319043
11.75908695652174,2.208123569794052,-0.44796910755148706,-3.395938215102974
11.767086335403727,2.229174566851912,-0.442706358287022,-3.3854127165740437
11.775085714285716,2.250225563909777,-0.4374436090225557,-3.374887218045111
11.783085093167703,2.2712765609676375,-0.4321808597580906,-3.364361719516181
11.79108447204969,2.292327558025498,-0.42691811049362555,-3.353836220987251
11.799083850931678,2.313378555083363,-0.42165536122915925,-3.3433107224583183
11.807083229813665,2.334429552141223,-0.4163926119646942,-3.3327852239293883
11.815082608695652,2.3554805491990836,-0.4111298627002291,-3.322259725400458
11.823081987577641,2.3765315462569485,-0.40586711343576287,-3.3117342268715255
11.831081366459628,2.397582543314809,-0.40060436417129774,-3.3012087283425955
11.839080745341615,1.4,-0.5,-2.6639751552794886
11.847080124223604,1.80453347135956,-0.50453347135956,-2.29546652864044
11.85507950310559,1.8134216701173234,-0.5134216701173233,-2.2865783298826767
11.863078881987578,1.8223098688750865,-0.5223098688750866,-2.2776901311249134
11.871078260869567,1.8311980676328519,-0.5311980676328519,-2.268801932367148
11.879077639751554,1.8400862663906152,-0.5400862663906152,-2.259913733609385
11.88707701863354,1.8489744651483786,-0.5489744651483786,-2.2510255348516215
11.89507639751553,1.8578626639061437,-0.5578626639061438,-2.2421373360938563
11.903075776397516,1.866750862663907,-0.5667508626639072,-2.233249137336093
11.911075155279503,1.8756390614216705,-0.5756390614216705,-2.2243609385783296
11.919074534161492,1.8845272601794358,-0.5845272601794358,-2.2154727398205645
11.927073913043479,1.893415458937199,-0.5934154589371992,-2.206584541062801
11.935073291925466,1.865445134575564,-0.634554865424436,-2.182722567287782
11.943072670807455,1.7321221532090898,-0.7678778467909103,-2.116061076604545
11.951072049689442,1.2478385093167343,-1.050720496894422,-2.1
11.959071428571429,1.0,-1.0985714285714285,-1.9985714285714284
11.967070807453418,1.0,-1.0879055900621102,-1.98790559006211
11.975070186335405,1.0,-1.077239751552794,-1.977239751552794
11.983069565217392,1.0,-1.066573913043478,-1.9665739130434778
11.99106894409938,1.0,-1.0559080745341596,-1.9559080745341595
11.999068322981367,1.0,-1.0452422360248435,-1.9452422360248434
12.007067701863354,1.0,-1.0345763975155273,-1.9345763975155272
12.015067080745343,1.0,-1.0239105590062088,-1.9239105590062087
12.02306645962733,1.0,-1.0132447204968928,-1.9132447204968928
12.031065838509317,1.0,-1.0025788819875767,-1.9025788819875766
12.039065217391306,0.7467391304346958,-0.8467391304346957,-1.5467391304346958
12.047064596273293,0.47324442820606294,-0.8,-1.3910814760686876
12.05506397515528,0.4379530507855319,-0.8,-1.3793176835951773
12.063063354037268,0.4026616733649931,-0.8,-1.3675538911216643
12.071062732919255,0.3673702959444621,-0.8,-1.355790098648154
12.079062111801242,0.33207891852393107,-0.8,-1.3440263061746436
12.087061490683231,0.2967875411033922,-0.8,-1.3322625137011308
12.095060869565218,0.2614961636828612,-0.8,-1.3204987212276205
12.103060248447205,0.2262047862623302,-0.8,-1.3087349287541101
12.111059627329194,0.0,-0.7,-1.1880745341613352
12.119059006211181,-0.10548514352862261,-0.5,-0.7890297129427548
12.127058385093168,-0.1162951149907672,-0.5,-0.7674097700184657
12.135057763975157,-0.1271050864529142,-0.5,-0.7457898270941716
12.143057142857144,-0.13791505791505881,-0.5,-0.7241698841698825
12.15105652173913,-0.1487250293772034,-0.5,-0.7025499412455932
12.15905590062112,-0.1595350008393504,-0.5,-0.6809299983212992
12.167055279503106,-0.17034497230149498,-0.5,-0.65931005539701
12.175054658385093,-0.18115494376363958,-0.5,-0.6376901124727208
12.183054037267082,-0.19196491522578657,-0.5,-0.6160701695484269
12.19105341614907,-0.17066548358472627,-0.47066548358472626,-0.5706654835847262
12.199052795031056,0.0,-0.3,-0.3473602484471854
12.207052173913045,0.07052173913044477,-0.3,-0.3
12.215051552795032,0.1,-0.3,-0.2924603689626401
12.223050931677019,0.1,-0.3,-0.2805209974969876
12.231050310559008,0.1,-0.3,-0.26858162603133245
12.239049689440995,0.1,-0.3,-0.25664225456567996
12.247049068322982,0.1,-0.3,-0.24470288310002747
12.25504844720497,0.1,-0.3,-0.2327635116343723
12.263047826086957,0.1,-0.3,-0.22082414016871982
12.271047204968944,0.1,-0.3,-0.20888476870306733
12.279046583850933,0.1,-0.2,-0.2476708074533414
12.28704596273292,0.1,-0.09426595143986356,-0.2
12.295045341614907,0.1,-0.08517574816487827,-0.2
12.303044720496896,0.1,-0.07608554488989096,-0.2
12.311044099378883,0.1,-0.06699534161490567,-0.2
12.31904347826087,0.1,-0.05790513833992037,-0.2
12.327042857142859,0.1,-0.04881493506493306,-0.2
12.335042236024846,0.1,-0.039724731789947766,-0.2
12.343041614906832,0.1,-0.03063452851496247,-0.2
12.351040993788821,0.1,-0.021544325239975154,-0.2
12.359040372670808,0.1,-0.012454121964989864,-0.2
12.367039751552795,0.1,-0.0033639186900045748,-0.2
12.375039130434784,0.06536231884055363,0.1,-0.2
12.383038509316771,0.10271295474711624,0.2,-0.2
12.391037888198758,0.10985525732031891,0.2,-0.2
12.399037267080747,0.11699755989352315,0.2,-0.2
12.407036645962734,0.12413986246672581,0.2,-0.2
12.41503602484472,0.13128216503992846,0.2,-0.2
12.42303540372671,0.1384244676131327,0.2,-0.2
12.431034782608696,0.14556677018633538,0.2,-0.2
12.439034161490683,0.15270907275953804,0.2,-0.2
12.447033540372672,0.15985137533274227,0.2,-0.2
12.45503291925466,0.16699367790594494,0.2,-0.2
12.463032298136646,0.17413598047914758,0.2,-0.2
12.471031677018635,0.18127828305235183,0.2,-0.2
12.479031055900622,0.1884205856255545,0.2,-0.2
12.487030434782609,0.19556288819875717,0.2,-0.2
12.495029813664598,0.048509316770123836,0.3,-0.25149068322987617
12.503029192546585,0.0,0.3,-0.3
12.511028571428572,0.0,0.3,-0.3
12.51902795031056,0.0,0.3,-0.3
12.527027329192547,0.0,0.3,-0.3
12.535026708074534,0.0,0.3,-0.3
12.543026086956523,0.0,0.3,-0.3
12.55102546583851,0.0,0.3,-0.3
12.559024844720497,0.0,0.3,-0.3
12.567024223602486,0.0,0.3,-0.3
12.575023602484473,0.0,0.3,-0.3
12.58302298136646,0.0,0.3,-0.3
12.591022360248449,0.0,0.3,-0.3
12.599021739130436,0.0,0.3,-0.3
12.607021118012423,0.0,0.3,-0.3
12.615020496894411,0.0,0.3,-0.3
12.623019875776398,0.0,0.3,-0.3
12.631019254658385,-0.10849378881987164,0.3,-0.2
12.639018633540374,-0.17515527950311865,0.3,-0.2
12.647018012422361,-0.2,0.3043114463176584,-0.2
12.655017391304348,-0.2,0.3157391304347826,-0.2
12.663016770186337,-0.2,0.3271668145519094,-0.2
12.671016149068324,-0.2,0.3385944986690336,-0.2
12.67901552795031,-0.2,0.3500221827861578,-0.2
12.6870149068323,-0.2,0.36144986690328457,-0.2
12.695014285714286,-0.2,0.37287755102040876,-0.2
12.703013664596273,-0.2,0.384305235137533,-0.2
12.711013043478262,-0.2,0.39573291925465975,-0.2
12.71901242236025,-0.1,0.3493788819875553,-0.2
12.727011801242236,0.0,0.3,-0.09695181629964164
12.735011180124225,0.0,0.3,-0.08483154526632547
12.743010559006212,0.0,0.3,-0.07271127423301199
12.751009937888199,0.0,0.3,-0.0605910031996985
12.759009316770188,0.0,0.3,-0.04847073216638233
12.767008695652175,0.0,0.3,-0.03635046113306885
12.775008074534162,0.0,0.3,-0.02423019009975537
12.78300745341615,0.0,0.3,-0.012109919066439184
12.791006832298137,0.0,0.29965838509314846,0.0003416149068515512
12.799006211180124,0.0,0.2,0.18580301685891254
12.807005590062113,0.0,0.1,0.3
12.8150049689441,0.0,0.1,0.3
12.823004347826087,0.0,0.1,0.3
12.831003726708076,0.0,0.1,0.3
12.839003105590063,0.0,0.1,0.3
12.84700248447205,0.0,0.1,0.3
12.855001863354039,0.0,0.1,0.3
12.863001242236026,0.0,0.1,0.3
12.871000621118013,0.0,0.1,0.3
12.879,0.0,0.0,0.2
