accel_time_list,accel_x_list,accel_y_list,accel_z_list
0.0,-0.9,0.9,9.9
0.008,-0.7,1.3,7.4
0.016,-1.4583333333333333,1.5583333333333333,10.033333333333333
0.024,-1.525,1.510714285714286,10.071428571428571
0.032,-1.5916666666666666,1.4630952380952382,10.10952380952381
0.04,-1.6583333333333332,1.4154761904761906,10.147619047619047
0.048,-1.725,1.3678571428571429,10.185714285714285
0.056,-1.7916666666666667,1.3202380952380954,10.223809523809525
0.064,-1.8583333333333334,1.2726190476190478,10.261904761904763
0.07200000000000001,-1.9250000000000003,1.225,10.3
0.08,-1.9916666666666667,1.1773809523809524,10.338095238095239
0.088,-2.0583333333333336,1.129761904761905,10.376190476190477
0.096,-1.6499999999999995,1.2500000000000002,10.22
0.10400000000000001,-1.0500000000000063,1.9000000000000044,9.549999999999997
0.112,-1.863157894736842,1.6736842105263157,9.605263157894736
0.12,-1.8140350877192981,1.6385964912280702,9.612280701754386
0.128,-1.7649122807017543,1.6035087719298244,9.619298245614035
0.136,-1.7157894736842103,1.568421052631579,9.626315789473685
0.14400000000000002,-1.6666666666666665,1.5333333333333332,9.633333333333333
0.152,-1.6175438596491227,1.4982456140350877,9.640350877192981
0.16,-1.568421052631579,1.463157894736842,9.647368421052631
0.168,-1.519298245614035,1.4280701754385965,9.65438596491228
0.176,-1.4701754385964911,1.3929824561403508,9.66140350877193
0.184,-1.4210526315789473,1.3578947368421053,9.668421052631578
0.192,-1.3719298245614033,1.3228070175438595,9.675438596491228
0.2,-1.3228070175438595,1.287719298245614,9.682456140350876
0.20800000000000002,-1.2736842105263158,1.2526315789473683,9.689473684210526
0.216,-1.2245614035087717,1.2175438596491228,9.696491228070174
0.224,-1.0,1.25,9.9
0.232,-0.9,1.4189473684210525,9.306315789473684
0.24,-0.9,1.4442105263157894,9.314736842105264
0.248,-0.9,1.4694736842105263,9.323157894736843
0.256,-0.9,1.4947368421052631,9.331578947368422
0.264,-0.9,1.52,9.34
0.272,-0.9,1.545263157894737,9.34842105263158
0.28,-0.9,1.5705263157894738,9.356842105263159
0.28800000000000003,-0.9,1.5957894736842106,9.365263157894738
0.296,-0.9,1.6210526315789473,9.373684210526315
0.304,-0.9,1.6463157894736842,9.382105263157895
0.312,-0.9,1.671578947368421,9.390526315789474
0.32,-0.9,1.696842105263158,9.398947368421053
0.328,-0.8,1.75,9.75
0.336,-0.4141176470588236,1.5858823529411765,9.70235294117647
0.34400000000000003,-0.47058823529411775,1.5294117647058822,9.711764705882352
0.352,-0.5270588235294116,1.4729411764705884,9.721176470588235
0.36,-0.5835294117647057,1.4164705882352944,9.730588235294118
0.368,-0.6399999999999999,1.36,9.74
0.376,-0.6964705882352942,1.303529411764706,9.749411764705883
0.384,-0.7529411764705882,1.2470588235294118,9.758823529411766
0.392,-0.8094117647058825,1.1905882352941175,9.768235294117646
0.4,-0.8658823529411767,1.1341176470588232,9.77764705882353
0.40800000000000003,-0.9223529411764708,1.077647058823529,9.787058823529412
0.41600000000000004,-0.9788235294117651,1.021176470588235,9.796470588235294
0.424,-1.2,2.6,10.3
0.432,-1.5260869565217392,2.0478260869565217,9.865217391304348
0.44,-1.5608695652173914,1.9782608695652173,9.818840579710145
0.448,-1.5956521739130436,1.908695652173913,9.772463768115943
0.456,-1.6304347826086958,1.8391304347826085,9.726086956521739
0.464,-1.665217391304348,1.7695652173913041,9.679710144927537
0.47200000000000003,-1.7000000000000002,1.6999999999999997,9.633333333333333
0.48,-1.7347826086956522,1.6304347826086958,9.58695652173913
0.488,-1.7695652173913043,1.5608695652173914,9.540579710144927
0.496,-1.7,1.1,9.0
0.504,-1.6400000000000001,1.92,8.04
0.512,-1.6062500000000002,2.05,7.9875
0.52,-1.6133928571428573,2.107142857142857,7.973214285714286
0.528,-1.6205357142857144,2.1642857142857146,7.958928571428571
0.536,-1.6276785714285715,2.2214285714285715,7.944642857142857
0.544,-1.6348214285714286,2.278571428571429,7.930357142857143
0.552,-1.6419642857142858,2.335714285714286,7.916071428571429
0.56,-1.6491071428571429,2.3928571428571432,7.901785714285714
0.5680000000000001,-1.65625,2.45,7.8875
0.5760000000000001,-1.6633928571428571,2.5071428571428576,7.873214285714285
0.584,-1.6705357142857142,2.564285714285714,7.858928571428572
0.592,-1.6776785714285714,2.621428571428571,7.844642857142857
0.6,-1.6848214285714285,2.6785714285714284,7.830357142857142
0.608,-1.6919642857142856,2.7357142857142858,7.816071428571428
0.616,-1.6991071428571427,2.7928571428571427,7.801785714285714
0.624,-2.504040404040404,1.7898989898989899,8.002020202020201
0.632,-2.5202020202020203,1.7494949494949494,8.01010101010101
0.64,-2.5363636363636366,1.709090909090909,8.018181818181818
0.648,-2.5525252525252524,1.6686868686868686,8.026262626262627
0.656,-2.5686868686868687,1.628282828282828,8.034343434343434
0.664,-2.584848484848485,1.5878787878787877,8.042424242424243
0.672,-2.601010101010101,1.5474747474747472,8.05050505050505
0.68,-2.6171717171717175,1.5070707070707068,8.05858585858586
0.6880000000000001,-2.6333333333333337,1.4666666666666663,8.066666666666666
0.6960000000000001,-2.64949494949495,1.426262626262626,8.074747474747475
0.704,-2.665656565656566,1.385858585858586,8.082828282828283
0.712,-2.681818181818182,1.3454545454545455,8.09090909090909
0.72,-2.6979797979797984,1.305050505050505,8.098989898989899
0.728,-3.2,1.1,8.3
0.736,-3.28,0.9400000000000001,8.700000000000001
0.744,-3.321951219512195,0.9073170731707317,8.821951219512195
0.752,-3.351219512195122,0.9170731707317074,8.851219512195122
0.76,-3.3804878048780487,0.926829268292683,8.88048780487805
0.768,-3.4097560975609755,0.9365853658536586,8.909756097560976
0.776,-3.4390243902439024,0.9463414634146342,8.939024390243903
0.784,-3.4682926829268297,0.9560975609756098,8.96829268292683
0.792,-3.4975609756097565,0.9658536585365854,8.997560975609757
0.8,-3.5268292682926834,0.9756097560975611,9.026829268292683
0.808,-3.5560975609756103,0.9853658536585367,9.05609756097561
0.8160000000000001,-3.585365853658537,0.9951219512195123,9.085365853658537
0.8240000000000001,-3.6500000000000057,0.3999999999999889,8.9
0.8320000000000001,-3.8,0.3,9.021739130434783
0.84,-3.8,0.3,9.056521739130435
0.848,-3.8,0.3,9.091304347826087
0.856,-3.8,0.3,9.126086956521739
0.864,-3.8,0.3,9.160869565217391
0.872,-3.8,0.3,9.195652173913043
0.88,-3.8,0.3,9.230434782608695
0.888,-3.8,0.3,9.265217391304349
0.896,-3.8,0.3,9.3
0.904,-3.8,0.3,9.334782608695653
0.912,-3.8,0.3,9.369565217391305
0.92,-3.8,0.2,9.4
0.928,-3.8,-1.1,9.3
0.936,-3.813333333333333,-1.2933333333333334,9.006666666666666
0.9440000000000001,-3.831111111111111,-1.2844444444444445,9.015555555555556
0.9520000000000001,-3.848888888888889,-1.2755555555555556,9.024444444444445
0.96,-3.8666666666666663,-1.2666666666666668,9.033333333333333
0.968,-3.884444444444444,-1.2577777777777779,9.042222222222222
0.976,-3.902222222222222,-1.248888888888889,9.05111111111111
0.984,-3.92,-1.24,9.06
0.992,-3.937777777777778,-1.231111111111111,9.068888888888889
1.0,-3.9555555555555553,-1.2222222222222223,9.077777777777778
1.008,-3.973333333333333,-1.2133333333333334,9.086666666666666
1.016,-3.991111111111111,-1.2044444444444444,9.095555555555555
1.024,-4.414285714285716,-0.9428571428571374,9.085714285714284
1.032,-4.904545454545455,-0.5022727272727275,8.802272727272728
1.04,-4.940909090909091,-0.5204545454545457,8.820454545454547
1.048,-4.977272727272728,-0.5386363636363639,8.838636363636365
1.056,-5.013636363636365,-0.5568181818181821,8.856818181818182
1.064,-5.050000000000001,-0.5750000000000002,8.875
1.072,-5.086363636363637,-0.5931818181818185,8.89318181818182
1.08,-5.122727272727273,-0.6113636363636366,8.911363636363637
1.088,-5.15909090909091,-0.6295454545454547,8.929545454545455
1.096,-5.195454545454546,-0.6477272727272729,8.947727272727272
1.104,-5.231818181818182,-0.6659090909090911,8.965909090909092
1.112,-5.2681818181818185,-0.6840909090909093,8.98409090909091
1.12,-5.450000000000016,-0.7,9.050000000000006
1.1280000000000001,-5.733333333333334,-0.6,8.933333333333332
1.1360000000000001,-5.786666666666668,-0.6,8.826666666666664
1.1440000000000001,-6.115189873417722,-0.8898734177215185,8.479746835443036
1.1520000000000001,-6.145569620253165,-0.8696202531645565,8.439240506329114
1.16,-6.175949367088608,-0.849367088607595,8.39873417721519
1.168,-6.20632911392405,-0.829113924050633,8.358227848101265
1.176,-6.236708860759493,-0.808860759493671,8.317721518987343
1.184,-6.267088607594936,-0.7886075949367091,8.277215189873418
1.192,-6.2974683544303796,-0.768354430379747,8.236708860759494
1.2,-6.327848101265823,-0.748101265822785,8.19620253164557
1.208,-6.358227848101266,-0.727848101265823,8.155696202531646
1.216,-6.388607594936709,-0.707594936708861,8.115189873417721
1.224,-6.6,-0.4,7.5
1.232,-6.910227272727273,-0.9068181818181816,6.306818181818182
1.24,-6.9375,-0.9249999999999998,6.324999999999999
1.248,-6.964772727272727,-0.9431818181818181,6.343181818181818
1.256,-6.992045454545455,-0.9613636363636363,6.361363636363636
1.264,-7.019318181818182,-0.9795454545454545,6.379545454545454
1.272,-7.046590909090909,-0.9977272727272728,6.3977272727272725
1.28,-7.073863636363637,-1.015909090909091,6.415909090909091
1.288,-7.101136363636364,-1.0340909090909092,6.4340909090909095
1.296,-7.128409090909091,-1.0522727272727275,6.452272727272727
1.304,-7.155681818181819,-1.0704545454545458,6.470454545454546
1.312,-7.182954545454546,-1.0886363636363638,6.488636363636364
1.32,-7.5,-1.4,6.349999999999994
1.328,-7.507,-1.3929999999999998,6.279
1.336,-7.515,-1.3849999999999998,6.255
1.344,-7.523,-1.3769999999999998,6.231
1.352,-7.531,-1.3689999999999998,6.207
1.36,-7.539,-1.3609999999999998,6.183
1.368,-7.547,-1.3529999999999998,6.159
1.3760000000000001,-7.555,-1.345,6.135
1.3840000000000001,-7.563,-1.337,6.111
1.3920000000000001,-7.571,-1.329,6.087
1.4000000000000001,-7.579,-1.321,6.063
1.408,-7.587,-1.3130000000000002,6.039000000000001
1.416,-7.595,-1.3050000000000002,6.015000000000001
1.424,-8.349999999999971,-1.1,5.650000000000006
1.432,-8.803370786516854,-1.0,4.598876404494382
1.44,-8.830337078651686,-1.0,4.589887640449438
1.448,-8.857303370786518,-1.0,4.580898876404494
1.456,-8.884269662921348,-1.0,4.57191011235955
1.464,-8.91123595505618,-1.0,4.562921348314607
1.472,-8.938202247191011,-1.0,4.5539325842696625
1.48,-8.965168539325843,-1.0,4.544943820224719
1.488,-8.992134831460675,-1.0,4.535955056179775
1.496,-9.019101123595506,-1.0,4.526966292134832
1.504,-9.046067415730336,-1.0,4.5179775280898875
1.512,-9.073033707865168,-1.0,4.508988764044944
1.52,-9.1,-1.0,4.5
1.528,-9.463636363636365,-1.0545454545454551,4.3
1.536,-9.9,-0.6,4.7
1.544,-10.102631578947369,-0.8052631578947375,4.501315789473685
1.552,-10.123684210526315,-0.8473684210526322,4.511842105263158
1.56,-10.144736842105264,-0.889473684210527,4.522368421052632
1.568,-10.16578947368421,-0.9315789473684216,4.532894736842105
1.576,-10.186842105263159,-0.9736842105263164,4.543421052631579
1.584,-10.207894736842105,-1.015789473684211,4.553947368421053
1.592,-10.228947368421053,-1.0578947368421059,4.564473684210526
1.6,-10.25,-1.1000000000000005,4.575
1.608,-10.271052631578948,-1.1421052631578954,4.5855263157894735
1.616,-10.292105263157895,-1.18421052631579,4.596052631578948
1.624,-10.4,-0.4989583333333332,6.197916666666667
1.6320000000000001,-10.4,-0.49062499999999987,6.18125
1.6400000000000001,-10.4,-0.48229166666666656,6.164583333333333
1.6480000000000001,-10.4,-0.4739583333333332,6.147916666666666
1.6560000000000001,-10.4,-0.4656249999999999,6.13125
1.6640000000000001,-10.4,-0.45729166666666654,6.114583333333333
1.672,-10.4,-0.44895833333333346,6.097916666666667
1.68,-10.4,-0.44062500000000016,6.081250000000001
1.688,-10.4,-0.4322916666666668,6.064583333333333
1.696,-10.4,-0.4239583333333335,6.047916666666667
1.704,-10.4,-0.41562500000000013,6.03125
1.712,-10.4,-0.40729166666666683,6.014583333333333
1.72,-10.4,-0.35000000000000553,5.900000000000011
1.728,-9.291397849462367,-0.20215053763440863,5.497849462365592
1.736,-9.256989247311829,-0.21075268817204304,5.489247311827957
1.744,-9.22258064516129,-0.21935483870967745,5.480645161290322
1.752,-9.188172043010754,-0.22795698924731186,5.472043010752688
1.76,-9.153763440860216,-0.23655913978494628,5.463440860215054
1.768,-9.119354838709677,-0.24516129032258072,5.45483870967742
1.776,-9.08494623655914,-0.25376344086021513,5.446236559139785
1.784,-9.050537634408602,-0.26236559139784954,5.43763440860215
1.792,-9.016129032258064,-0.27096774193548395,5.429032258064517
1.8,-8.981720430107528,-0.27956989247311836,5.420430107526882
1.808,-8.94731182795699,-0.2881720430107528,5.411827956989248
1.816,-8.912903225806451,-0.2967741935483872,5.403225806451613
1.824,-8.3,-0.3,5.3
1.832,-8.406451612903226,-0.9064516129032258,5.0
1.84,-8.415053763440861,-0.9150537634408602,5.0
1.848,-8.423655913978495,-0.9236559139784947,5.0
1.856,-8.432258064516128,-0.9322580645161291,5.0
1.864,-8.440860215053764,-0.9408602150537635,5.0
1.872,-8.449462365591398,-0.949462365591398,5.0
1.8800000000000001,-8.458064516129033,-0.9580645161290323,5.0
1.8880000000000001,-8.466666666666667,-0.9666666666666668,5.0
1.8960000000000001,-8.4752688172043,-0.9752688172043011,5.0
1.9040000000000001,-8.483870967741936,-0.9838709677419356,5.0
1.9120000000000001,-8.49247311827957,-0.99247311827957,5.0
1.92,-8.5,-0.7500000000000278,5.0499999999999945
1.928,-8.422222222222222,-0.03333333333333499,5.255555555555555
1.936,-8.8,0.3976470588235294,5.3
1.944,-8.8,0.38823529411764707,5.3
1.952,-8.8,0.3788235294117647,5.3
1.96,-8.8,0.3694117647058824,5.3
1.968,-8.8,0.36000000000000004,5.3
1.976,-8.8,0.3505882352941177,5.3
1.984,-8.8,0.34117647058823536,5.3
1.992,-8.8,0.331764705882353,5.3
2.0,-8.8,0.3223529411764707,5.3
2.008,-8.8,0.31294117647058833,5.3
2.016,-8.8,0.303529411764706,5.3
2.024,-8.2,-0.6,4.6
2.032,-8.3,-0.7,4.5
2.04,-8.3,-0.6632183908045977,4.527586206896552
2.048,-8.3,-0.6264367816091955,4.555172413793104
2.056,-8.3,-0.5896551724137932,4.582758620689655
2.064,-8.3,-0.552873563218391,4.610344827586207
2.072,-8.3,-0.5160919540229887,4.637931034482758
2.08,-8.3,-0.47931034482758644,4.66551724137931
2.088,-8.3,-0.4425287356321842,4.693103448275862
2.096,-8.3,-0.40574712643678196,4.720689655172413
2.104,-8.3,-0.3689655172413797,4.748275862068965
2.112,-8.3,-0.33218390804597747,4.775862068965517
2.12,-8.450000000000001,-0.04999999999999999,4.8500000000000005
2.128,-8.933333333333339,0.4333333333333234,4.066666666666654
2.136,-9.0,0.25955056179775127,3.893258426966292
2.144,-9.0,0.20561797752808825,3.884269662921348
2.152,-9.0,0.15168539325842528,3.875280898876404
2.16,-9.0,0.09775280898876229,3.8662921348314603
2.168,-9.0,0.0438202247190993,3.8573033707865165
2.176,-9.0,-0.010112359550563665,3.8483146067415728
2.184,-9.0,-0.06404494382022669,3.8393258426966286
2.192,-9.0,-0.11797752808988965,3.830337078651685
2.2,-9.0,-0.17191011235955267,3.821348314606741
2.208,-9.0,-0.2258426966292157,3.8123595505617973
2.216,-9.0,-0.27977528089887865,3.8033707865168536
2.224,-8.779999999999992,0.16000000000002135,3.9600000000000035
2.232,-8.906122448979593,0.3938775510204075,3.797959183673469
2.24,-8.93061224489796,0.3693877551020401,3.7897959183673464
2.248,-8.955102040816328,0.34489795918367266,3.7816326530612243
2.2560000000000002,-8.979591836734695,0.3204081632653053,3.7734693877551018
2.2640000000000002,-9.004081632653062,0.2959183673469379,3.765306122448979
2.2720000000000002,-9.02857142857143,0.27142857142857046,3.7571428571428567
2.2800000000000002,-9.053061224489797,0.24693877551020305,3.7489795918367346
2.2880000000000003,-9.077551020408164,0.22244897959183565,3.740816326530612
2.2960000000000003,-9.10204081632653,0.19795918367346824,3.7326530612244895
2.3040000000000003,-9.126530612244899,0.17346938775510085,3.724489795918367
2.312,-9.151020408163264,0.14897959183673476,3.7163265306122453
2.32,-9.175510204081633,0.1244897959183674,3.7081632653061227
2.328,-9.2,0.09999999999999998,3.7
2.336,-9.466666666666656,-0.25555555555554244,3.4333333333333433
2.344,-9.197402597402597,0.2,3.902597402597402
2.352,-9.187012987012986,0.2,3.9129870129870126
2.36,-9.176623376623377,0.2,3.923376623376623
2.368,-9.166233766233766,0.2,3.9337662337662334
2.376,-9.155844155844155,0.2,3.9441558441558437
2.384,-9.145454545454545,0.2,3.954545454545454
2.392,-9.135064935064936,0.2,3.9649350649350645
2.4,-9.124675324675325,0.2,3.975324675324675
2.408,-9.114285714285714,0.2,3.9857142857142853
2.416,-9.103896103896103,0.2,3.9961038961038957
2.424,-8.839999999999996,0.35999999999999466,3.8399999999999963
2.432,-9.2,1.0044943820224714,4.0
2.44,-9.2,1.0224719101123592,4.0
2.448,-9.2,1.0404494382022467,4.0
2.456,-9.2,1.0584269662921344,4.0
2.464,-9.2,1.0764044943820221,4.0
2.472,-9.2,1.0943820224719096,4.0
2.48,-9.2,1.1123595505617974,4.0
2.488,-9.2,1.130337078651685,4.0
2.496,-9.2,1.1483146067415726,4.0
2.504,-9.2,1.1662921348314603,4.0
2.512,-9.2,1.184269662921348,4.0
2.52,-9.149999999999999,1.2,3.95
2.528,-8.8,0.4956989247311823,3.5956989247311824
2.536,-8.8,0.47849462365591355,3.5784946236559136
2.544,-8.8,0.46129032258064484,3.561290322580645
2.552,-8.8,0.44408602150537607,3.544086021505376
2.56,-8.8,0.4268817204301073,3.5268817204301075
2.568,-8.8,0.40967741935483853,3.509677419354839
2.576,-8.8,0.39247311827956977,3.4924731182795696
2.584,-8.8,0.37526881720430105,3.475268817204301
2.592,-8.8,0.3580645161290323,3.458064516129032
2.6,-8.8,0.3408602150537635,3.4408602150537635
2.608,-8.8,0.3236559139784948,3.423655913978495
2.616,-8.8,0.306451612903226,3.406451612903226
2.624,-8.7,0.0,3.6
2.632,-9.106451612903225,0.21290322580645213,3.712903225806452
2.64,-9.11505376344086,0.23010752688172095,3.730107526881721
2.648,-9.123655913978494,0.2473118279569898,3.74731182795699
2.656,-9.13225806451613,0.26451612903225863,3.7645161290322586
2.664,-9.140860215053763,0.28172043010752745,3.7817204301075273
2.672,-9.149462365591397,0.2989247311827963,3.7989247311827965
2.68,-9.158064516129032,0.31612903225806516,3.816129032258065
2.688,-9.166666666666666,0.333333333333334,3.833333333333334
2.696,-9.175268817204302,0.35053763440860286,3.8505376344086026
2.704,-9.183870967741935,0.3677419354838717,3.867741935483872
2.712,-9.192473118279569,0.3849462365591405,3.8849462365591405
2.72,-9.25000000000001,0.3499999999999889,3.950000000000011
2.728,-9.7,-0.4,3.3
2.736,-9.792222222222223,-1.4311111111111117,3.0311111111111115
2.744,-9.783333333333333,-1.4666666666666672,3.0666666666666673
2.7520000000000002,-9.774444444444445,-1.502222222222223,3.102222222222223
2.7600000000000002,-9.765555555555556,-1.5377777777777786,3.1377777777777784
2.7680000000000002,-9.756666666666666,-1.5733333333333341,3.1733333333333342
2.7760000000000002,-9.747777777777777,-1.60888888888889,3.20888888888889
2.7840000000000003,-9.738888888888889,-1.6444444444444455,3.2444444444444454
2.7920000000000003,-9.729999999999999,-1.680000000000001,3.280000000000001
2.8000000000000003,-9.72111111111111,-1.7155555555555568,3.315555555555557
2.8080000000000003,-9.712222222222222,-1.7511111111111124,3.3511111111111123
2.816,-9.703333333333333,-1.7866666666666662,3.3866666666666663
2.824,-9.2,-1.3,4.3
2.832,-9.11,0.8199999999999978,6.180000000000002
2.84,-9.136666666666665,0.8733333333333313,6.126666666666669
2.848,-9.163333333333332,0.9266666666666648,6.073333333333335
2.856,-9.19,0.9799999999999982,6.020000000000001
2.864,-9.216666666666665,1.0333333333333317,5.966666666666669
2.872,-9.243333333333332,1.0866666666666651,5.913333333333335
2.88,-9.27,1.1399999999999986,5.860000000000001
2.888,-9.296666666666667,1.193333333333332,5.8066666666666675
2.896,-9.323333333333332,1.2466666666666655,5.753333333333334
2.904,-9.35,1.299999999999999,5.700000000000001
2.912,-9.376666666666667,1.3533333333333324,5.646666666666667
2.92,-9.600000000000001,1.35,5.25
2.928,-9.49375,-0.4093750000000004,5.2
2.936,-9.477083333333333,-0.43437500000000034,5.2
2.944,-9.460416666666667,-0.45937500000000037,5.2
2.952,-9.44375,-0.48437500000000033,5.2
2.96,-9.427083333333334,-0.5093750000000004,5.2
2.968,-9.410416666666666,-0.5343750000000003,5.2
2.976,-9.39375,-0.5593750000000003,5.2
2.984,-9.377083333333333,-0.5843750000000003,5.2
2.992,-9.360416666666667,-0.6093750000000003,5.2
3.0,-9.34375,-0.6343750000000004,5.2
3.008,-9.327083333333334,-0.6593750000000003,5.2
3.016,-9.310416666666667,-0.6843750000000003,5.2
3.024,-9.183333333333334,-1.1,4.833333333333338
3.032,-9.28,-0.4999999999999911,4.059999999999996
3.04,-9.2,-0.09999999999999998,3.9
3.048,-9.179746835443037,-0.1,3.869620253164557
3.056,-9.159493670886075,-0.1,3.839240506329114
3.064,-9.139240506329113,-0.1,3.8088607594936708
3.072,-9.11898734177215,-0.1,3.778481012658228
3.08,-9.09873417721519,-0.1,3.7481012658227852
3.088,-9.078481012658228,-0.1,3.717721518987342
3.096,-9.058227848101266,-0.1,3.687341772151899
3.104,-9.037974683544304,-0.1,3.656962025316456
3.112,-9.017721518987342,-0.1,3.6265822784810133
3.12,-8.95,-0.25,3.5
3.128,-8.693877551020407,-1.409183673469388,3.2
3.136,-8.677551020408162,-1.4336734693877555,3.2
3.144,-8.661224489795918,-1.458163265306123,3.2
3.152,-8.644897959183673,-1.4826530612244904,3.2
3.16,-8.628571428571428,-1.5071428571428576,3.2
3.168,-8.612244897959183,-1.531632653061225,3.2
3.176,-8.595918367346938,-1.5561224489795924,3.2
3.184,-8.579591836734693,-1.5806122448979598,3.2
3.192,-8.563265306122448,-1.6051020408163272,3.2
3.2,-8.546938775510203,-1.6295918367346947,3.2
3.208,-8.53061224489796,-1.654081632653062,3.2
3.216,-8.514285714285714,-1.6785714285714295,3.2
3.224,-8.550000000000011,-1.7,3.149999999999989
3.232,-9.1,-1.5,2.8
3.24,-9.407407407407408,-1.4962962962962962,2.903703703703704
3.248,-9.427160493827161,-1.4864197530864196,2.9135802469135803
3.2560000000000002,-9.446913580246914,-1.476543209876543,2.9234567901234567
3.2640000000000002,-9.466666666666667,-1.4666666666666663,2.9333333333333336
3.2720000000000002,-9.48641975308642,-1.45679012345679,2.94320987654321
3.2800000000000002,-9.506172839506172,-1.4469135802469133,2.9530864197530864
3.2880000000000003,-9.525925925925927,-1.4370370370370367,2.9629629629629632
3.2960000000000003,-9.54567901234568,-1.4271604938271603,2.9728395061728397
3.3040000000000003,-9.565432098765433,-1.4172839506172836,2.9827160493827165
3.3120000000000003,-9.585185185185185,-1.407407407407407,2.992592592592593
3.3200000000000003,-9.399999999999912,-1.1999999999998223,3.2000000000000446
3.3280000000000003,-9.094791666666666,-0.2791666666666653,3.2947916666666663
3.336,-9.086458333333333,-0.2458333333333338,3.2864583333333335
3.344,-9.078125,-0.21250000000000044,3.278125
3.352,-9.069791666666667,-0.17916666666666708,3.269791666666667
3.36,-9.061458333333333,-0.14583333333333376,3.2614583333333336
3.368,-9.053125,-0.11250000000000043,3.2531250000000003
3.376,-9.044791666666667,-0.07916666666666711,3.244791666666667
3.384,-9.036458333333334,-0.04583333333333378,3.2364583333333337
3.392,-9.028125,-0.0125000000000004,3.2281250000000004
3.4,-9.019791666666666,0.020833333333332926,3.219791666666667
3.408,-9.011458333333334,0.05416666666666625,3.2114583333333337
3.416,-9.003125,0.08749999999999958,3.2031250000000004
3.424,-9.083333333333334,0.18333333333333457,3.2
3.432,-9.592307692307694,0.30769230769230693,2.669230769230769
3.44,-9.77692307692308,0.1230769230769207,2.607692307692307
3.448,-9.826923076923078,0.08205128205128182,2.608974358974359
3.456,-9.857692307692309,0.06153846153846137,2.6192307692307693
3.464,-9.88846153846154,0.041025641025640915,2.6294871794871795
3.472,-9.91923076923077,0.020512820512820454,2.6397435897435897
3.48,-9.95,0.0,2.6500000000000004
3.488,-9.98076923076923,-0.020512820512820454,2.6602564102564106
3.496,-10.01153846153846,-0.04102564102564091,2.670512820512821
3.504,-10.042307692307691,-0.06153846153846135,2.680769230769231
3.512,-10.073076923076922,-0.08205128205128182,2.6910256410256412
3.52,-10.05,-0.2,2.85
3.528,-9.7,-0.5,3.2
3.536,-9.706741573033707,-0.5134831460674162,3.2
3.544,-9.715730337078652,-0.5314606741573038,3.2
3.552,-9.724719101123595,-0.5494382022471913,3.2
3.56,-9.733707865168538,-0.5674157303370789,3.2
3.568,-9.742696629213484,-0.5853932584269664,3.2
3.576,-9.751685393258427,-0.603370786516854,3.2
3.584,-9.76067415730337,-0.6213483146067416,3.2
3.592,-9.769662921348315,-0.6393258426966292,3.2
3.6,-9.778651685393259,-0.6573033707865168,3.2
3.608,-9.787640449438202,-0.6752808988764043,3.2
3.616,-9.796629213483147,-0.6932584269662918,3.2
3.624,-10.2,-1.2,3.1
3.632,-9.992553191489362,-1.2,3.192553191489362
3.64,-9.98404255319149,-1.2,3.1840425531914893
3.648,-9.975531914893617,-1.2,3.175531914893617
3.656,-9.967021276595744,-1.2,3.1670212765957446
3.664,-9.958510638297872,-1.2,3.1585106382978725
3.672,-9.95,-1.2,3.15
3.68,-9.941489361702128,-1.2,3.1414893617021273
3.688,-9.932978723404256,-1.2,3.132978723404255
3.696,-9.924468085106383,-1.2,3.1244680851063826
3.704,-9.91595744680851,-1.2,3.1159574468085105
3.712,-9.907446808510638,-1.2,3.107446808510638
3.72,-9.799999999999978,-1.1499999999999888,3.150000000000011
3.728,-9.396808510638298,-1.3968085106382977,3.2968085106382974
3.736,-9.388297872340425,-1.3882978723404253,3.2882978723404253
3.744,-9.379787234042553,-1.379787234042553,3.279787234042553
3.7520000000000002,-9.371276595744682,-1.3712765957446806,3.2712765957446805
3.7600000000000002,-9.36276595744681,-1.3627659574468083,3.2627659574468084
3.7680000000000002,-9.354255319148937,-1.354255319148936,3.254255319148936
3.7760000000000002,-9.345744680851064,-1.3457446808510636,3.2457446808510637
3.7840000000000003,-9.337234042553192,-1.3372340425531912,3.237234042553191
3.7920000000000003,-9.328723404255319,-1.3287234042553189,3.228723404255319
3.8000000000000003,-9.320212765957447,-1.3202127659574465,3.2202127659574464
3.8080000000000003,-9.311702127659574,-1.3117021276595742,3.2117021276595743
3.8160000000000003,-9.303191489361703,-1.3031914893617018,3.2031914893617017
3.8240000000000003,-9.086666666666664,-1.0,3.3
3.8320000000000003,-9.033333333333331,-1.0,3.3
3.84,-9.301250000000001,-0.7975000000000003,2.79625
3.848,-9.311250000000001,-0.7775000000000003,2.7662500000000003
3.856,-9.321250000000001,-0.7575000000000003,2.73625
3.864,-9.33125,-0.7375000000000003,2.7062500000000003
3.872,-9.34125,-0.7175000000000002,2.6762500000000005
3.88,-9.35125,-0.6975000000000002,2.64625
3.888,-9.36125,-0.6775000000000003,2.6162500000000004
3.896,-9.37125,-0.6575000000000003,2.58625
3.904,-9.38125,-0.6375000000000003,2.5562500000000004
3.912,-9.39125,-0.6175000000000003,2.5262500000000006
3.92,-9.7,-0.3,2.5
3.928,-9.106382978723405,-0.39361702127659554,2.3936170212765955
3.936,-9.12340425531915,-0.3765957446808509,2.3765957446808508
3.944,-9.140425531914893,-0.3595744680851063,2.359574468085106
3.952,-9.157446808510638,-0.34255319148936164,2.342553191489362
3.96,-9.174468085106383,-0.325531914893617,2.325531914893617
3.968,-9.191489361702128,-0.30851063829787234,2.3085106382978724
3.976,-9.208510638297872,-0.2914893617021277,2.2914893617021277
3.984,-9.225531914893617,-0.27446808510638304,2.274468085106383
3.992,-9.242553191489362,-0.2574468085106384,2.2574468085106387
4.0,-9.259574468085107,-0.24042553191489377,2.240425531914894
4.008,-9.27659574468085,-0.22340425531914912,2.2234042553191493
4.016,-9.293617021276596,-0.20638297872340447,2.2063829787234046
4.024,-9.359999999999985,0.7,2.4599999999999858
4.032,-9.2,0.692233009708737,2.2961165048543686
4.04,-9.2,0.6766990291262128,2.288349514563106
4.048,-9.2,0.6611650485436886,2.280582524271844
4.056,-9.2,0.6456310679611644,2.272815533980582
4.064,-9.2,0.6300970873786402,2.26504854368932
4.072,-9.2,0.614563106796116,2.257281553398058
4.08,-9.2,0.5990291262135918,2.249514563106796
4.088,-9.2,0.5834951456310677,2.241747572815534
4.096,-9.2,0.5679611650485435,2.233980582524272
4.104,-9.2,0.5524271844660193,2.2262135922330097
4.112,-9.2,0.5368932038834952,2.2184466019417477
4.12,-9.2,0.521359223300971,2.2106796116504857
4.128,-9.2,0.5058252427184468,2.2029126213592236
4.136,-9.5,0.2,2.2
4.144,-9.725609756097562,0.19146341463414573,2.308536585365854
4.152,-9.754878048780489,0.18170731707317023,2.3182926829268298
4.16,-9.784146341463416,0.1719512195121947,2.3280487804878054
4.168,-9.813414634146342,0.16219512195121916,2.3378048780487806
4.176,-9.84268292682927,0.15243902439024362,2.347560975609756
4.184,-9.871951219512196,0.1426829268292681,2.357317073170732
4.192,-9.901219512195123,0.13292682926829255,2.3670731707317074
4.2,-9.930487804878048,0.12317073170731703,2.376829268292683
4.208,-9.959756097560975,0.1134146341463415,2.386585365853658
4.216,-9.989024390243902,0.10365853658536596,2.396341463414634
4.224,-9.979999999999995,0.05999999999999823,2.5
4.232,-9.850000000000154,-0.05000000000002221,2.450000000000067
4.24,-10.2,-0.0764044943820207,2.6235955056179794
4.248,-10.2,-0.04943820224718933,2.6505617977528106
4.256,-10.2,-0.022471910112357968,2.677528089887642
4.264,-10.2,0.004494382022473389,2.7044943820224736
4.272,-10.2,0.03146067415730475,2.731460674157305
4.28,-10.2,0.05842696629213612,2.758426966292136
4.288,-10.2,0.08539325842696749,2.7853932584269674
4.296,-10.2,0.11235955056179883,2.8123595505617986
4.304,-10.2,0.1393258426966302,2.8393258426966304
4.312,-10.2,0.16629213483146157,2.8662921348314616
4.32,-10.2,0.19325842696629295,2.893258426966293
4.328,-8.949999999999978,-0.10000000000004441,3.0499999999999776
4.336,-8.931111111111115,-0.1844444444444432,3.0
4.344,-8.96666666666667,-0.16666666666666535,3.0
4.352,-9.002222222222226,-0.14888888888888754,3.0
4.36,-9.037777777777782,-0.13111111111110973,3.0
4.368,-9.073333333333336,-0.1133333333333319,3.0
4.376,-9.108888888888892,-0.09555555555555408,3.0
4.384,-9.144444444444447,-0.07777777777777625,3.0
4.392,-9.180000000000003,-0.059999999999998416,3.0
4.4,-9.215555555555559,-0.04222222222222061,3.0
4.408,-9.251111111111115,-0.02444444444444277,3.0
4.416,-9.28666666666667,-0.006666666666664961,3.0
4.424,-9.80000000000006,0.0,3.0
4.432,-9.493749999999999,-0.8041666666666681,2.7020833333333343
4.44,-9.468749999999998,-0.8208333333333347,2.7104166666666676
4.448,-9.443749999999998,-0.8375000000000015,2.718750000000001
4.456,-9.418749999999998,-0.8541666666666681,2.727083333333334
4.464,-9.393749999999997,-0.8708333333333348,2.7354166666666675
4.472,-9.368749999999997,-0.8875000000000014,2.743750000000001
4.48,-9.343749999999998,-0.9041666666666681,2.752083333333334
4.488,-9.318749999999998,-0.9208333333333347,2.7604166666666674
4.496,-9.293749999999998,-0.9375000000000013,2.7687500000000007
4.5040000000000004,-9.268749999999997,-0.954166666666668,2.777083333333334
4.5120000000000005,-9.243749999999997,-0.9708333333333348,2.7854166666666673
4.5200000000000005,-9.218749999999996,-0.9875000000000014,2.7937500000000006
4.5280000000000005,-9.09999999999997,-1.2000000000000592,2.9999999999999702
4.5360000000000005,-9.000000000000004,-1.2999999999999958,2.899999999999999
4.5440000000000005,-9.02823529411765,-1.262352941176467,2.890588235294117
4.5520000000000005,-9.056470588235296,-1.2247058823529378,2.881176470588234
4.5600000000000005,-9.084705882352944,-1.1870588235294086,2.871764705882352
4.5680000000000005,-9.11294117647059,-1.1494117647058797,2.8623529411764697
4.5760000000000005,-9.141176470588238,-1.1117647058823505,2.8529411764705874
4.5840000000000005,-9.169411764705885,-1.0741176470588214,2.843529411764705
4.5920000000000005,-9.19764705882353,-1.0364705882352925,2.834117647058823
4.6000000000000005,-9.225882352941179,-0.9988235294117633,2.8247058823529407
4.6080000000000005,-9.254117647058825,-0.9611764705882342,2.8152941176470585
4.616,-9.282352941176468,-0.9235294117647093,2.805882352941177
4.624,-9.374999999999984,-0.8250000000000166,2.8
4.632,-9.57499999999999,-0.6250000000000092,2.8
4.64,-9.5,-0.0012658227848094292,2.7012658227848094
4.648,-9.5,-0.011392405063290485,2.7113924050632905
4.656,-9.5,-0.02151898734177154,2.7215189873417716
4.664,-9.5,-0.0316455696202526,2.7316455696202526
4.672,-9.5,-0.04177215189873365,2.7417721518987337
4.68,-9.5,-0.05189873417721471,2.7518987341772148
4.688,-9.5,-0.06202531645569576,2.762025316455696
4.696,-9.5,-0.07215189873417682,2.772151898734177
4.704,-9.5,-0.08227848101265788,2.782278481012658
4.712,-9.5,-0.09240506329113893,2.7924050632911386
4.72,-9.466666666666672,-0.1,2.833333333333328
4.728,-9.6,-0.3,2.8
4.736,-9.6,-0.3086021505376344,2.7913978494623652
4.744,-9.6,-0.3172043010752688,2.782795698924731
4.752,-9.6,-0.3258064516129032,2.7741935483870965
4.76,-9.6,-0.3344086021505377,2.7655913978494624
4.768,-9.6,-0.3430107526881721,2.756989247311828
4.776,-9.6,-0.3516129032258065,2.7483870967741937
4.784,-9.6,-0.36021505376344093,2.739784946236559
4.792,-9.6,-0.36881720430107534,2.7311827956989245
4.8,-9.6,-0.3774193548387098,2.7225806451612904
4.808,-9.6,-0.38602150537634417,2.713978494623656
4.816,-9.6,-0.39462365591397863,2.7053763440860217
4.824,-9.6,-0.2,2.6
4.832,-9.693258426966292,0.19662921348314596,2.7
4.84,-9.675280898876403,0.18764044943820218,2.7
4.848,-9.657303370786517,0.1786516853932584,2.7
4.856,-9.639325842696628,0.16966292134831462,2.7
4.864,-9.621348314606742,0.1606741573033708,2.7
4.872,-9.603370786516853,0.15168539325842703,2.7
4.88,-9.585393258426967,0.14269662921348325,2.7
4.888,-9.567415730337078,0.13370786516853947,2.7
4.896,-9.549438202247192,0.12471910112359567,2.7
4.904,-9.531460674157303,0.1157303370786519,2.7
4.912,-9.513483146067417,0.1067415730337081,2.7
4.92,-9.7,0.2,2.5
4.928,-9.6,-0.005263157894736744,2.3947368421052633
4.936,-9.6,-0.013684210526315722,2.3863157894736844
4.944,-9.6,-0.022105263157894697,2.377894736842105
4.952,-9.6,-0.030526315789473676,2.369473684210526
4.96,-9.6,-0.038947368421052654,2.3610526315789473
4.968,-9.6,-0.04736842105263163,2.3526315789473684
4.976,-9.6,-0.05578947368421061,2.344210526315789
4.984,-9.6,-0.06421052631578959,2.33578947368421
4.992,-9.6,-0.07263157894736856,2.3273684210526313
5.0,-9.6,-0.08105263157894754,2.3189473684210524
5.008,-9.6,-0.08947368421052652,2.310526315789473
5.016,-9.6,-0.09789473684210549,2.302105263157894
5.024,-9.539999999999996,-0.1,2.3600000000000034
5.032,-9.609090909090911,-0.31818181818182406,2.3
5.04,-9.681818181818183,-0.46363636363636807,2.3
5.048,-9.684415584415584,-0.4922077922077919,2.307792207792208
5.056,-9.663636363636362,-0.4818181818181815,2.3181818181818183
5.064,-9.642857142857142,-0.4714285714285711,2.3285714285714287
5.072,-9.62207792207792,-0.4610389610389607,2.338961038961039
5.08,-9.6012987012987,-0.4506493506493503,2.3493506493506495
5.088,-9.580519480519479,-0.4402597402597399,2.35974025974026
5.096,-9.55974025974026,-0.4298701298701295,2.3701298701298703
5.104,-9.538961038961038,-0.4194805194805191,2.3805194805194807
5.112,-9.518181818181818,-0.40909090909090867,2.390909090909091
5.12,-9.6,-0.4,2.5
5.128,-9.493548387096775,-0.10645161290322605,2.7967741935483867
5.136,-9.476344086021506,-0.12365591397849489,2.7881720430107526
5.144,-9.459139784946236,-0.14086021505376373,2.779569892473118
5.152,-9.441935483870967,-0.15806451612903255,2.7709677419354835
5.16,-9.424731182795698,-0.1752688172043014,2.7623655913978493
5.168,-9.40752688172043,-0.19247311827957023,2.7537634408602147
5.176,-9.390322580645162,-0.20967741935483908,2.7451612903225806
5.184,-9.373118279569892,-0.2268817204301079,2.736559139784946
5.192,-9.355913978494623,-0.24408602150537673,2.727956989247312
5.2,-9.338709677419354,-0.26129032258064555,2.7193548387096773
5.208,-9.321505376344087,-0.2784946236559144,2.7107526881720427
5.216,-9.304301075268818,-0.29569892473118325,2.7021505376344086
5.224,-9.360000000000005,-0.6,2.6399999999999966
5.232,-9.3,-0.80888888888889,2.595555555555555
5.24,-9.3,-0.8266666666666678,2.586666666666666
5.248,-9.3,-0.8444444444444456,2.5777777777777775
5.256,-9.3,-0.8622222222222234,2.5688888888888886
5.264,-9.3,-0.8800000000000012,2.5599999999999996
5.272,-9.3,-0.897777777777779,2.5511111111111107
5.28,-9.3,-0.9155555555555569,2.5422222222222217
5.288,-9.3,-0.9333333333333347,2.5333333333333328
5.296,-9.3,-0.9511111111111125,2.524444444444444
5.304,-9.3,-0.9688888888888904,2.515555555555555
5.312,-9.3,-0.9866666666666681,2.506666666666666
5.32,-9.4,-0.9,2.4
5.328,-9.803191489361703,-0.6031914893617022,2.6063829787234045
5.336,-9.811702127659576,-0.6117021276595747,2.6234042553191492
5.344,-9.820212765957448,-0.620212765957447,2.6404255319148944
5.352,-9.82872340425532,-0.6287234042553195,2.657446808510639
5.36,-9.837234042553192,-0.6372340425531918,2.674468085106384
5.368,-9.845744680851064,-0.6457446808510643,2.6914893617021285
5.376,-9.854255319148937,-0.6542553191489366,2.708510638297873
5.384,-9.86276595744681,-0.662765957446809,2.725531914893618
5.392,-9.871276595744682,-0.6712765957446815,2.742553191489363
5.4,-9.879787234042555,-0.6797872340425538,2.7595744680851078
5.408,-9.888297872340427,-0.6882978723404263,2.7765957446808525
5.416,-9.8968085106383,-0.6968085106382986,2.793617021276597
5.424,-10.0,-1.2,3.0
5.432,-9.977419354838707,-0.9849462365591386,3.0150537634408616
5.44,-9.951612903225804,-0.9677419354838698,3.0322580645161303
5.448,-9.925806451612901,-0.950537634408601,3.049462365591399
5.456,-9.899999999999999,-0.933333333333332,3.066666666666668
5.464,-9.874193548387094,-0.9161290322580632,3.083870967741937
5.472,-9.848387096774191,-0.8989247311827944,3.1010752688172056
5.48,-9.822580645161288,-0.8817204301075255,3.1182795698924743
5.488,-9.796774193548385,-0.8645161290322567,3.1354838709677435
5.496,-9.77096774193548,-0.8473118279569879,3.152688172043012
5.5040000000000004,-9.745161290322578,-0.8301075268817191,3.169892473118281
5.5120000000000005,-9.719354838709675,-0.8129032258064502,3.18709677419355
5.5200000000000005,-9.199999999999733,-0.8,3.0999999999999113
5.5280000000000005,-8.48750000000003,-0.5374999999999903,2.6749999999999807
5.5360000000000005,-8.628735632183911,-0.511494252873565,2.5827586206896527
5.5440000000000005,-8.674712643678165,-0.5298850574712659,2.555172413793101
5.5520000000000005,-8.720689655172418,-0.548275862068967,2.5275862068965496
5.5600000000000005,-8.76666666666667,-0.566666666666668,2.499999999999998
5.5680000000000005,-8.812643678160923,-0.585057471264369,2.4724137931034464
5.5760000000000005,-8.858620689655174,-0.6034482758620701,2.4448275862068947
5.5840000000000005,-8.904597701149427,-0.6218390804597711,2.4172413793103433
5.5920000000000005,-8.95057471264368,-0.6402298850574721,2.3896551724137916
5.6000000000000005,-8.996551724137932,-0.6586206896551732,2.36206896551724
5.6080000000000005,-9.042528735632185,-0.6770114942528742,2.3344827586206884
5.6160000000000005,-9.088505747126439,-0.6954022988505753,2.306896551724137
5.6240000000000006,-9.949999999999978,-0.9500000000000222,2.250000000000022
5.632,-9.884946236559141,-1.0,2.3150537634408592
5.64,-9.867741935483872,-1.0,2.3322580645161284
5.648,-9.850537634408603,-1.0,2.349462365591397
5.656,-9.833333333333334,-1.0,2.366666666666666
5.664,-9.816129032258065,-1.0,2.383870967741935
5.672,-9.798924731182796,-1.0,2.4010752688172037
5.68,-9.781720430107526,-1.0,2.4182795698924724
5.688,-9.764516129032259,-1.0,2.435483870967741
5.696,-9.74731182795699,-1.0,2.4526881720430103
5.704,-9.73010752688172,-1.0,2.469892473118279
5.712,-9.712903225806452,-1.0,2.4870967741935477
5.72,-9.6,-1.2,2.7
5.728,-9.681818181818183,-0.945454545454544,2.8
5.736,-9.9,-0.8,2.8
5.744,-9.9,-0.8,2.809411764705882
5.752,-9.9,-0.8,2.8188235294117647
5.76,-9.9,-0.8,2.828235294117647
5.768,-9.9,-0.8,2.837647058823529
5.776,-9.9,-0.8,2.847058823529412
5.784,-9.9,-0.8,2.856470588235294
5.792,-9.9,-0.8,2.8658823529411763
5.8,-9.9,-0.8,2.875294117647059
5.808,-9.9,-0.8,2.8847058823529412
5.816,-9.9,-0.8,2.8941176470588235
5.824,-10.019999999999989,-0.6600000000000212,2.8800000000000106
5.832,-10.098958333333334,-0.40104166666666613,2.801041666666666
5.84,-10.090625,-0.40937499999999954,2.8093749999999993
5.848,-10.082291666666666,-0.41770833333333296,2.8177083333333326
5.856,-10.073958333333334,-0.4260416666666663,2.8260416666666663
5.864,-10.065625,-0.43437499999999973,2.8343749999999996
5.872,-10.057291666666666,-0.44270833333333315,2.842708333333333
5.88,-10.048958333333333,-0.45104166666666656,2.8510416666666663
5.888,-10.040625,-0.459375,2.859375
5.896,-10.032291666666666,-0.4677083333333334,2.8677083333333333
5.904,-10.023958333333333,-0.4760416666666668,2.8760416666666666
5.912,-10.015625,-0.4843750000000002,2.884375
5.92,-10.007291666666667,-0.49270833333333364,2.8927083333333337
5.928,-9.9,-0.5,2.9
5.936,-9.896470588235294,0.0035294117647060174,3.0035294117647062
5.944,-9.887058823529411,0.012941176470588383,3.0129411764705885
5.952,-9.87764705882353,0.02235294117647075,3.0223529411764707
5.96,-9.868235294117648,0.03176470588235311,3.0317647058823534
5.968,-9.858823529411765,0.04117647058823548,3.0411764705882356
5.976,-9.849411764705883,0.05058823529411784,3.050588235294118
5.984,-9.84,0.060000000000000206,3.06
5.992,-9.830588235294117,0.06941176470588258,3.0694117647058827
6.0,-9.821176470588236,0.07882352941176494,3.078823529411765
6.008,-9.811764705882354,0.0882352941176473,3.088235294117647
6.016,-9.802352941176471,0.09764705882352967,3.09764705882353
6.024,-8.399999999999999,-0.6,1.65
6.032,-8.265254237288133,-1.147457627118642,1.6949152542372843
6.04,-8.339830508474574,-1.2016949152542358,1.8033898305084712
6.048,-8.414406779661014,-1.2559322033898292,1.9118644067796584
6.056,-8.488983050847455,-1.3101694915254227,2.0203389830508454
6.064,-8.563559322033896,-1.3644067796610162,2.1288135593220323
6.072,-8.638135593220339,-1.4186440677966097,2.2372881355932197
6.08,-8.71271186440678,-1.4728813559322034,2.3457627118644067
6.088,-8.78728813559322,-1.5271186440677966,2.4542372881355936
6.096,-8.861864406779661,-1.5813559322033903,2.5627118644067806
6.104,-8.936440677966104,-1.6355932203389838,2.6711864406779675
6.112,-9.011016949152545,-1.6898305084745773,2.779661016949155
6.12,-9.085593220338986,-1.744067796610171,2.888135593220342
6.128,-9.160169491525426,-1.7983050847457642,2.996610169491529
6.136,-9.234745762711867,-1.852542372881358,3.105084745762716
6.144,-9.38000000000003,-1.9600000000000213,3.380000000000064
6.152,-9.69999999999999,-1.7400000000000142,3.720000000000007
6.16,-10.1,-1.1,3.4
6.168,-10.163855421686746,-0.5710843373493966,3.214457831325302
6.176,-10.115662650602408,-0.5325301204819267,3.233734939759037
6.184,-10.06746987951807,-0.49397590361445687,3.2530120481927716
6.192,-10.019277108433734,-0.4554216867469871,3.2722891566265067
6.2,-9.971084337349396,-0.4168674698795172,3.2915662650602413
6.208,-9.922891566265058,-0.37831325301204743,3.3108433734939764
6.216,-9.874698795180722,-0.3397590361445776,3.330120481927711
6.224,-9.826506024096384,-0.3012048192771078,3.349397590361446
6.232,-9.778313253012048,-0.26265060240963795,3.3686746987951808
6.24,-9.73012048192771,-0.2240963855421681,3.387951807228916
6.248,-9.6,-0.1,3.6
6.256,-9.514285714285714,-1.00952380952381,3.59047619047619
6.264,-9.552380952380954,-1.0349206349206355,3.5650793650793644
6.272,-9.590476190476192,-1.060317460317461,3.539682539682539
6.28,-9.62857142857143,-1.0857142857142865,3.5142857142857133
6.288,-9.666666666666668,-1.111111111111112,3.488888888888888
6.296,-9.704761904761908,-1.1365079365079376,3.4634920634920623
6.304,-9.742857142857146,-1.161904761904763,3.438095238095237
6.312,-9.780952380952384,-1.1873015873015886,3.4126984126984112
6.32,-9.6,-1.3,3.1
6.328,-9.511111111111106,-1.3,2.9222222222222114
6.336,-9.5,-1.2923913043478255,2.8923913043478255
6.344,-9.5,-1.2836956521739125,2.8836956521739125
6.352,-9.5,-1.2749999999999995,2.8749999999999996
6.36,-9.5,-1.2663043478260865,2.8663043478260866
6.368,-9.5,-1.2576086956521735,2.8576086956521736
6.376,-9.5,-1.2489130434782605,2.8489130434782606
6.384,-9.5,-1.2402173913043475,2.8402173913043476
6.392,-9.5,-1.2315217391304345,2.831521739130434
6.4,-9.5,-1.2228260869565215,2.822826086956521
6.408,-9.5,-1.2141304347826085,2.814130434782608
6.416,-9.5,-1.2054347826086955,2.805434782608695
6.424,-9.19999999999991,-1.4500000000000222,3.0500000000000664
6.432,-8.267391304347825,-1.2739130434782597,3.4
6.44,-8.22391304347826,-1.2391304347826075,3.4
6.448,-8.180434782608694,-1.2043478260869551,3.4
6.456,-8.13695652173913,-1.1695652173913027,3.4
6.464,-8.093478260869563,-1.1347826086956505,3.4
6.472,-8.049999999999997,-1.099999999999998,3.4
6.48,-8.006521739130433,-1.0652173913043457,3.4
6.488,-7.963043478260867,-1.0304347826086935,3.4
6.496,-7.919565217391301,-0.9956521739130411,3.4
6.5040000000000004,-7.8760869565217355,-0.9608695652173886,3.4
6.5120000000000005,-7.83260869565217,-0.9260869565217364,3.4
6.5200000000000005,-8.350000000000065,-0.34999999999993336,3.2
6.5280000000000005,-8.733333333333343,-0.27777777777778107,3.122222222222219
6.5360000000000005,-8.895348837209303,-0.5,3.0093023255813964
6.5440000000000005,-8.886046511627907,-0.5,3.027906976744187
6.5520000000000005,-8.876744186046512,-0.5,3.0465116279069777
6.5600000000000005,-8.867441860465116,-0.5,3.0651162790697684
6.5680000000000005,-8.85813953488372,-0.5,3.083720930232559
6.5760000000000005,-8.848837209302326,-0.5,3.1023255813953496
6.5840000000000005,-8.83953488372093,-0.5,3.1209302325581403
6.5920000000000005,-8.830232558139535,-0.5,3.139534883720931
6.6000000000000005,-8.82093023255814,-0.5,3.1581395348837216
6.6080000000000005,-8.811627906976744,-0.5,3.176744186046512
6.6160000000000005,-8.80232558139535,-0.5,3.195348837209303
6.6240000000000006,-9.050000000000022,0.10000000000004441,3.449999999999978
6.632000000000001,-9.129661016949154,0.20593220338983098,3.394067796610169
6.640000000000001,-9.1635593220339,0.2127118644067801,3.3872881355932196
6.648000000000001,-9.197457627118645,0.21949152542372927,3.3805084745762706
6.656000000000001,-9.231355932203392,0.2262711864406784,3.3737288135593215
6.664,-9.265254237288133,0.23305084745762678,3.366949152542373
6.672,-9.299152542372878,0.23983050847457593,3.360169491525424
6.68,-9.333050847457624,0.24661016949152506,3.353389830508475
6.688,-9.36694915254237,0.2533898305084742,3.346610169491526
6.696,-9.400847457627115,0.26016949152542335,3.3398305084745767
6.704,-9.434745762711861,0.2669491525423725,3.3330508474576273
6.712,-9.468644067796607,0.2737288135593216,3.326271186440678
6.72,-9.502542372881353,0.28050847457627076,3.319491525423729
6.728,-9.536440677966098,0.28728813559321986,3.31271186440678
6.736,-9.570338983050846,0.294067796610169,3.3059322033898306
6.744,-9.624999999999986,0.31249999999999306,3.324999999999986
6.752,-9.650000000000066,0.3500000000000222,3.6999999999999114
6.76,-9.117391304347825,0.005797101449274728,3.8057971014492744
6.768,-9.152173913043477,0.017391304347825473,3.8173913043478254
6.776,-9.186956521739129,0.028985507246376215,3.828985507246376
6.784,-9.22173913043478,0.04057971014492696,3.840579710144927
6.792,-9.256521739130433,0.0521739130434777,3.852173913043478
6.8,-9.291304347826085,0.06376811594202844,3.8637681159420283
6.808,-9.326086956521738,0.07536231884057919,3.8753623188405792
6.816,-9.36086956521739,0.08695652173912993,3.8869565217391298
6.824,-9.395652173913042,0.09855072463768068,3.8985507246376807
6.832,-9.7,-0.6,4.0
6.84,-9.625000000000009,-0.42500000000000837,4.0
6.848,-9.618918918918919,-0.4378378378378362,3.990540540540541
6.856,-9.64054054054054,-0.48108108108107955,3.9797297297297303
6.864,-9.662162162162161,-0.524324324324323,3.968918918918919
6.872,-9.683783783783783,-0.5675675675675663,3.9581081081081084
6.88,-9.705405405405404,-0.6108108108108097,3.9472972972972977
6.888,-9.727027027027027,-0.654054054054053,3.9364864864864866
6.896,-9.748648648648649,-0.6972972972972964,3.925675675675676
6.904,-9.77027027027027,-0.7405405405405399,3.914864864864865
6.912,-9.791891891891892,-0.7837837837837831,3.904054054054054
6.92,-9.4,-0.8,3.8980198019801975
6.928,-9.4,-0.8,3.8821782178217816
6.936,-9.4,-0.8,3.8663366336633658
6.944,-9.4,-0.8,3.85049504950495
6.952,-9.4,-0.8,3.834653465346534
6.96,-9.4,-0.8,3.818811881188118
6.968,-9.4,-0.8,3.8029702970297024
6.976,-9.4,-0.8,3.7871287128712865
6.984,-9.4,-0.8,3.7712871287128706
6.992,-9.4,-0.8,3.755445544554455
7.0,-9.4,-0.8,3.739603960396039
7.008,-9.4,-0.8,3.723762376237623
7.016,-9.4,-0.8,3.707920792079207
7.024,-8.95,-1.05,3.6500000000000004
7.032,-8.6,-1.2,3.395
7.04,-8.6,-1.2,3.387
7.048,-8.6,-1.2,3.379
7.056,-8.6,-1.2,3.371
7.064,-8.6,-1.2,3.363
7.072,-8.6,-1.2,3.355
7.08,-8.6,-1.2,3.3469999999999995
7.088,-8.6,-1.2,3.3389999999999995
7.096,-8.6,-1.2,3.3309999999999995
7.104,-8.6,-1.2,3.3229999999999995
7.112,-8.6,-1.2,3.3149999999999995
7.12,-8.6,-1.2,3.3069999999999995
7.128,-8.700000000000045,-1.1499999999999777,3.3
7.136,-9.297590361445785,-1.1,2.9
7.144,-9.287951807228916,-1.1,2.9
7.152,-9.27831325301205,-1.1,2.9
7.16,-9.26867469879518,-1.1,2.9
7.168,-9.259036144578314,-1.1,2.9
7.176,-9.249397590361445,-1.1,2.9
7.184,-9.239759036144578,-1.1,2.9
7.192,-9.23012048192771,-1.1,2.9
7.2,-9.220481927710843,-1.1,2.9
7.208,-9.210843373493974,-1.1,2.9
7.216,-9.201204819277107,-1.1,2.9
7.224,-9.350000000000023,-0.8,2.9500000000000224
7.232,-9.414583333333335,-0.7927083333333328,3.007291666666667
7.24,-9.431250000000002,-0.7843749999999995,3.0156250000000004
7.248,-9.447916666666668,-0.7760416666666661,3.0239583333333337
7.256,-9.464583333333335,-0.7677083333333328,3.0322916666666675
7.264,-9.481250000000001,-0.7593749999999995,3.040625000000001
7.272,-9.497916666666669,-0.751041666666666,3.048958333333334
7.28,-9.514583333333334,-0.7427083333333327,3.0572916666666674
7.288,-9.531250000000002,-0.7343749999999994,3.0656250000000007
7.296,-9.547916666666667,-0.726041666666666,3.073958333333334
7.304,-9.564583333333335,-0.7177083333333327,3.0822916666666673
7.312,-9.58125,-0.7093749999999994,3.0906250000000006
7.32,-9.597916666666668,-0.701041666666666,3.098958333333334
7.328,-9.658333333333335,-0.5833333333333284,3.2166666666666717
7.336,-9.7,-0.3,3.5
7.344,-9.6,-0.4151898734177222,3.5
7.352,-9.6,-0.43544303797468425,3.5
7.36,-9.6,-0.4556962025316464,3.5
7.368,-9.6,-0.47594936708860847,3.5
7.376,-9.6,-0.4962025316455706,3.5
7.384,-9.6,-0.5164556962025327,3.5
7.392,-9.6,-0.5367088607594948,3.5
7.4,-9.6,-0.5569620253164569,3.5
7.408,-9.6,-0.577215189873419,3.5
7.416,-9.6,-0.5974683544303812,3.5
7.424,-9.9,-0.7,3.2
7.432,-9.891397849462367,-0.6827956989247311,3.2
7.44,-9.882795698924731,-0.6655913978494623,3.2
7.448,-9.874193548387098,-0.6483870967741935,3.2
7.456,-9.865591397849462,-0.6311827956989247,3.2
7.464,-9.856989247311828,-0.6139784946236557,3.2
7.472,-9.848387096774195,-0.5967741935483869,3.2
7.48,-9.83978494623656,-0.5795698924731181,3.2
7.488,-9.831182795698926,-0.5623655913978493,3.2
7.496,-9.82258064516129,-0.5451612903225804,3.2
7.5040000000000004,-9.813978494623656,-0.5279569892473116,3.2
7.5120000000000005,-9.805376344086023,-0.5107526881720428,3.2
7.5200000000000005,-9.7,-0.4,3.0499999999999776
7.5280000000000005,-9.787500000000007,-0.5750000000000138,2.912499999999993
7.5360000000000005,-9.782758620689654,-0.811494252873565,2.7885057471264347
7.5440000000000005,-9.755172413793101,-0.829885057471266,2.7701149425287337
7.5520000000000005,-9.72758620689655,-0.848275862068967,2.751724137931033
7.5600000000000005,-9.7,-0.866666666666668,2.733333333333332
7.5680000000000005,-9.672413793103447,-0.8850574712643691,2.714942528735631
7.5760000000000005,-9.644827586206896,-0.9034482758620701,2.69655172413793
7.5840000000000005,-9.617241379310343,-0.9218390804597711,2.678160919540229
7.5920000000000005,-9.589655172413792,-0.9402298850574722,2.659770114942528
7.6000000000000005,-9.56206896551724,-0.9586206896551732,2.641379310344827
7.6080000000000005,-9.534482758620689,-0.9770114942528743,2.622988505747126
7.6160000000000005,-9.506896551724138,-0.9954022988505753,2.604597701149425
7.6240000000000006,-9.279999999999994,-0.9400000000000143,2.7200000000000073
7.632000000000001,-9.191111111111109,-1.10888888888889,2.804444444444445
7.640000000000001,-9.173333333333332,-1.1266666666666678,2.813333333333334
7.648000000000001,-9.155555555555553,-1.1444444444444457,2.8222222222222224
7.656000000000001,-9.137777777777776,-1.1622222222222234,2.8311111111111114
7.664000000000001,-9.12,-1.1800000000000013,2.8400000000000003
7.672000000000001,-9.10222222222222,-1.1977777777777792,2.8488888888888892
7.68,-9.084444444444445,-1.2155555555555548,2.8577777777777773
7.688,-9.066666666666666,-1.2333333333333327,2.8666666666666663
7.696,-9.04888888888889,-1.2511111111111106,2.875555555555555
7.704,-9.031111111111112,-1.2688888888888883,2.884444444444444
7.712,-9.013333333333334,-1.2866666666666662,2.893333333333333
7.72,-9.050000000000022,-1.1500000000000665,3.1
7.728,-9.304255319148936,-0.39148936170212856,2.895744680851064
7.736,-9.312765957446809,-0.37446808510638374,2.887234042553192
7.744,-9.321276595744681,-0.357446808510639,2.8787234042553194
7.752,-9.329787234042554,-0.34042553191489416,2.870212765957447
7.76,-9.338297872340426,-0.32340425531914935,2.8617021276595747
7.768,-9.346808510638299,-0.3063829787234046,2.853191489361702
7.776,-9.35531914893617,-0.28936170212765977,2.8446808510638295
7.784,-9.363829787234042,-0.27234042553191495,2.8361702127659574
7.792,-9.372340425531915,-0.25531914893617014,2.827659574468085
7.8,-9.380851063829788,-0.23829787234042535,2.8191489361702127
7.808,-9.38936170212766,-0.22127659574468053,2.81063829787234
7.816,-9.397872340425533,-0.20425531914893574,2.8021276595744675
7.824,-9.6,-0.22857142857142315,2.8428571428571408
7.832,-9.4,-0.6043956043956039,2.8
7.84,-9.4,-0.6219780219780214,2.8
7.848,-9.4,-0.6395604395604391,2.8
7.856,-9.4,-0.6571428571428566,2.8
7.864,-9.4,-0.6747252747252741,2.8
7.872,-9.4,-0.6923076923076917,2.8
7.88,-9.4,-0.7098901098901093,2.8
7.888,-9.4,-0.7274725274725269,2.8
7.896,-9.4,-0.7450549450549444,2.8
7.904,-9.4,-0.7626373626373619,2.8
7.912,-9.4,-0.7802197802197796,2.8
7.92,-9.4,-0.7978021978021972,2.8
7.928,-9.6,-0.8285714285714267,2.9714285714285733
7.936,-9.7,-0.7,3.1
7.944,-9.7,-0.6804878048780489,3.0902439024390245
7.952,-9.7,-0.6609756097560978,3.080487804878049
7.96,-9.7,-0.6414634146341468,3.0707317073170737
7.968,-9.7,-0.6219512195121957,3.060975609756098
7.976,-9.7,-0.6024390243902447,3.0512195121951224
7.984,-9.7,-0.5829268292682936,3.041463414634147
7.992,-9.7,-0.5634146341463426,3.031707317073171
8.0,-9.7,-0.5439024390243915,3.0219512195121956
8.008000000000001,-9.7,-0.5243902439024383,3.012195121951219
8.016,-9.7,-0.5048780487804894,3.002439024390245
8.024000000000001,-9.688888888888876,-0.2,2.7111111111111246
8.032,-9.6,-0.2,2.8
8.040000000000001,-9.6,-0.19183673469387671,2.7918367346938764
8.048,-9.6,-0.18367346938775522,2.783673469387755
8.056000000000001,-9.6,-0.17551020408163193,2.7755102040816317
8.064,-9.6,-0.16734693877551043,2.7673469387755105
8.072000000000001,-9.6,-0.15918367346938714,2.759183673469387
8.08,-9.6,-0.15102040816326565,2.7510204081632654
8.088000000000001,-9.6,-0.14285714285714235,2.7428571428571424
8.096,-9.6,-0.13469387755102086,2.734693877551021
8.104000000000001,-9.6,-0.12653061224489756,2.726530612244898
8.112,-9.6,-0.11836734693877607,2.718367346938776
8.120000000000001,-9.6,-0.11020408163265277,2.7102040816326527
8.128,-9.6,-0.10204081632653128,2.7020408163265315
8.136000000000001,-9.349999999999955,-0.34999999999995557,2.7
8.144,-9.3,-0.29135802469135835,2.708641975308642
8.152000000000001,-9.3,-0.28148148148148067,2.7185185185185192
8.16,-9.3,-0.27160493827160515,2.7283950617283947
8.168000000000001,-9.3,-0.26172839506172746,2.7382716049382725
8.176,-9.3,-0.25185185185185194,2.748148148148148
8.184000000000001,-9.3,-0.24197530864197422,2.7580246913580257
8.192,-9.3,-0.23209876543209873,2.7679012345679013
8.2,-9.3,-0.2222222222222232,2.777777777777777
8.208,-9.3,-0.2123456790123455,2.7876543209876545
8.216,-9.3,-0.20246913580247,2.79753086419753
8.224,-9.359999999999994,-0.17999999999997868,2.7599999999999927
8.232,-9.4,-0.30624999999999847,2.806249999999998
8.24,-9.4,-0.3145833333333329,2.8145833333333328
8.248,-9.4,-0.32291666666666546,2.822916666666665
8.256,-9.4,-0.3312499999999999,2.83125
8.264,-9.4,-0.33958333333333246,2.8395833333333322
8.272,-9.4,-0.3479166666666669,2.847916666666667
8.28,-9.4,-0.3562499999999994,2.8562499999999993
8.288,-9.4,-0.3645833333333338,2.864583333333334
8.296,-9.4,-0.3729166666666664,2.8729166666666663
8.304,-9.4,-0.3812500000000008,2.8812500000000005
8.312,-9.4,-0.3895833333333334,2.8895833333333334
8.32,-9.4,-0.3979166666666678,2.8979166666666676
8.328,-9.7,-0.4,2.7499999999999556
8.336,-9.692045454545454,-0.4079545454545452,2.807954545454545
8.344,-9.682954545454546,-0.41704545454545333,2.817045454545453
8.352,-9.673863636363636,-0.42613636363636354,2.8261363636363632
8.36,-9.664772727272728,-0.4352272727272717,2.8352272727272716
8.368,-9.655681818181817,-0.4443181818181819,2.8443181818181817
8.376,-9.646590909090909,-0.4534090909090901,2.85340909090909
8.384,-9.6375,-0.46250000000000024,2.8625000000000003
8.392,-9.628409090909091,-0.47159090909090845,2.871590909090908
8.4,-9.619318181818182,-0.48068181818181865,2.8806818181818183
8.408,-9.610227272727272,-0.4897727272727268,2.8897727272727267
8.416,-9.601136363636362,-0.498863636363637,2.898863636363637
8.424,-9.13999999999998,-0.8199999999999894,2.6600000000000215
8.432,-9.3,-0.9,2.5
8.44,-9.31860465116279,-0.9,2.5
8.448,-9.337209302325581,-0.9,2.5
8.456,-9.35581395348837,-0.9,2.5
8.464,-9.374418604651163,-0.9,2.5
8.472,-9.39302325581395,-0.9,2.5
8.48,-9.411627906976744,-0.9,2.5
8.488,-9.430232558139533,-0.9,2.5
8.496,-9.448837209302326,-0.9,2.5
8.504,-9.467441860465113,-0.9,2.5
8.512,-9.486046511627906,-0.9,2.5
8.52,-9.650000000000045,0.2999999999998224,3.1500000000000448
8.528,-9.8,-1.0,2.3
8.536,-9.773333333333337,-1.1511111111110948,2.2288888888888962
8.544,-9.746666666666668,-1.302222222222223,2.157777777777777
8.552,-9.720000000000002,-1.4533333333333176,2.086666666666674
8.56,-9.693333333333333,-1.6044444444444461,2.015555555555555
8.568,-9.66666666666667,-1.7555555555555409,1.9444444444444513
8.576,-9.64,-1.906666666666669,1.8733333333333322
8.584,-9.613333333333337,-2.0577777777777637,1.8022222222222288
8.592,-9.586666666666666,-2.2088888888888922,1.7311111111111095
8.6,-9.560000000000002,-2.359999999999987,1.6600000000000064
8.608,-9.533333333333333,-2.511111111111115,1.588888888888887
8.616,-9.50666666666667,-2.66222222222221,1.5177777777777837
8.624,-9.4,-2.6,1.7
8.632,-9.2,-1.7611111111111188,1.9166666666666634
8.64,-9.2,-1.6988888888888896,1.943333333333333
8.648,-9.2,-1.636666666666674,1.9699999999999969
8.656,-9.2,-1.5744444444444448,1.9966666666666666
8.664,-9.2,-1.5122222222222295,2.0233333333333303
8.672,-9.2,-1.4500000000000002,2.05
8.68,-9.2,-1.3877777777777847,2.076666666666664
8.688,-9.2,-1.3255555555555554,2.1033333333333335
8.696,-9.2,-1.2633333333333399,2.1299999999999972
8.704,-9.2,-1.2011111111111106,2.156666666666667
8.712,-9.2,-1.138888888888895,2.183333333333331
8.72,-9.30000000000009,-0.3499999999996891,2.4500000000001334
8.728,-9.695698924731182,-0.19569892473118328,2.995698924731183
8.736,-9.687096774193547,-0.1870967741935479,2.9870967741935477
8.744,-9.678494623655913,-0.17849462365591445,2.9784946236559144
8.752,-9.669892473118278,-0.16989247311827907,2.969892473118279
8.76,-9.661290322580644,-0.1612903225806456,2.9612903225806457
8.768,-9.65268817204301,-0.15268817204301022,2.9526881720430103
8.776,-9.644086021505377,-0.14408602150537675,2.9440860215053766
8.784,-9.635483870967741,-0.1354838709677414,2.935483870967741
8.792,-9.626881720430108,-0.12688172043010792,2.926881720430108
8.8,-9.618279569892472,-0.11827956989247256,2.9182795698924724
8.808,-9.609677419354838,-0.10967741935483909,2.909677419354839
8.816,-9.601075268817203,-0.10107526881720372,2.9010752688172037
8.824,-9.933333333333334,-0.2,2.533333333333333
8.832,-10.228571428571438,-0.41428571428571975,2.6
8.84,-10.342857142857147,-0.47142857142857325,2.6
8.848,-10.38356164383561,-0.4726027397260184,2.5890410958904075
8.856,-10.350684931506848,-0.41780821917807953,2.5671232876712318
8.864,-10.317808219178078,-0.3630136986301285,2.5452054794520516
8.872,-10.284931506849313,-0.3082191780821896,2.523287671232876
8.88,-10.252054794520543,-0.2534246575342386,2.5013698630136956
8.888,-10.21917808219178,-0.19863013698629972,2.47945205479452
8.896,-10.18630136986301,-0.1438356164383487,2.4575342465753396
8.904,-10.153424657534245,-0.08904109589040982,2.435616438356164
8.912,-10.120547945205475,-0.034246575342458785,2.4136986301369836
8.92,-9.9,0.25,2.2
8.928,-10.008510638297874,-0.6297872340425628,1.2617021276595621
8.936,-10.025531914893618,-0.6893617021276618,1.1851063829787205
8.944,-10.042553191489365,-0.7489361702127741,1.108510638297862
8.952,-10.059574468085106,-0.8085106382978732,1.0319148936170204
8.96,-10.076595744680853,-0.8680851063829855,0.9553191489361617
8.968,-10.093617021276595,-0.9276595744680846,0.8787234042553199
8.976,-10.110638297872342,-0.9872340425531969,0.8021276595744613
8.984,-10.127659574468083,-1.0468085106382958,0.7255319148936196
8.992,-10.14468085106383,-1.106382978723408,0.648936170212761
9.0,-10.161702127659574,-1.1659574468085072,0.5723404255319193
9.008000000000001,-10.178723404255319,-1.2255319148936197,0.4957446808510606
9.016,-10.195744680851062,-1.2851063829787186,0.419148936170219
9.024000000000001,-9.400000000000006,0.19999999999999105,1.999999999999975
9.032,-9.424242424242427,0.15959595959595518,1.8868686868686744
9.040000000000001,-9.448484848484854,0.11919191919191033,1.773737373737349
9.048,-9.472727272727276,0.07878787878787445,1.6606060606060484
9.056000000000001,-9.496969696969702,0.03838383838382961,1.5474747474747228
9.064,-9.521212121212123,-0.00202020202020628,1.4343434343434225
9.072000000000001,-9.54545454545455,-0.04242424242425111,1.3212121212120969
9.08,-9.569696969696972,-0.08282828282828697,1.2080808080807963
9.088000000000001,-9.593939393939399,-0.12323232323233185,1.094949494949471
9.096,-9.61818181818182,-0.1636363636363677,0.9818181818181706
9.104000000000001,-9.642424242424248,-0.20404040404041257,0.868686868686845
9.112,-9.666666666666668,-0.2444444444444484,0.7555555555555444
9.120000000000001,-9.690909090909095,-0.2848484848484933,0.642424242424219
9.128,-9.566666666666805,0.3666666666666864,0.4999999999998224
9.136000000000001,-9.282758620689654,0.09425287356321749,1.5
9.144,-9.255172413793105,0.08505747126436788,1.5
9.152000000000001,-9.22758620689655,0.07586206896551626,1.5
9.16,-9.200000000000001,0.06666666666666668,1.5
9.168000000000001,-9.172413793103445,0.057471264367815036,1.5
9.176,-9.144827586206898,0.04827586206896545,1.5
9.184000000000001,-9.117241379310341,0.03908045977011382,1.5
9.192,-9.089655172413792,0.02988505747126423,1.5
9.200000000000001,-9.062068965517238,0.0206896551724126,1.5
9.208,-9.034482758620689,0.01149425287356301,1.5
9.216000000000001,-9.006896551724134,0.002298850574711367,1.5
9.224,-10.300000000000125,0.19999999999998222,2.1500000000000092
9.232,-9.4,-0.3,2.5
9.24,-9.462921348314614,-0.3449438202247239,2.535955056179779
9.248,-9.525842696629214,-0.38988764044943786,2.5719101123595505
9.256,-9.588764044943826,-0.4348314606741618,2.6078651685393295
9.264,-9.651685393258425,-0.4797752808988757,2.6438202247191005
9.272,-9.71460674157304,-0.5247191011235997,2.6797752808988795
9.28,-9.777528089887639,-0.5696629213483135,2.715730337078651
9.288,-9.840449438202253,-0.6146067415730375,2.75168539325843
9.296,-9.903370786516852,-0.6595505617977515,2.787640449438201
9.304,-9.966292134831466,-0.7044943820224754,2.8235955056179805
9.312,-10.029213483146064,-0.7494382022471893,2.8595505617977515
9.32,-10.092134831460678,-0.7943820224719131,2.8955056179775305
9.328,-9.8,-1.3,2.0
9.336,-9.74666666666666,-1.1577777777777616,2.0533333333333394
9.344,-9.693333333333333,-1.0155555555555549,2.106666666666667
9.352,-9.639999999999993,-0.8733333333333165,2.1600000000000064
9.36,-9.586666666666666,-0.7311111111111097,2.213333333333334
9.368,-9.533333333333326,-0.5888888888888714,2.2666666666666733
9.376,-9.479999999999999,-0.44666666666666455,2.3200000000000007
9.384,-9.426666666666659,-0.3044444444444262,2.37333333333334
9.392,-9.373333333333331,-0.16222222222221938,2.4266666666666676
9.4,-9.319999999999993,-0.019999999999980922,2.480000000000007
9.408,-9.266666666666666,0.12222222222222578,2.533333333333335
9.416,-9.213333333333326,0.26444444444446424,2.586666666666674
9.424,-10.0,-1.1,1.6
9.432,-9.991397849462365,-1.031182795698917,1.6172043010752708
9.44,-9.98279569892473,-0.9623655913978494,1.6344086021505377
9.448,-9.974193548387095,-0.8935483870967664,1.6516129032258084
9.456,-9.965591397849462,-0.8247311827956987,1.6688172043010754
9.464,-9.956989247311826,-0.7559139784946156,1.686021505376346
9.472,-9.948387096774194,-0.687096774193548,1.703225806451613
9.48,-9.939784946236559,-0.618279569892465,1.7204301075268837
9.488,-9.931182795698925,-0.5494623655913973,1.7376344086021507
9.496,-9.92258064516129,-0.4806451612903143,1.7548387096774216
9.504,-9.913978494623656,-0.41182795698924657,1.7720430107526886
9.512,-9.90537634408602,-0.3430107526881635,1.7892473118279593
9.52,-9.700000000000088,1.5999999999994672,2.7999999999996446
9.528,-9.508510638297874,-0.07659574468087567,1.1702127659574373
9.536,-9.525531914893618,-0.22978723404255896,1.1106382978723381
9.544,-9.542553191489365,-0.3829787234042763,1.051063829787226
9.552,-9.559574468085106,-0.5361702127659596,0.9914893617021268
9.56,-9.576595744680853,-0.6893617021276769,0.9319148936170145
9.568,-9.593617021276595,-0.8425531914893603,0.8723404255319154
9.576,-9.610638297872342,-0.9957446808510776,0.8127659574468031
9.584,-9.627659574468083,-1.148936170212761,0.7531914893617041
9.592,-9.64468085106383,-1.3021276595744782,0.6936170212765917
9.6,-9.661702127659574,-1.4553191489361614,0.6340425531914927
9.608,-9.678723404255319,-1.6085106382978789,0.5744680851063805
9.616,-9.695744680851062,-1.7617021276595621,0.5148936170212813
9.624,-9.6,-2.3,1.25
9.632,-9.2,-1.3,3.6
9.64,-9.1,-3.607058823529412,3.3647058823529394
9.648,-9.1,-3.625882352941175,3.270588235294125
9.656,-9.1,-3.644705882352942,3.17647058823529
9.664,-9.1,-3.6635294117647046,3.082352941176476
9.672,-9.1,-3.6823529411764717,2.988235294117641
9.68,-9.1,-3.7011764705882344,2.8941176470588266
9.688,-9.1,-3.7200000000000015,2.7999999999999914
9.696,-9.1,-3.738823529411764,2.7058823529411775
9.704,-9.1,-3.7576470588235313,2.6117647058823423
9.712,-9.1,-3.776470588235294,2.517647058823528
9.72,-9.1,-3.795294117647061,2.423529411764693
9.728,-10.7,-1.9,6.1
9.736,-10.68202247191011,-1.980898876404503,6.117977528089889
9.744,-10.664044943820224,-2.061797752808988,6.135955056179775
9.752,-10.646067415730334,-2.142696629213491,6.153932584269665
9.76,-10.62808988764045,-2.2235955056179764,6.17191011235955
9.768,-10.610112359550559,-2.3044943820224795,6.18988764044944
9.776,-10.592134831460674,-2.3853932584269644,6.207865168539326
9.784,-10.574157303370784,-2.4662921348314675,6.225842696629215
9.792,-10.5561797752809,-2.5471910112359524,6.243820224719101
9.8,-10.538202247191009,-2.6280898876404555,6.26179775280899
9.808,-10.520224719101124,-2.708988764044941,6.279775280898876
9.816,-10.502247191011234,-2.789887640449444,6.297752808988765
9.824,-11.501075268817203,-1.9978494623655927,5.903225806451611
9.832,-11.509677419354839,-1.9806451612903218,5.929032258064518
9.84,-11.518279569892472,-1.9634408602150548,5.954838709677418
9.848,-11.526881720430108,-1.946236559139784,5.980645161290324
9.856,-11.535483870967742,-1.9290322580645172,6.006451612903224
9.864,-11.544086021505377,-1.9118279569892465,6.032258064516131
9.872,-11.55268817204301,-1.8946236559139795,6.058064516129031
9.88,-11.561290322580646,-1.8774193548387088,6.083870967741937
9.888,-11.569892473118278,-1.8602150537634419,6.1096774193548375
9.896,-11.578494623655914,-1.8430107526881712,6.135483870967743
9.904,-11.587096774193547,-1.8258064516129042,6.161290322580644
9.912,-11.595698924731183,-1.8086021505376335,6.18709677419355
9.92,-10.8,-1.5,5.9
9.928,-10.485416666666664,-1.5291666666666728,5.8
9.936,-10.468749999999998,-1.5625000000000022,5.8
9.944,-10.45208333333333,-1.5958333333333394,5.8
9.952,-10.435416666666665,-1.6291666666666689,5.8
9.96,-10.418749999999998,-1.6625000000000059,5.8
9.968,-10.402083333333332,-1.6958333333333355,5.8
9.976,-10.385416666666664,-1.7291666666666725,5.8
9.984,-10.368749999999999,-1.7625000000000022,5.8
9.992,-10.352083333333331,-1.7958333333333392,5.8
10.0,-10.335416666666665,-1.8291666666666688,5.8
10.008000000000001,-10.318749999999998,-1.8625000000000058,5.8
10.016,-10.302083333333332,-1.8958333333333355,5.8
10.024000000000001,-10.019999999999936,-2.1800000000000637,5.659999999999968
10.032,-9.64999999999999,-2.112499999999992,5.287499999999985
10.040000000000001,-8.089473684210514,-0.7010526315789486,5.398947368421052
10.048,-8.005263157894733,-0.7094736842105266,5.390526315789474
10.056000000000001,-7.921052631578935,-0.7178947368421065,5.382105263157894
10.064,-7.836842105263155,-0.7263157894736844,5.373684210526315
10.072000000000001,-7.752631578947357,-0.7347368421052642,5.365263157894736
10.08,-7.668421052631578,-0.7431578947368422,5.356842105263158
10.088000000000001,-7.584210526315779,-0.751578947368422,5.348421052631578
10.096,-7.5,-0.76,5.34
10.104000000000001,-7.415789473684201,-0.7684210526315799,5.3315789473684205
10.112,-7.331578947368421,-0.7768421052631578,5.323157894736842
10.120000000000001,-7.247368421052624,-0.7852631578947377,5.314736842105262
10.128,-7.163157894736844,-0.7936842105263157,5.306315789473684
10.136000000000001,-6.199999999999867,-1.2000000000000222,4.499999999999933
10.144,-5.6,-1.3,4.2
10.152000000000001,-4.778571428571425,-0.5642857142857088,4.292857142857142
10.16,-4.744285714285715,-0.5071428571428582,4.281428571428571
10.168000000000001,-4.709999999999996,-0.4499999999999949,4.269999999999999
10.176,-4.675714285714286,-0.3928571428571443,4.258571428571429
10.184000000000001,-4.641428571428569,-0.33571428571428097,4.247142857142856
10.192,-4.6071428571428585,-0.27857142857143036,4.235714285714286
10.200000000000001,-4.57285714285714,-0.22142857142856703,4.224285714285713
10.208,-4.53857142857143,-0.16428571428571642,4.2128571428571435
10.216000000000001,-4.504285714285712,-0.10714285714285315,4.201428571428571
10.224,-3.5999999999999996,0.25,4.05
10.232000000000001,-2.7954545454545436,0.6022727272727281,4.2090909090909125
10.24,-2.7772727272727273,0.6113636363636362,4.245454545454545
10.248,-2.759090909090911,0.6204545454545444,4.281818181818178
10.256,-2.7409090909090907,0.6295454545454545,4.318181818181818
10.264,-2.7227272727272744,0.6386363636363628,4.354545454545451
10.272,-2.704545454545454,0.6477272727272729,4.3909090909090915
10.28,-2.686363636363638,0.6568181818181811,4.427272727272724
10.288,-2.6681818181818175,0.6659090909090913,4.463636363636365
10.296,-2.6500000000000012,0.6749999999999995,4.499999999999998
10.304,-2.6318181818181805,0.6840909090909096,4.536363636363639
10.312,-2.613636363636364,0.6931818181818178,4.572727272727271
10.32,-2.5,0.4,5.1
10.328,-2.8,0.1,4.8571428571429545
10.336,-2.9494505494505563,0.4,4.027472527472532
10.344,-3.028571428571426,0.4,4.07142857142857
10.352,-3.107692307692313,0.4,4.1153846153846185
10.36,-3.1868131868131826,0.4,4.159340659340657
10.368,-3.2659340659340694,0.4,4.203296703296705
10.376,-3.345054945054939,0.4,4.247252747252744
10.384,-3.424175824175826,0.4,4.291208791208792
10.392,-3.5032967032966953,0.4,4.335164835164831
10.4,-3.5824175824175826,0.4,4.3791208791208796
10.408,-3.661538461538452,0.4,4.423076923076918
10.416,-3.740659340659339,0.4,4.467032967032966
10.424,-5.3,-0.20000000000000007,5.9
10.432,-8.640909090909092,-2.7897727272727266,7.5
10.44,-8.749999999999991,-2.762500000000002,7.5
10.448,-8.859090909090913,-2.7352272727272715,7.5
10.456,-8.968181818181812,-2.7079545454545473,7.5
10.464,-9.077272727272733,-2.6806818181818164,7.5
10.472,-9.186363636363632,-2.653409090909092,7.5
10.48,-9.295454545454554,-2.6261363636363613,7.5
10.488,-9.404545454545453,-2.598863636363637,7.5
10.496,-9.513636363636374,-2.571590909090906,7.5
10.504,-9.622727272727273,-2.544318181818182,7.5
10.512,-9.731818181818195,-2.5170454545454515,7.5
10.52,-11.2,-1.9,7.7
10.528,-11.0,-2.1,7.5
10.536,-10.147252747252745,-2.5329670329670337,8.01978021978022
10.544,-10.076923076923068,-2.576923076923082,8.04615384615385
10.552,-10.006593406593407,-2.620879120879121,8.072527472527472
10.56,-9.93626373626373,-2.664835164835169,8.098901098901102
10.568,-9.865934065934068,-2.7087912087912076,8.125274725274725
10.576,-9.79560439560439,-2.7527472527472563,8.151648351648355
10.584,-9.725274725274728,-2.7967032967032948,8.178021978021977
10.592,-9.65494505494505,-2.840659340659343,8.204395604395605
10.6,-9.58461538461539,-2.8846153846153815,8.23076923076923
10.608,-9.514285714285712,-2.92857142857143,8.257142857142858
10.616,-9.443956043956051,-2.9725274725274686,8.283516483516483
10.624,-8.6,-2.9,9.0
10.632,-9.9,-2.796590909090909,6.717045454545455
10.64,-9.9,-2.7874999999999988,6.7625000000000055
10.648,-9.9,-2.778409090909091,6.807954545454545
10.656,-9.9,-2.769318181818181,6.8534090909090954
10.664,-9.9,-2.7602272727272728,6.898863636363635
10.672,-9.9,-2.751136363636363,6.944318181818185
10.68,-9.9,-2.742045454545455,6.989772727272725
10.688,-9.9,-2.732954545454545,7.035227272727275
10.696,-9.9,-2.723863636363637,7.080681818181815
10.704,-9.9,-2.7147727272727273,7.126136363636365
10.712,-9.9,-2.705681818181819,7.171590909090905
10.72,-8.999999999999734,-3.000000000000089,7.649999999999867
10.728,-8.1,-3.4111111111111065,6.988888888888893
10.736,-8.108988764044947,-3.4955056179775266,6.882022471910107
10.744,-8.126966292134831,-3.4865168539325837,6.846067415730335
10.752,-8.144943820224722,-3.477528089887639,6.810112359550557
10.76,-8.162921348314608,-3.468539325842696,6.774157303370785
10.768,-8.180898876404497,-3.4595505617977516,6.738202247191006
10.776,-8.198876404494383,-3.4505617977528087,6.702247191011235
10.784,-8.216853932584273,-3.441573033707864,6.666292134831456
10.792,-8.234831460674158,-3.432584269662921,6.630337078651684
10.8,-8.252808988764048,-3.423595505617976,6.594382022471906
10.808,-8.270786516853933,-3.4146067415730332,6.558426966292134
10.816,-8.288764044943823,-3.4056179775280886,6.522471910112355
10.824,-8.4,-3.0,6.4
10.832,-7.6999999999998225,-2.299999999999911,5.649999999999867
10.84,-7.483333333333334,-2.1916666666666673,5.475000000000001
10.848,-7.464285714285713,-2.1821428571428565,5.446428571428569
10.856,-7.445238095238095,-2.172619047619048,5.417857142857144
10.864,-7.426190476190475,-2.1630952380952375,5.389285714285712
10.872,-7.4071428571428575,-2.153571428571429,5.360714285714287
10.88,-7.388095238095236,-2.144047619047618,5.332142857142855
10.888,-7.369047619047619,-2.1345238095238095,5.303571428571429
10.896,-7.349999999999998,-2.124999999999999,5.274999999999997
10.904,-7.330952380952381,-2.1154761904761905,5.246428571428572
10.912,-7.311904761904759,-2.1059523809523797,5.21785714285714
10.92,-7.6,-2.3,4.5
10.928,-8.5,-2.3,3.9
10.936,-8.517977528089887,-2.273033707865171,3.9
10.944,-8.535955056179775,-2.246067415730336,3.9
10.952,-8.553932584269662,-2.2191011235955074,3.9
10.96,-8.571910112359552,-2.192134831460672,3.9
10.968,-8.589887640449437,-2.1651685393258435,3.9
10.976,-8.607865168539327,-2.1382022471910087,3.9
10.984,-8.625842696629213,-2.1112359550561797,3.9
10.992,-8.643820224719104,-2.084269662921345,3.9
11.0,-8.661797752808988,-2.057303370786516,3.9
11.008000000000001,-8.679775280898879,-2.030337078651681,3.9
11.016,-8.697752808988765,-2.003370786516852,3.9
11.024000000000001,-9.700000000000177,-1.199999999999941,3.1999999999998225
11.032,-10.516842105263157,-1.095789473684211,3.0168421052631564
11.040000000000001,-10.550526315789476,-1.087368421052631,3.050526315789476
11.048,-10.584210526315788,-1.0789473684210529,3.084210526315789
11.056000000000001,-10.617894736842109,-1.0705263157894729,3.117894736842109
11.064,-10.65157894736842,-1.0621052631578949,3.1515789473684213
11.072000000000001,-10.685263157894742,-1.0536842105263147,3.1852631578947412
11.08,-10.718947368421054,-1.0452631578947367,3.2189473684210537
11.088000000000001,-10.752631578947375,-1.0368421052631567,3.2526315789473736
11.096,-10.786315789473687,-1.0284210526315785,3.286315789473686
11.104000000000001,-10.820000000000006,-1.0199999999999985,3.320000000000006
11.112,-10.85368421052632,-1.0115789473684205,3.3536842105263185
11.120000000000001,-10.887368421052638,-1.0031578947368405,3.3873684210526385
11.128,-10.820000000000007,-0.9199999999999894,4.499999999999982
11.136000000000001,-10.549999999999955,-1.1333333333333433,4.850000000000015
11.144,-9.950000000000045,-1.2666666666666568,5.049999999999985
11.152000000000001,-7.915492957746466,-0.30140845070420963,5.06478873239436
11.16,-7.780281690140846,-0.14366197183098695,5.008450704225352
11.168000000000001,-7.645070422535197,0.01408450704227071,4.952112676056331
11.176,-7.509859154929577,0.1718309859154934,4.895774647887324
11.184000000000001,-7.374647887323928,0.32957746478875105,4.8394366197183025
11.192,-7.239436619718308,0.48732394366197374,4.783098591549295
11.200000000000001,-7.104225352112659,0.6450704225352314,4.7267605633802745
11.208,-6.969014084507039,0.802816901408454,4.670422535211266
11.216000000000001,-6.83380281690139,0.9605633802817116,4.614084507042246
11.224,-8.6,2.4,4.4
11.232000000000001,-8.807608695652176,1.4391304347825964,4.092391304347824
11.24,-8.816304347826089,1.3695652173913002,4.083695652173912
11.248000000000001,-8.825000000000003,1.2999999999999883,4.074999999999998
11.256,-8.833695652173914,1.230434782608692,4.066304347826086
11.264,-8.842391304347826,1.1608695652173957,4.057608695652174
11.272,-8.85108695652174,1.091304347826084,4.048913043478261
11.28,-8.859782608695651,1.0217391304347878,4.040217391304348
11.288,-8.868478260869566,0.952173913043476,4.031521739130435
11.296,-8.877173913043478,0.8826086956521797,4.022826086956522
11.304,-8.885869565217392,0.813043478260868,4.014130434782609
11.312,-8.894565217391303,0.7434782608695717,4.005434782608696
11.32,-8.0,0.1,4.4
11.328,-6.894736842105265,0.2,3.9
11.336,-6.886315789473684,0.2,3.9
11.344,-6.877894736842106,0.2,3.9
11.352,-6.869473684210527,0.2,3.9
11.36,-6.861052631578948,0.2,3.9
11.368,-6.852631578947368,0.2,3.9
11.376,-6.8442105263157895,0.2,3.9
11.384,-6.83578947368421,0.2,3.9
11.392,-6.827368421052632,0.2,3.9
11.4,-6.8189473684210515,0.2,3.9
11.408,-6.810526315789473,0.2,3.9
11.416,-6.802105263157894,0.2,3.9
11.424,-7.3599999999999435,-0.41999999999995735,4.579999999999972
11.432,-7.644444444444451,-0.6166666666666692,4.688888888888887
11.44,-7.715555555555555,-0.6433333333333331,4.671111111111111
11.448,-7.786666666666674,-0.6700000000000028,4.6533333333333315
11.456,-7.857777777777777,-0.6966666666666665,4.635555555555555
11.464,-7.928888888888896,-0.7233333333333363,4.617777777777776
11.472,-8.0,-0.75,4.6
11.48,-8.071111111111119,-0.7766666666666697,4.58222222222222
11.488,-8.142222222222223,-0.8033333333333335,4.564444444444445
11.496,-8.213333333333342,-0.8300000000000032,4.546666666666664
11.504,-8.284444444444446,-0.8566666666666669,4.528888888888889
11.512,-8.355555555555565,-0.8833333333333366,4.511111111111109
11.52,-9.549999999999917,-0.9625000000000208,4.512499999999993
11.528,-10.149999999999983,-0.8125000000000041,4.562499999999998
11.536,-10.450000000000134,-0.5,4.849999999999956
11.544,-10.379746835443036,-0.5177215189873412,4.873417721518988
11.552,-10.470886075949355,-0.5379746835443013,4.843037974683548
11.56,-10.562025316455697,-0.5582278481012659,4.812658227848101
11.568,-10.653164556962016,-0.5784810126582259,4.7822784810126615
11.576,-10.744303797468358,-0.5987341772151905,4.751898734177214
11.584,-10.835443037974677,-0.6189873417721506,4.721518987341774
11.592,-10.926582278481018,-0.6392405063291152,4.6911392405063275
11.6,-11.017721518987338,-0.6594936708860752,4.660759493670887
11.608,-11.108860759493679,-0.6797468354430398,4.63037974683544
11.616,-11.2,-0.7,4.6
11.624,-14.89375,-2.221875000000001,4.60625
11.632,-14.877083333333335,-2.2802083333333276,4.622916666666665
11.64,-14.860416666666666,-2.3385416666666674,4.639583333333333
11.648,-14.843750000000002,-2.3968749999999943,4.656249999999998
11.656,-14.827083333333333,-2.455208333333334,4.672916666666667
11.664,-14.810416666666669,-2.513541666666661,4.689583333333331
11.672,-14.79375,-2.571875000000001,4.70625
11.68,-14.777083333333335,-2.6302083333333277,4.722916666666665
11.688,-14.760416666666666,-2.6885416666666675,4.739583333333333
11.696,-14.74375,-2.7468749999999944,4.756249999999998
11.704,-14.727083333333333,-2.805208333333334,4.772916666666667
11.712,-14.710416666666667,-2.863541666666661,4.789583333333331
11.72,-10.5,-1.8,5.7
11.728,-7.483333333333279,-0.5499999999999852,4.416666666666632
11.736,-7.339772727272735,-0.555681818181829,4.260227272727264
11.744,-7.385227272727275,-0.619318181818185,4.214772727272725
11.752,-7.430681818181825,-0.6829545454545551,4.169318181818174
11.76,-7.476136363636365,-0.7465909090909111,4.123863636363635
11.768,-7.521590909090915,-0.810227272727281,4.078409090909084
11.776,-7.567045454545455,-0.873863636363637,4.032954545454545
11.784,-7.612500000000005,-0.9375000000000071,3.987499999999995
11.792,-7.657954545454545,-1.001136363636363,3.942045454545455
11.8,-7.703409090909095,-1.0647727272727332,3.8965909090909046
11.808,-7.748863636363635,-1.1284090909090891,3.851136363636365
11.816,-7.794318181818185,-1.192045454545459,3.8056818181818146
11.824,-9.9,-2.3,3.8
11.832,-9.747058823529395,-2.229411764705874,3.7882352941176456
11.84,-9.594117647058821,-2.1588235294117637,3.776470588235294
11.848,-9.441176470588216,-2.088235294117638,3.76470588235294
11.856,-9.288235294117642,-2.0176470588235276,3.752941176470588
11.864,-9.135294117647037,-1.9470588235294015,3.7411764705882335
11.872,-8.982352941176465,-1.8764705882352912,3.729411764705882
11.88,-8.829411764705858,-1.8058823529411652,3.7176470588235278
11.888,-8.676470588235286,-1.7352941176470549,3.705882352941176
11.896,-7.959999999999886,-1.2999999999999288,3.5399999999999716
11.904,-7.699999999999999,-1.05,3.3
11.912,-7.666666666666745,-0.9,2.9666666666665087
11.92,-8.1,-1.320000000000003,2.4899999999999984
11.928,-8.1,-1.352000000000006,2.473999999999997
11.936,-8.1,-1.3840000000000021,2.457999999999999
11.944,-8.1,-1.416000000000005,2.4419999999999975
11.952,-8.1,-1.448000000000001,2.4259999999999993
11.96,-8.1,-1.4800000000000042,2.409999999999998
11.968,-8.1,-1.5120000000000002,2.3939999999999997
11.976,-8.1,-1.5440000000000034,2.3779999999999983
11.984,-8.1,-1.5759999999999994,2.362
11.992,-8.1,-1.6080000000000025,2.3459999999999988
12.0,-8.1,-1.6399999999999986,2.3300000000000005
12.008000000000001,-8.1,-1.6720000000000017,2.313999999999999
12.016,-8.0,-1.6,2.3
12.024000000000001,-7.749999999999997,-1.2833333333333325,2.4
12.032,-7.683333333333337,-1.2611111111111124,2.4
12.040000000000001,-7.616666666666663,-1.2388888888888876,2.4
12.048,-7.5500000000000025,-1.2166666666666675,2.4
12.056000000000001,-7.502898550724638,-1.1971014492753613,2.397101449275361
12.064,-7.5144927536231885,-1.1855072463768117,2.3855072463768114
12.072000000000001,-7.52608695652174,-1.1739130434782594,2.3739130434782596
12.08,-7.53768115942029,-1.16231884057971,2.36231884057971
12.088000000000001,-7.549275362318842,-1.1507246376811577,2.3507246376811577
12.096,-7.560869565217391,-1.1391304347826081,2.339130434782608
12.104000000000001,-7.572463768115944,-1.127536231884056,2.327536231884056
12.112,-7.584057971014493,-1.1159420289855064,2.315942028985506
12.120000000000001,-7.595652173913045,-1.1043478260869541,2.304347826086954
12.128,-10.5,-0.4,1.8
12.136000000000001,-13.128571428571515,-0.28571428571429297,2.185714285714293
12.144,-13.3,-0.2825000000000008,2.226249999999999
12.152000000000001,-13.3,-0.2624999999999986,2.2562500000000023
12.16,-13.3,-0.24250000000000083,2.286249999999999
12.168000000000001,-13.3,-0.2224999999999986,2.3162500000000024
12.176,-13.3,-0.20250000000000082,2.346249999999999
12.184000000000001,-13.3,-0.1824999999999986,2.376250000000002
12.192,-13.3,-0.1625000000000008,2.4062499999999987
12.200000000000001,-13.3,-0.1424999999999986,2.436250000000002
12.208,-13.3,-0.12250000000000083,2.4662499999999987
12.216000000000001,-13.3,-0.10249999999999859,2.496250000000002
12.224,-8.379000000000012,0.004999999999997246,4.504999999999997
12.232000000000001,-8.210999999999993,0.045000000000001865,4.545000000000002
12.24,-8.04300000000001,0.0849999999999976,4.584999999999997
12.248000000000001,-7.874999999999991,0.12500000000000222,4.625000000000002
12.256,-7.707000000000009,0.16499999999999795,4.664999999999998
12.264000000000001,-7.538999999999989,0.20500000000000257,4.705000000000003
12.272,-7.3710000000000075,0.2449999999999983,4.744999999999998
12.280000000000001,-7.202999999999988,0.2850000000000029,4.785000000000003
12.288,-7.0350000000000055,0.3249999999999987,4.824999999999998
12.296,-6.867000000000023,0.3649999999999944,4.864999999999994
12.304,-6.699000000000003,0.404999999999999,4.904999999999999
12.312,-6.531000000000022,0.44499999999999473,4.944999999999995
12.32,-6.363000000000002,0.4849999999999994,4.984999999999999
12.328,-5.9153846153846885,0.6538461538461244,4.807692307692345
12.336,-5.3,0.9,4.5
12.344,-10.312000000000001,1.296,3.196
12.352,-10.344000000000005,1.2853333333333323,3.1853333333333325
12.36,-10.376,1.2746666666666668,3.174666666666667
12.368,-10.408000000000003,1.2639999999999991,3.1639999999999993
12.376,-10.44,1.2533333333333339,3.1533333333333338
12.384,-10.472000000000001,1.2426666666666661,3.142666666666666
12.392,-10.503999999999998,1.2320000000000007,3.132000000000001
12.4,-10.536000000000001,1.221333333333333,3.1213333333333333
12.408,-10.567999999999996,1.2106666666666677,3.110666666666668
12.416,-10.6,1.2,3.1
12.424,-7.3,1.3,3.3
12.432,-7.313636363636364,0.8693181818181804,3.193181818181818
12.44,-7.349999999999997,0.7875000000000069,3.1750000000000016
12.448,-7.386363636363638,0.7056818181818151,3.1568181818181813
12.456,-7.42272727272727,0.6238636363636415,3.138636363636365
12.464,-7.459090909090911,0.5420454545454498,3.1204545454545447
12.472,-7.495454545454544,0.4602272727272762,3.102272727272728
12.48,-7.531818181818185,0.3784090909090845,3.0840909090909077
12.488,-7.5681818181818175,0.2965909090909109,3.0659090909090914
12.496,-7.604545454545458,0.21477272727271912,3.047727272727271
12.504,-7.640909090909091,0.13295454545454555,3.0295454545454548
12.512,-7.677272727272732,0.051136363636353876,3.011363636363634
12.52,-8.0,-0.7,3.5
12.528,-7.9,-0.9,3.3
12.536,-7.935955056179772,-0.9089887640449428,3.3089887640449427
12.544,-7.97191011235955,-0.9179775280898876,3.3179775280898873
12.552,-8.007865168539322,-0.9269662921348304,3.32696629213483
12.56,-8.0438202247191,-0.9359550561797751,3.335955056179775
12.568,-8.079775280898872,-0.9449438202247179,3.3449438202247177
12.576,-8.115730337078652,-0.9539325842696628,3.353932584269663
12.584,-8.151685393258422,-0.9629213483146055,3.362921348314605
12.592,-8.187640449438202,-0.9719101123595503,3.3719101123595503
12.6,-8.223595505617974,-0.980898876404493,3.380898876404493
12.608,-8.259550561797752,-0.9898876404494379,3.389887640449438
12.616,-8.295505617977524,-0.9988764044943806,3.3988764044943807
12.624,-9.6,-1.3,4.1
12.632,-10.903409090909092,-1.7034090909090909,4.6
12.64,-10.912500000000001,-1.712500000000001,4.6
12.648,-10.92159090909091,-1.721590909090909,4.6
12.656,-10.930681818181819,-1.730681818181819,4.6
12.664,-10.939772727272727,-1.739772727272727,4.6
12.672,-10.948863636363637,-1.748863636363637,4.6
12.68,-10.957954545454545,-1.757954545454545,4.6
12.688,-10.967045454545454,-1.767045454545455,4.6
12.696,-10.976136363636362,-1.776136363636363,4.6
12.704,-10.985227272727274,-1.785227272727273,4.6
12.712,-10.994318181818182,-1.794318181818181,4.6
12.72,-13.2,-1.9,4.3
12.728,-14.905050505050504,-2.1,4.510101010101009
12.736,-14.913131313131313,-2.1,4.526262626262627
12.744,-14.92121212121212,-2.1,4.542424242424241
12.752,-14.929292929292929,-2.1,4.558585858585859
12.76,-14.937373737373738,-2.1,4.574747474747474
12.768,-14.945454545454547,-2.1,4.590909090909093
12.776,-14.953535353535354,-2.1,4.607070707070707
12.784,-14.961616161616163,-2.1,4.623232323232325
12.792,-14.96969696969697,-2.1,4.63939393939394
12.8,-14.97777777777778,-2.1,4.655555555555558
12.808,-14.985858585858587,-2.1,4.671717171717173
12.816,-14.993939393939396,-2.1,4.687878787878791
12.824,-13.5333333333329,-2.0333333333333137,4.966666666666746
12.832,-8.348275862068968,-1.8034482758620691,3.4724137931034473
12.84,-8.477011494252862,-1.8126436781609188,3.3988505747126503
12.848,-8.605747126436786,-1.8218390804597704,3.3252873563218373
12.856,-8.734482758620679,-1.83103448275862,3.2517241379310406
12.864,-8.863218390804601,-1.8402298850574716,3.1781609195402276
12.872,-8.991954022988496,-1.849425287356321,3.104597701149431
12.88,-9.120689655172418,-1.8586206896551727,3.031034482758618
12.888,-9.249425287356313,-1.8678160919540223,2.9574712643678214
12.896,-9.378160919540235,-1.877011494252874,2.8839080459770083
12.904,-9.506896551724129,-1.8862068965517236,2.8103448275862117
12.912,-9.635632183908053,-1.8954022988505752,2.7367816091953987
12.92,-11.2,-2.2,2.1
12.928,-9.140860215053754,-1.3731182795698882,2.6
12.936,-9.046236559139786,-1.3301075268817208,2.6
12.944,-8.951612903225797,-1.287096774193544,2.6
12.952,-8.856989247311828,-1.2440860215053766,2.6
12.96,-8.76236559139784,-1.2010752688172,2.6
12.968,-8.667741935483871,-1.1580645161290326,2.6
12.976,-8.573118279569883,-1.1150537634408557,2.6
12.984,-8.478494623655914,-1.0720430107526884,2.6
12.992,-8.383870967741926,-1.0290322580645115,2.6
13.0,-8.289247311827957,-0.9860215053763441,2.6
13.008000000000001,-8.194623655913968,-0.9430107526881673,2.6
13.016,-8.1,-0.9,2.6
13.024000000000001,-6.925000000000004,-0.10000000000001481,2.124999999999989
13.032,-6.991666666666671,-0.3666666666666815,1.9249999999999887
13.040000000000001,-7.022580645161295,-0.4301075268817267,1.8774193548387048
13.048,-7.048387096774196,-0.4645161290322606,1.8516129032258046
13.056000000000001,-7.074193548387101,-0.49892473118280206,1.8258064516128985
13.064,-7.100000000000001,-0.5333333333333359,1.799999999999998
13.072000000000001,-7.125806451612908,-0.5677419354838774,1.7741935483870919
13.08,-7.151612903225808,-0.6021505376344113,1.7483870967741915
13.088000000000001,-7.177419354838714,-0.6365591397849528,1.7225806451612855
13.096,-7.203225806451615,-0.6709677419354867,1.696774193548385
13.104000000000001,-7.229032258064521,-0.7053763440860281,1.670967741935479
13.112,-7.254838709677421,-0.739784946236562,1.6451612903225787
13.120000000000001,-7.280645161290328,-0.7741935483871034,1.6193548387096726
13.128,-7.3,-1.1,1.6
13.136000000000001,-8.708641975308652,-1.3,1.398765432098764
13.144,-8.77777777777778,-1.3,1.3888888888888884
13.152000000000001,-8.846913580246925,-1.3,1.3790123456790107
13.16,-8.916049382716054,-1.3,1.3691358024691351
13.168000000000001,-8.985185185185198,-1.3,1.3592592592592574
13.176,-9.054320987654327,-1.3,1.3493827160493819
13.184000000000001,-9.12345679012347,-1.3,1.3395061728395043
13.192,-9.192592592592598,-1.3,1.3296296296296288
13.200000000000001,-9.261728395061743,-1.3,1.319753086419751
13.208,-9.330864197530872,-1.3,1.3098765432098756
13.216000000000001,-9.400000000000178,-1.2999999999999408,1.3000000000000296
13.224,-11.0,-0.9,1.7
13.232000000000001,-12.446153846153855,-0.6923076923076907,1.7307692307692368
13.24,-12.498901098901102,-0.6835164835164831,1.7659340659340677
13.248000000000001,-12.55164835164836,-0.6747252747252733,1.8010989010989062
13.256,-12.604395604395606,-0.6659340659340657,1.8362637362637373
13.264000000000001,-12.657142857142864,-0.657142857142856,1.8714285714285759
13.272,-12.709890109890111,-0.6483516483516483,1.9065934065934067
13.280000000000001,-12.762637362637369,-0.6395604395604386,1.9417582417582455
13.288,-12.815384615384614,-0.6307692307692309,1.9769230769230763
13.296000000000001,-12.868131868131872,-0.6219780219780212,2.012087912087915
13.304,-12.92087912087912,-0.6131868131868135,2.0472527472527458
13.312000000000001,-12.973626373626377,-0.6043956043956038,2.082417582417585
13.32,-13.5,-0.7,2.2
13.328,-9.3,-1.2,4.2
13.336,-9.10909090909089,-1.2,4.2181818181818205
13.344,-8.918181818181823,-1.2,4.236363636363636
13.352,-8.727272727272712,-1.2,4.254545454545457
13.36,-8.536363636363644,-1.2,4.2727272727272725
13.368,-8.345454545454535,-1.2,4.290909090909092
13.376,-8.154545454545467,-1.2,4.309090909090909
13.384,-7.963636363636356,-1.2,4.327272727272728
13.392,-7.7727272727272885,-1.2,4.345454545454544
13.4,-7.5818181818181785,-1.2,4.363636363636364
13.408,-7.39090909090911,-1.2,4.38181818181818
13.416,-7.2,-1.2,4.4
13.424,-9.673913043478255,1.0260869565217385,2.9260869565217384
13.432,-10.404347826086985,1.095652173913046,2.995652173913046
13.44,-11.134782608695554,1.1652173913043384,3.0652173913043383
13.448,-11.527777777777775,1.17777777777778,3.127777777777775
13.456,-11.583333333333325,1.13333333333334,3.183333333333325
13.464,-11.638888888888888,1.08888888888889,3.2388888888888876
13.472,-11.694444444444438,1.0444444444444498,3.2944444444444376
13.48,-11.75,1.0,3.35
13.488,-11.80555555555555,0.9555555555555599,3.40555555555555
13.496,-11.861111111111112,0.9111111111111101,3.4611111111111126
13.504,-11.916666666666663,0.86666666666667,3.5166666666666626
13.512,-11.972222222222225,0.8222222222222201,3.572222222222225
13.52,-8.300000000000711,0.8499999999999557,4.149999999999956
13.528,-6.7030769230769245,0.6876923076923035,3.8938461538461517
13.536,-6.7153846153846155,0.6384615384615393,3.8692307692307697
13.544,-6.727692307692309,0.5892307692307641,3.844615384615382
13.552,-6.74,0.54,3.82
13.56,-6.752307692307694,0.49076923076922485,3.7953846153846125
13.568,-6.764615384615385,0.44153846153846066,3.7707692307692304
13.576,-6.776923076923079,0.3923076923076856,3.746153846153843
13.584,-6.78923076923077,0.3430769230769214,3.721538461538461
13.592,-6.887500000000097,0.2249999999999167,3.6624999999999583
13.6,-7.9,-1.1,3.2
13.608,-7.8,-2.703603603603605,2.7
13.616,-7.8,-2.7108108108108113,2.7
13.624,-7.8,-2.7180180180180193,2.7
13.632,-7.8,-2.7252252252252256,2.7
13.64,-7.8,-2.7324324324324336,2.7
13.648,-7.8,-2.73963963963964,2.7
13.656,-7.8,-2.746846846846848,2.7
13.664,-7.8,-2.754054054054054,2.7
13.672,-7.8,-2.761261261261262,2.7
13.68,-7.8,-2.7684684684684684,2.7
13.688,-7.8,-2.7756756756756764,2.7
13.696,-7.8,-2.7828828828828827,2.7
13.704,-7.8,-2.7900900900900907,2.7
13.712,-7.8,-2.797297297297297,2.7
13.72,-8.30000000000006,-2.5499999999999705,2.783333333333343
13.728,-10.025531914893614,-2.204255319148936,3.717021276595743
13.736,-10.076595744680855,-2.212765957446809,3.7510638297872365
13.744,-10.127659574468083,-2.2212765957446807,3.7851063829787224
13.752,-10.178723404255322,-2.2297872340425537,3.8191489361702153
13.76,-10.229787234042552,-2.2382978723404254,3.853191489361701
13.768,-10.280851063829791,-2.246808510638299,3.8872340425531946
13.776,-10.33191489361702,-2.25531914893617,3.9212765957446805
13.784,-10.38297872340426,-2.2638297872340436,3.955319148936174
13.792,-10.434042553191489,-2.272340425531915,3.9893617021276597
13.8,-10.48510638297873,-2.2808510638297883,4.023404255319153
13.808,-10.536170212765958,-2.2893617021276595,4.0574468085106385
13.816,-10.587234042553199,-2.297872340425533,4.091489361702132
13.824,-11.564705882352907,-0.6823529411764798,4.076470588235306
13.832,-12.082352941176511,-0.5411764705882243,3.8882352941176324
13.84,-12.6,-0.4,3.7
13.848,-13.57105263157895,-0.7631578947368455,3.4842105263157888
13.856,-13.665789473684205,-0.8473684210526271,3.463157894736843
13.864,-13.76052631578948,-0.9315789473684275,3.442105263157893
13.872,-13.855263157894735,-1.015789473684209,3.421052631578948
13.88,-13.95000000000001,-1.1000000000000094,3.3999999999999977
13.888,-14.044736842105266,-1.184210526315791,3.378947368421052
13.896,-14.13947368421054,-1.2684210526315913,3.357894736842102
13.904,-14.234210526315795,-1.3526315789473728,3.3368421052631567
13.912,-14.32894736842107,-1.4368421052631732,3.3157894736842066
13.92,-13.5,-2.1,3.8
13.928,-8.60989010989011,-1.9934065934065932,3.0802197802197795
13.936,-8.636263736263734,-1.9758241758241772,3.0274725274725323
13.944,-8.662637362637364,-1.9582417582417577,2.974725274725273
13.952,-8.689010989010987,-1.940659340659342,2.921978021978026
13.96,-8.715384615384616,-1.9230769230769222,2.8692307692307666
13.968,-8.741758241758241,-1.9054945054945065,2.8164835164835194
13.976,-8.76813186813187,-1.8879120879120868,2.76373626373626
13.984,-8.794505494505493,-1.870329670329671,2.710989010989013
13.992,-8.820879120879123,-1.8527472527472513,2.6582417582417537
14.0,-8.847252747252748,-1.8351648351648355,2.6054945054945065
14.008000000000001,-8.873626373626376,-1.8175824175824158,2.5527472527472472
14.016,-8.9,-1.8,2.5
14.024000000000001,-11.599999999999824,-1.3499999999998669,1.3499999999999557
14.032,-9.873913043478252,-0.8891304347826051,1.4
14.040000000000001,-9.769565217391285,-0.8456521739130353,1.4
14.048,-9.66521739130434,-0.8021739130434751,1.4
14.056000000000001,-9.560869565217374,-0.7586956521739053,1.4
14.064,-9.456521739130428,-0.7152173913043451,1.4
14.072000000000001,-9.35217391304346,-0.6717391304347753,1.4
14.08,-9.247826086956517,-0.6282608695652151,1.4
14.088000000000001,-9.143478260869548,-0.5847826086956452,1.4
14.096,-9.039130434782603,-0.541304347826085,1.4
14.104000000000001,-8.934782608695636,-0.49782608695651526,1.4
14.112,-8.830434782608691,-0.45434782608695506,1.4
14.120000000000001,-8.726086956521725,-0.4108695652173852,1.4
14.128,-7.1,-0.5,1.9
14.136000000000001,-7.10909090909091,-0.5272727272727306,1.8818181818181796
14.144,-7.118181818181818,-0.5545454545454551,1.863636363636363
14.152000000000001,-7.127272727272729,-0.5818181818181857,1.8454545454545428
14.16,-7.136363636363637,-0.6090909090909102,1.8272727272727265
14.168000000000001,-7.145454545454546,-0.6363636363636408,1.809090909090906
14.176,-7.154545454545455,-0.6636363636363654,1.7909090909090897
14.184000000000001,-7.163636363636365,-0.6909090909090959,1.7727272727272694
14.192,-7.172727272727274,-0.7181818181818205,1.754545454545453
14.200000000000001,-7.181818181818183,-0.745454545454551,1.7363636363636326
14.208,-7.190909090909092,-0.7727272727272756,1.7181818181818163
14.216000000000001,-7.200000000000089,-0.8000000000002665,1.6999999999998223
14.224,-7.409090909090921,-1.1545454545454605,1.390909090909079
14.232000000000001,-7.8000000000001775,-1.399999999999911,1.2000000000000888
14.24,-8.021686746987953,-1.2927710843373492,1.3144578313253017
14.248000000000001,-8.050602409638559,-1.2831325301204806,1.3337349397590388
14.256,-8.079518072289158,-1.2734939759036144,1.3530120481927717
14.264000000000001,-8.108433734939764,-1.2638554216867457,1.3722891566265085
14.272,-8.137349397590363,-1.2542168674698793,1.3915662650602414
14.280000000000001,-8.166265060240969,-1.2445783132530108,1.4108433734939785
14.288,-8.195180722891568,-1.2349397590361444,1.4301204819277111
14.296000000000001,-8.224096385542174,-1.2253012048192757,1.4493975903614482
14.304,-8.253012048192772,-1.2156626506024095,1.468674698795181
14.312000000000001,-8.281927710843378,-1.2060240963855409,1.4879518072289182
14.32,-8.987499999999962,-1.0,1.4750000000000112
14.328000000000001,-10.300000000000622,-0.8999999999999112,1.4000000000003552
14.336,-11.08372093023256,-0.8069767441860468,1.8279069767441871
14.344,-11.195348837209293,-0.8162790697674411,1.8651162790697642
14.352,-11.306976744186048,-0.8255813953488375,1.9023255813953497
14.36,-11.41860465116278,-0.8348837209302318,1.9395348837209268
14.368,-11.530232558139536,-0.8441860465116281,1.9767441860465123
14.376,-11.641860465116268,-0.8534883720930224,2.0139534883720893
14.384,-11.753488372093024,-0.8627906976744187,2.051162790697675
14.392,-11.865116279069756,-0.8720930232558131,2.088372093023252
14.4,-11.976744186046512,-0.8813953488372094,2.1255813953488376
14.408,-12.088372093023242,-0.8906976744186037,2.162790697674415
14.416,-12.2,-0.9,2.2
14.424,-14.811111111111225,-0.7333333333332807,2.799999999999921
14.432,-13.769999999999964,-1.2088888888888996,3.5111111111111244
14.44,-13.529999999999996,-1.2800000000000016,3.600000000000002
14.448,-13.289999999999973,-1.3511111111111194,3.6888888888888993
14.456,-13.050000000000004,-1.4222222222222214,3.777777777777777
14.464,-12.809999999999981,-1.493333333333339,3.866666666666674
14.472,-12.570000000000011,-1.5644444444444412,3.9555555555555513
14.48,-12.32999999999999,-1.635555555555559,4.044444444444449
14.488,-12.09000000000002,-1.7066666666666608,4.133333333333326
14.496,-11.849999999999998,-1.7777777777777786,4.222222222222223
14.504,-11.610000000000028,-1.8488888888888806,4.311111111111101
14.512,-11.370000000000005,-1.9199999999999984,4.399999999999998
14.52,-11.130000000000036,-1.9911111111111004,4.488888888888876
14.528,-7.0,-1.2999999999999998,3.25
14.536,-9.14698795180723,0.10722891566265086,1.8963855421686744
14.544,-9.27228915662652,0.12650602409638792,1.886746987951806
14.552,-9.397590361445785,0.1457831325301207,1.8771084337349395
14.56,-9.522891566265075,0.16506024096385774,1.867469879518071
14.568,-9.648192771084338,0.1843373493975905,1.8578313253012047
14.576,-9.77349397590363,0.20361445783132756,1.8481927710843362
14.584,-9.898795180722892,0.22289156626506035,1.8385542168674698
14.592,-10.024096385542183,0.24216867469879738,1.8289156626506013
14.6,-10.149397590361446,0.2614457831325302,1.819277108433735
14.608,-10.274698795180738,0.28072289156626723,1.8096385542168665
14.616,-10.4,0.3,1.8
14.624,-10.742857142857154,0.18571428571428208,1.8
14.632,-10.960000000000022,0.1399999999999787,1.8199999999999894
14.64,-10.8,0.30000000000000004,1.9
14.648,-7.745205479452064,0.8136986301369838,2.5205479452054758
14.656,-7.657534246575341,0.8356164383561648,2.553424657534247
14.664,-7.569863013698637,0.8575342465753409,2.586301369863011
14.672,-7.482191780821912,0.8794520547945218,2.6191780821917825
14.68,-7.394520547945208,0.9013698630136979,2.652054794520547
14.688,-7.306849315068485,0.9232876712328788,2.6849315068493183
14.696,-7.21917808219178,0.9452054794520549,2.717808219178082
14.704,-7.131506849315056,0.9671232876712359,2.7506849315068536
14.712,-7.043835616438352,0.9890410958904119,2.783561643835618
14.72,-7.0000000000000355,0.6399999999999716,3.0
14.728,-8.202105263157893,-1.2063157894736807,2.6978947368421067
14.736,-8.210526315789473,-1.2315789473684207,2.6894736842105265
14.744,-8.218947368421052,-1.256842105263155,2.6810526315789485
14.752,-8.227368421052631,-1.282105263157895,2.6726315789473682
14.76,-8.235789473684209,-1.3073684210526295,2.6642105263157903
14.768,-8.24421052631579,-1.3326315789473693,2.6557894736842105
14.776,-8.252631578947367,-1.3578947368421037,2.647368421052632
14.784,-8.261052631578949,-1.3831578947368437,2.6389473684210523
14.792,-8.269473684210526,-1.4084210526315781,2.6305263157894743
14.8,-8.277894736842107,-1.4336842105263181,2.622105263157894
14.808,-8.286315789473685,-1.4589473684210525,2.613684210526316
14.816,-8.294736842105264,-1.4842105263157923,2.605263157894736
14.824,-8.3,-1.6,2.5
14.832,-9.022988505747135,-1.9,2.7275862068965613
14.84,-9.068965517241383,-1.9,2.7827586206896586
14.848,-9.114942528735641,-1.9,2.8379310344827684
14.856,-9.160919540229889,-1.9,2.8931034482758657
14.864,-9.206896551724146,-1.9,2.9482758620689755
14.872,-9.252873563218394,-1.9,3.0034482758620733
14.88,-9.298850574712652,-1.9,3.058620689655183
14.888,-9.3448275862069,-1.9,3.1137931034482804
14.896,-9.390804597701159,-1.9,3.16896551724139
14.904,-9.436781609195407,-1.9,3.2241379310344875
14.912,-9.482758620689665,-1.9,3.2793103448275973
14.92,-9.966666666666686,-1.4666666666667456,3.4666666666666863
14.928,-9.80989010989011,-0.770329670329669,3.2901098901098895
14.936,-9.836263736263735,-0.691208791208798,3.263736263736266
14.944,-9.862637362637365,-0.6120879120879095,3.2373626373626365
14.952,-9.889010989010988,-0.5329670329670384,3.2109890109890125
14.96,-9.915384615384617,-0.4538461538461498,3.184615384615383
14.968,-9.94175824175824,-0.3747252747252788,3.1582417582417595
14.976,-9.96813186813187,-0.2956043956043902,3.13186813186813
14.984,-9.994505494505493,-0.21648351648351916,3.1054945054945065
14.992,-10.020879120879123,-0.13736263736263055,3.0791208791208766
15.0,-10.047252747252747,-0.05824175824175959,3.052747252747253
15.008000000000001,-10.073626373626377,0.02087912087912902,3.0263736263736236
15.016,-10.1,0.10000000000000009,3.0
15.024000000000001,-10.96666666666673,0.433333333333358,2.9333333333333282
15.032,-14.0,-0.4,3.0
15.040000000000001,-13.724999999999998,-1.547727272727275,3.4272727272727286
15.048,-13.625000000000007,-1.6113636363636321,3.463636363636361
15.056000000000001,-13.524999999999995,-1.6750000000000036,3.5000000000000018
15.064,-13.425000000000004,-1.7386363636363609,3.5363636363636344
15.072000000000001,-13.324999999999992,-1.8022727272727321,3.5727272727272754
15.08,-13.225000000000003,-1.8659090909090894,3.609090909090908
15.088000000000001,-13.12499999999999,-1.9295454545454607,3.645454545454549
15.096,-13.025,-1.993181818181818,3.6818181818181817
15.104000000000001,-12.924999999999988,-2.056818181818189,3.7181818181818223
15.112,-12.824999999999998,-2.1204545454545465,3.754545454545455
15.120000000000001,-12.724999999999985,-2.184090909090918,3.790909090909096
15.128,-10.515384615384633,-2.048717948717954,3.638461538461545
15.136000000000001,-10.14615384615382,-1.9461538461538392,3.5153846153846073
15.144,-9.77692307692309,-1.8435897435897473,3.3923076923076967
15.152000000000001,-9.407692307692276,-1.7410256410256324,3.269230769230759
15.16,-9.038461538461545,-1.6384615384615402,3.1461538461538483
15.168000000000001,-9.33877551020413,-1.514285714285732,2.191836734693868
15.176,-9.648979591836753,-1.6285714285714348,2.1265306122448946
15.184000000000001,-9.959183673469443,-1.742857142857163,2.061224489795907
15.192,-10.269387755102064,-1.857142857142866,1.9959183673469338
15.200000000000001,-10.579591836734755,-1.9714285714285944,1.9306122448979464
15.208,-10.889795918367378,-2.0857142857142974,1.865306122448973
15.216000000000001,-11.200000000000976,-2.2000000000002666,1.7999999999996448
15.224,-9.478723404255312,-0.8914893617021249,0.9042553191489375
15.232000000000001,-9.393617021276581,-0.8574468085106322,0.9212765957446839
15.24,-9.308510638297868,-0.823404255319147,0.9382978723404265
15.248000000000001,-9.223404255319135,-0.7893617021276542,0.9553191489361729
15.256,-9.138297872340424,-0.755319148936169,0.9723404255319155
15.264000000000001,-9.05319148936169,-0.7212765957446763,0.9893617021276618
15.272,-8.968085106382977,-0.6872340425531911,1.0063829787234044
15.280000000000001,-8.882978723404246,-0.6531914893616984,1.023404255319151
15.288,-8.797872340425533,-0.6191489361702132,1.0404255319148934
15.296000000000001,-8.712765957446802,-0.5851063829787204,1.0574468085106399
15.304,-8.627659574468089,-0.5510638297872352,1.0744680851063824
15.312000000000001,-8.542553191489356,-0.5170212765957425,1.0914893617021288
15.32,-7.933333333333324,-0.36666666666664693,1.5
15.328000000000001,-8.001075268817205,-1.1021505376344114,1.3978494623655886
15.336,-8.009677419354839,-1.1193548387096783,1.3806451612903217
15.344000000000001,-8.018279569892474,-1.136559139784949,1.363440860215051
15.352,-8.026881720430108,-1.153763440860216,1.346236559139784
15.36,-8.035483870967742,-1.170967741935483,1.329032258064517
15.368,-8.044086021505377,-1.1881720430107536,1.3118279569892464
15.376,-8.05268817204301,-1.2053763440860206,1.2946236559139794
15.384,-8.061290322580646,-1.2225806451612913,1.2774193548387087
15.392,-8.069892473118278,-1.2397849462365582,1.2602150537634418
15.4,-8.078494623655914,-1.256989247311829,1.243010752688171
15.408,-8.087096774193547,-1.2741935483870959,1.2258064516129041
15.416,-8.095698924731183,-1.2913978494623666,1.2086021505376334
15.424,-7.950000000000045,-1.5499999999999556,0.9499999999999555
15.432,-7.805217391304348,-1.6,1.115652173913044
15.44,-7.812173913043478,-1.6,1.136521739130433
15.448,-7.8191304347826085,-1.6,1.1573913043478268
15.456,-7.826086956521738,-1.6,1.1782608695652157
15.464,-7.83304347826087,-1.6,1.1991304347826093
15.472,-7.84,-1.6,1.2199999999999982
15.48,-7.846956521739131,-1.6,1.2408695652173918
15.488,-7.8539130434782605,-1.6,1.2617391304347807
15.496,-7.860869565217391,-1.6,1.2826086956521743
15.504,-7.867826086956521,-1.6,1.3034782608695632
15.512,-7.874782608695653,-1.6,1.3243478260869568
15.52,-7.881739130434783,-1.6,1.3452173913043457
15.528,-7.888695652173913,-1.6,1.3660869565217393
15.536,-7.895652173913043,-1.6,1.3869565217391284
15.544,-8.08000000000001,-1.630000000000002,1.4300000000000017
15.552,-8.749999999999778,-1.7,1.5499999999999556
15.56,-9.645454545454548,-1.5590909090909069,1.9454545454545478
15.568,-9.766666666666657,-1.4500000000000082,2.0666666666666575
15.576,-9.887878787878794,-1.340909090909085,2.187878787878794
15.584,-10.009090909090904,-1.2318181818181864,2.309090909090904
15.592,-10.13030303030304,-1.1227272727272632,2.430303030303041
15.6,-10.25151515151515,-1.0136363636363646,2.551515151515151
15.608,-10.372727272727287,-0.9045454545454413,2.672727272727287
15.616,-10.493939393939396,-0.7954545454545425,2.793939393939397
15.624,-12.3,-0.6,4.2
15.632,-12.573493975903629,-1.7012048192771076,5.0
15.64,-12.361445783132522,-1.7108433734939763,5.0
15.648,-12.149397590361461,-1.7204819277108427,5.0
15.656,-11.937349397590353,-1.7301204819277112,5.0
15.664,-11.725301204819292,-1.7397590361445776,5.0
15.672,-11.513253012048185,-1.749397590361446,5.0
15.68,-11.301204819277125,-1.7590361445783125,5.0
15.688,-11.089156626506018,-1.7686746987951811,5.0
15.696,-10.877108433734957,-1.7783132530120473,5.0
15.704,-10.66506024096385,-1.787951807228916,5.0
15.712,-10.45301204819279,-1.7975903614457824,5.0
15.72,-7.69999999999929,-1.2999999999997336,4.799999999999822
15.728,-6.469230769230786,-0.46153846153848255,3.6846153846154204
15.736,-6.1296296296296395,0.007407407407409925,2.88024691358024
15.744,-6.248148148148146,0.037037037037036466,2.801234567901236
15.752,-6.366666666666678,0.06666666666666958,2.7222222222222143
15.76,-6.485185185185184,0.09629629629629613,2.64320987654321
15.768,-6.603703703703717,0.12592592592592924,2.5641975308641887
15.776,-6.722222222222223,0.15555555555555578,2.4851851851851845
15.784,-6.840740740740755,0.1851851851851889,2.406172839506163
15.792,-6.9592592592592615,0.21481481481481546,2.327160493827159
15.8,-7.077777777777794,0.24444444444444857,2.2481481481481373
15.808,-7.196296296296301,0.2740740740740751,2.169135802469133
15.816,-8.150000000000755,0.049999999999777944,2.5000000000003553
15.824,-11.180851063829781,-1.7042553191489376,3.8
15.832,-11.104255319148923,-1.7212765957446838,3.8
15.84,-11.02765957446808,-1.7382978723404265,3.8
15.848,-10.951063829787222,-1.7553191489361728,3.8
15.856,-10.87446808510638,-1.7723404255319153,3.8
15.864,-10.797872340425522,-1.7893617021276618,3.8
15.872,-10.72127659574468,-1.8063829787234043,3.8
15.88,-10.644680851063821,-1.8234042553191507,3.8
15.888,-10.56808510638298,-1.8404255319148932,3.8
15.896,-10.491489361702122,-1.8574468085106397,3.8
15.904,-10.41489361702128,-1.8744680851063822,3.8
15.912,-10.338297872340421,-1.8914893617021287,3.8
15.92,-8.9,-1.5750000000000113,2.5750000000000113
15.928,-8.9,-1.4,2.2
15.936,-8.88730158730159,-1.4380952380952345,2.1873015873015884
15.944,-8.874603174603175,-1.4761904761904776,2.1746031746031744
15.952,-8.861904761904762,-1.5142857142857122,2.1619047619047627
15.96,-8.849206349206348,-1.5523809523809553,2.1492063492063482
15.968,-8.836507936507937,-1.59047619047619,2.136507936507937
15.976,-8.823809523809523,-1.628571428571433,2.1238095238095225
15.984,-8.811111111111112,-1.6666666666666676,2.1111111111111107
15.992,-8.8,-1.7142857142857324,2.0857142857142676
16.0,-8.550000000000132,-2.0999999999999113,1.9
16.008,-8.3,-2.3034013605442167,1.906802721088434
16.016000000000002,-8.3,-2.308843537414967,1.9176870748299344
16.024,-8.3,-2.314285714285715,1.92857142857143
16.032,-8.3,-2.3197278911564627,1.9394557823129255
16.04,-8.3,-2.3251700680272105,1.950340136054421
16.048000000000002,-8.3,-2.3306122448979605,1.9612244897959212
16.056,-8.3,-2.3360544217687083,1.9721088435374168
16.064,-8.3,-2.341496598639456,1.9829931972789123
16.072,-8.3,-2.346938775510204,1.9938775510204079
16.080000000000002,-8.3,-2.352380952380954,2.0047619047619083
16.088,-8.3,-2.3578231292517016,2.015646258503404
16.096,-8.3,-2.3632653061224493,2.0265306122448994
16.104,-8.3,-2.368707482993197,2.037414965986395
16.112000000000002,-8.3,-2.3741496598639475,2.0482993197278954
16.12,-8.3,-2.3795918367346953,2.0591836734693905
16.128,-8.3,-2.385034013605443,2.070068027210886
16.136,-8.3,-2.390476190476191,2.0809523809523816
16.144000000000002,-8.3,-2.395918367346941,2.091836734693882
16.152,-8.5,-2.5,2.2
16.16,-8.934146341463421,-2.717073170731711,2.3
16.168,-8.97317073170732,-2.7365853658536596,2.3
16.176000000000002,-9.012195121951235,-2.756097560975617,2.3
16.184,-9.051219512195132,-2.775609756097566,2.3
16.192,-9.090243902439031,-2.795121951219515,2.3
16.2,-9.129268292682928,-2.8146341463414637,2.3
16.208000000000002,-9.168292682926843,-2.8341463414634216,2.3
16.216,-9.207317073170742,-2.85365853658537,2.3
16.224,-9.24634146341464,-2.873170731707319,2.3
16.232,-9.285365853658536,-2.892682926829268,2.3
16.240000000000002,-10.899999999998224,-2.2999999999985787,2.499999999998934
16.248,-11.2,-1.6,1.5
16.256,-11.221917808219175,-1.6219178082191756,1.5
16.264,-11.24383561643835,-1.6438356164383512,1.5
16.272000000000002,-11.265753424657536,-1.6657534246575365,1.5
16.28,-11.287671232876711,-1.687671232876712,1.5
16.288,-11.309589041095887,-1.7095890410958876,1.5
16.296,-11.331506849315064,-1.7315068493150632,1.5
16.304000000000002,-11.353424657534248,-1.7534246575342483,1.5
16.312,-11.375342465753423,-1.7753424657534238,1.5
16.32,-11.3972602739726,-1.7972602739725994,1.5
16.328,-9.4,-3.5,0.4
16.336000000000002,-9.409090909090912,-3.518181818181824,0.3181818181817918
16.344,-9.41818181818182,-3.53636363636364,0.23636363636361987
16.352,-9.427272727272728,-3.554545454545456,0.15454545454544796
16.36,-9.436363636363636,-3.572727272727272,0.07272727272727608
16.368000000000002,-9.445454545454549,-3.590909090909096,-0.009090909090932187
16.376,-9.454545454545457,-3.609090909090912,-0.0909090909091041
16.384,-9.463636363636365,-3.6272727272727283,-0.17272727272727595
16.392,-9.472727272727273,-3.645454545454544,-0.25454545454544786
16.4,-9.48181818181818,-3.66363636363636,-0.33636363636361977
16.408,-9.490909090909092,-3.6818181818181843,-0.4181818181818281
16.416,-9.5,-3.7,-0.5
16.424,-9.160000000000014,-3.459999999999943,-0.9600000000000142
16.432,-9.213483146067416,-3.273033707865168,-0.9932584269662921
16.44,-9.231460674157308,-3.2370786516853816,-0.9842696629213454
16.448,-9.249438202247195,-3.201123595505611,-0.9752808988764028
16.456,-9.26741573033708,-3.165168539325841,-0.9662921348314603
16.464,-9.285393258426964,-3.1292134831460703,-0.9573033707865176
16.472,-9.303370786516858,-3.093258426966284,-0.9483146067415711
16.48,-9.321348314606743,-3.0573033707865136,-0.9393258426966284
16.488,-9.339325842696628,-3.021348314606743,-0.9303370786516858
16.496,-9.357303370786514,-2.9853932584269725,-0.9213483146067432
16.504,-9.375280898876406,-2.9494382022471863,-0.9123595505617966
16.512,-9.393258426966293,-2.9134831460674158,-0.903370786516854
16.52,-9.472727272727269,-2.5727272727272696,-0.8272727272727303
16.528,-9.4,-2.5,-0.9
16.536,-9.413483146067417,-2.8202247191011245,-1.1337078651685413
16.544,-9.431460674157302,-2.8471910112359535,-1.178651685393256
16.552,-9.449438202247189,-2.8741573033707826,-1.2235955056179708
16.56,-9.467415730337075,-2.901123595505611,-1.2685393258426858
16.568,-9.485393258426969,-2.928089887640452,-1.3134831460674206
16.576,-9.503370786516854,-2.9550561797752812,-1.3584269662921353
16.584,-9.52134831460674,-2.9820224719101103,-1.40337078651685
16.592,-9.539325842696625,-3.008988764044939,-1.448314606741565
16.6,-9.557303370786519,-3.03595505617978,-1.4932584269662998
16.608,-9.575280898876406,-3.062921348314609,-1.5382022471910148
16.616,-9.593258426966292,-3.0898876404494375,-1.5831460674157296
16.624,-9.5,-2.3,-1.6
16.632,-9.802325581395353,-1.6906976744185935,-1.0860465116278903
16.64,-9.811627906976746,-1.6534883720930171,-1.0302325581395257
16.648,-9.82093023255814,-1.6162790697674407,-0.9744186046511611
16.656,-9.830232558139535,-1.5790697674418643,-0.9186046511627965
16.664,-9.839534883720933,-1.5418604651162713,-0.8627906976744071
16.672,-9.848837209302326,-1.504651162790695,-0.8069767441860425
16.68,-9.85813953488372,-1.4674418604651187,-0.7511627906976779
16.688,-9.867441860465116,-1.4302325581395423,-0.6953488372093133
16.696,-9.876744186046514,-1.3930232558139493,-0.6395348837209238
16.704,-9.886046511627907,-1.3558139534883729,-0.5837209302325593
16.712,-9.895348837209301,-1.3186046511627965,-0.5279069767441946
16.72,-9.8,-1.9,0.8
16.728,-9.638297872340427,-2.093617021276595,0.680851063829786
16.736,-9.689361702127657,-2.085106382978724,0.6553191489361712
16.744,-9.740425531914887,-2.0765957446808523,0.6297872340425563
16.752,-9.791489361702116,-2.0680851063829806,0.6042553191489415
16.76,-9.842553191489369,-2.0595744680851054,0.5787234042553153
16.768,-9.893617021276599,-2.0510638297872337,0.5531914893617005
16.776,-9.94468085106383,-2.042553191489362,0.5276595744680856
16.784,-9.995744680851057,-2.0340425531914903,0.5021276595744707
16.792,-10.04680851063831,-2.025531914893615,0.47659574468084454
16.8,-10.097872340425539,-2.0170212765957434,0.4510638297872297
16.808,-10.14893617021277,-2.0085106382978717,0.42553191489361486
16.816,-10.2,-2.0,0.4
16.824,-11.012499999999967,-1.2749999999999777,-0.3250000000000222
16.832,-9.972413793103438,-0.9908045977011464,0.02758620689656102
16.84,-9.917241379310342,-0.9724137931034471,0.08275862068965854
16.848,-9.862068965517244,-0.954022988505748,0.1379310344827561
16.856,-9.806896551724122,-0.9356321839080406,0.1931034482758781
16.864,-9.751724137931024,-0.9172413793103414,0.24827586206897564
16.872,-9.696551724137928,-0.8988505747126423,0.3034482758620732
16.88,-9.64137931034483,-0.8804597701149431,0.3586206896551707
16.888,-9.586206896551708,-0.8620689655172358,0.41379310344829273
16.896,-9.53103448275861,-0.8436781609195366,0.4689655172413903
16.904,-9.475862068965512,-0.8252873563218375,0.5241379310344878
16.912,-9.420689655172415,-0.8068965517241382,0.5793103448275854
16.92,-9.292307692307709,-0.8461538461538546,1.0692307692307819
16.928,-9.538461538461563,-0.9692307692307819,1.253846153846173
16.936,-10.507228915662651,-1.1963855421686744,1.1891566265060234
16.944,-10.526506024096385,-1.1867469879518078,1.1602409638554236
16.952,-10.545783132530126,-1.1771084337349371,1.131325301204811
16.96,-10.56506024096386,-1.1674698795180705,1.1024096385542113
16.968,-10.584337349397591,-1.1578313253012038,1.0734939759036115
16.976,-10.603614457831325,-1.1481927710843374,1.0445783132530118
16.984,-10.622891566265066,-1.1385542168674665,1.0156626506023991
16.992,-10.6421686746988,-1.1289156626505998,0.9867469879517994
17.0,-10.661445783132534,-1.1192771084337332,0.9578313253011996
17.008,-10.680722891566266,-1.1096385542168667,0.9289156626505998
17.016000000000002,-10.699999999999822,-1.0999999999992895,0.8999999999994671
17.024,-10.099159663865544,0.20084033613445482,0.6033613445378192
17.032,-10.092436974789916,0.20756302521008435,0.6302521008403373
17.04,-10.085714285714285,0.21428571428571386,0.6571428571428555
17.048000000000002,-10.078991596638653,0.22100840336134636,0.6840336134453855
17.056,-10.072268907563023,0.2277310924369759,0.7109243697479035
17.064,-10.065546218487395,0.23445378151260543,0.7378151260504217
17.072,-10.058823529411764,0.24117647058823494,0.7647058823529398
17.080000000000002,-10.052100840336132,0.24789915966386744,0.7915966386554698
17.088,-10.045378151260502,0.254621848739497,0.818487394957988
