accel_time_list,accel_x_list,accel_y_list,accel_z_list
0.0,-2.1,0.1,10.1
0.007995073891625615,-1.9167487684729063,-0.033004926108374466,9.55024630541872
0.01599014778325123,-1.9641952347441438,-0.10713280386046045,9.471468784558159
0.023985221674876846,-2.0376193827284608,-0.11529104252538454,9.438835829898462
0.03198029556650246,-2.1110435307127777,-0.12344928119030864,9.406202875238765
0.039975369458128074,-2.1844676786970942,-0.13160751985523272,9.373569920579069
0.04797044334975369,-2.257891826681411,-0.13976575852015682,9.340936965919372
0.05596551724137931,-2.331315974665728,-0.14792399718508092,9.308304011259676
0.06396059113300492,-2.404740122650045,-0.15608223585000502,9.275671056599979
0.07195566502463054,-2.478164270634362,-0.16424047451492912,9.243038101940284
0.07995073891625615,-2.551588418618679,-0.17239871317985322,9.210405147280587
0.08794581280788177,-2.6250125666029955,-0.18055695184477732,9.17777219262089
0.09594088669950739,-2.6984367145873125,-0.18871519050970142,9.145139237961194
0.103935960591133,-2.7718608625716294,-0.19687342917462552,9.112506283301498
0.11193103448275862,-2.2,-0.6,9.6
0.11992610837438424,-2.4954823981737353,-0.3988705995434339,9.401129400456567
0.12792118226600985,-2.456482037726781,-0.3891205094316953,9.410879490568306
0.13591625615763547,-2.417481677279827,-0.37937041931995674,9.420629580680044
0.14391133004926107,-2.3784813168328727,-0.3696203292082182,9.430379670791782
0.1519064039408867,-2.3394809563859185,-0.35987023909647964,9.44012976090352
0.1599014778325123,-2.3004805959389643,-0.3501201489847411,9.44987985101526
0.16789655172413792,-2.26148023549201,-0.34037005887300253,9.459629941126998
0.17589162561576355,-2.222479875045056,-0.330619968761264,9.469380031238735
0.18388669950738915,-2.1834795145981016,-0.32086987864952543,9.479130121350474
0.19188177339901477,-2.1444791541511474,-0.3111197885377869,9.488880211462213
0.1998768472906404,-2.105478793704193,-0.3013696984260483,9.498630301573952
0.207871921182266,-2.3064039408866996,-0.5935960591133003,9.5935960591133
0.21586699507389162,-2.2918896958001116,-0.5918896958001117,9.6
0.22386206896551725,-2.2836473515819407,-0.5836473515819409,9.6
0.23185714285714284,-2.27540500736377,-0.5754050073637702,9.6
0.23985221674876847,-2.2671626631455997,-0.5671626631455995,9.6
0.24784729064039407,-2.2589203189274287,-0.5589203189274288,9.6
0.2558423645320197,-2.2506779747092582,-0.5506779747092581,9.6
0.2638374384236453,-2.2424356304910873,-0.5424356304910873,9.6
0.27183251231527095,-2.234193286272917,-0.5341932862729165,9.6
0.2798275862068965,-2.225950942054746,-0.5259509420547459,9.6
0.28782266009852214,-2.2177085978365754,-0.5177085978365751,9.6
0.29581773399014777,-2.2094662536184044,-0.5094662536184044,9.6
0.3038128078817734,-2.201223909400234,-0.5012239094002336,9.6
0.311807881773399,-2.3,-0.5,9.511299261083744
0.3198029556650246,-2.3,-0.5,9.561268472906404
0.3277980295566502,-2.3,-0.49760262725779975,9.5976026272578
0.33579310344827584,-2.3,-0.4869425287356322,9.586942528735632
0.34378817733990147,-2.3,-0.4762824302134647,9.576282430213464
0.3517832512315271,-2.3,-0.46562233169129724,9.565622331691298
0.3597783251231527,-2.3,-0.45496223316912976,9.55496223316913
0.3677733990147783,-2.3,-0.44430213464696233,9.544302134646962
0.3757684729064039,-2.3,-0.4336420361247948,9.533642036124794
0.38376354679802954,-2.3,-0.4229819376026273,9.522981937602626
0.39175862068965517,-2.3,-0.41232183908045983,9.51232183908046
0.3997536945812808,-2.3,-0.40166174055829235,9.501661740558292
0.40774876847290636,-2.3748768472906385,-0.4,9.6
0.415743842364532,-2.3750198633402193,-0.4083267122199269,9.6
0.4237389162561576,-2.3492293023994915,-0.4169235658668362,9.6
0.43173399014778324,-2.3234387414587636,-0.4255204195137455,9.6
0.43972906403940887,-2.2976481805180358,-0.43411727316065474,9.6
0.4477241379310345,-2.271857619577308,-0.442714126807564,9.6
0.45571921182266006,-2.2460670586365805,-0.4513109804544732,9.6
0.4637142857142857,-2.2202764976958527,-0.4599078341013825,9.6
0.4717093596059113,-2.194485936755125,-0.46850468774829174,9.6
0.47970443349753694,-2.168695375814397,-0.477101541395201,9.6
0.48769950738916257,-2.142904814873669,-0.4856983950421103,9.6
0.49569458128078814,-2.1171142539329417,-0.49429524868901953,9.6
0.5036896551724138,-2.4310344827586183,0.07586206896552644,9.868965517241381
0.5116847290640394,-2.775081228382769,-1.7448537889110154,9.090032491353107
0.519679802955665,-2.7325542395975266,-1.8214023687244516,9.07302169583901
0.5276748768472906,-2.6900272508122836,-1.8979509485378891,9.056010900324914
0.5356699507389162,-2.6475002620270414,-1.9744995283513256,9.039000104810816
0.5436650246305419,-2.6049732732417983,-2.0510481081647627,9.02198930929672
0.5516600985221675,-2.5624462844565556,-2.1275966879781993,9.004978513782623
0.559655172413793,-2.5199192956713135,-2.2041452677916356,8.987967718268525
0.5676502463054187,-2.4773923068860704,-2.280693847605073,8.970956922754429
0.5756453201970443,-2.434865318100828,-2.3572424274185093,8.953946127240332
0.58364039408867,-2.392338329315585,-2.433791007231947,8.936935331726234
0.5916354679802955,-2.3498113405303425,-2.510339587045383,8.919924536212138
0.5996305418719211,-2.3072843517451003,-2.5868881668588193,8.90291374069804
0.6076256157635468,-2.287684729064041,-2.381773399014784,8.868472906403937
0.6156206896551724,-2.383433283358321,-2.683433283358321,8.741416791604196
0.623615763546798,-2.3660526879417434,-2.6660526879417437,8.784868280145641
0.6316108374384236,-2.348672092525166,-2.648672092525166,8.828319768687084
0.6396059113300492,-2.3312914971085887,-2.631291497108589,8.871771257228527
0.6476009852216749,-2.313910901692011,-2.613910901692011,8.915222745769972
0.6555960591133004,-2.2965303062754336,-2.596530306275434,8.958674234311415
0.6635911330049261,-2.279149710858856,-2.5791497108588564,9.002125722852858
0.6715862068965517,-2.261769115442279,-2.561769115442279,9.045577211394303
0.6795812807881774,-2.2443885200257014,-2.5443885200257013,9.089028699935746
0.6875763546798029,-2.227007924609124,-2.527007924609124,9.132480188477189
0.6955714285714285,-2.209627329192547,-2.5096273291925466,9.175931677018633
0.7035665024630542,-2.1943349753694577,-1.3056650246305423,9.688669950738914
0.7115615763546798,-2.114384236453202,-1.3856157635467978,9.528768472906403
0.7195566502463054,-2.129802955665025,-1.5266625615763556,9.455295566502462
0.727551724137931,-2.166144200626959,-1.6811128526645767,9.400783699059561
0.7355467980295566,-2.2024854455888936,-1.8355631437527977,9.34627183161666
0.7435418719211823,-2.2388266905508285,-1.990013434841021,9.291759964173757
0.7515369458128078,-2.275167935512763,-2.144463725929242,9.237248096730855
0.7595320197044335,-2.311509180474698,-2.2989140170174656,9.182736229287954
0.7675270935960591,-2.3478504254366324,-2.4533643081056864,9.128224361845053
0.7755221674876847,-2.3841916703985664,-2.6078145991939077,9.07371249440215
0.7835172413793103,-2.4205329153605013,-2.7622648902821307,9.019200626959249
0.7915123152709359,-2.4568741603224358,-2.916715181370352,8.964688759516347
0.7995073891625616,-2.4932154052843707,-3.071165472458575,8.910176892073444
0.8075024630541872,-2.1497536945812894,-2.1736453201970907,9.500492610837421
0.8154975369458127,-2.0099945265462504,-2.4449753694581267,9.095002736726874
0.8234926108374384,-2.0277613574165296,-2.5249261083743835,9.086119321291735
0.831487684729064,-2.045528188286809,-2.6048768472906394,9.077235905856595
0.8394827586206897,-2.063295019157088,-2.684827586206896,9.068352490421455
0.8474778325123152,-2.081061850027367,-2.7647783251231517,9.059469074986316
0.8554729064039408,-2.0988286808976464,-2.8447290640394076,9.050585659551176
0.8634679802955665,-2.1165955117679256,-2.9246798029556644,9.041702244116037
0.871463054187192,-2.134362342638205,-3.00463054187192,9.032818828680897
0.8794581280788177,-2.152129173508484,-3.0845812807881767,9.023935413245757
0.8874532019704433,-2.169896004378763,-3.1645320197044327,9.015051997810618
0.895448275862069,-2.1876628352490424,-3.2444827586206895,9.006168582375478
0.9034433497536946,-1.9587614356087277,-3.3762843068261827,9.182477128782544
0.9114384236453201,-1.9438423645320095,-3.3157635467980144,9.771921182266006
0.9194334975369458,-2.0,-3.431631904412535,9.8
0.9274285714285714,-2.0,-3.465653495440729,9.8
0.9354236453201971,-2.0,-3.4996750864689234,9.8
0.9434187192118226,-2.0,-3.5336966774971175,9.8
0.9514137931034482,-2.0,-3.5677182685253115,9.8
0.9594088669950739,-2.0,-3.6017398595535055,9.8
0.9674039408866995,-2.0,-3.6357614505816995,9.8
0.9753990147783251,-2.0,-3.669783041609894,9.8
0.9833940886699507,-2.0,-3.703804632638088,9.8
0.9913891625615763,-2.0,-3.737826223666282,9.8
0.999384236453202,-2.0,-3.771847814694476,9.8
1.0073793103448276,-1.7241379310344738,-3.3862068965517103,9.868965517241381
1.015374384236453,-1.4097912752018686,-2.4587476512112127,8.897552181199533
1.0233694581280788,-1.442760652074552,-2.6565639124473117,8.889309836981363
1.0313645320197045,-1.475730028947235,-2.8543801736834107,8.881067492763192
1.03935960591133,-1.5086994058199172,-3.0521964349195043,8.87282514854502
1.0473546798029556,-1.5416687826926005,-3.2500126961556033,8.86458280432685
1.0553497536945813,-1.5746381595652836,-3.4478289573917023,8.85634046010868
1.063344827586207,-1.607607536437967,-3.645645218627801,8.848098115890508
1.0713399014778324,-1.6405769133106491,-3.8434614798638944,8.839855771672338
1.079334975369458,-1.6735462901833322,-4.041277741099993,8.831613427454167
1.0873300492610838,-1.7065156670560153,-4.239094002336092,8.823371083235998
1.0953251231527092,-1.7394850439286977,-4.4369102635721855,8.815128739017826
1.103320197044335,-1.7724544208013808,-4.6347265248082845,8.806886394799655
1.1113152709359606,-1.6027093596059236,-6.378325123152612,9.194581280788153
1.119310344827586,-0.43689655172413927,-4.27965517241381,8.732068965517254
1.1273054187192117,0.19089966295047994,-4.184832771584134,8.769665543168268
1.1353004926108374,0.15934016074669438,-4.132233601244491,8.664467202488982
1.1432955665024631,0.12778065854290882,-4.079634430904848,8.559268861809697
1.1512906403940886,0.09622115633912415,-4.027035260565207,8.454070521130415
1.1592857142857143,0.06466165413533859,-3.9744360902255647,8.34887218045113
1.16728078817734,0.033102151931553025,-3.921836919885922,8.243673839771844
1.1752758620689654,0.0015426497277683249,-3.8692377495462806,8.13847549909256
1.183270935960591,-0.030016852476017236,-3.8166385792066384,8.033277158413275
1.1912660098522168,-0.06157635467980277,-3.7640394088669957,7.928078817733991
1.1992610837438422,-0.0931358568835875,-3.7114402385273544,7.822880477054708
1.207256157635468,0.8628078817733968,-3.4867816091954076,7.461986863711005
1.2152512315270936,0.49527640941434053,-4.128341543513956,7.49527640941434
1.2232463054187193,0.4863929939792009,-4.181642036124795,7.486392993979201
1.2312413793103447,0.47750957854406145,-4.234942528735631,7.477509578544062
1.2392364532019704,0.4686261631089218,-4.288243021346469,7.468626163108922
1.247231527093596,0.45974274767378215,-4.341543513957307,7.459742747673782
1.2552266009852215,0.4508593322386427,-4.394844006568143,7.450859332238643
1.2632216748768472,0.44197591680350307,-4.448144499178982,7.441975916803504
1.271216748768473,0.4330925013683634,-4.501444991789819,7.433092501368364
1.2792118226600984,0.42420908593322404,-4.554745484400656,7.424209085933224
1.287206896551724,0.41532567049808433,-4.608045977011494,7.415325670498085
1.2952019704433497,0.4064422550629447,-4.661346469622332,7.406442255062945
1.3031970443349754,-0.37955665024630403,-4.3,7.359852216748768
1.3111921182266009,-0.9222985012053241,-4.759862697830417,8.708919400482129
1.3191871921182265,-0.964825489990567,-4.6833141180169795,8.725930195996225
1.3271822660098522,-1.00735247877581,-4.6067655382035415,8.742940991510324
1.3351773399014777,-1.0498794675610517,-4.530216958390107,8.75995178702442
1.3431724137931034,-1.0924064563462945,-4.453668378576669,8.776962582538518
1.351167487684729,-1.1349334451315376,-4.377119798763232,8.793973378052614
1.3591625615763547,-1.1774604339167805,-4.300571218949795,8.810984173566712
1.3671576354679802,-1.2199874227020222,-4.22402263913636,8.827994969080809
1.3751527093596059,-1.262514411487265,-4.1474740593229225,8.845005764594907
1.3831477832512316,-1.3050414002725081,-4.070925479509485,8.862016560109003
1.391142857142857,-1.34756838905775,-3.99437689969605,8.8790273556231
1.3991379310344827,-1.3900953778429928,-3.9178283198826125,8.896038151137198
1.4071330049261084,-1.7068965517241559,-3.593103448275844,9.053448275862078
1.4151280788177338,-2.043125839677565,-4.860428795342587,8.29644536497985
1.4231231527093595,-1.897760859829826,-5.01487908643081,8.287360053739365
1.4311182266009852,-1.7523958799820862,-5.169329377519033,8.278274742498882
1.4391133004926109,-1.6070309001343468,-5.323779668607257,8.269189431258397
1.4471083743842363,-1.4616659202866114,-5.478229959695476,8.260104120017914
1.455103448275862,-1.3163009404388717,-5.632680250783698,8.25101880877743
1.4630985221674877,-1.170935960591132,-5.787130541871922,8.241933497536946
1.4710935960591132,-1.0255709807433966,-5.941580832960141,8.232848186296462
1.4790886699507388,-0.8802060008956571,-6.0960311240483644,8.223762875055979
1.4870837438423645,-0.7348410210479177,-6.250481415136587,8.214677563815494
1.49507881773399,-0.589476041200182,-6.404931706224806,8.205592252575011
1.5030738916256157,-2.446305418719217,-6.478522167487687,8.821477832512313
1.5110689655172413,-2.046551724137933,-6.318620689655173,8.981379310344828
1.519064039408867,-2.5189025088784516,-5.775610035513807,8.657469355023483
1.5270591133004925,-2.5560888990720585,-5.924355596288234,8.573799977087868
1.5350541871921182,-2.5932752892656663,-6.073101157062665,8.49013059915225
1.5430492610837439,-2.630461679459274,-6.221846717837097,8.406461221216633
1.5510443349753693,-2.6676480696528806,-6.370592278611523,8.322791843281017
1.559039408866995,-2.7048344598464884,-6.519337839385955,8.2391224653454
1.5670344827586207,-2.742020850040096,-6.668083400160386,8.155453087409782
1.5750295566502464,-2.779207240233704,-6.816828960934817,8.071783709474165
1.5830246305418718,-2.816393630427311,-6.965574521709244,7.98811433153855
1.5910197044334975,-2.8535800206209188,-7.114320082483674,7.904444953602932
1.5990147783251232,-2.8907664108145266,-7.2630656432581056,7.820775575667315
1.6070098522167486,-2.8,-5.000188659469655,6.8999685567550575
1.6150049261083743,-2.8,-5.15328581909653,6.874452363483912
1.623,-2.8,-5.306382978723404,6.848936170212766
1.6309950738916255,-2.8,-5.4594801383502745,6.823419976941621
1.6389901477832511,-2.8,-5.612577297977149,6.797903783670475
1.6469852216748768,-2.8,-5.765674457604024,6.77238759039933
1.6549802955665025,-2.8,-5.918771617230898,6.746871397128183
1.662975369458128,-2.8,-6.071868776857769,6.721355203857039
1.6709704433497536,-2.8,-6.224965936484644,6.6958390105858925
1.6789655172413793,-2.8,-6.378063096111518,6.670322817314747
1.6869605911330048,-2.8,-6.5311602557383885,6.644806624043602
1.6949556650246305,-2.8,-6.684257415365263,6.619290430772455
1.7029507389162561,-3.933103448275863,-5.10068965517241,9.68591133004926
1.7109458128078816,-5.498566950291089,-4.8,7.404299149126735
1.7189408866995073,-5.486453201970444,-4.8,7.44064039408867
1.726935960591133,-5.474339453649798,-4.8,7.476981639050605
1.7349310344827586,-5.462225705329153,-4.8,7.51332288401254
1.742926108374384,-5.4501119570085095,-4.8,7.549664128974474
1.7509211822660098,-5.437998208687864,-4.8,7.586005373936408
1.7589162561576355,-5.425884460367219,-4.8,7.6223466188983435
1.766911330049261,-5.413770712046575,-4.8,7.658687863860277
1.7749064039408866,-5.40165696372593,-4.8,7.695029108822212
1.7829014778325123,-4.801540987747884,-4.800770493873942,6.497688518378173
1.790896551724138,-4.8152077807250215,-4.807603890362511,6.477188328912467
1.7988916256157634,-4.8288745737021594,-4.81443728685108,6.456688139446761
1.8068866995073891,-4.842541366679297,-4.821270683339649,6.436187949981053
1.8148817733990148,-4.856208159656435,-4.8281040798282175,6.415687760515347
1.8228768472906403,-4.869874952633573,-4.834937476316787,6.39518757104964
1.830871921182266,-4.883541745610711,-4.8417708728053555,6.374687381583934
1.8388669950738916,-4.897208538587849,-4.848604269293925,6.354187192118227
1.846862068965517,-4.910875331564986,-4.855437665782493,6.33368700265252
1.8548571428571428,-4.924542124542124,-4.862271062271063,6.313186813186814
1.8628522167487684,-4.938208917519262,-4.869104458759631,6.2926866237211065
1.8708472906403941,-4.9518757104964,-4.875937855248201,6.2721864342554
1.8788423645320196,-4.965542503473538,-4.882771251736769,6.251686244789694
1.8868374384236453,-4.979209296450676,-4.889604648225338,6.231186055323986
1.894832512315271,-4.9928760894278135,-4.896438044713907,6.21068586585828
1.9028275862068964,-5.034796238244513,-4.969592476489026,6.234796238244513
1.910822660098522,-5.182266009852216,-4.976600985221675,6.258866995073892
1.9188177339901478,-5.319610339292633,-4.619610339292633,6.013073559528422
1.9268128078817732,-5.346560026567775,-4.646560026567775,6.03104001771185
1.934807881773399,-5.3735097138429175,-4.673509713842917,6.049006475895278
1.9428029556650246,-5.40045940111806,-4.70045940111806,6.0669729340787075
1.9507980295566503,-5.427409088393203,-4.727409088393204,6.084939392262136
1.9587931034482757,-5.454358775668346,-4.754358775668345,6.1029058504455636
1.9667881773399014,-5.481308462943488,-4.781308462943488,6.120872308628992
1.974783251231527,-5.508258150218631,-4.808258150218632,6.1388387668124205
1.9827783251231526,-5.535207837493773,-4.8352078374937735,6.156805224995849
1.9907733990147782,-5.5621575247689155,-4.862157524768916,6.174771683179277
1.998768472906404,-5.589107212044058,-4.889107212044059,6.192738141362706
2.0067635467980294,-5.964532019704393,-5.376354679802929,5.4
2.0147586206896553,-6.110344827586207,-5.189655172413793,5.5103448275862075
2.0227536945812807,-6.127725423002785,-5.172274576997215,5.527725423002785
2.030748768472906,-6.145106018419361,-5.1548939815806385,5.545106018419362
2.038743842364532,-6.16248661383594,-5.13751338616406,5.56248661383594
2.0467389162561576,-6.179867209252516,-5.120132790747483,5.579867209252517
2.054733990147783,-6.197247804669094,-5.102752195330906,5.597247804669094
2.062729064039409,-6.2146284000856715,-5.085371599914328,5.614628400085672
2.0707241379310344,-6.232008995502249,-5.067991004497751,5.632008995502249
2.07871921182266,-6.249389590918826,-5.050610409081174,5.649389590918826
2.0867142857142857,-6.266770186335404,-5.033229813664596,5.6667701863354045
2.094709359605911,-6.284150781751981,-5.015849218248019,5.684150781751981
2.1027044334975367,-6.25597290640395,-5.01761083743842,5.70880541871921
2.1106995073891626,-6.2197044334974745,-4.7802955665025255,5.450246305418771
2.118694581280788,-6.795653433787308,-5.878267168936542,5.286960301361925
2.126689655172414,-6.786247464503043,-5.831237322515213,5.258742393509128
2.1346847290640394,-6.776841495218777,-5.784207476093887,5.230524485656332
2.142679802955665,-6.767435525934512,-5.737177629672561,5.202306577803537
2.1506748768472908,-6.758029556650246,-5.690147783251232,5.17408866995074
2.158669950738916,-6.748623587365981,-5.643117936829906,5.145870762097943
2.1666650246305417,-6.739217618081716,-5.59608809040858,5.117652854245148
2.1746600985221676,-6.72981164879745,-5.549058243987251,5.08943494639235
2.182655172413793,-6.720405679513185,-5.502028397565925,5.061217038539555
2.1906502463054185,-6.710999710228919,-5.454998551144598,5.0329991306867585
2.1986453201970444,-6.701593740944654,-5.407968704723269,5.004781222833961
2.20664039408867,-6.4,-5.235960591133004,5.282019704433498
2.2146354679802953,-6.391789819376027,-5.191789819376027,5.316420361247947
2.222630541871921,-6.383192965729117,-5.183192965729117,5.333614068541766
2.2306256157635467,-6.374596112082208,-5.174596112082208,5.350807775835585
2.238620689655172,-6.3659992584352985,-5.165999258435298,5.368001483129403
2.246615763546798,-6.357402404788389,-5.157402404788389,5.385195190423222
2.2546108374384235,-6.34880555114148,-5.148805551141479,5.4023888977170405
2.262605911330049,-6.340208697494571,-5.140208697494571,5.419582605010858
2.270600985221675,-6.331611843847662,-5.1316118438476614,5.436776312304677
2.2785960591133003,-6.323014990200752,-5.123014990200752,5.453970019598495
2.2865911330049262,-6.314418136553843,-5.114418136553843,5.471163726892315
2.2945862068965517,-6.305821282906933,-5.105821282906933,5.488357434186133
2.302581280788177,-6.387192118226574,-5.14532019704429,5.541871921182284
2.310576354679803,-6.2,-4.90769108533291,5.10769108533291
2.3185714285714285,-6.2,-4.924884792626728,5.124884792626728
2.326566502463054,-6.2,-4.942078499920546,5.1420784999205456
2.33456157635468,-6.2,-4.959272207214366,5.159272207214365
2.3425566502463053,-6.2,-4.976465914508184,5.176465914508183
2.350551724137931,-6.2,-4.993659621802002,5.193659621802001
2.3585467980295567,-6.2,-5.010853329095821,5.210853329095821
2.366541871921182,-6.2,-5.028047036389639,5.228047036389639
2.3745369458128076,-6.2,-5.045240743683458,5.245240743683457
2.3825320197044335,-6.2,-5.0624344509772765,5.262434450977277
2.390527093596059,-6.2,-5.0796281582710945,5.279628158271095
2.3985221674876844,-6.2,-5.0968218655649125,5.296821865564913
2.4065172413793103,-5.948275862068964,-5.87931034482759,4.5206896551724105
2.414512315270936,-5.821235810666095,-5.7858427928892695,4.928314414221461
2.4225073891625617,-5.847306703790962,-5.768462197472692,4.963075605054617
2.430502463054187,-5.8733775969158275,-5.751081602056114,4.99783679588777
2.4384975369458126,-5.899448490040693,-5.733701006639538,5.0325979867209245
2.4464926108374385,-5.92551938316556,-5.716320411222959,5.0673591775540805
2.454487684729064,-5.951590276290426,-5.698939815806383,5.102120368387235
2.4624827586206894,-5.977661169415292,-5.681559220389805,5.136881559220389
2.4704778325123153,-6.003732062540158,-5.6641786249732275,5.171642750053545
2.478472906403941,-6.0298029556650246,-5.64679802955665,5.206403940886699
2.4864679802955663,-6.05587384878989,-5.629417434140073,5.241165131719853
2.494463054187192,-6.081944741914757,-5.612036838723495,5.275926322553009
2.5024581280788176,-6.27709359605911,-5.377093596059111,4.8083743842364415
2.510453201970443,-6.3,-5.4,5.303713120398325
2.518448275862069,-6.3,-5.4,5.3123099740452355
2.5264433497536944,-6.3,-5.4,5.320906827692144
2.53443842364532,-6.3,-5.4,5.3295036813390535
2.542433497536946,-6.3,-5.4,5.338100534985963
2.5504285714285713,-6.3,-5.4,5.346697388632872
2.5584236453201967,-6.3,-5.4,5.355294242279782
2.5664187192118226,-6.3,-5.4,5.363891095926691
2.574413793103448,-6.3,-5.4,5.3724879495736
2.582408866995074,-6.3,-5.4,5.38108480322051
2.5904039408866995,-6.3,-5.4,5.389681656867419
2.598399014778325,-6.3,-5.4,5.398278510514328
2.606394088669951,-5.9744546094299755,-5.574454609429975,5.0
2.6143891625615763,-6.102714957456336,-5.519004702194356,4.99185512763099
2.6223842364532017,-6.11180026869682,-5.58260188087774,4.96459919390954
2.6303793103448276,-6.120885579937304,-5.646199059561128,4.937343260188088
2.638374384236453,-6.129970891177788,-5.709796238244512,4.910087326466638
2.6463694581280786,-6.139056202418271,-5.773393416927897,4.882831392745187
2.6543645320197045,-6.1481415136587545,-5.836990595611285,4.855575459023735
2.66235960591133,-6.157226824899238,-5.900587774294669,4.828319525302285
2.6703546798029554,-6.166312136139722,-5.964184952978053,4.801063591580834
2.6783497536945813,-6.175397447380206,-6.027782131661441,4.773807657859383
2.6863448275862067,-6.184482758620689,-6.091379310344825,4.746551724137932
2.694339901477832,-6.193568069861173,-6.1549764890282095,4.719295790416482
2.702334975369458,-6.093300492610837,-6.193300492610837,4.920098522167489
2.7103300492610836,-6.0,-5.866995073891636,5.000492610837455
2.7183251231527095,-6.0,-5.791769524547517,4.8917695245475175
2.726320197044335,-6.0,-5.782786295455804,4.882786295455803
2.7343152709359604,-6.0,-5.773803066364089,4.87380306636409
2.7423103448275863,-6.0,-5.764819837272375,4.864819837272375
2.7503054187192117,-6.0,-5.755836608180661,4.8558366081806605
2.758300492610837,-6.0,-5.746853379088947,4.846853379088947
2.766295566502463,-6.0,-5.737870149997232,4.837870149997232
2.7742906403940886,-6.0,-5.728886920905518,4.828886920905518
2.782285714285714,-6.0,-5.719903691813804,4.8199036918138045
2.79028078817734,-6.0,-5.71092046272209,4.810920462722089
2.7982758620689654,-6.0,-5.7019372336303755,4.801937233630376
2.806270935960591,-5.545812807881834,-5.345812807881834,5.1729064039409165
2.8142660098522168,-5.377293719211822,-5.1470186781609195,5.06215619868637
2.822261083743842,-5.352309113300493,-5.088721264367817,5.020515188834154
2.8302561576354677,-5.3273245073891635,-5.0304238505747145,4.978874178981939
2.8382512315270936,-5.302339901477833,-4.972126436781609,4.937233169129721
2.846246305418719,-5.277355295566503,-4.913829022988507,4.895592159277505
2.854241379310345,-5.252370689655172,-4.855531609195402,4.853951149425287
2.8622364532019704,-5.227386083743842,-4.797234195402299,4.8123101395730705
2.870231527093596,-5.202401477832513,-4.738936781609197,4.770669129720854
2.8782266009852218,-5.1774168719211815,-4.680639367816092,4.729028119868636
2.886221674876847,-5.1524322660098525,-4.622341954022989,4.68738711001642
2.8942167487684727,-5.127447660098523,-4.564044540229887,4.645746100164205
2.9022118226600986,-5.102463054187192,-4.505747126436781,4.604105090311986
2.910206896551724,-5.3,-6.107957559681698,5.392042440318302
2.9182019704433495,-5.3,-6.160672332593514,5.339327667406486
2.9261970443349754,-5.3,-6.213387105505333,5.286612894494667
2.934192118226601,-5.3,-6.26610187841715,5.23389812158285
2.9421871921182263,-5.3,-6.318816651328966,5.181183348671034
2.9501822660098522,-5.3,-6.371531424240785,5.128468575759215
2.9581773399014777,-5.3,-6.424246197152601,5.075753802847399
2.966172413793103,-5.3,-6.476960970064416,5.023039029935584
2.974167487684729,-5.3,-6.529675742976236,4.970324257023764
2.9821625615763545,-5.3,-6.5823905158880525,4.9176094841119475
2.99015763546798,-5.3,-6.635105288799868,4.864894711200132
2.998152709359606,-5.3,-6.687820061711687,4.812179938288313
3.0061477832512313,-4.237068965517239,-6.3296798029556625,5.42955665024631
3.0141428571428572,-3.7619047619047254,-7.095238095238199,13.947619047619174
3.0221379310344827,-1.4196679438058752,-13.658109833971901,22.094380587484036
3.030133004926108,-1.557854406130266,-12.661193212917366,22.05489874110564
3.038128078817734,-1.6960408684546644,-11.664276591862778,22.015416894727238
3.0461231527093595,-1.834227330779055,-10.667359970808246,21.97593504834884
3.054118226600985,-1.9724137931034456,-9.670443349753711,21.936453201970444
3.062113300492611,-2.110600255427844,-8.673526728699123,21.896971355592044
3.0701083743842363,-2.248786717752235,-7.67661010764459,21.857489509213647
3.078103448275862,-2.3869731800766254,-6.679693486590057,21.81800766283525
3.0860985221674877,-2.525159642401024,-5.682776865535468,21.77852581645685
3.094093596059113,-2.6633461047254148,-4.685860244480935,21.739043970078452
3.1020886699507386,-2.6847290640396277,-3.543349753694879,21.17389162561676
3.1100837438423645,1.6987767753362466,-7.198306304311727,1.9051751812697253
3.11807881773399,1.5819947971439647,-7.036608180660874,2.3992527813139954
3.1260738916256154,1.4652128189516826,-6.874910057010022,2.8933303813582656
3.1340689655172413,1.3484308407593941,-6.713211933359162,3.3874079814025633
3.142064039408867,1.2316488625671123,-6.551513809708309,3.8814855814468334
3.1500591133004927,1.1148668843748237,-6.389815686057449,4.375563181491131
3.158054187192118,0.9980849061825416,-6.228117562406596,4.869640781535401
3.1660492610837436,0.8813029279902597,-6.066419438755744,5.363718381579671
3.1740443349753695,0.7645209497979711,-5.904721315104883,5.857795981623969
3.182039408866995,0.6477389716056892,-5.743023191454031,6.351873581668238
3.1900344827586204,0.5309569934134071,-5.58132506780318,6.845951181712509
3.1980295566502464,0.41417501522111855,-5.419626944152318,7.340028781756807
3.206024630541872,-0.7413793103448525,-1.2372742200328775,13.8
3.2140197044334973,-0.010178778989317138,2.3694636630320485,13.032141473404552
3.222014778325123,-0.03712846626446064,2.288614601206618,12.852476891570262
3.2300098522167486,-0.06407815353960265,2.207765539381192,12.672812309735981
3.238004926108374,-0.09102784081474466,2.126916477555766,12.493147727901702
3.246,-0.11797752808988816,2.0460674157303353,12.313483146067412
3.2539950738916255,-0.14492721536503017,1.9652183539049095,12.133818564233131
3.261990147783251,-0.17187690264017216,1.8843692920794834,11.954153982398852
3.269985221674877,-0.19882658991531568,1.803520230254053,11.774489400564562
3.2779802955665023,-0.22577627719045767,1.7226711684286269,11.594824818730281
3.2859753694581277,-0.2527259644655997,1.6418221066032008,11.415160236896002
3.2939704433497536,-0.2796756517407432,1.5609730447777705,11.235495655061712
3.301965517241379,-1.3810344827584817,-3.217241379309738,8.250000000000366
3.309960591133005,-1.9,-6.931834313258119,6.990449706022564
3.3179556650246305,-1.9,-7.01780284972721,6.964659145081837
3.325950738916256,-1.9,-7.103771386196302,6.93886858414111
3.333945812807882,-1.9,-7.189739922665397,6.913078023200381
3.3419408866995073,-1.9,-7.2757084591344885,6.887287462259653
3.3499359605911327,-1.9,-7.361676995603579,6.861496901318927
3.3579310344827586,-1.9,-7.447645532072674,6.835706340378198
3.365926108374384,-1.9,-7.533614068541766,6.80991577943747
3.3739211822660096,-1.9,-7.619582605010857,6.784125218496743
3.3819162561576355,-1.9,-7.705551141479953,6.758334657556015
3.389911330049261,-1.9,-7.791519677949044,6.732544096615287
3.3979064039408864,-1.9,-7.877488214418134,6.70675353567456
3.4059014778325123,-1.2654276757725027,-6.6617107030900105,7.586430810568744
3.4138965517241378,-1.1200626959247686,-6.080250783699074,7.949843260188079
3.421891625615763,-1.4420830401125948,-5.301806239737279,8.53506920009383
3.429886699507389,-1.4991907107670654,-5.1685550082101805,8.58265892563922
3.4378817733990146,-1.556298381421533,-5.03530377668309,8.63024865118461
3.4458768472906405,-1.6134060520760036,-4.902052545155992,8.677838376730003
3.453871921182266,-1.6705137227304712,-4.7688013136289005,8.725428102275393
3.4618669950738914,-1.7276213933849387,-4.63555008210181,8.773017827820782
3.4698620689655173,-1.7847290640394093,-4.502298850574712,8.820607553366175
3.4778571428571428,-1.841836734693877,-4.36904761904762,8.868197278911564
3.485852216748768,-1.8989444053483444,-4.23579638752053,8.915787004456954
3.493847290640394,-1.9560520760028153,-4.102545155993431,8.963376730002347
3.5018423645320196,-2.1842364532019785,-2.7103448275861517,9.368472906403957
3.509837438423645,-2.6457651358652408,-3.9755919275385385,9.224408072461461
3.517832512315271,-2.7747179405688844,-3.9068170983632617,9.293182901636738
3.5258275862068964,-2.903670745272521,-3.838042269187989,9.36195773081201
3.533822660098522,-3.032623549976157,-3.769267440012716,9.430732559987284
3.5418177339901478,-3.161576354679801,-3.7004926108374394,9.49950738916256
3.5498128078817732,-3.2905291593834374,-3.6317177816621666,9.568282218337833
3.5578078817733987,-3.4194819640870735,-3.562942952486894,9.637057047513105
3.5658029556650246,-3.548434768790717,-3.4941681233116175,9.705831876688382
3.57379802955665,-3.6773875734943537,-3.4253932941363447,9.774606705863656
3.581793103448276,-3.8063403781979974,-3.356618464961068,9.843381535038931
3.5897881773399014,-3.935293182901634,-3.287843635785795,9.912156364214205
3.597783251231527,-4.06424598760527,-3.2190688066105224,9.980931193389477
3.6057783251231528,-4.760239268121023,-2.376143560872614,10.622167487684717
3.6137733990147782,4.164441424607897,2.415548383443755,12.340439386218227
3.6217684729064037,3.7968518203952333,1.5425230734386783,11.724726799162015
3.6297635467980296,3.429262216182549,0.6694977634335528,11.10901421210577
3.637758620689655,3.0616726119698847,-0.20352754657152428,10.493301625049558
3.6457536945812805,2.6940830077572206,-1.0765528565766012,9.877589037993344
3.6537487684729064,2.3264934035445366,-1.949578166581727,9.261876450937098
3.661743842364532,1.9589037993318725,-2.8226034765868038,8.646163863880886
3.6697389162561573,1.5913141951192085,-3.6956287865918807,8.030451276824675
3.6777339901477832,1.223724590906524,-4.568654096597006,7.414738689768427
3.6857290640394087,0.8561349866938599,-5.441679406602083,6.799026102712215
3.693724137931034,0.4885453824811963,-6.31470471660716,6.183313515656002
3.70171921182266,5.357635467980217,-5.194827586206925,6.903448275862051
3.7097142857142855,0.3708141321044552,-2.388325652841782,11.267895545314902
3.717709359605911,0.2848455956353642,-2.3539382382541456,11.1733301551989
3.725704433497537,0.19887705916626844,-2.3195508236665074,11.078764765082896
3.7336995073891623,0.11290852269717744,-2.285163409078871,10.984199374966895
3.7416945812807882,0.02693998622808169,-2.2507759944912324,10.88963398485089
3.7496896551724137,-0.05902855024100928,-2.216388579903596,10.79506859473489
3.757684729064039,-0.14499708671010025,-2.1820011653159597,10.70050320461889
3.765679802955665,-0.230965623179196,-2.1476137507283215,10.605937814502884
3.7736748768472905,-0.316934159648287,-2.113226336140685,10.511372424386884
3.781669950738916,-0.40290269611737795,-2.0788389215530487,10.416807034270883
3.789665024630542,-0.4888712325864738,-2.0444515069654106,10.322241644154879
3.7976600985221673,-0.5748397690555648,-2.010064092377774,10.227676254038878
3.805655172413793,-1.2272988505746936,-1.5545977011493872,9.672701149425306
3.8136502463054187,-1.5604269293924393,-2.2208538587848787,9.33957307060756
3.821645320197044,-1.6938300492610838,-3.27737684729064,9.308226600985222
3.8296403940886696,-1.6638485221674884,-3.1674445812807903,9.34820197044335
3.8376354679802955,-1.633866995073891,-3.0575123152709343,9.388177339901478
3.845630541871921,-1.6038854679802956,-2.9475800492610844,9.428152709359606
3.8536256157635465,-1.5739039408867002,-2.8376477832512346,9.468128078817733
3.8616206896551724,-1.5439224137931031,-2.7277155172413785,9.508103448275863
3.869615763546798,-1.5139408866995077,-2.617783251231528,9.54807881773399
3.8776108374384237,-1.4839593596059106,-2.5078509852216726,9.58805418719212
3.885605911330049,-1.4539778325123152,-2.3979187192118223,9.628029556650246
3.8936009852216746,-1.4239963054187197,-2.2879864532019725,9.668004926108374
3.9015960591133005,-1.0807881773399097,-2.040394088669955,9.620197044334978
3.909591133004926,-1.31158430001589,-3.20772286667726,9.0
3.9175862068965515,-1.3373748609566172,-3.224916573971078,9.0
3.9255812807881774,-1.363165421897346,-3.2421102812648974,9.0
3.933576354679803,-1.3889559828380733,-3.2593039885587154,9.0
3.9415714285714283,-1.4147465437788005,-3.276497695852534,9.0
3.949566502463054,-1.4405371047195292,-3.2936914031463527,9.0
3.9575615763546796,-1.4663276656602566,-3.310885110440171,9.0
3.965556650246305,-1.4921182266009838,-3.328078817733989,9.0
3.973551724137931,-1.5179087875417125,-3.3452725250278084,9.0
3.9815467980295565,-1.54369934848244,-3.3624662323216263,9.0
3.989541871921182,-1.5694899094231674,-3.3796599396154448,9.0
3.997536945812808,-1.595280470363896,-3.3968536469092636,9.0
4.005532019704433,-1.0952124384236448,-3.0,9.303191707717572
4.013527093596059,-1.0702278325123151,-3.0,9.319848111658457
4.021522167487684,-1.0452432266009857,-3.0,9.336504515599344
4.0295172413793106,-1.0202586206896533,-3.0,9.353160919540231
4.037512315270936,-0.9952740147783238,-3.0,9.369817323481119
4.0455073891625615,-0.9702894088669942,-3.0,9.386473727422004
4.053502463054187,-0.9453048029556647,-3.0,9.403130131362891
4.061497536945812,-0.9203201970443351,-3.0,9.419786535303777
4.069492610837438,-0.8953355911330055,-3.0,9.436442939244664
4.077487684729064,-0.8703509852216733,-3.0,9.453099343185551
4.08548275862069,-0.8453663793103436,-3.0,9.469755747126438
4.093477832512315,-0.8203817733990142,-3.0,9.486412151067324
4.101472906403941,-0.7836343732895459,-3.0654625068418166,9.467268746579093
4.109467980295566,-0.7155993431855344,-3.368801313628931,9.284400656814466
4.117463054187192,-1.3017417311752295,-3.403483462350459,9.1
4.125458128078818,-1.3112596762843074,-3.4225193525686146,9.1
4.133453201970443,-1.3207776213933853,-3.4415552427867704,9.1
4.141448275862069,-1.330295566502463,-3.460591133004926,9.1
4.149443349753694,-1.3398135116115408,-3.479627023223082,9.1
4.15743842364532,-1.3493314567206187,-3.4986629134412377,9.1
4.165433497536946,-1.3588494018296977,-3.5176988036593952,9.1
4.1734285714285715,-1.3683673469387756,-3.536734693877551,9.1
4.181423645320197,-1.3778852920478535,-3.555770584095707,9.1
4.189418719211822,-1.3874032371569311,-3.5748064743138626,9.1
4.197413793103448,-1.396921182266009,-3.5938423645320183,9.1
4.205408866995073,-1.2621237000547418,-2.9863711001642255,9.33787629994526
4.2134039408867,-1.1781459919390969,-2.778145991939097,9.4
4.221399014778325,-1.10546350201523,-2.70546350201523,9.4
4.229394088669951,-1.1,-3.023681809888706,9.384212126740863
4.237389162561576,-1.1,-3.053293194672504,9.364471203551664
4.2453842364532015,-1.1,-3.0829045794563017,9.344730280362466
4.253379310344828,-1.1,-3.112515964240103,9.324989357173264
4.261374384236453,-1.1,-3.142127349023901,9.305248433984065
4.269369458128079,-1.1,-3.1717387338076986,9.285507510794867
4.277364532019704,-1.1,-3.2013501185914963,9.265766587605668
4.28535960591133,-1.1,-3.2309615033752945,9.24602566441647
4.293354679802955,-1.1,-3.2605728881590923,9.226284741227271
4.3013497536945815,-1.1,-3.290184272942893,9.206543818038071
4.309344827586207,-1.1827586206896583,-3.0827586206896584,9.217241379310341
4.317339901477832,-1.1071234848065534,-2.992876515193447,9.3
4.325334975369458,-1.1161067138982674,-2.9838932861017327,9.3
4.333330049261083,-1.1250899429899812,-2.974910057010019,9.3
4.341325123152709,-1.1340731720816952,-2.9659268279183046,9.3
4.349320197044335,-1.1430564011734101,-2.95694359882659,9.3
4.357315270935961,-1.1520396302651241,-2.9479603697348757,9.3
4.365310344827586,-1.1610228593568381,-2.938977140643162,9.3
4.3733054187192115,-1.170006088448552,-2.9299939115514477,9.3
4.381300492610837,-1.178989317540266,-2.921010682459734,9.3
4.389295566502463,-1.1879725466319808,-2.912027453368019,9.3
4.397290640394089,-1.1969557757236948,-2.903044224276305,9.3
4.405285714285714,-1.2,-2.9880952380952412,9.388095238095241
4.41328078817734,-1.1975475395942579,-3.195095079188516,9.102452460405742
4.421275862068965,-1.1889506859473489,-3.177901371894698,9.11104931405265
4.429270935960591,-1.1803538323004397,-3.1607076646008796,9.11964616769956
4.437266009852217,-1.1717569786535296,-3.1435139573070594,9.12824302134647
4.445261083743842,-1.1631601250066206,-3.1263202500132414,9.13683987499338
4.453256157635468,-1.1545632713597116,-3.109126542719423,9.145436728640288
4.461251231527093,-1.1459664177128024,-3.091932835425605,9.154033582287196
4.469246305418719,-1.1373695640658934,-3.0747391281317866,9.162630435934107
4.477241379310344,-1.1287727104189842,-3.057545420837968,9.171227289581015
4.485236453201971,-1.1201758567720743,-3.0403517135441485,9.179824143227926
4.493231527093596,-1.111579003125165,-3.02315800625033,9.188420996874834
4.5012266009852215,-1.1029821494782561,-3.005964298956512,9.197017850521743
4.509221674876847,-1.188916256157666,-3.3,9.2
4.5172167487684725,-1.1,-3.3,9.2
4.525211822660098,-1.1,-3.3,9.2
4.533206896551724,-1.1,-3.3,9.2
4.54120197044335,-1.1,-3.3,9.2
4.549197044334975,-1.1,-3.3,9.2
4.557192118226601,-1.1,-3.3,9.2
4.565187192118226,-1.1,-3.3,9.2
4.5731822660098524,-1.1,-3.3,9.2
4.581177339901478,-1.1,-3.3,9.2
4.589172413793103,-1.1,-3.3,9.2
4.597167487684729,-1.1,-3.3,9.2
4.605162561576354,-1.1,-3.357361795292827,9.142638204707172
4.61315763546798,-1.2,-2.935270935960605,9.221576354679797
4.621152709359606,-1.2,-2.684729064039431,9.305090311986858
4.6291477832512316,-1.2,-2.420320197044336,9.4
4.637142857142857,-1.2,-2.4518796992481207,9.4
4.6451379310344825,-1.2,-2.483439201451905,9.4
4.653133004926108,-1.2,-2.5149987036556896,9.4
4.661128078817733,-1.2,-2.5465582058594745,9.4
4.66912315270936,-1.2,-2.5781177080632625,9.4
4.677118226600985,-1.2,-2.609677210267047,9.4
4.685113300492611,-1.2,-2.6412367124708314,9.4
4.693108374384236,-1.2,-2.672796214674616,9.4
4.701103448275862,-1.2245210727969214,-2.7367816091953823,9.375478927203078
4.709098522167488,-1.4,-2.9852216748767613,9.204926108374412
4.717093596059113,-1.3,-2.8998858584644953,9.3
4.725088669950739,-1.3,-2.890135768352757,9.3
4.733083743842364,-1.3,-2.880385678241019,9.3
4.74107881773399,-1.3,-2.8706355881292804,9.3
4.749073891625615,-1.3,-2.860885498017542,9.3
4.757068965517242,-1.3,-2.8511354079058027,9.3
4.765064039408867,-1.3,-2.8413853177940647,9.3
4.7730591133004925,-1.3,-2.8316352276823262,9.3
4.781054187192118,-1.3,-2.821885137570588,9.3
4.789049261083743,-1.3,-2.81213504745885,9.3
4.797044334975369,-1.3,-2.8023849573471113,9.3
4.805039408866995,-1.1519704433497526,-2.8519704433497526,9.448029556650248
4.813034482758621,-1.2,-2.9,9.39289446185998
4.821029556650246,-1.2,-2.9,9.384818629646217
4.829024630541872,-1.2,-2.9,9.376742797432453
4.837019704433497,-1.2,-2.9,9.36866696521869
4.845014778325123,-1.2,-2.9,9.360591133004926
4.853009852216749,-1.2,-2.9,9.352515300791163
4.861004926108374,-1.2,-2.9,9.3444394685774
4.869,-1.2,-2.9,9.336363636363638
4.876995073891625,-1.2,-2.9,9.328287804149875
4.884990147783251,-1.2,-2.9,9.32021197193611
4.892985221674877,-1.2,-2.9,9.312136139722348
4.9009802955665025,-1.2,-2.9,9.304060307508584
4.908975369458128,-1.3,-2.7463054187191553,9.3
4.916970443349753,-1.1,-3.189194688370101,9.2
4.924965517241379,-1.1,-3.171814092953524,9.2
4.932960591133004,-1.1,-3.154433497536947,9.2
4.940955665024631,-1.1,-3.137052902120368,9.2
4.948950738916256,-1.1,-3.119672306703791,9.2
4.956945812807882,-1.1,-3.1022917112872133,9.2
4.964940886699507,-1.1,-3.084911115870636,9.2
4.9729359605911325,-1.1,-3.067530520454059,9.2
4.980931034482759,-1.1,-3.05014992503748,9.2
4.988926108374384,-1.1,-3.032769329620903,9.2
4.99692118226601,-1.1,-3.0153887342043255,9.2
5.004916256157635,-1.008374384236462,-2.9541871921182308,9.24581280788177
5.012911330049261,-1.1,-3.2935573144406947,9.2
5.020906403940886,-1.1,-3.2666076271655524,9.2
5.0289014778325125,-1.1,-3.239657939890407,9.2
5.036896551724138,-1.1,-3.2127082526152653,9.2
5.044891625615763,-1.1,-3.185758565340123,9.2
5.052886699507389,-1.1,-3.158808878064981,9.2
5.060881773399014,-1.1,-3.1318591907898385,9.2
5.06887684729064,-1.1,-3.1049095035146967,9.2
5.076871921182266,-1.1,-3.0779598162395514,9.2
5.084866995073892,-1.1,-3.051010128964409,9.2
5.092862068965517,-1.1,-3.0240604416892674,9.2
5.1008571428571425,-1.0142857142857398,-2.7428571428572193,9.285714285714262
5.108852216748768,-1.2939314537260254,-3.190897180589038,9.496965726863012
5.1168472906403935,-1.2769206582119286,-3.165380987317893,9.488460329105964
5.12484236453202,-1.2599098626978302,-3.139864794046745,9.479954931348916
5.132837438423645,-1.2428990671837334,-3.1143486007756,9.471449533591867
5.140832512315271,-1.2258882716696369,-3.088832407504455,9.46294413583482
5.148827586206896,-1.20887747615554,-3.06331621423331,9.454438738077771
5.156822660098522,-1.1918666806414435,-3.037800020962165,9.445933340320721
5.164817733990148,-1.174855885127345,-3.012283827691017,9.437427942563673
5.1728128078817734,-1.1578450896132484,-2.986767634419872,9.428922544806625
5.180807881773399,-1.1408342940991516,-2.961251441148727,9.420417147049577
5.188802955665024,-1.123823498585055,-2.935735247877582,9.411911749292528
5.19679802955665,-1.1068127030709582,-2.9102190546064373,9.40340635153548
5.204793103448275,-1.251034482758504,-3.6944827586205062,9.9
5.212788177339902,-1.487608100711548,-3.5690202517788703,10.762824302134645
5.220783251231527,-1.4520744389709905,-3.480186097427476,10.656223316912971
5.2287783251231525,-1.4165407772304328,-3.3913519430760823,10.5496223316913
5.236773399014778,-1.381007115489875,-3.302517788724688,10.443021346469626
5.2447684729064035,-1.3454734537493176,-3.213683634373294,10.336420361247953
5.252763546798029,-1.3099397920087599,-3.1248494800218998,10.22981937602628
5.260758620689655,-1.2744061302681984,-3.036015325670496,10.123218390804595
5.268753694581281,-1.2388724685276407,-2.9471811713191016,10.016617405582922
5.276748768472906,-1.203338806787083,-2.8583470169677074,9.910016420361249
5.284743842364532,-1.1678051450465254,-2.7695128626163132,9.803415435139575
5.292738916256157,-1.1322714833059677,-2.680678708264919,9.696814449917902
5.3007339901477835,-0.9532019704433218,-2.8935960591133565,9.453201970443322
5.308729064039409,-1.0756978653530314,-1.6342638204707085,10.634263820470709
5.316724137931034,-0.8938783417280127,-1.3785741960480444,10.384695854320032
5.32471921182266,-0.8759118835445846,-1.3156915924060462,10.339779708861462
5.332714285714285,-0.8579454253611566,-1.252808988764048,10.294863563402892
5.340709359605911,-0.8399789671777285,-1.1899263851220494,10.249947417944322
5.348704433497537,-0.8220125089942983,-1.1270437814800442,10.205031272485746
5.356699507389163,-0.8040460508108702,-1.064161177838046,10.160115127027176
5.364694581280788,-0.7860795926274422,-1.0012785741960475,10.115198981568605
5.3726896551724135,-0.7681131344440141,-0.9383959705540492,10.070282836110035
5.380684729064039,-0.750146676260586,-0.8755133669120508,10.025366690651465
5.388679802955664,-0.7321802180771578,-0.8126307632700526,9.980450545192895
5.396674876847291,-0.7142137598937277,-0.7497481596280472,9.935534399734319
5.404669950738916,-0.8669950738916068,-0.3660098522167864,9.9
5.412665024630542,-0.6148056923918973,-0.8674274767378258,9.834854953475652
5.420660098522167,-0.6592227695675944,-0.7697099069512923,9.639419813902585
5.428655172413793,-0.7036398467432915,-0.6719923371647587,9.443984674329517
5.436650246305419,-0.7480569239189935,-0.5742747673782143,9.248549534756428
5.444645320197044,-0.7924740010946906,-0.4765571975916807,9.053114395183362
5.45264039408867,-0.8368910782703877,-0.37883962780514713,8.857679255610295
5.460635467980295,-0.8813081554460847,-0.28112205801861356,8.662244116037227
5.468630541871921,-0.9257252326217817,-0.18340448823208,8.46680897646416
5.476625615763546,-0.9701423097974788,-0.08568691844554643,8.271373836891094
5.484620689655173,-1.0145593869731808,0.0120306513409979,8.075938697318005
5.492615763546798,-1.058976464148878,0.10974822112753146,7.880503557744937
5.5006108374384235,-0.8556650246306836,0.4443349753693163,8.738423645319594
5.508605911330049,1.0615970961887555,0.28079854809437776,9.789027741768217
5.516600985221674,0.943774954627959,0.22188747731397945,9.755364272750846
5.5245960591133,0.8259528130671625,0.1629764065335812,9.721700803733476
5.532591133004926,0.7081306715063528,0.10406533575317639,9.688037334716102
5.540586206896552,0.5903085299455563,0.045154264972778135,9.65437386569873
5.548581280788177,0.47248638838475965,-0.01375680580762012,9.62071039668136
5.556576354679803,0.35466424682396314,-0.07266787658801843,9.58704692766399
5.564571428571428,0.2368421052631665,-0.1315789473684167,9.55338345864662
5.572566502463054,0.1190199637023569,-0.1904900181488215,9.519719989629245
5.58056157635468,0.0011978221415602786,-0.2494010889292198,9.486056520611875
5.588556650246305,-0.11662431941923623,-0.30831215970961806,9.452393051594504
5.596551724137931,-0.23444646098003274,-0.3672232304900163,9.418729582577134
5.604546798029556,0.490640394088728,-0.066291344123844,9.222097114707948
5.612541871921182,0.9939115514473977,0.8926938617368773,9.499391155144739
5.620536945812808,0.9040792605302472,0.7848951126362967,9.490407926053026
5.6285320197044335,0.8142469696131067,0.6770963635357281,9.48142469696131
5.636527093596059,0.7244146786959663,0.5692976144351596,9.472441467869597
5.644522167487684,0.6345823877788259,0.461498865334591,9.463458238777882
5.65251724137931,0.5447500968616854,0.3537001162340224,9.454475009686169
5.660512315270935,0.4549178059445449,0.2459013671334539,9.445491780594455
5.668507389162562,0.3650855150273945,0.13810261803287338,9.43650855150274
5.676502463054187,0.275253224110254,0.030303868932304745,9.427525322411025
5.684497536945813,0.18542093319311348,-0.07749488016826378,9.418542093319312
5.692492610837438,0.09558864227597308,-0.18529362926883242,9.409558864227598
5.7004876847290635,0.005756351358832568,-0.29309237836940094,9.400575635135883
5.70848275862069,-0.21128526645767975,0.9661442006269607,9.68871473354232
5.716477832512315,-0.24762651141961473,0.8571204657411557,9.652373488580384
5.724472906403941,-0.2839677563815497,0.7480967308553508,9.61603224361845
5.732467980295566,-0.23255878799144897,0.6831396969978623,9.595784924249465
5.740463054187192,-0.11187842736313999,0.652969606840785,9.588242401710197
5.748458128078817,0.008801933265168982,0.6227995166837077,9.580699879170927
5.7564532019704435,0.12948229389349136,0.5926294265266272,9.573157356631656
5.764448275862069,0.25016265452180036,0.5624593363695499,9.565614834092388
5.772443349753694,0.37084301515010937,0.5322892462124726,9.558072311553119
5.78043842364532,0.49152337577841826,0.5021191560553955,9.550529789013849
5.788433497536945,0.6122037364067272,0.4719490658983182,9.54298726647458
5.796428571428571,0.7328840970350361,0.441778975741241,9.53544474393531
5.804423645320197,0.8535644576633585,0.41160888558416037,9.52790222139604
5.812418719211823,0.9742448182916676,0.38143879542708314,9.52035969885677
5.820413793103448,1.0949251789199765,0.3512687052700059,9.512817176317501
5.8284088669950735,1.2156055395482854,0.32109861511292864,9.505274653778232
5.836403940886699,1.0596059113301002,0.9731034482757195,9.644236453201941
5.8443990147783245,-0.6026250972258168,2.294224786103203,9.497374902774183
5.852394088669951,-0.6552242675654641,2.178506611355979,9.444775732434536
5.860389162561576,-0.7078234379051056,2.0627884366087677,9.392176562094894
5.868384236453202,-0.7604226082447471,1.9470702618615565,9.339577391755252
5.876379310344827,-0.8130217785843885,1.8313520871143454,9.28697822141561
5.884374384236453,-0.8656209489240299,1.7156339123671343,9.23437905107597
5.892369458128079,-0.9182201192636772,1.5999157376199102,9.181779880736324
5.9003645320197045,-0.9708192896033188,1.484197562872699,9.129180710396682
5.90835960591133,-1.02341845994296,1.3684793881254878,9.07658154005704
5.916354679802955,-1.0760176302826017,1.2527612133782766,9.023982369717398
5.924349753694581,-0.797536945812859,1.7024630541871408,9.767487684729048
5.932344827586206,-1.2735632183908079,1.4352490421455895,9.4
5.940339901477833,-1.2402504105090315,1.4796661193212914,9.4
5.948334975369458,-1.2069376026272587,1.5240831964969885,9.4
5.956330049261084,-1.173624794745486,1.5685002736726854,9.4
5.964325123152709,-1.1403119868637133,1.6129173508483823,9.4
5.9723201970443345,-1.1069991789819404,1.6573344280240794,9.4
5.98031527093596,-1.0736863711001678,1.7017515051997762,9.4
5.988310344827586,-1.0403735632183913,1.7461685823754782,9.4
5.996305418719212,-1.0070607553366187,1.790585659551175,9.4
6.004300492610837,-0.5300492610837544,1.5549261083743686,10.054926108374369
6.012295566502463,-1.2071642750053528,1.5964178624973235,9.5
6.020290640394088,-1.22454487042193,1.587727564789035,9.5
6.0282857142857145,-1.241925465838509,1.5790372670807455,9.5
6.03628078817734,-1.2593060612550862,1.570346969372457,9.5
6.044275862068965,-1.2766866566716635,1.5616566716641684,9.5
6.052270935960591,-1.2940672520882406,1.5529663739558797,9.5
6.060266009852216,-1.3114478475048177,1.5442760762475911,9.5
6.068261083743842,-1.3288284429213948,1.5355857785393026,9.5
6.076256157635468,-1.346209038337974,1.5268954808310131,9.5
6.084251231527094,-1.363589633754551,1.5182051831227243,9.5
6.092246305418719,-1.380970229171128,1.5095148854144358,9.5
6.1002413793103445,-1.3983508245877054,1.5008245877061472,9.5
6.10823645320197,-1.929064039408934,2.2172413793104226,9.611822660098511
6.116231527093595,-0.8334975369459071,1.0334975369459072,9.64334975369459
6.124226600985222,-1.291684061117142,-0.2615387826667821,9.598960507639642
6.132221674876847,-1.2374801703264608,-0.010845787759880932,9.592185021290808
6.140216748768473,-1.1832762795357794,0.23984720714702018,9.585409534941972
6.148211822660098,-1.1290723887450982,0.4905402020539214,9.578634048593138
6.156206896551724,-1.0748684979544167,0.7412331969608226,9.571858562244302
6.16420197044335,-1.0206646071637295,0.9919261918677515,9.565083075895465
6.172197044334975,-0.9664607163730481,1.2426191867746526,9.558307589546631
6.180192118226601,-0.9122568255823666,1.4933121816815538,9.551532103197795
6.188187192118226,-0.8580529347916854,1.7440051765884548,9.54475661684896
6.196182266009852,-0.803849044001004,1.994698171495356,9.537981130500125
6.204177339901477,-0.7496451532103227,2.2453911664022574,9.53120564415129
6.212172413793104,-0.6954412624196353,2.4960841613091866,9.524430157802454
6.220167487684729,-0.641237371628954,2.746777156216088,9.517654671453618
6.2281625615763545,-0.5870334808382727,2.9974701511229886,9.510879185104784
6.23615763546798,-0.5328295900475913,3.24816314602989,9.50410369875595
6.244152709359605,2.8334975369465587,0.99236453201972,10.269458128078881
6.252147783251231,0.6194255971744566,0.9097127985872283,10.170861604238315
6.260142857142857,0.6495956873315372,0.9247978436657687,10.125606469002694
6.268137931034483,0.6797657774886144,0.9398828887443073,10.080351333767078
6.276133004926108,0.7099358676456917,0.9549679338228458,10.035096198531463
6.284128078817734,0.740105957802769,0.9700529789013845,9.989841063295847
6.292123152709359,0.7702760479598463,0.9851380239799231,9.944585928060231
6.300118226600985,0.782266009852159,1.0,9.9
6.308113300492611,0.7113300492611058,0.8830049261083412,9.688669950738893
6.316108374384236,0.8859577600362375,0.6,9.485957760036237
6.324103448275862,0.8675782798256044,0.6,9.467578279825604
6.332098522167487,0.8491987996149714,0.6,9.44919879961497
6.340093596059113,0.8308193194043382,0.6,9.430819319404339
6.348088669950739,0.8124398391937031,0.6,9.412439839193704
6.3560837438423645,0.7940603589830699,0.6,9.39406035898307
6.36407881773399,0.7756808787724369,0.6,9.375680878772437
6.372073891625615,0.7573013985618037,0.6,9.357301398561804
6.380068965517241,0.7389219183511706,0.6,9.338921918351172
6.388064039408866,0.7205424381405375,0.6,9.320542438140539
6.396059113300493,0.7021629579299024,0.6,9.302162957929903
6.404054187192118,0.39722407136200266,1.0972240713620027,9.8
6.412049261083744,0.3864199174544007,1.0864199174544007,9.8
6.420044334975369,0.3756157635467987,1.0756157635467987,9.8
6.4280394088669945,0.3648116096391967,1.0648116096391966,9.8
6.436034482758621,0.3540074557315935,1.0540074557315935,9.8
6.444029556650246,0.3432033018239915,1.0432033018239915,9.8
6.452024630541872,0.33239914791638947,1.0323991479163894,9.8
6.460019704433497,0.3215949940087875,1.0215949940087876,9.8
6.468014778325123,0.3107908401011855,1.0107908401011856,9.8
6.476009852216748,0.3,1.0,9.79901477832518
6.4840049261083745,0.19990147783250903,0.9,9.800098522167492
6.492,0.2,1.2,10.0
