accel_time_list,accel_x_list,accel_y_list,accel_z_list
0.0,-1.1,2.1,9.5
0.007995004995004995,-1.4997502497502497,2.1999375624375626,9.400062437562438
0.01599000999000999,-1.8110889110889112,2.3055444555444553,9.3
0.023985014985014985,-1.8288555888555889,2.3144277944277944,9.3
0.03198001998001998,-1.8466222666222667,2.323311133311133,9.3
0.039975024975024975,-1.8643889443889443,2.332194472194472,9.3
0.04797002997002997,-1.8821556221556222,2.341077811077811,9.3
0.055965034965034965,-1.8999222999223,2.3499611499611497,9.3
0.06396003996003996,-1.9176889776889776,2.358844488844489,9.3
0.07195504495504496,-1.9354556554556555,2.3677278277278275,9.3
0.07995004995004995,-1.9532223332223333,2.3766111666111667,9.3
0.08794505494505495,-1.970989010989011,2.3854945054945054,9.3
0.09594005994005994,-1.9887556887556888,2.3943778443778445,9.3
0.10393506493506494,-1.8532467532467534,2.351082251082251,9.544588744588745
0.11193006993006993,-1.6965034965034964,1.8104895104895107,9.31048951048951
0.11992507492507493,-1.7170431718818815,1.808521585940941,9.3
0.12792007992007992,-1.7342367310109246,1.8171183655054624,9.3
0.13591508491508492,-1.7514302901399674,1.8257151450699838,9.3
0.1439100899100899,-1.7686238492690105,1.8343119246345052,9.3
0.1519050949050949,-1.7858174083980536,1.8429087041990269,9.3
0.1599000999000999,-1.8030109675270964,1.8515054837635483,9.3
0.1678951048951049,-1.8202045266561395,1.8601022633280697,9.3
0.1758901098901099,-1.8373980857851826,1.8686990428925911,9.3
0.1838851148851149,-1.8545916449142255,1.8772958224571128,9.3
0.19188011988011988,-1.8717852040432685,1.8858926020216342,9.3
0.19987512487512488,-1.8889787631723114,1.8944893815861557,9.3
0.20787012987012987,-1.856493506493506,2.0870129870129883,9.443506493506494
0.21586513486513487,-1.9,2.0042945942945942,9.295705405705407
0.22386013986013986,-1.9,2.0131779331779334,9.286822066822067
0.23185514485514486,-1.9,2.022061272061272,9.277938727938729
0.23985014985014985,-1.9,2.0309446109446108,9.269055389055389
0.24784515484515485,-1.9,2.03982794982795,9.26017205017205
0.25584015984015984,-1.9,2.0487112887112886,9.251288711288712
0.26383516483516484,-1.9,2.0575946275946277,9.242405372405372
0.27183016983016983,-1.9,2.0664779664779664,9.233522033522034
0.2798251748251748,-1.9,2.0753613053613056,9.224638694638694
0.2878201798201798,-1.9,2.0842446442446443,9.215755355755356
0.2958151848151848,-1.9,2.0931279831279834,9.206872016872016
0.3038101898101898,-1.959490509490509,2.1,9.24050949050949
0.3118051948051948,-1.885504019789734,2.1,9.2
0.3198001998001998,-1.8550468579040007,2.1,9.2
0.3277952047952048,-1.8245896960182673,2.1,9.2
0.3357902097902098,-1.794132534132534,2.1,9.2
0.3437852147852148,-1.7636753722468006,2.1,9.2
0.3517802197802198,-1.7332182103610674,2.1,9.2
0.3597752247752248,-1.7027610484753342,2.1,9.2
0.3677702297702298,-1.6723038865896007,2.1,9.2
0.37576523476523477,-1.6418467247038675,2.1,9.2
0.38376023976023976,-1.6113895628181343,2.1,9.2
0.39175524475524476,-1.5809324009324008,2.1,9.2
0.39975024975024975,-1.5504752390466674,2.1,9.2
0.40774525474525475,-1.5200180771609342,2.1,9.2
0.41574025974025974,-1.7740259740259763,2.0870129870129883,9.1
0.42373526473526474,-1.8887255601541315,2.0,9.1
0.43173026973026973,-1.869689833975548,2.0,9.1
0.43972527472527473,-1.8506541077969647,2.0,9.1
0.4477202797202797,-1.8316183816183815,2.0,9.1
0.4557152847152847,-1.8125826554397981,2.0,9.1
0.4637102897102897,-1.793546929261215,2.0,9.1
0.4717052947052947,-1.7745112030826315,2.0,9.1
0.4797002997002997,-1.7554754769040484,2.0,9.1
0.4876953046953047,-1.736439750725465,2.0,9.1
0.4956903096903097,-1.7174040245468816,2.0,9.1
0.5036853146853146,-1.5972027972028053,2.0,9.134265734265732
0.5116803196803197,-1.5005851291565575,1.9331382902811474,9.3
0.5196753246753247,-1.612971734148205,1.995676088617265,9.19135217723453
0.5276703296703297,-1.6411893988364576,1.9862702003878474,9.172540400775695
0.5356653346653346,-1.6694070635247105,1.97686431215843,9.153728624316859
0.5436603396603397,-1.6976247282129635,1.967458423929012,9.134916847858024
0.5516553446553447,-1.7258423929012165,1.9580525356995944,9.116105071399188
0.5596503496503497,-1.7540600575894694,1.948646647470177,9.097293294940354
0.5676453546453546,-1.7822777222777222,1.9392407592407592,9.078481518481519
0.5756403596403596,-1.8104953869659752,1.9298348710113415,9.059669742022683
0.5836353646353647,-1.8387130516542283,1.9204289827819239,9.040857965563848
0.5916303696303696,-1.866930716342481,1.9110230945525062,9.022046189105012
0.5996253746253746,-1.895148381030734,1.9016172063230887,9.003234412646178
0.6076203796203796,-5.609899674793292,1.013859544710609,8.6887803685676
0.6156153846153847,-5.737479541734862,1.192471358428807,8.54418985270049
0.6236103896103896,-5.86505940867643,1.3710831721470025,8.39959933683338
0.6316053946053946,-5.992639275617998,1.549694985865198,8.255008820966268
0.6396003996003996,-6.120219142559568,1.7283067995833958,8.110418305099156
0.6475954045954047,-6.247799009501138,1.906918613301594,7.965827789232042
0.6555904095904096,-6.375378876442706,2.0855304270197896,7.821237273364932
0.6635854145854145,-6.502958743384275,2.2641422407379848,7.676646757497821
0.6715804195804196,-6.630538610325845,2.442754054456183,7.532056241630709
0.6795754245754246,-6.7581184772674145,2.621365868174381,7.387465725763596
0.6875704295704296,-6.885698344208983,2.7999776818925763,7.242875209896486
0.6955654345654345,-7.013278211150551,2.978589495610772,7.098284694029375
0.7035604395604396,0.7362637362637641,-0.6439560439560393,9.0901098901099
0.7115554445554446,-1.4494687131050992,-0.06162019798383089,8.223240395967661
0.7195504495504496,-2.542267256552971,0.133813805242377,7.887319823034109
0.7275454545454545,-2.637445887445887,0.20995670995670968,7.858766233766234
0.7355404595404595,-2.7326245183388043,0.28609961467104345,7.830212644498359
0.7435354645354646,-2.8278031492317215,0.3622425193853772,7.801659055230484
0.7515304695304695,-2.9229817801246374,0.43838542409970993,7.773105465962609
0.7595254745254745,-3.0181604110175533,0.5145283288140426,7.744551876694734
0.7675204795204795,-3.1133390419104705,0.5906712335283764,7.715998287426859
0.7755154845154846,-3.2085176728033877,0.6668141382427101,7.687444698158983
0.7835104895104895,-3.303696303696303,0.7429570429570428,7.658891108891109
0.7915054945054945,-3.3988749345892195,0.8190999476713755,7.630337519623234
0.7995004995004995,-3.4940535654821367,0.8952428523857092,7.601783930355358
0.8074955044955046,-2.6871628371628393,-0.43119380619380654,8.568806193806193
0.8154905094905095,-3.2867882117882132,-0.5311313686313689,8.46886863136863
0.8234855144855144,-3.724855144855145,-0.603106893106893,8.393786213786214
0.8314805194805195,-3.8048051948051955,-0.6131006493506493,8.373798701298702
0.8394755244755245,-3.884755244755246,-0.6230944055944057,8.35381118881119
0.8474705294705295,-3.964705294705295,-0.6330881618381619,8.333823676323677
0.8554655344655344,-4.044655344655345,-0.6430819180819181,8.313836163836164
0.8634605394605395,-4.124605394605394,-0.6530756743256743,8.29384865134865
0.8714555444555445,-4.204555444555445,-0.6630694305694306,8.273861138861138
0.8794505494505495,-4.284505494505495,-0.6730631868131868,8.253873626373625
0.8874455544455544,-4.364455544455544,-0.683056943056943,8.233886113886113
0.8954405594405594,-4.444405594405595,-0.6930506993006993,8.2138986013986
0.9034355644355645,-4.581185481185482,-1.105927405927412,8.362370962370965
0.9114305694305694,-7.226419232940972,0.1841484602354169,9.542270772705555
0.9194255744255744,-7.313321461147548,0.13200712331147155,9.681314337836076
0.9274205794205794,-7.4002236893541244,0.07986578638752548,9.820357902966599
0.9354155844155845,-7.487125917560701,0.02772444946357941,9.959401468097122
0.9434105894105894,-7.574028145767277,-0.024416887460365938,10.098445033227643
0.9514055944055944,-7.6609303739738515,-0.07655822438431131,10.237488598358164
0.9594005994005994,-7.747832602180429,-0.12869956130825738,10.376532163488687
0.9673956043956045,-7.8347348303870055,-0.18084089823220345,10.51557572861921
0.9753906093906094,-7.921637058593581,-0.2329822351561488,10.654619293749729
0.9833856143856143,-8.008539286800156,-0.28512357208009415,10.79366285888025
0.9913806193806194,-8.095441515006733,-0.3372649090040402,10.932706424010773
0.9993756243756244,-8.182343743213309,-0.3894062459279863,11.071749989141296
1.0073706293706293,-8.259140859140885,-1.8741258741258626,9.214785214785222
1.0153656343656343,-3.781182453909726,-2.410752883480156,8.586558895649803
1.0233606393606394,-3.7175858232676404,-2.447093815275634,8.541132730905458
1.0313556443556444,-3.6539891926255548,-2.483434747071111,8.495706566161111
1.0393506493506495,-3.5903925619834696,-2.519775678866589,8.450280401416764
1.0473456543456543,-3.5267959313413857,-2.556116610662065,8.404854236672419
1.0553406593406593,-3.4631993006993,-2.5924575424575425,8.359428071928072
1.0633356643356644,-3.3996026700572144,-2.62879847425302,8.314001907183725
1.0713306693306692,-3.336006039415131,-2.6651394060484965,8.26857574243938
1.0793256743256743,-3.2724094087730453,-2.7014803378439742,8.223149577695033
1.0873206793206793,-3.2088127781309597,-2.7378212696394515,8.177723412950685
1.0953156843156844,-3.145216147488874,-2.7741622014349288,8.132297248206338
1.1033106893106894,-3.627672327672334,-1.5480519480519304,7.868931068931066
1.1113056943056943,-3.8811743811743793,-1.0188256188256206,7.556476856476861
1.1193006993006993,-3.970007770007769,-0.9299922299922311,7.289976689976694
1.1272957042957044,-3.4957198645510332,-1.4957198645510335,7.0128404063469
1.1352907092907092,-3.4853367411808973,-1.4853367411808973,7.043989776457308
1.1432857142857142,-3.474953617810761,-1.4749536178107607,7.075139146567717
1.1512807192807193,-3.4645704944406246,-1.4645704944406244,7.106288516678127
1.1592757242757243,-3.454187371070488,-1.454187371070488,7.137437886788536
1.1672707292707294,-3.4438042477003514,-1.4438042477003514,7.168587256898945
1.1752657342657342,-3.4334211243302155,-1.4334211243302153,7.1997366270093535
1.1832607392607393,-3.4230380009600787,-1.423038000960079,7.2308859971197625
1.1912557442557443,-3.4126548775899423,-1.4126548775899423,7.2620353672301725
1.1992507492507491,-3.4022717542198064,-1.4022717542198062,7.293184737340581
1.2072457542457542,-6.398641358641347,-1.2740659340659262,8.276443556443569
1.2152407592407592,-7.552880452880453,-2.1518315018315013,7.004711954711954
1.2232357642357643,-7.4640470640470635,-2.2495482295482296,7.013595293595293
1.2312307692307694,-7.375213675213674,-2.3472649572649584,7.022478632478633
1.2392257742257742,-7.286380286380287,-2.444981684981684,7.031361971361971
1.2472207792207792,-7.197546897546897,-2.542698412698413,7.04024531024531
1.2552157842157843,-7.108713508713508,-2.6404151404151412,7.049128649128649
1.263210789210789,-7.019880119880121,-2.738131868131867,7.058011988011987
1.2712057942057942,-6.931046731046731,-2.8358485958485957,7.0668953268953265
1.2792007992007992,-6.842213342213341,-2.933565323565324,7.075778665778666
1.2871958041958043,-6.753379953379952,-3.031282051282053,7.084662004662005
1.2951908091908093,-6.664546564546562,-3.128998778998781,7.093545343545343
1.3031858141858141,-5.3,-2.1849650349650678,7.774325674325636
1.3111808191808192,-6.2,-1.8292657342657348,8.683276723276723
1.3191758241758242,-6.2,-1.8852307692307702,8.651296703296703
1.327170829170829,-6.2,-1.9411958041958037,8.619316683316683
1.3351658341658341,-6.2,-1.997160839160839,8.587336663336663
1.3431608391608392,-6.2,-2.0531258741258744,8.555356643356642
1.3511558441558442,-6.2,-2.10909090909091,8.523376623376622
1.3591508491508493,-6.2,-2.165055944055945,8.491396603396604
1.367145854145854,-6.2,-2.2210209790209787,8.459416583416584
1.3751408591408592,-6.2,-2.276986013986014,8.427436563436563
1.3831358641358642,-6.2,-2.3329510489510494,8.395456543456543
1.391130869130869,-6.2,-2.388916083916083,8.363476523476525
1.399125874125874,-6.2,-2.4448811188811184,8.331496503496505
1.4071208791208791,-6.202014652014652,-2.493956043956045,8.289926739926742
1.4151158841158842,-6.088411588411585,-1.6884115884115853,7.894205794205793
1.4231108891108892,-5.810150343483677,-1.789849656516323,7.489849656516323
1.431105894105894,-5.829891096557763,-1.770108903442237,7.470108903442237
1.4391008991008991,-5.84963184963185,-1.7503681503681505,7.45036815036815
1.4470959040959042,-5.869372602705936,-1.730627397294064,7.430627397294064
1.455090909090909,-5.889113355780022,-1.710886644219978,7.4108866442199774
1.463085914085914,-5.908854108854109,-1.6911458911458914,7.391145891145891
1.471080919080919,-5.928594861928195,-1.671405138071805,7.371405138071805
1.4790759240759241,-5.948335615002282,-1.6516643849977182,7.351664384997718
1.4870709290709292,-5.968076368076368,-1.6319236319236317,7.331923631923631
1.495065934065934,-5.987817121150455,-1.6121828788495458,7.312182878849545
1.503060939060939,-6.010609390609391,-1.5106093906093907,6.8257342657342654
1.5110559440559441,-6.090559440559441,-1.5905594405594412,6.266083916083912
1.519050949050949,-6.3,-3.2076423576423565,3.9923576423576437
1.527045954045954,-6.307653106387283,-3.5,3.6540813616762984
1.535040959040959,-6.317773365874632,-3.5,3.5933598047522093
1.543035964035964,-6.3278936253619795,-3.5,3.5326382478281206
1.5510309690309692,-6.338013884849328,-3.5,3.4719166909040315
1.559025974025974,-6.348134144336676,-3.5,3.4111951339799447
1.567020979020979,-6.3582544038240245,-3.5,3.3504735770558556
1.575015984015984,-6.368374663311372,-3.5,3.289752020131767
1.583010989010989,-6.37849492279872,-3.5,3.2290304632076796
1.591005994005994,-6.388615182286069,-3.5,3.168308906283591
1.599000999000999,-6.398735441773416,-3.5,3.107587349359502
1.606996003996004,-11.584441873915553,-3.6411704085388275,6.279840159840163
1.6149910089910091,-11.121573163678418,-3.405528156054468,6.599640359640365
1.622986013986014,-10.658704453441295,-3.169885903570115,6.919440559440559
1.630981018981019,-10.195835743204162,-2.9342436510857555,7.239240759240761
1.638976023976024,-9.732967032967027,-2.698601398601396,7.559040959040963
1.6469710289710289,-9.270098322729906,-2.462959146117043,7.878841158841156
1.654966033966034,-8.80722961249277,-2.2273168936326835,8.198641358641359
1.662961038961039,-8.344360902255637,-1.9916746411483242,8.51844155844156
1.670956043956044,-7.881492192018502,-1.7560323886639646,8.838241758241763
1.678951048951049,-7.418623481781367,-1.5203901361796053,9.158041958041965
1.686946053946054,-6.955754771544246,-1.2847478836952524,9.477842157842158
1.694941058941059,-6.492886061307111,-1.0491056312108928,9.79764235764236
1.702936063936064,-6.91278721278719,0.28516483516477487,14.206393606393595
1.7109310689310688,-4.614324137401059,-3.1938610839709747,7.388745320613453
1.7189260739260739,-4.737324214247291,-3.1411467653225897,7.292102403091414
1.726921078921079,-4.860324291093522,-3.088432446674205,7.195459485569375
1.734916083916084,-4.983324367939754,-3.03571812802582,7.0988165680473365
1.742911088911089,-5.106324444785986,-2.983003809377435,7.002173650525297
1.7509060939060939,-5.229324521632214,-2.9302894907290513,6.9055307330032605
1.758901098901099,-5.352324598478446,-2.8775751720806664,6.808887815481222
1.766896103896104,-5.475324675324677,-2.8248608534322814,6.712244897959183
1.7748911088911088,-5.598324752170905,-2.772146534783898,6.6156019804371455
1.7828861138861138,-5.721324829017137,-2.719432216135513,6.518959062915107
1.790881118881119,-5.844324905863369,-2.666717897487128,6.422316145393068
1.798876123876124,-5.9673249827096,-2.614003578838743,6.325673227871028
1.806871128871129,-7.222677322677425,-2.8128871128870956,6.151548451548383
1.8148661338661338,-7.3082801409117195,-2.692358168147641,6.133120563646879
1.8228611388611389,-7.316695935643304,-2.582952836637046,6.166783742573216
1.830856143856144,-7.325111730374888,-2.4735475051264504,6.2004469214995535
1.8388511488511488,-7.333527525106472,-2.364142173615858,6.234110100425889
1.8468461538461538,-7.341943319838057,-2.2547368421052627,6.267773279352227
1.8548411588411589,-7.350359114569641,-2.145331510594667,6.301436458278563
1.862836163836164,-7.358774909301226,-2.035926179084072,6.335099637204901
1.870831168831169,-7.36719070403281,-1.9265208475734763,6.3687628161312375
1.8788261738261738,-7.375606498764394,-1.8171155160628838,6.402425995057574
1.8868211788211788,-7.3840222934959785,-1.7077101845522884,6.436089173983911
1.8948161838161839,-7.392438088227562,-1.598304853041693,6.469752352910248
1.9028111888111887,-7.075524475524516,-0.6076923076924187,7.067832167832098
1.9108061938061938,-6.609690309690313,-1.102557442557436,6.809690309690313
1.9188011988011988,-6.709886584004232,-3.052728448022567,5.419773168008463
1.9267962037962039,-6.738104248692484,-3.2032226596932505,5.476208497384969
1.934791208791209,-6.766321913380738,-3.3537168713639343,5.5326438267614755
1.9427862137862137,-6.79453957806899,-3.504211083034613,5.589079156137981
1.9507812187812188,-6.822757242757243,-3.6547052947052965,5.645514485514487
1.9587762237762238,-6.850974907445496,-3.80519950637598,5.701949814890993
1.9667712287712287,-6.879192572133749,-3.955693718046659,5.758385144267497
1.9747662337662337,-6.907410236822002,-4.1061879297173425,5.814820473644003
1.9827612387612388,-6.935627901510255,-4.256682141388025,5.87125580302051
1.9907562437562438,-6.963845566198508,-4.407176353058709,5.927691132397016
1.9987512487512489,-6.992063230886761,-4.557670564729392,5.984126461773522
2.006746253746254,-6.698501498501558,-7.458141858142527,4.176123876123832
2.0147412587412585,-6.8,-8.552115925311803,4.179806791146993
2.0227362637362636,-6.8,-8.502662286167443,4.262229523054263
2.0307312687312686,-6.8,-8.45320864702308,4.344652254961531
2.0387262737262737,-6.8,-8.40375500787872,4.427074986868799
2.0467212787212787,-6.8,-8.354301368734358,4.509497718776068
2.054716283716284,-6.8,-8.304847729589998,4.591920450683337
2.062711288711289,-6.8,-8.255394090445636,4.674343182590605
2.070706293706294,-6.8,-8.205940451301275,4.756765914497874
2.078701298701299,-6.8,-8.156486812156915,4.839188646405143
2.0866963036963035,-6.8,-8.107033173012557,4.921611378312407
2.0946913086913086,-6.8,-8.057579533868195,5.004034110219675
2.1026863136863136,-6.8,-8.008125894723834,5.086456842126943
2.1106813186813187,-6.956043956043955,-6.27582417582418,4.659890109890113
2.1186763236763237,-7.121625433390138,-5.678374566609862,4.282699653287889
2.126671328671329,-7.168654874537227,-5.631345125462773,4.245076100370218
2.134666333666334,-7.215684315684316,-5.584315684315684,4.207452547452547
2.1426613386613385,-7.262713756831401,-5.537286243168599,4.169828994534878
2.1506563436563435,-7.30974319797849,-5.49025680202151,4.132205441617208
2.1586513486513486,-7.3567726391255786,-5.443227360874421,4.094581888699537
2.1666463536463536,-7.4038020802726665,-5.396197919727333,4.056958335781866
2.1746413586413587,-7.450831521419755,-5.3491684785802445,4.019334782864195
2.1826363636363637,-7.497860962566844,-5.302139037433156,3.9817112299465247
2.1906313686313688,-7.544890403713932,-5.255109596286068,3.9440876770288535
2.198626373626374,-7.591919844861021,-5.208080155138979,3.906464124111183
2.206621378621379,-7.4,-5.277022977022979,3.7459540459540426
2.2146163836163835,-7.707613439192387,-4.626647037173353,3.2
2.2226113886113885,-7.7244450286555555,-4.685557600294442,3.2
2.2306063936063936,-7.741276618118723,-4.744468163415532,3.2
2.2386013986013986,-7.758108207581892,-4.8033787265366215,3.2
2.2465964035964037,-7.774939797045061,-4.862289289657712,3.2
2.2545914085914087,-7.79177138650823,-4.921199852778801,3.2
2.2625864135864138,-7.8086029759713975,-4.980110415899891,3.2
2.2705814185814184,-7.825434565434565,-5.039020979020977,3.2
2.2785764235764234,-7.842266154897734,-5.097931542142067,3.2
2.2865714285714285,-7.859097744360902,-5.156842105263157,3.2
2.2945664335664335,-7.875929333824071,-5.215752668384247,3.2
2.3025614385614386,-7.8927609232872395,-5.274663231505336,3.2
2.3105564435564436,-7.941422214149487,-5.54853328489692,2.9514667151030802
2.3185514485514487,-7.8,-4.8,2.7236335093477977
2.3265464535464537,-7.748451548451542,-5.109290709290745,3.0
2.334541458541459,-7.70908535908536,-5.363658563658562,2.9454878454878424
2.3425364635364634,-7.720189532689533,-5.3192418692418695,2.878862803862804
2.3505314685314684,-7.731293706293706,-5.274825174825175,2.812237762237762
2.3585264735264735,-7.74239787989788,-5.23040848040848,2.74561272061272
2.3665214785214785,-7.753502053502054,-5.185991785991785,2.678987678987678
2.3745164835164836,-7.764606227106228,-5.141575091575091,2.6123626373626356
2.3825114885114886,-7.775710400710401,-5.097158397158396,2.545737595737594
2.3905064935064937,-7.786814574314574,-5.052741702741701,2.4791125541125516
2.3985014985014983,-7.7979187479187475,-5.008325008325009,2.4124875124875134
2.4064965034965033,-8.010069930069934,-5.539580419580397,2.7
2.4144915084915084,-8.285028305028307,-4.6049905649905645,2.7299433899433887
2.4224865134865134,-8.258378288378289,-4.613873903873904,2.783243423243422
2.4304815184815185,-8.231728271728272,-4.622757242757243,2.836543456543456
2.4384765234765235,-8.205078255078256,-4.631640581640581,2.8898434898434897
2.4464715284715286,-8.17842823842824,-4.64052392052392,2.9431435231435237
2.4544665334665337,-8.151778221778223,-4.649407259407259,2.996443556443557
2.4624615384615387,-8.125128205128204,-4.658290598290598,3.0497435897435907
2.4704565434565433,-8.09847818847819,-4.667173937173937,3.1030436230436216
2.4784515484515484,-8.071828171828173,-4.676057276057276,3.1563436563436555
2.4864465534465534,-8.045178155178155,-4.684940614940615,3.209643689643689
2.4944415584415585,-8.018528138528138,-4.693823953823954,3.2629437229437226
2.5024365634365635,-8.074625374625473,-5.0091408591409206,2.1436563436563683
2.5104315684315686,-8.674170990300022,-4.296310141471432,2.8147594341142725
2.5184265734265736,-8.61399353334837,-4.28771336190691,2.849146552372359
2.526421578421578,-8.553816076396723,-4.279116582342389,2.8835336706304435
2.5344165834165833,-8.493638619445072,-4.2705198027778675,2.9179207888885297
2.5424115884115883,-8.43346116249342,-4.261923023213346,2.952307907146616
2.5504065934065934,-8.373283705541771,-4.253326243648824,2.986695025404702
2.5584015984015984,-8.31310624859012,-4.244729464084303,3.0210821436627886
2.5663966033966035,-8.25292879163847,-4.236132684519782,3.0554692619208748
2.5743916083916085,-8.192751334686818,-4.22753590495526,3.089856380178961
2.5823866133866136,-8.132573877735167,-4.2189391253907385,3.124243498437047
2.5903816183816186,-8.072396420783516,-4.210342345826216,3.1586306166951337
2.5983766233766232,-8.012218963831868,-4.201745566261696,3.193017734953218
2.6063716283716283,-8.037162837162818,-4.277872127872114,2.418581418581409
2.6143666333666333,-7.819407259407259,-5.09029637029637,2.8660372960372955
2.6223616383616384,-7.854940614940615,-5.072529692529692,2.803853923853923
2.6303566433566434,-7.890473970473971,-5.054763014763014,2.7416705516705506
2.6383516483516485,-7.926007326007326,-5.036996336996337,2.6794871794871784
2.6463466533466535,-7.961540681540682,-5.019229659229659,2.6173038073038057
2.654341658341658,-7.997074037074036,-5.001462981462982,2.555120435120437
2.662336663336663,-8.03260739260739,-4.983696303696304,2.4929370629370644
2.6703316683316682,-8.068140748140747,-4.965929625929626,2.430753690753692
2.6783266733266733,-8.103674103674102,-4.948162948162949,2.36857031857032
2.6863216783216783,-8.139207459207459,-4.930396270396271,2.3063869463869473
2.6943166833166834,-8.174740814740813,-4.912629592629593,2.244203574203575
2.7023116883116884,-8.2,-4.86233766233769,2.193506493506535
2.7103066933066935,-8.3,-4.961338661338712,2.6226773226774247
2.7183016983016985,-8.291795844604833,-5.108204155395167,2.8179584460483293
2.726296703296703,-8.282812692925052,-5.117187307074947,2.7281269292505246
2.734291708291708,-8.273829541245272,-5.1261704587547285,2.638295412452715
2.7422867132867133,-8.264846389565491,-5.135153610434509,2.5484638956549053
2.7502817182817183,-8.255863237885709,-5.14413676211429,2.4586323788570956
2.7582767232767234,-8.246880086205929,-5.153119913794071,2.3688008620592864
2.7662717282717284,-8.237896934526148,-5.162103065473852,2.2789693452614768
2.7742667332667335,-8.228913782846366,-5.171086217153634,2.189137828463667
2.782261738261738,-8.219930631166585,-5.180069368833414,2.0993063116658623
2.790256743256743,-8.210947479486805,-5.1890525205131945,2.009474794868053
2.798251748251748,-8.201964327807024,-5.198035672192976,1.9196432780702433
2.806246753246753,-8.012987012987022,-5.249350649350638,2.874025974025957
2.8142417582417583,-8.49057387057387,-4.695286935286935,2.995286935286935
2.8222367632367633,-8.472807192807192,-4.686403596403596,2.9864035964035964
2.8302317682317684,-8.455040515040515,-4.677520257520257,2.9775202575202573
2.8382267732267734,-8.437273837273837,-4.668636918636919,2.9686369186369186
2.8462217782217785,-8.419507159507159,-4.65975357975358,2.9597535797535794
2.854216783216783,-8.401740481740482,-4.650870240870241,2.950870240870241
2.862211788211788,-8.383973803973804,-4.641986901986902,2.941986901986902
2.870206793206793,-8.366207126207126,-4.633103563103563,2.933103563103563
2.8782017982017982,-8.34844044844045,-4.624220224220224,2.924220224220224
2.8861968031968033,-8.330673770673771,-4.615336885336885,2.915336885336885
2.8941918081918083,-8.312907092907093,-4.606453546453546,2.9064535464535464
2.9021868131868134,-8.590659340659336,-4.3906593406593375,2.6467032967033153
2.910181818181818,-8.5,-4.1102639296187675,2.6171065493646126
2.918176823176823,-8.5,-4.136054268312332,2.6600904471872204
2.926171828171828,-8.5,-4.1618446070058965,2.7030743450098282
2.934166833166833,-8.5,-4.187634945699462,2.746058242832436
2.942161838161838,-8.5,-4.213425284393026,2.789042140655044
2.9501568431568432,-8.5,-4.239215623086591,2.8320260384776517
2.9581518481518483,-8.5,-4.2650059617801555,2.8750099363002595
2.9661468531468533,-8.5,-4.290796300473721,2.9179938341228673
2.9741418581418584,-8.5,-4.316586639167285,2.960977731945475
2.982136863136863,-8.5,-4.342376977860849,3.0039616297680807
2.990131868131868,-8.5,-4.3681673165544135,3.0469455275906885
2.998126873126873,-8.5,-4.393957655247978,3.0899294254132963
3.006121878121878,-8.318281718281753,-4.4,2.9
3.014116883116883,-8.33722943722944,-4.391486291486294,2.545743145743147
3.0221118881118882,-8.488474488474488,-4.523051023051023,2.6192091858758526
3.0301068931068933,-8.458863358863358,-4.582273282273283,2.6685610685610692
3.038101898101898,-8.42925222925223,-4.641495541495539,2.7179129512462827
3.046096903096903,-8.3996410996411,-4.700717800717799,2.767264833931499
3.054091908091908,-8.37002997002997,-4.7599400599400585,2.8166167166167155
3.062086913086913,-8.34041884041884,-4.819162319162318,2.8659685993019317
3.070081918081918,-8.31080771080771,-4.878384578384577,2.9153204819871483
3.078076923076923,-8.28119658119658,-4.937606837606837,2.9646723646723645
3.086071928071928,-8.25158545158545,-4.996829096829097,3.014024247357581
3.0940669330669333,-8.22197432197432,-5.0560513560513565,3.0633761300427973
3.1020619380619383,-8.324775224775367,-4.712387612387683,1.9309690309692085
3.110056943056943,-8.6967129644549,-4.5,2.1
3.118051948051948,-8.688116184890378,-4.5,2.1
3.126046953046953,-8.679519405325857,-4.5,2.1
3.134041958041958,-8.670922625761335,-4.5,2.1
3.142036963036963,-8.662325846196813,-4.5,2.1
3.150031968031968,-8.653729066632293,-4.5,2.1
3.158026973026973,-8.64513228706777,-4.5,2.1
3.166021978021978,-8.636535507503249,-4.5,2.1
3.174016983016983,-8.627938727938728,-4.5,2.1
3.182011988011988,-8.619341948374206,-4.5,2.1
3.190006993006993,-8.610745168809684,-4.5,2.1
3.198001998001998,-8.602148389245164,-4.5,2.1
3.205997002997003,-8.614371342942766,-4.399700299700317,2.4284429855858503
3.213992007992008,-8.604527290890926,-4.602263645445463,2.1773635455453646
3.221987012987013,-8.622697756788666,-4.611348878394333,2.08651121605667
3.2299820179820182,-8.640868222686406,-4.620434111343203,1.995658886567976
3.237977022977023,-8.659038688584143,-4.6295193442920715,1.904806557079287
3.245972027972028,-8.677209154481881,-4.63860457724094,1.8139542275905929
3.253967032967033,-8.69537962037962,-4.64768981018981,1.7231018981018988
3.261962037962038,-8.71355008627736,-4.65677504313868,1.6322495686132046
3.269957042957043,-8.731720552175098,-4.665860276087549,1.5413972391245103
3.277952047952048,-8.749891018072837,-4.6749455090364185,1.4505449096358163
3.285947052947053,-8.768061483970577,-4.684030741985288,1.3596925801471222
3.2939420579420577,-8.786231949868315,-4.693115974934157,1.268840250658433
3.301937062937063,-8.896853146853138,-4.796853146853137,2.362237762237653
3.309932067932068,-8.594808349545191,-4.615574951364424,1.746724854093273
3.317927072927073,-8.586392554813607,-4.640822335559177,1.8224670066775315
3.325922077922078,-8.577976760082024,-4.66606971975393,1.89820915926179
3.333917082917083,-8.569560965350439,-4.691317103948682,1.9739513118460486
3.341912087912088,-8.561145170618854,-4.716564488143436,2.049693464430307
3.349907092907093,-8.552729375887271,-4.741811872338189,2.1254356170145656
3.357902097902098,-8.544313581155686,-4.767059256532941,2.201177769598824
3.3658971028971028,-8.535897786424103,-4.792306640727693,2.2769199221830787
3.373892107892108,-8.527481991692518,-4.817554024922446,2.3526620747673372
3.381887112887113,-8.519066196960933,-4.8428014091171985,2.428404227351596
3.389882117882118,-8.51065040222935,-4.868048793311952,2.5041463799358548
3.397877122877123,-8.502234607497765,-4.893296177506705,2.579888532520113
3.405872127872128,-8.8,-4.039540459540509,2.891278721278718
3.413867132867133,-8.8,-5.318741258741287,2.811328671328669
3.4218621378621377,-8.735415173062234,-5.403122759593351,2.735415173062234
3.4298571428571427,-8.660168067226893,-5.2902521008403385,2.660168067226892
3.4378521478521478,-8.584920961391552,-5.177381442087326,2.5849209613915507
3.445847152847153,-8.50967385555621,-5.064510783334313,2.509673855556209
3.453842157842158,-8.434426749720867,-4.951640124581301,2.4344267497208674
3.461837162837163,-8.359179643885525,-4.838769465828288,2.3591796438855255
3.469832167832168,-8.283932538050184,-4.725898807075276,2.283932538050184
3.477827172827173,-8.208685432214843,-4.613028148322263,2.208685432214842
3.485822177822178,-8.133438326379501,-4.500157489569251,2.1334383263795003
3.4938171828171827,-8.058191220544163,-4.387286830816245,2.0581912205441633
3.5018121878121877,-8.090609390609396,-3.303296703296641,1.456343656343622
3.5098071928071928,-6.425324675324569,-3.231368631368437,2.2614385614385935
3.517802197802198,-6.256654456654456,-3.0,2.4387057387057425
3.525797202797203,-6.212237762237761,-3.0,2.5808391608391648
3.533792207792208,-6.167821067821066,-3.0,2.7229725829725875
3.541787212787213,-6.123404373404371,-3.0,2.86510600510601
3.5497822177822176,-6.078987678987679,-3.0,3.007239427239425
3.5577772227772226,-6.034570984570985,-3.0,3.1493728493728477
3.5657722277722277,-5.99015429015429,-3.0,3.2915062715062704
3.5737672327672327,-5.9457375957375955,-3.0,3.4336396936396927
3.581762237762238,-5.901320901320901,-3.0,3.5757731157731154
3.589757242757243,-5.856904206904207,-3.0,3.717906537906538
3.597752247752248,-5.812487512487512,-3.0,3.860039960039961
3.605747252747253,-2.2329670329666653,-7.737362637362644,13.571428571428159
3.613742257742258,0.9722653690395596,-7.742002083937567,9.202760680180033
3.6217372627372626,0.46505537473281555,-7.673227847421399,8.85029271803467
3.6297322677322676,-0.04215461957395661,-7.604453610905226,8.497824755889285
3.6377272727272727,-0.5493646138807289,-7.535679374389054,8.1453567937439
3.6457222777222777,-1.0565746081875012,-7.466905137872881,7.792888831598517
3.653717282717283,-1.5637846024942732,-7.3981309013567085,7.440420869453133
3.661712287712288,-2.0709945968010457,-7.329356664840536,7.0879529073077485
3.669707292707293,-2.5782045911078177,-7.260582428324364,6.735484945162365
3.6777022977022975,-3.085414585414562,-7.191808191808195,6.383016983017001
3.6856973026973026,-3.5926245797213343,-7.123033955292023,6.030549020871616
3.6936923076923076,-4.099834574028106,-7.05425971877585,5.678081058726232
3.7016873126873127,-8.465184815184767,-2.6973526473527,4.978171828171834
3.7096823176823177,-4.914421062808161,-3.4307788985208294,8.38557893719184
3.7176773226773228,-4.957404960630769,-3.224456188972312,8.342595039369233
3.725672327672328,-5.000388858453377,-3.0181334794237946,8.299611141546624
3.733667332667333,-5.043372756275985,-2.811810769875277,8.256627243724017
3.741662337662338,-5.0863566540985925,-2.6054880603267594,8.213643345901408
3.7496573426573425,-5.129340551921198,-2.3991653507782535,8.170659448078803
3.7576523476523476,-5.1723244497438055,-2.1928426412297357,8.127675550256196
3.7656473526473526,-5.215308347566413,-1.9865199316812185,8.084691652433587
3.7736423576423577,-5.258292245389021,-1.7801972221327012,8.04170775461098
3.7816373626373627,-5.301276143211629,-1.5738745125841835,7.998723856788372
3.7896323676323678,-5.344260041034237,-1.3675518030356661,7.955739958965764
3.797627372627373,-5.3872439388568445,-1.1612290934871488,7.912756061143156
3.8056223776223774,-4.0340326340326635,-1.2244755244755026,7.601864801864792
3.8136173826173825,-3.540434565434566,-1.746811521811522,7.8
3.8216123876123875,-4.264335664335628,-1.5581418581418738,7.316283716283747
3.8296073926073926,-4.448765337226876,-1.4219754604369996,7.043950920874
3.8376023976023976,-4.500015369246139,-1.3399754092061784,6.8799508184123574
3.8455974025974027,-4.551265401265402,-1.2579753579753572,6.715950715950715
3.8535924075924077,-4.602515433284665,-1.1759753067445362,6.551950613489073
3.861587412587413,-4.653765465303929,-1.093975255513715,6.38795051102743
3.869582417582418,-4.705015497323192,-1.0119752042828938,6.223950408565788
3.8775774225774224,-4.7562655293424525,-0.9299751530520771,6.059950306104154
3.8855724275724275,-4.807515561361716,-0.8479751018212559,5.895950203642512
3.8935674325674325,-4.858765593380979,-0.7659750505904347,5.731950101180869
3.9015624375624376,-4.196903096903123,-0.5437562437562495,4.193806193806246
3.9095574425574426,-12.214006423683836,-7.777743761614736,11.360498641143804
3.9175524475524477,-11.319941348973595,-8.646018497631413,11.549627791563278
3.9255474525474527,-10.425876274263352,-9.514293233648091,11.738756941982754
3.9335424575424573,-9.53181119955316,-10.382567969664722,11.927886092402217
3.9415374625374624,-8.637746124842916,-11.2508427056814,12.117015242821692
3.9495324675324675,-7.743681050132674,-12.119117441698076,12.306144393241166
3.9575274725274725,-6.849615975422431,-12.987392177714755,12.49527354366064
3.9655224775224776,-5.955550900712188,-13.855666913731433,12.684402694080115
3.9735174825174826,-5.061485826001946,-14.72394164974811,12.873531844499588
3.9815124875124877,-4.1674207512917025,-15.59221638576479,13.062660994919064
3.9895074925074927,-3.2733556765814615,-16.460491121781466,13.251790145338537
3.9975024975024978,-2.3792906018712188,-17.328765857798146,13.440919295758011
4.005497502497502,-8.053246753246722,-4.4731268731268905,5.422377622377648
4.013492507492508,-6.065094045739203,-5.439432610400335,6.965094045739203
4.0214875124875125,-6.022110147916598,-5.24170668041635,6.922110147916598
4.029482517482517,-5.979126250093992,-5.043980750432365,6.879126250093992
4.037477522477523,-5.936142352271382,-4.846254820448358,6.8361423522713824
4.045472527472527,-5.893158454448777,-4.648528890464373,6.793158454448777
4.053467532467533,-5.8501745566261665,-4.450802960480367,6.750174556626167
4.061462537462537,-5.807190658803561,-4.253077030496382,6.707190658803562
4.069457542457543,-5.764206760980951,-4.055351100512374,6.664206760980951
4.077452547452547,-5.721222863158346,-3.8576251705283893,6.621222863158346
4.085447552447553,-5.678238965335735,-3.659899240544383,6.578238965335736
4.0934425574425575,-5.63525506751313,-3.462173310560398,6.5352550675131305
4.101437562437562,-6.246903096902879,-2.6530969030971208,6.140609390609511
4.109432567432568,-6.4716283716283725,-3.5865134865134887,6.628371628371628
4.117427572427572,-7.543331948949926,-3.042224068066765,5.685556017016691
4.125422577422578,-7.597230859028615,-2.970358854628514,5.6675897136571285
4.133417582417582,-7.651129769107297,-2.8984936411902704,5.6496234102975675
4.141412587412588,-7.705028679185985,-2.826628427752019,5.631657106938005
4.149407592407592,-7.758927589264668,-2.7547632143137757,5.613690803578444
4.157402597402598,-7.812826499343356,-2.6828980008755243,5.595724500218881
4.1653976023976025,-7.866725409422039,-2.611032787437281,5.57775819685932
4.173392607392607,-7.920624319500721,-2.5391675739990376,5.559791893499759
4.181387612387613,-7.97452322957941,-2.4673023605607867,5.5418255901401965
4.189382617382617,-8.028422139658092,-2.395437147122543,5.5238592867806355
4.197377622377623,-8.08232104973678,-2.323571933684292,5.505892983421073
4.205372627372627,-7.837642357642357,-1.125094905094905,6.4186313686313685
4.213367632367633,-7.236929736929707,-1.1893772893773218,6.805228105228117
4.221362637362637,-6.5,-2.817582417582312,6.963736263736282
4.229357642357642,-6.509432874817489,-3.2188657496349786,6.9
4.2373526473526475,-6.5196828812213425,-3.2393657624426853,6.9
4.245347652347652,-6.529932887625194,-3.2598657752503897,6.9
4.253342657342658,-6.540182894029048,-3.280365788058096,6.9
4.261337662337662,-6.5504329004329,-3.3008658008658003,6.9
4.269332667332668,-6.560682906836753,-3.321365813673507,6.9
4.277327672327672,-6.570932913240605,-3.341865826481211,6.9
4.285322677322677,-6.581182919644458,-3.3623658392889153,6.9
4.293317682317682,-6.59143292604831,-3.382865852096622,6.9
4.301312687312687,-6.4030969030969,-3.5312687312687334,6.637462537462533
4.3093076923076925,-6.197518610421836,-4.1024813895781636,6.8
4.317302697302697,-6.188921830857315,-4.111078169142685,6.8
4.325297702297703,-6.180325051292793,-4.119674948707207,6.8
4.333292707292707,-6.171728271728273,-4.128271728271727,6.8
4.341287712287713,-6.163131492163751,-4.136868507836249,6.8
4.349282717282717,-6.154534712599229,-4.1454652874007705,6.8
4.357277722277722,-6.145937933034708,-4.154062066965292,6.8
4.365272727272727,-6.137341153470186,-4.162658846529814,6.8
4.373267732267732,-6.128744373905665,-4.171255626094335,6.8
4.3812627372627375,-6.120147594341143,-4.179852405658857,6.8
4.389257742257742,-6.1115508147766215,-4.188449185223378,6.8
4.397252747252748,-6.1029540352120994,-4.1970459647879,6.8
4.405247752247752,-6.075224775224799,-3.9876123876124,6.8
4.413242757242758,-5.9,-3.9066412311093166,6.793358768890683
4.421237762237762,-5.9,-3.9151465555720875,6.784853444427912
4.429232767232767,-5.9,-3.9236518800348583,6.776348119965141
4.437227772227772,-5.9,-3.93215720449763,6.76784279550237
4.445222777222777,-5.9,-3.940662528960401,6.759337471039599
4.4532177822177825,-5.9,-3.9491678534231727,6.750832146576827
4.461212787212787,-5.9,-3.9576731778859435,6.742326822114056
4.469207792207793,-5.9,-3.9661785023487153,6.7338214976512845
4.477202797202797,-5.9,-3.974683826811486,6.725316173188514
4.485197802197802,-5.9,-3.983189151274257,6.716810848725743
4.493192807192807,-5.9,-3.9916944757370287,6.708305524262971
4.501187812187812,-5.909390609390582,-4.0,6.690609390609419
4.509182817182817,-5.911674040245463,-4.264977879263612,6.3350221207363875
4.517177822177822,-5.995197905542733,-4.390395811085467,6.214406283371801
4.5251728271728275,-5.986008244628934,-4.3720164892578675,6.241975266113199
4.533167832167832,-5.9768185837151355,-4.3536371674302705,6.2695442488545945
4.541162837162837,-5.967628922801337,-4.3352578456026745,6.29711323159599
4.549157842157842,-5.958439261887538,-4.316878523775075,6.324682214337388
4.557152847152847,-5.949249600973739,-4.298499201947478,6.352251197078783
4.565147852147852,-5.94005994005994,-4.280119880119879,6.3798201798201815
4.573142857142857,-5.930870279146141,-4.261740558292282,6.407389162561577
4.5811378621378624,-5.921680618232342,-4.2433612364646836,6.434958145302975
4.589132867132867,-5.912490957318544,-4.224981914637087,6.46252712804437
4.5971278721278725,-5.903301296404744,-4.206602592809488,6.490096110785768
4.605122877122877,-5.9,-4.0463136863136855,6.602457542457543
4.613117882117882,-5.8,-3.7,6.788211788211822
4.621112887112887,-5.9,-3.7878264592550295,6.718260311117456
4.629107892107892,-5.9,-3.768790733076447,6.746813900385329
4.637102897102897,-5.9,-3.7497550068978627,6.775367489653206
4.645097902097902,-5.9,-3.7307192807192804,6.803921078921079
4.6530929070929075,-5.9,-3.7116835545406963,6.832474668188956
4.661087912087912,-5.9,-3.692647828362114,6.861028257456829
4.669082917082918,-5.9,-3.6736121021835295,6.889581846724706
4.677077922077922,-5.9,-3.6545763760049472,6.918135435992579
4.685072927072927,-5.9,-3.635540649826365,6.9466890252604525
4.693067932067932,-5.9,-3.616504923647781,6.975242614528329
4.701062937062937,-5.9,-3.5574825174825313,7.042517482517469
4.709057942057942,-6.1,-3.5,6.994205794205728
4.717052947052947,-6.1,-3.492249508733025,6.9
4.7250479520479525,-6.1,-3.483463788958294,6.9
4.733042957042957,-6.1,-3.4746780691835637,6.9
4.741037962037962,-6.1,-3.465892349408833,6.9
4.749032967032967,-6.1,-3.457106629634102,6.9
4.757027972027972,-6.1,-3.4483209098593717,6.9
4.765022977022977,-6.1,-3.4395351900846403,6.9
4.773017982017982,-6.1,-3.43074947030991,6.9
4.781012987012987,-6.1,-3.4219637505351788,6.9
4.789007992007992,-6.1,-3.4131780307604482,6.9
4.797002997002997,-6.1,-3.404392310985718,6.9
4.804998001998002,-6.2,-3.150099900099904,6.9
4.812993006993007,-6.2,-3.206242715617715,6.893757284382286
4.820988011988012,-6.2,-3.214570845820846,6.885429154179154
4.828983016983017,-6.2,-3.2228989760239757,6.877101023976024
4.836978021978022,-6.2,-3.2312271062271063,6.868772893772894
4.844973026973027,-6.2,-3.2395552364302365,6.860444763569764
4.852968031968032,-6.2,-3.247883366633367,6.8521166333666335
4.860963036963037,-6.2,-3.256211496836497,6.843788503163503
4.868958041958042,-6.2,-3.264539627039627,6.835460372960373
4.876953046953047,-6.2,-3.2728677572427576,6.8271322427572425
4.884948051948052,-6.2,-3.2811958874458873,6.818804112554113
4.892943056943057,-6.2,-3.289524017649018,6.810475982350981
4.900938061938062,-6.2,-3.297852147852148,6.802147852147852
4.908933066933067,-6.135564435564427,-3.2,6.964435564435574
4.916928071928072,-6.19326355462719,-3.2,7.0
4.924923076923077,-6.184178321678321,-3.2,7.0
4.932918081918082,-6.175093088729452,-3.2,7.0
4.940913086913087,-6.166007855780583,-3.2,7.0
4.948908091908092,-6.156922622831713,-3.2,7.0
4.956903096903097,-6.147837389882844,-3.2,7.0
4.964898101898102,-6.1387521569339745,-3.2,7.0
4.972893106893107,-6.129666923985106,-3.2,7.0
4.980888111888112,-6.120581691036235,-3.2,7.0
4.988883116883117,-6.111496458087366,-3.2,7.0
4.9968781218781215,-6.102411225138497,-3.2,7.0
5.004873126873127,-6.2,-3.3291042291042476,6.9
5.012868131868132,-6.193887362637363,-3.4,6.9
5.020863136863137,-6.185559232434232,-3.4,6.9
5.028858141858142,-6.177231102231102,-3.4,6.9
5.036853146853147,-6.168902972027971,-3.4,6.9
5.044848151848152,-6.160574841824841,-3.4,6.9
5.052843156843156,-6.152246711621712,-3.4,6.9
5.060838161838162,-6.143918581418581,-3.4,6.9
5.0688331668331665,-6.135590451215451,-3.4,6.9
5.076828171828172,-6.127262321012321,-3.4,6.9
5.084823176823177,-6.11893419080919,-3.4,6.9
5.092818181818182,-6.1106060606060595,-3.4,6.9
5.100813186813187,-6.10227793040293,-3.4,6.9
5.108808191808192,-6.1,-3.4,6.9
5.116803196803197,-6.1,-3.4073947791339094,6.9
5.1247982017982014,-6.1,-3.4160850019545665,6.9
5.132793206793207,-6.1,-3.4247752247752246,6.9
5.1407882117882115,-6.1,-3.4334654475958817,6.9
5.148783216783217,-6.1,-3.44215567041654,6.9
5.156778221778222,-6.1,-3.4508458932371973,6.9
5.164773226773227,-6.1,-3.4595361160578553,6.9
5.172768231768232,-6.1,-3.468226338878513,6.9
5.180763236763237,-6.1,-3.476916561699171,6.9
5.188758241758242,-6.1,-3.485606784519828,6.9
5.1967532467532465,-6.1,-3.494297007340485,6.9
5.204748251748252,-6.137412587412598,-3.4625874125874017,6.962587412587402
5.212743256743257,-6.195886531051366,-3.4,6.9
5.220738261738262,-6.187100811276635,-3.4,6.9
5.228733266733267,-6.178315091501904,-3.4,6.9
5.236728271728272,-6.169529371727173,-3.4,6.9
5.244723276723277,-6.160743651952442,-3.4,6.9
5.252718281718281,-6.151957932177712,-3.4,6.9
5.260713286713287,-6.143172212402981,-3.4,6.9
5.2687082917082915,-6.13438649262825,-3.4,6.9
5.276703296703297,-6.125600772853519,-3.4,6.9
5.284698301698302,-6.116815053078789,-3.4,6.9
5.292693306693307,-6.108029333304057,-3.4,6.9
5.300688311688312,-6.134415584415596,-3.4,6.9
5.308683316683316,-6.2,-3.4,6.801485471050688
5.316678321678322,-6.2,-3.4,6.818865916692004
5.324673326673326,-6.2,-3.4,6.836246362333318
5.332668331668332,-6.2,-3.4,6.853626807974634
5.3406633366633365,-6.2,-3.4,6.871007253615948
5.348658341658342,-6.2,-3.4,6.888387699257265
5.356653346653347,-6.2,-3.4,6.9057681448985795
5.364648351648352,-6.2,-3.4,6.9231485905398955
5.372643356643357,-6.2,-3.4,6.94052903618121
5.380638361638361,-6.2,-3.4,6.957909481822524
5.388633366633367,-6.2,-3.4,6.97528992746384
5.396628371628371,-6.2,-3.4,6.992670373105154
5.404623376623377,-6.2,-3.218831168831162,6.9
5.4126183816183815,-6.2,-3.3070408315089166,6.9
5.420613386613387,-6.2,-3.3155461559716883,6.9
5.428608391608392,-6.2,-3.324051480434459,6.9
5.436603396603397,-6.2,-3.332556804897231,6.9
5.444598401598402,-6.2,-3.341062129360002,6.9
5.452593406593406,-6.2,-3.3495674538227727,6.9
5.460588411588412,-6.2,-3.3580727782855444,6.9
5.468583416583416,-6.2,-3.3665781027483153,6.9
5.476578421578422,-6.2,-3.375083427211087,6.9
5.4845734265734265,-6.2,-3.383588751673858,6.9
5.492568431568432,-6.2,-3.3920940761366296,6.9
5.500563436563437,-6.2,-3.3718281718281666,6.9
5.508558441558441,-6.2,-3.3,6.879406307977734
5.516553446553447,-6.2,-3.4051743710834628,6.8
5.524548451548451,-6.2,-3.4142596040323316,6.8
5.532543456543457,-6.2,-3.4233448369812014,6.8
5.540538461538461,-6.2,-3.4324300699300703,6.8
5.548533466533467,-6.2,-3.44151530287894,6.8
5.5565284715284715,-6.2,-3.450600535827809,6.8
5.564523476523476,-6.2,-3.4596857687766778,6.8
5.572518481518482,-6.2,-3.4687710017255475,6.8
5.580513486513486,-6.2,-3.4778562346744164,6.8
5.588508491508492,-6.2,-3.4869414676232866,6.8
5.596503496503496,-6.2,-3.4960267005721555,6.8
5.604498501498502,-5.700299700299688,-4.599100899100935,7.424775224775233
5.612493506493506,-5.670883954754919,-6.029534981147883,8.064976958525342
5.620488511488512,-5.774045309529183,-6.072518878970493,8.159541533735085
5.6284835164835165,-5.877206664303436,-6.1155027767930985,8.254106108944816
5.636478521478521,-5.980368019077689,-6.158486674615704,8.348670684154548
5.644473526473527,-6.083529373851953,-6.201470572438314,8.443235259364291
5.652468531468531,-6.186690728626207,-6.244454470260919,8.537799834574024
5.660463536463537,-6.289852083400471,-6.28743836808353,8.632364409783765
5.668458541458541,-6.393013438174724,-6.330422265906135,8.726928984993497
5.676453546453547,-6.496174792948989,-6.373406163728745,8.82149356020324
5.684448551448551,-6.599336147723242,-6.4163900615513505,8.916058135412971
5.692443556443557,-6.702497502497506,-6.459373959373961,9.010622710622714
5.7004385614385615,-7.282417582417547,-6.171078921078945,9.341208791208773
5.708433566433566,-8.431328671328677,1.9716783216783071,7.8223076923077235
5.716428571428572,-8.315126050420172,2.2831932773109203,7.115126050420171
5.724423576423576,-8.399779044484927,2.1891343950167483,7.199779044484926
5.732418581418582,-8.484432038549691,2.0950755127225658,7.28443203854969
5.740413586413586,-8.569085032614446,2.001016630428394,7.369085032614445
5.748408591408592,-8.653738026679209,1.9069577481342117,7.4537380266792095
5.7564035964035964,-8.738391020743965,1.8128988658400398,7.538391020743964
5.764398601398601,-8.823044014808719,1.7188399835458679,7.623044014808719
5.7723936063936065,-8.907697008873482,1.6247811012516857,7.707697008873483
5.780388611388611,-8.992350002938236,1.5307222189575138,7.792350002938237
5.788383616383617,-9.077002997003001,1.4366633366633317,7.877002997003002
5.796378621378621,-9.161655991067756,1.3426044543691598,7.961655991067756
5.804373626373627,-8.256593406593309,-0.21446886446889674,9.368681318681338
5.812368631368631,-5.594705294705266,1.0949050949052503,9.131568431568422
5.820363636363636,-5.5158357771260995,1.6712609970674475,9.1
5.8283586413586415,-5.533029336255144,1.7486320131481459,9.1
5.836353646353646,-5.550222895384186,1.8260030292288356,9.1
5.844348651348652,-5.567416454513229,1.903374045309534,9.1
5.852343656343656,-5.584610013642272,1.9807450613902238,9.1
5.860338661338662,-5.601803572771316,2.058116077470922,9.1
5.868333666333666,-5.618997131900358,2.135487093551612,9.1
5.876328671328672,-5.636190691029403,2.21285810963231,9.1
5.884323676323676,-5.653384250158444,2.290229125713,9.1
5.892318681318681,-5.670577809287487,2.3676001417936896,9.1
5.9003136863136865,-5.687771368416531,2.444971157874388,9.1
5.908308691308691,-4.283916083916167,0.6876123876124889,5.814785214785286
5.916303696303697,-3.3293433838888404,-0.8875170284261105,5.429343383888841
5.924298701298701,-3.3838547815820537,-0.6785566706021267,5.483854781582054
5.932293706293707,-3.438366179275273,-0.46959631277811953,5.538366179275274
5.940288711288711,-3.4928775769684863,-0.2606359549541357,5.592877576968487
5.948283716283717,-3.5473889746617053,-0.0516755971301287,5.647388974661705
5.956278721278721,-3.6019003723549186,0.15728476069385522,5.701900372354919
5.964273726273726,-3.656411770048132,0.36624511851783903,5.756411770048132
5.9722687312687315,-3.7109231677413512,0.5752054763418459,5.810923167741351
5.980263736263736,-3.765434565434564,0.78416583416583,5.8654345654345645
5.988258741258742,-3.8199459631277835,0.9931261919898369,5.919945963127784
5.996253746253746,-3.8744573608209967,1.2020865498138207,5.974457360820997
6.004248751248752,-3.0751248751248297,3.649750249750341,7.9370629370630965
6.012243756243756,-3.0197171249802826,3.621131500078871,8.806572374993427
6.020238761238761,-3.044964509175034,3.520141963299865,8.814988169725012
6.028233766233766,-3.070211893369788,3.419152426520848,8.823403964456597
6.036228771228771,-3.0954592775645393,3.318162889741842,8.83181975918818
6.0442237762237765,-3.120706661759294,3.217173352962825,8.840235553919765
6.052218781218781,-3.145954045954045,3.116183816183819,8.848651348651348
6.060213786213787,-3.171201430148799,3.015194279404802,8.857067143382933
6.068208791208791,-3.196448814343551,2.914204742625796,8.865482938114518
6.076203796203796,-3.2216961985383024,2.8132152058467903,8.8738987328461
6.084198801198801,-3.2469435827330564,2.7122256690677733,8.882314527577686
6.092193806193806,-3.2721909669278078,2.6112361322887674,8.89073032230927
6.100188811188811,-3.2974383511225622,2.5102465955097504,8.899146117040855
6.108183816183816,-3.569393106893101,1.8714160839160983,8.720404595404599
6.1161788211788215,-3.8,2.1561711016256466,8.556171101625646
6.124173826173826,-3.7,2.311147826532442,8.908360869899331
6.132168831168832,-3.7,2.3521478521478545,8.939110889110891
6.140163836163836,-3.7,2.393147877763263,8.969860908322447
6.148158841158841,-3.7,2.434147903378671,9.000610927534003
6.156153846153846,-3.7,2.4751479289940836,9.031360946745563
6.164148851148851,-3.7,2.5161479546094916,9.06211096595712
6.172143856143856,-3.7,2.5571479802249044,9.092860985168677
6.180138861138861,-3.7,2.5981480058403124,9.123611004380233
6.1881338661338665,-3.7,2.639148031455725,9.154361023591793
6.196128871128871,-3.7,2.680148057071133,9.18511104280335
6.204123876123877,-3.3190309690308886,3.168581418581467,9.031418581418533
6.212118881118881,-2.4976456876456874,3.5929370629370627,9.0
6.220113886113886,-2.488762348762349,3.566287046287047,9.0
6.228108891108891,-2.4798790098790096,3.5396370296370288,9.0
6.236103896103896,-2.4709956709956713,3.5129870129870135,9.0
6.244098901098901,-2.4621123321123317,3.486336996336995,9.0
6.252093906093906,-2.453228993228993,3.4596869796869796,9.0
6.2600889110889115,-2.444345654345654,3.4330369630369613,9.0
6.268083916083916,-2.435462315462315,3.4063869463869456,9.0
6.276078921078921,-2.426578976578977,3.3797369297369304,9.0
6.284073926073926,-2.4176956376956373,3.353086913086912,9.0
6.292068931068931,-2.4088122988122986,3.3264368964368964,9.0
6.300063936063936,-2.3808191808190533,3.2744255744254045,8.974425574425405
6.308058941058941,-1.1978096371713394,2.7021903628286608,8.506571088485982
6.316053946053946,-1.1893043127085676,2.7106956872914325,8.532087061874297
6.324048951048951,-1.1807989882457968,2.7192010117542034,8.55760303526261
6.332043956043956,-1.1722936637830261,2.7277063362169742,8.583119008650922
6.340038961038961,-1.1637883393202544,2.736211660679746,8.608634982039238
6.348033966033966,-1.1552830148574835,2.7447169851425164,8.63415095542755
6.356028971028971,-1.1467776903947118,2.753222309605288,8.659666928815865
6.364023976023976,-1.138272365931941,2.761727634068059,8.685182902204177
6.372018981018981,-1.1297670414691692,2.7702329585308307,8.710698875592493
6.380013986013986,-1.1212617170063983,2.7787382829936016,8.736214848980806
6.388008991008991,-1.1127563925436266,2.7872436074563733,8.76173082236912
6.396003996003996,-1.1042510680808557,2.795748931919144,8.787246795757433
6.403999000999001,-0.0007992007994059858,3.099600399600297,8.749850149850111
6.411994005994006,-1.3637660212128344,2.6936233978787167,8.425506408485134
6.419989010989011,-1.4488192658405428,2.685118073415946,8.459527706336218
6.427984015984016,-1.5338725104682605,2.676612748953174,8.493549004187305
6.435979020979021,-1.6189257550959688,2.6681074244904033,8.527570302038388
6.443974025974026,-1.7039789997236865,2.6596021000276315,8.561591599889475
6.451969030969031,-1.7890322443513949,2.6510967755648607,8.595612897740558
6.4599640359640365,-1.8740854889791125,2.642591451102089,8.629634195591645
6.467959040959041,-1.959138733606821,2.634086126639318,8.663655493442729
6.475954045954046,-2.044191978234529,2.625580802176547,8.697676791293812
6.483949050949051,-2.129245222862247,2.6170754777137755,8.7316980891449
6.491944055944056,-2.214298467489955,2.6085701532510046,8.765719386995983
6.499939060939061,-2.299351712117673,2.600064828788233,8.79974068484707
6.507934065934066,-0.5472527472527444,2.749450549450549,9.203296703296706
6.515929070929071,-1.121511821511843,3.057209457209474,9.028604728604737
6.523924075924076,-0.7061550949050948,2.993844905094905,8.9
6.531919080919081,-0.7161488511488505,2.9838511488511497,8.9
6.539914085914086,-0.7261426073926074,2.9738573926073926,8.9
6.547909090909091,-0.7361363636363631,2.963863636363637,8.9
6.555904095904096,-0.74613011988012,2.95386988011988,8.9
6.563899100899101,-0.7561238761238758,2.943876123876124,8.9
6.571894105894106,-0.7661176323676326,2.9338823676323673,8.9
6.579889110889111,-0.7761113886113884,2.9238886113886116,8.9
6.5878841158841155,-0.7861051448551442,2.913894855144856,8.9
6.595879120879121,-0.796098901098901,2.903901098901099,8.9
6.603874125874126,-1.0937062937062743,2.993706293706274,8.712587412587451
6.611869130869131,-1.1327880452880459,2.9836059773559773,8.7
6.619864135864136,-1.166100566100565,2.9669497169497174,8.7
6.627859140859141,-1.199413086913088,2.950293456543456,8.7
6.635854145854146,-1.232725607725607,2.9336371961371963,8.7
6.643849150849151,-1.26603812853813,2.916980935730935,8.7
6.651844155844156,-1.299350649350649,2.900324675324675,8.7
6.6598391608391605,-1.3326631701631682,2.8836684149184157,8.7
6.667834165834166,-1.365975690975691,2.8670121545121545,8.7
6.675829170829171,-1.3992882117882102,2.8503558941058946,8.7
6.683824175824176,-1.432600732600733,2.8336996336996334,8.7
6.691819180819181,-1.4659132534132522,2.817043373293374,8.7
6.699814185814186,-1.499225774225775,2.8003871128871123,8.7
6.707809190809191,-0.9189385083002137,2.99483495228176,9.291391587136268
6.715804195804196,-1.1060556464811928,2.943803005505129,9.20633834250855
6.723799200799201,-1.293172784662151,2.892771058728504,9.121285097880842
6.7317942057942055,-1.4802899228431095,2.8417391119518793,9.036231853253133
6.739789210789211,-1.6674070610240883,2.7907071651752484,8.951178608625415
6.747784215784216,-1.8545241992050467,2.7396752183986237,8.866125363997707
6.755779220779221,-2.041641337386026,2.688643271621993,8.78107211936999
6.763774225774226,-2.228758475566984,2.637611324845368,8.69601887474228
6.771769230769231,-2.4158756137479633,2.586579378068737,8.610965630114563
6.779764235764236,-2.6029927519289213,2.5355474312921125,8.525912385486855
6.78775924075924,-2.7901098901098798,2.4845154845154873,8.440859140859146
6.795754245754246,-2.9772270282908586,2.433483537738857,8.355805896231429
6.8037492507492505,-2.3418248418248826,4.433300033300025,8.774925074925054
6.811744255744256,-0.6539904539904533,4.788633588633589,9.574425574425575
6.819739260739261,-0.9111512017394359,2.8111512017394356,9.605575600869718
6.827734265734266,-0.9299629781982723,2.8299629781982722,9.614981489099137
6.835729270729271,-0.9487747546571067,2.8487747546571067,9.624387377328553
6.843724275724275,-0.9675865311159411,2.8675865311159408,9.63379326555797
6.851719280719281,-0.9863983075747775,2.8863983075747774,9.64319915378739
6.859714285714285,-1.005210084033612,2.905210084033612,9.652605042016805
6.867709290709291,-1.0240218604924485,2.924021860492448,9.662010930246224
6.8757042957042955,-1.0428336369512827,2.9428336369512826,9.67141681847564
6.883699300699301,-1.0616454134101192,2.9616454134101193,9.680822706705058
6.891694305694306,-1.0804571898689537,2.980457189868954,9.690228594934476
6.899689310689311,-1.0992689663277901,2.99926896632779,9.699634483163894
6.907684315684316,-0.7005294705294823,2.8331568431568392,9.6
6.91567932067932,-1.3921892061426946,2.698047301535674,9.303905396928654
6.923674325674326,-1.3550031363984831,2.688750784099621,9.322498431800758
6.93166933066933,-1.317817066654276,2.6794542666635692,9.341091466672863
6.939664335664336,-1.2806309969100644,2.670157749227516,9.359684501544969
6.9476593406593405,-1.243444927165857,2.6608612317914644,9.378277536417071
6.955654345654346,-1.2062588574216455,2.6515647143554117,9.396870571289178
6.963649350649351,-1.1690727876774383,2.6422681969193595,9.415463606161282
6.971644355644356,-1.1318867179332268,2.632971679483307,9.434056641033386
6.979639360639361,-1.0947006481890194,2.623675162047255,9.45264967590549
6.987634365634365,-1.0575145784448121,2.614378644611203,9.471242710777593
6.995629370629371,-1.0203285087006007,2.6050821271751503,9.4898357456497
7.0036243756243755,-1.5624375624375408,2.4687812187812295,9.612687312687378
7.011619380619381,1.9700748689512633,-2.3568521366274027,8.20695933280203
7.0196143856143856,1.5837993467207014,-1.7998967324810116,8.296790849599835
7.027609390609391,1.197523824490097,-1.2429413283345585,8.386622366397651
7.035604395604396,0.8112483022595351,-0.6859859241881672,8.476453883195456
7.0435994005994,0.42497278002897354,-0.12903052004177606,8.56628539999326
7.051594405594406,0.038697257798368856,0.427924884104677,8.656116916791076
7.05958941058941,-0.347578264432193,0.9848802882510683,8.74594843358888
7.067584415584416,-0.7338537866627974,1.5418356923975214,8.835779950386696
7.0755794205794205,-1.1201293088933593,2.0987910965439123,8.9256114671845
7.083574425574426,-1.5064048311239637,2.6557465006903658,9.015442983982316
7.091569430569431,-1.8926803533545256,3.212701904836757,9.105274500780121
7.099564435564435,-2.278955875585087,3.7696573089831475,9.195106017577926
7.107559440559441,-3.3374200267817047,1.454746317512283,8.54976937955662
7.115554445554445,-2.5038982294301633,1.7354220247837204,8.804929113439746
7.123549450549451,-1.6703764320785295,2.016097732055189,9.060088847322898
7.131544455544455,-0.8368546347269881,2.2967734393266266,9.315248581206024
7.139539460539461,-0.0033328373753538365,2.577449146598095,9.570408315089177
7.1475344655344655,0.8301889599761871,2.8581248538695325,9.825568048972302
7.155529470529471,1.6637107573278218,3.138800561141001,10.080727782855455
7.163524475524476,2.4972325546793632,3.4194762684124385,10.33588751673858
7.17151948051948,3.3307543520309046,3.700151975683876,10.591047250621706
7.179514485514486,4.164276149382538,3.980827682955345,10.846206984504859
7.18750949050949,4.99779794673408,4.261503390226782,11.101366718387983
7.195504495504496,5.8313197440857145,4.54217909749825,11.356526452271137
7.2034995004995,-0.2996003996001192,2.8997002997000894,9.324875124875037
7.211494505494506,-2.5812728937728915,3.0046817765567773,9.176591117216114
7.2194895104895105,-2.5479603729603726,3.013009906759907,9.134950466200465
7.227484515484516,-2.5146478521478497,3.0213380369630376,9.093309815184812
7.235479520479521,-2.4813353313353304,3.0296661671661673,9.051669164169162
7.243474525474525,-2.4480228105228115,3.037994297369297,9.010028513153513
7.251469530469531,-2.4147102897102886,3.046322427572428,8.96838786213786
7.259464535464535,-2.381397768897769,3.054650557775558,8.92674721112221
7.267459540459541,-2.3480852480852463,3.0629786879786884,8.885106560106557
7.275454545454545,-2.3147727272727274,3.071306818181818,8.843465909090908
7.283449550449551,-2.2814602064602045,3.079634948384949,8.801825258075255
7.2914445554445555,-2.248147685647685,3.087963078588079,8.760184607059605
7.29943956043956,-2.2148351648351663,3.0962912087912087,8.718543956043957
7.307434565434566,-1.9043623043623006,2.9891358641358625,8.736954711954713
7.31542957042957,-1.3946303696303772,2.783891108891132,8.816108891108868
7.323424575424576,-1.342457542457535,2.648601398601372,9.121228771228767
7.33141958041958,-1.5098212898212897,3.29017871017871,9.109821289821289
7.339414585414586,-1.5275879675879687,3.2724120324120314,9.127587967587969
7.34740959040959,-1.5453546453546456,3.2546453546453544,9.145354645354645
7.355404595404595,-1.5631213231213223,3.2368786768786775,9.163121323121322
7.3633996003996005,-1.5808880008880013,3.2191119991119987,9.180888000888002
7.371394605394605,-1.5986546786546783,3.201345321345322,9.198654678654679
7.379389610389611,-1.6164213564213572,3.1835786435786426,9.216421356421357
7.387384615384615,-1.6341880341880342,3.165811965811966,9.234188034188035
7.395379620379621,-1.6519547119547129,3.148045288045287,9.251954711954713
7.403374625374625,-1.6697213897213898,3.13027861027861,9.26972138972139
7.411369630369631,-1.6874880674880688,3.1125119325119313,9.28748806748807
7.419364635364635,-1.4270729270728597,3.4,9.5
7.42735964035964,-2.0945124642799064,2.801829178573364,9.098170821426635
7.4353546453546455,-2.0759194294078007,2.8080268568640663,9.091973143135933
7.44334965034965,-2.057326394535697,2.8142245351547674,9.085775464845232
7.451344655344656,-2.0387333596635915,2.8204222134454695,9.07957778655453
7.45933966033966,-2.020140324791488,2.8266198917361707,9.073380108263828
7.467334665334666,-2.0015472899193822,2.8328175700268727,9.067182429973126
7.47532967032967,-1.9829542550472783,2.839015248317574,9.060984751682426
7.483324675324676,-1.9643612201751726,2.8452129266082755,9.054787073391724
7.49131968031968,-1.945768185303069,2.8514106048989767,9.048589395101024
7.499314685314685,-1.9271751504309653,2.8576082831896783,9.042391716810322
7.5073096903096905,-1.9085821155588596,2.86380596148038,9.03619403851962
7.515304695304695,-1.8899890806867559,2.870003639771081,9.02999636022892
7.523299700299701,-1.8713960458146501,2.876201318061783,9.023798681938217
7.531294705294705,-1.8528030109425464,2.8823989963524843,9.017601003647515
7.539289710289711,-1.8342099760704407,2.8885966746431864,9.011403325356813
7.547284715284715,-1.815616941198337,2.8947943529338875,9.005205647066113
7.55527972027972,-1.7573426573426791,3.1132867132866044,8.914685314685359
7.563274725274725,-2.1951897159444336,3.7687331536388164,8.909620568111134
7.57126973026973,-2.165019885774605,3.57262925753493,8.969960228450791
7.5792647352647355,-2.1348500556047725,3.376525361431021,9.030299888790456
7.58725974025974,-2.1046802254349437,3.180421465327134,9.090639549130113
7.595254745254746,-2.074510395265112,2.9843175692232258,9.150979209469778
7.60324975024975,-2.044340565095283,2.7882136731193388,9.211318869809435
7.611244755244755,-2.0141707349254543,2.592109777015452,9.271658530149093
7.61923976023976,0.11403596403597593,0.8064435564437034,9.561988011988008
7.627234765234765,-1.888027357258125,3.7580598888291203,9.508294269832732
7.6352297702297705,-1.6112771843540896,3.9015599784830646,9.528794282640437
7.643224775224775,-1.3345270114500851,4.045060068136993,9.549294295448142
7.6512197802197806,-1.0577768385460498,4.1885601577909375,9.569794308255847
7.659214785214785,-0.7810266656420453,4.332060247444866,9.590294321063553
7.667209790209791,-0.5042764927380099,4.475560337098809,9.610794333871258
7.675204795204795,-0.2275263198340054,4.619060426752737,9.631294346678962
7.6831998001998,0.0492238530699991,4.762560516406666,9.651794359486667
7.691194805194805,0.32597402597403446,4.90606060606061,9.672294372294372
7.69918981018981,0.6027241988780392,5.049560695714538,9.692794385102076
7.7071848151848155,-1.1652347652348316,0.5010989010989468,8.827172827172824
7.71517982017982,-2.7480065389156447,4.110008173644556,9.662001634728911
7.723174825174826,-2.457279084551809,3.746598855689761,9.589319771137951
7.73116983016983,-2.166551630188005,3.3831895377350065,9.516637907547
7.739164835164836,-1.8758241758241694,3.0197802197802117,9.443956043956042
7.74715984015984,-1.5850967214603657,2.656370901825457,9.371274180365091
7.755154845154845,-1.294369267096562,2.2929615838707025,9.29859231677414
7.76314985014985,-1.0036418127327262,1.9295522659159077,9.225910453183182
7.771144855144855,-0.7129143583689226,1.5661429479611528,9.153228589592231
7.7791398601398605,-0.42218690400508674,1.202733630006358,9.080546726001272
7.787134865134865,-0.13145944964128287,0.8393243120516036,9.00786486241032
7.795129870129871,0.15926800472255298,0.4759149940968084,8.935182998819363
7.803124875124875,-1.700099900099837,1.8875124875124796,9.4
7.81111988011988,-0.5777396516526967,1.929680464463071,9.422260348347303
7.819114885114885,-0.5429787603700641,1.976028319506581,9.457021239629936
7.82710989010989,-0.5082178690874354,2.022376174550086,9.491782130912565
7.835104895104895,-0.4734569778048028,2.068724029593596,9.526543022195197
7.8430999000999,-0.43869608652217407,2.1150718846371013,9.561303913477825
7.8510949050949055,-0.4039351952395414,2.1614197396806114,9.596064804760458
7.85908991008991,-0.36917430395691264,2.207767594724116,9.630825696043086
7.867084915084915,-0.3344134126742839,2.254115449767621,9.665586587325716
7.87507992007992,-0.3199800199800504,2.2960039960039897,9.69200799200798
7.883074925074925,-0.7009187393802778,2.3009187393802777,9.7
7.89106993006993,-0.7077520769828467,2.3077520769828466,9.7
7.899064935064935,-0.7145854145854147,2.3145854145854146,9.7
7.90705994005994,-0.7214187521879835,2.3214187521879834,9.7
7.915054945054945,-0.7282520897905516,2.3282520897905514,9.7
7.9230499500499505,-0.7350854273931203,2.3350854273931203,9.7
7.931044955044955,-0.7419187649956884,2.3419187649956883,9.7
7.93903996003996,-0.7487521025982564,2.3487521025982563,9.7
7.947034965034965,-0.7555854402008253,2.355585440200825,9.7
7.95502997002997,-0.7624187778033933,2.362418777803393,9.7
7.963024975024975,-0.7692521154059621,2.369252115405962,9.7
7.97101998001998,-0.7760854530085302,2.37608545300853,9.7
7.979014985014985,-0.7829187906110989,2.382918790611099,9.7
7.98700999000999,-0.789752128213667,2.389752128213667,9.7
7.9950049950049955,-0.7965854658162358,2.3965854658162358,9.7
8.003,-1.1,2.0,9.6
