accel_time_list,vertical_Accel_x,vertical_Accel_y,vertical_Accel_z
0.0,-0.057,5.171,4.086
0.00799795081967213,0.964536515255009,2.114926941029144,7.221591814663023
0.01599590163934426,0.9846424749544627,2.23745110428051,7.188489184881603
0.02399385245901639,1.0047484346539162,2.359975267531876,7.155386555100182
0.03199180327868852,1.0248543943533697,2.482499430783242,7.1222839253187615
0.039989754098360655,1.0449603540528232,2.6050235940346083,7.08918129553734
0.04798770491803278,1.065066313752277,2.7275477572859748,7.05607866575592
0.05598565573770491,1.0851722734517304,2.850071920537341,7.022976035974499
0.06398360655737705,1.105278233151184,2.972596083788707,6.9898734061930785
0.07198155737704917,1.1253841928506374,3.095120247040073,6.956770776411657
0.07997950819672131,2.1490655737704922,4.506393442622953,6.999610655737706
0.08797745901639344,1.9560304141501295,5.235971742881795,5.640313057233247
0.09597540983606556,1.9265642795513376,5.152624676445212,5.659957146965775
0.1039733606557377,1.8970981449525455,5.069277610008628,5.6796012366983035
0.11197131147540983,1.8676320103537534,4.985930543572045,5.699245326430831
0.11996926229508197,1.8381658757549613,4.902583477135462,5.71888941616336
0.1279672131147541,1.8086997411561692,4.8192364106988785,5.738533505895887
0.13596516393442623,1.779233606557377,4.735889344262295,5.758177595628416
0.14396311475409834,1.7497674719585852,4.652542277825712,5.777821685360943
0.15196106557377048,1.720301337359793,4.569195211389129,5.797465775093471
0.15995901639344262,1.6908352027610007,4.485848144952545,5.817109864826
0.16795696721311473,1.6613690681622089,4.402501078515963,5.836753954558527
0.17595491803278687,1.6319029335634168,4.3191540120793785,5.856398044291056
0.183952868852459,1.6024367989646247,4.235806945642795,5.876042134023583
0.19195081967213112,1.5729706643658328,4.152459879206212,5.895686223756112
0.19994877049180326,1.399940573770496,4.014483606557379,5.428178278688539
0.2079467213114754,0.5515840163934421,2.6125963114754094,6.831475409836067
0.21594467213114754,0.4397242420236206,2.3091375374581347,6.9762857174334565
0.22394262295081965,0.3428028380045832,2.020351313238146,7.087311034725894
0.2319405737704918,0.24588143398554557,1.7315650890181562,7.198336352018332
0.23993852459016393,0.14896002996650792,1.4427788647981665,7.30936166931077
0.24793647540983604,0.05203862594747061,1.1539926405781777,7.420386986603208
0.2559344262295082,-0.04488277807156704,0.8652064163581881,7.531412303895646
0.2639323770491803,-0.14180418209060464,0.5764201921381984,7.642437621188084
0.27193032786885246,-0.23872558610964234,0.2876339679182087,7.753462938480522
0.2799282786885246,-0.33564699012867993,-0.0011522563017809517,7.86448825577296
0.2879262295081967,-0.432568394147717,-0.28993848052176885,7.975513573065397
0.2959241803278688,-0.5294897981667546,-0.5787247047417585,8.086538890357835
0.30392213114754096,-1.4706762295081937,-2.7198729508196653,8.746254098360653
0.3119200819672131,-1.6577982838114753,-3.054195184426229,9.982020363729509
0.31991803278688524,-1.73427868852459,-3.5600655737704914,9.773573770491804
0.3279159836065574,-1.795038524590164,-4.063783401639344,9.572145901639345
0.33591393442622947,-1.7342540983606562,-4.550858606557374,9.424983606557378
0.3439118852459016,-1.673469672131148,-5.037933811475407,9.27782131147541
0.35190983606557374,-1.6126852459016396,-5.52500901639344,9.130659016393443
0.3599077868852459,-1.5519008196721313,-6.012084221311474,8.983496721311475
0.367905737704918,-1.4911163934426233,-6.499159426229507,8.836334426229508
0.37590368852459016,-1.430331967213115,-6.98623463114754,8.68917213114754
0.38390163934426225,-1.369547540983607,-7.47330983606557,8.542009836065574
0.3918995901639344,-0.9237704918032748,-6.754790983606584,7.817778688524587
0.3998975409836065,-1.9950906323185016,-8.389123302107727,7.012877751756442
0.40789549180327866,-1.9047518735363003,-8.629290339578453,6.741404449648713
0.4158934426229508,-1.8144131147540987,-8.86945737704918,6.469931147540985
0.42389139344262294,-1.7240743559718972,-9.109624414519907,6.198457845433255
0.4318893442622951,-1.6337355971896956,-9.349791451990633,5.926984543325527
0.43988729508196717,-1.5433968384074948,-9.589958489461358,5.6555112412178
0.4478852459016393,-1.4530580796252934,-9.830125526932084,5.384037939110072
0.45588319672131145,-1.3627193208430919,-10.07029256440281,5.112564637002343
0.4638811475409836,-1.2723805620608903,-10.310459601873536,4.841091334894614
0.4718790983606557,-1.1820418032786888,-10.550626639344262,4.569618032786885
0.47987704918032786,-1.0917030444964873,-10.790793676814989,4.298144730679157
0.48787499999999995,-1.0013642857142864,-11.030960714285714,4.02667142857143
0.4958729508196721,-0.9110255269320848,-11.27112775175644,3.7551981264637013
0.5038709016393442,-0.6048185597189699,-10.483021135831383,3.180634016393444
0.5118688524590164,-0.5151653395784547,-10.416219203747072,2.967888524590165
0.5198668032786885,-0.4255121194379393,-10.349417271662764,2.7551430327868855
0.5278647540983606,-0.33585889929742396,-10.282615339578454,2.5423975409836066
0.5358627049180328,-0.2462056791569086,-10.215813407494146,2.3296520491803276
0.5438606557377049,-0.1565524590163933,-10.149011475409836,2.1169065573770487
0.5518586065573771,-0.0668992388758779,-10.082209543325527,1.90416106557377
0.5598565573770492,0.022753981264637346,-10.015407611241217,1.691415573770491
0.5678545081967212,0.11240720140515148,-9.948605679156909,1.4786700819672152
0.5758524590163934,0.20206042154566684,-9.8818037470726,1.2659245901639362
0.5838504098360655,0.2917136416861822,-9.81500181498829,1.053179098360657
0.5918483606557376,0.38136686182669743,-9.748199882903982,0.8404336065573781
0.5998463114754098,0.4710200819672128,-9.681397950819672,0.6276881147540991
0.6078442622950819,0.545844262295082,-9.744176229508188,-0.06538934426227572
0.6158422131147541,0.20805601092895992,-13.387396857923498,0.7178784153005475
0.6238401639344262,0.9072791596005269,-13.43253471829659,0.2701770303372908
0.6318381147540983,1.6065023082720935,-13.477672578669683,-0.17752435462596594
0.6398360655737705,2.3057254569436605,-13.522810439042773,-0.6252257395892227
0.6478340163934426,3.0049486056152275,-13.567948299415866,-1.0729271245524794
0.6558319672131148,3.7041717542867945,-13.613086159788958,-1.5206285095157364
0.6638299180327869,4.403394902958361,-13.65822402016205,-1.968329894478993
0.6718278688524589,5.102618051629918,-13.703361880535143,-2.416031279442244
0.6798258196721311,5.801841200301485,-13.748499740908235,-2.8637326644055
0.6878237704918032,6.501064348973052,-13.793637601281327,-3.3114340493687573
0.6958217213114753,7.200287497644618,-13.83877546165442,-3.7591354343320136
0.7038196721311475,7.315265938069218,-13.348867030965394,-2.6996302367941767
0.7118176229508196,4.737566598360655,-10.288357581967219,-0.7582766393442527
0.7198155737704918,4.34871393442623,-9.024140163934428,-1.8460676229508197
0.7278135245901639,3.8065997729286667,-8.003532869960123,-2.263177918697386
0.735811475409836,3.6690134027470096,-7.976620846256092,-2.115864311032344
0.7438094262295082,3.531427032565352,-7.9497088225520605,-1.9685507033673018
0.7518073770491803,3.3938406623836954,-7.922796798848029,-1.8212370957022597
0.7598053278688525,3.256254292202038,-7.895884775143997,-1.6739234880372176
0.7678032786885245,3.118667922020383,-7.868972751439965,-1.5266098803721775
0.7758012295081966,2.981081551838726,-7.842060727735933,-1.3792962727071354
0.7837991803278688,2.843495181657069,-7.815148704031901,-1.2319826650420933
0.7917971311475409,2.7059088114754117,-7.788236680327869,-1.0846690573770512
0.799795081967213,2.4134426229508428,-7.6662049180328005,-0.3843114754099134
0.8077930327868852,2.0056506356641,-7.881299033957843,0.6693061851789929
0.8157909836065573,2.1208864168618256,-8.046399590163933,0.42324677985948767
0.8237889344262295,2.2361221980595505,-8.211500146370021,0.17718737453998246
0.8317868852459016,2.351357979257276,-8.376600702576111,-0.06887203077952264
0.8397848360655737,2.466593760455001,-8.5417012587822,-0.31493143609902785
0.8477827868852459,2.581829541652726,-8.706801814988289,-0.560990841418533
0.855780737704918,2.697065322850451,-8.871902371194379,-0.807050246738038
0.8637786885245902,2.812301104048176,-9.037002927400469,-1.0531096520575434
0.8717766393442622,2.9275368852458996,-9.202103483606555,-1.299169057377045
0.8797745901639343,3.042772666443625,-9.367204039812645,-1.5452284626965502
0.8877725409836065,3.1580084476413504,-9.532304596018733,-1.7912878680160556
0.8957704918032786,3.2732442288390753,-9.697405152224823,-2.0373472733355604
0.9037684426229508,3.1039231557377187,-10.458218237704886,-1.4411588114754514
0.9117663934426229,3.061155197261755,-9.907110430553054,-1.0227391460998012
0.919764344262295,3.0644950009007386,-9.869845253107549,-1.0884805440461172
0.9277622950819672,3.0678348045397223,-9.832580075662044,-1.1542219419924333
0.9357602459016393,3.0711746081787066,-9.795314898216539,-1.2199633399387493
0.9437581967213114,3.0745144118176904,-9.758049720771032,-1.2857047378850655
0.9517561475409836,3.0778542154566746,-9.720784543325527,-1.3514461358313814
0.9597540983606557,3.0811940190956584,-9.683519365880022,-1.4171875337776976
0.9677520491803279,3.084533822734642,-9.646254188434517,-1.4829289317240135
0.9757499999999999,3.0878736263736264,-9.608989010989012,-1.5486703296703288
0.983747950819672,3.09121343001261,-9.571723833543507,-1.6144117276166448
0.9917459016393442,3.094553233651594,-9.534458656098002,-1.680153125562961
0.9997438524590163,3.097893037290578,-9.497193478652497,-1.745894523509277
1.0077418032786885,3.132575645273805,-9.45684931984653,-1.34444837809557
1.0157397540983606,3.1444024023369375,-9.437790373212417,-1.3740578130449945
1.0237377049180327,3.1562291594000698,-9.418731426578304,-1.403667247994419
1.0317356557377049,3.1680559164632016,-9.399672479944194,-1.4332766829438435
1.039733606557377,3.179882673526334,-9.38061353331008,-1.462886117893268
1.0477315573770491,3.191709430589466,-9.361554586675968,-1.4924955528426924
1.0557295081967213,3.2035361876525985,-9.342495640041856,-1.522104987792117
1.0637274590163934,3.215362944715731,-9.323436693407743,-1.5517144227415414
1.0717254098360656,3.2271897017788627,-9.304377746773632,-1.5813238576909658
1.0797233606557377,3.239016458841995,-9.28531880013952,-1.6109332926403903
1.0877213114754098,3.2508432159051273,-9.266259853505407,-1.6405427275898148
1.095719262295082,3.2626699729682596,-9.247200906871294,-1.6701521625392393
1.1037172131147541,3.4207862021857895,-9.10813661202186,-1.8452206284152979
1.1117151639344263,3.4447336065573766,-8.906908014571949,-1.7484014116575592
1.1197131147540984,3.345805747580486,-9.094048192771085,-1.5336615642899467
1.1277110655737703,3.3324115889788666,-9.105804216867469,-1.5410813499901241
1.1357090163934425,3.319017430377247,-9.117560240963854,-1.548501135690302
1.1437069672131146,3.3056232717756275,-9.129316265060242,-1.5559209213904799
1.1517049180327867,3.292229113174008,-9.141072289156627,-1.5633407070906575
1.1597028688524589,3.278834954572388,-9.152828313253012,-1.5707604927908354
1.167700819672131,3.2654407959707688,-9.164584337349398,-1.578180278491013
1.1756987704918032,3.252046637369149,-9.176340361445783,-1.585600064191191
1.1836967213114753,3.2386524787675293,-9.188096385542169,-1.5930198498913688
1.1916946721311474,3.22525832016591,-9.199852409638554,-1.6004396355915465
1.1996926229508196,3.21186416156429,-9.21160843373494,-1.6078594212917243
1.2076905737704917,2.6675516393442633,-9.088990983606557,-1.2098213114754173
1.2156885245901639,2.7590655737704917,-9.491693046919163,-1.1132221594120972
1.223686475409836,2.7830594262295083,-9.484522470322215,-1.1202088750706614
1.2316844262295081,2.8070532786885245,-9.477351893725269,-1.1271955907292257
1.2396823770491803,2.831047131147541,-9.47018131712832,-1.1341823063877898
1.2476803278688524,2.8550409836065573,-9.463010740531374,-1.141169022046354
1.2556782786885246,2.879034836065574,-9.455840163934425,-1.148155737704918
1.2636762295081967,2.90302868852459,-9.448669587337479,-1.1551424533634822
1.2716741803278688,2.927022540983607,-9.44149901074053,-1.1621291690220463
1.279672131147541,2.951016393442623,-9.434328434143584,-1.1691158846806105
1.287670081967213,2.9750102459016396,-9.427157857546636,-1.1761026003391746
1.2956680327868852,2.999004098360656,-9.41998728094969,-1.183089315997739
1.3036659836065574,3.2523678278688486,-9.137265368852466,-1.4649918032786895
1.3116639344262295,3.1815156883483167,-9.184041159880133,-1.3638907103825135
1.3196618852459017,3.1618218094482637,-9.178967191080556,-1.3585587431693988
1.3276598360655738,3.142127930548211,-9.173893222280979,-1.3532267759562842
1.3356577868852457,3.1224340516481583,-9.168819253481402,-1.3478948087431695
1.3436557377049179,3.1027401727481054,-9.163745284681825,-1.3425628415300548
1.35165368852459,3.0830462938480525,-9.158671315882248,-1.3372308743169399
1.3596516393442621,3.0633524149479996,-9.153597347082671,-1.3318989071038252
1.3676495901639343,3.0436585360479467,-9.148523378283095,-1.3265669398907103
1.3756475409836064,3.0239646571478938,-9.143449409483518,-1.3212349726775956
1.3836454918032786,3.004270778247841,-9.13837544068394,-1.315903005464481
1.3916434426229507,2.984576899347788,-9.133301471884364,-1.310571038251366
1.3996413934426228,2.964883020447735,-9.128227503084787,-1.3052390710382513
1.407639344262295,3.0849710498779213,-9.16545413324032,-1.454837460760377
1.4156372950819671,3.079951059469829,-9.138397235786536,-1.4442869724450647
1.4236352459016393,3.074931069061737,-9.111340338332752,-1.4337364841297524
1.4316331967213114,3.0699110786536448,-9.084283440878966,-1.4231859958144402
1.4396311475409835,3.064891088245553,-9.057226543425182,-1.4126355074991281
1.4476290983606557,3.0598710978374606,-9.030169645971398,-1.402085019183816
1.4556270491803278,3.0548511074293687,-9.003112748517614,-1.3915345308685036
1.463625,3.049831117021277,-8.97605585106383,-1.3809840425531914
1.471622950819672,3.0448111266131845,-8.948998953610046,-1.3704335542378794
1.4796209016393442,3.0397911362050927,-8.921942056156261,-1.3598830659225671
1.4876188524590164,3.0347711457970004,-8.894885158702476,-1.349332577607255
1.4956168032786885,3.0297511553889085,-8.867828261248691,-1.3387820892919429
1.5036147540983607,3.248850000000002,-9.01925737704918,-1.7358778688524614
1.5116127049180328,3.3779604800936758,-9.08217974238876,-1.8712137002341869
1.519610655737705,3.0371618852459026,-9.319391393442622,-1.2927028688524598
1.527608606557377,2.95834631147541,-9.336762295081966,-1.2233606557377048
1.535606557377049,2.946096285536419,-9.332307740195061,-1.207972193401121
1.5436045081967211,2.9338462595974275,-9.327853185308156,-1.1925837310645366
1.5516024590163933,2.921596233658436,-9.323398630421249,-1.1771952687279523
1.5596004098360654,2.9093462077194445,-9.318944075534343,-1.1618068063913678
1.5675983606557375,2.897096181780453,-9.314489520647438,-1.1464183440547835
1.5755963114754097,2.884846155841461,-9.310034965760531,-1.1310298817181992
1.5835942622950818,2.87259612990247,-9.305580410873626,-1.1156414193816149
1.591592213114754,2.860346103963478,-9.30112585598672,-1.1002529570450303
1.599590163934426,2.8171311475409895,-9.292573770491805,-1.1125573770491757
1.6075881147540982,2.8384118852459017,-9.378427926809076,-1.199615002483855
1.6155860655737704,2.83041393442623,-9.37051076337142,-1.1976761053154497
1.6235840163934425,2.8224159836065574,-9.362593599933765,-1.1957372081470443
1.6315819672131147,2.8144180327868855,-9.35467643649611,-1.1937983109786388
1.6395799180327868,2.806420081967213,-9.346759273058455,-1.1918594138102334
1.647577868852459,2.7984221311475412,-9.3388421096208,-1.189920516641828
1.655575819672131,2.790424180327869,-9.330924946183144,-1.1879816194734227
1.6635737704918032,2.782426229508197,-9.323007782745488,-1.1860427223050174
1.6715717213114754,2.7744282786885246,-9.315090619307833,-1.184103825136612
1.6795696721311475,2.7664303278688527,-9.307173455870178,-1.1821649279682067
1.6875676229508196,2.7584323770491803,-9.299256292432522,-1.1802260307998012
1.6955655737704918,2.7504344262295084,-9.291339128994867,-1.1782871336313958
1.703563524590164,2.7424364754098365,-9.283421965557212,-1.1763482364629905
1.711561475409836,2.8823709016393413,-9.308875000000004,-1.3180512295081985
1.7195594262295082,2.9317457552693207,-9.25593193793911,-1.2928390661592506
1.7275573770491803,2.9311744730679155,-9.235556206088994,-1.2992183840749414
1.7355553278688525,2.9306031908665107,-9.215180474238876,-1.3055977019906324
1.7435532786885244,2.9300319086651054,-9.19480474238876,-1.311977019906323
1.7515512295081965,2.9294606264637,-9.174429010538642,-1.318356337822014
1.7595491803278687,2.928889344262295,-9.154053278688526,-1.3247356557377048
1.7675471311475408,2.92831806206089,-9.133677546838408,-1.3311149736533956
1.775545081967213,2.927746779859485,-9.113301814988292,-1.3374942915690866
1.783543032786885,2.9271754976580797,-9.092926083138174,-1.3438736094847774
1.7915409836065572,2.9266042154566745,-9.072550351288056,-1.3502529274004682
1.7995389344262294,2.9260329332552697,-9.05217461943794,-1.356632245316159
1.8075368852459015,2.955,-9.21,-1.419
1.8155348360655736,2.955,-9.21,-1.419
1.8235327868852458,2.955,-9.21,-1.419
1.831530737704918,2.955,-9.21,-1.419
1.83952868852459,2.955,-9.21,-1.419
1.8475266393442622,2.955,-9.21,-1.419
1.8555245901639343,2.955,-9.21,-1.419
1.8635225409836065,2.955,-9.21,-1.419
1.8715204918032786,2.955,-9.21,-1.419
1.8795184426229508,2.955,-9.21,-1.419
1.887516393442623,2.955,-9.21,-1.419
1.895514344262295,2.955,-9.21,-1.419
1.9035122950819672,2.94475,-9.206471311475411,-1.406229508196721
1.9115102459016393,2.911858606557375,-9.173437500000002,-1.3333053278688536
1.9195081967213115,3.057278298204528,-9.218691256830601,-1.3301693989071037
1.9275061475409836,3.0442340212724437,-9.202028859289618,-1.3328353825136612
1.9355040983606557,3.031189744340359,-9.185366461748634,-1.3355013661202186
1.9435020491803279,3.018145467408275,-9.16870406420765,-1.3381673497267759
1.9514999999999998,3.005101190476191,-9.152041666666667,-1.3408333333333333
1.959497950819672,2.9920569135441064,-9.135379269125684,-1.3434993169398906
1.967495901639344,2.979012636612022,-9.1187168715847,-1.346165300546448
1.9754938524590162,2.965968359679938,-9.102054474043717,-1.3488312841530055
1.9834918032786883,2.952924082747854,-9.085392076502734,-1.3514972677595627
1.9914897540983605,2.939879805815769,-9.068729678961748,-1.3541632513661201
1.9994877049180326,2.926835528883685,-9.052067281420765,-1.3568292349726776
2.007485655737705,2.908893660620858,-9.319964095744682,-1.1626005842343914
2.015483606557377,2.902937739797698,-9.32515425531915,-1.1658337983955354
2.0234815573770493,2.8969818189745378,-9.330344414893618,-1.1690670125566796
2.031479508196721,2.8910258981513777,-9.335534574468086,-1.1723002267178235
2.0394774590163935,2.8850699773282176,-9.340724734042555,-1.1755334408789675
2.0474754098360655,2.8791140565050575,-9.345914893617023,-1.1787666550401115
2.0554733606557374,2.873158135681898,-9.35110505319149,-1.1819998692012554
2.0634713114754097,2.8672022148587373,-9.356295212765959,-1.1852330833623996
2.0714692622950817,2.8612462940355776,-9.361485372340427,-1.1884662975235436
2.079467213114754,2.855290373212417,-9.366675531914895,-1.1916995116846878
2.087465163934426,2.8493344523892574,-9.371865691489361,-1.1949327258458318
2.0954631147540983,2.843378531566097,-9.377055851063831,-1.1981659400069757
2.10346106557377,2.6457704918032103,-9.300327868852408,-1.2361065573770065
2.1114590163934426,2.703655737704918,-9.308311475409836,-1.329532786885246
2.1194569672131145,2.6984417174990467,-9.285129360465117,-1.340588781929089
2.127454918032787,2.7049516774685474,-9.279456395348836,-1.3370548036599312
2.1354528688524588,2.7114616374380476,-9.273783430232559,-1.333520825390774
2.143450819672131,2.7179715974075487,-9.268110465116278,-1.3299868471216165
2.151448770491803,2.724481557377049,-9.2624375,-1.326452868852459
2.1594467213114754,2.7309915173465495,-9.25676453488372,-1.3229188905833016
2.1674446721311473,2.7375014773160498,-9.251091569767441,-1.3193849123141441
2.1754426229508197,2.744011437285551,-9.245418604651162,-1.3158509340449867
2.1834405737704916,2.750521397255051,-9.239745639534883,-1.3123169557758292
2.191438524590164,2.7570313572245517,-9.234072674418604,-1.3087829775066717
2.199436475409836,2.763541317194052,-9.228399709302325,-1.3052489992375145
2.2074344262295083,2.91376639344263,-9.228315573770505,-1.3729754098360762
2.21543237704918,2.8231688616688158,-9.24023392890035,-1.3772156474488857
2.2234303278688525,2.8204729231902745,-9.22585559034813,-1.3716440412599005
2.2314282786885244,2.8177769847117333,-9.21147725179591,-1.3660724350709155
2.239426229508197,2.815081046233192,-9.19709891324369,-1.3605008288819302
2.2474241803278687,2.812385107754651,-9.182720574691471,-1.3549292226929452
2.2554221311475406,2.80968916927611,-9.168342236139253,-1.3493576165039605
2.263420081967213,2.8069932307975685,-9.153963897587033,-1.3437860103149752
2.271418032786885,2.8042972923190277,-9.139585559034813,-1.3382144041259902
2.2794159836065573,2.8016013538404865,-9.125207220482594,-1.332642797937005
2.287413934426229,2.7989054153619453,-9.110828881930374,-1.32707119174802
2.2954118852459016,2.796209476883404,-9.096450543378154,-1.3214995855590348
2.3034098360655735,2.8224262295082148,-9.285836065573788,-1.3191639344262338
2.311407786885246,2.7068365834984682,-9.205708948838046,-1.2364350342280663
2.3194057377049178,2.719580571068275,-9.20474216357413,-1.2611320032426578
2.32740368852459,2.7323245586380827,-9.203775378310214,-1.2858289722572505
2.335401639344262,2.74506854620789,-9.202808593046298,-1.310525941271842
2.3433995901639344,2.7578125337776975,-9.201841807782381,-1.3352229102864346
2.3513975409836063,2.7705565213475043,-9.200875022518465,-1.359919879301026
2.3593954918032787,2.783300508917312,-9.199908237254549,-1.3846168483156187
2.3673934426229506,2.7960444964871187,-9.198941451990633,-1.4093138173302102
2.375391393442623,2.8087884840569264,-9.197974666726717,-1.4340107863448028
2.383389344262295,2.8215324716267336,-9.197007881462799,-1.4587077553593941
2.3913872950819672,2.8342764591965413,-9.196041096198883,-1.483404724373987
2.399385245901639,2.847020446766348,-9.195074310934967,-1.5081016933885782
2.4073831967213115,2.894,-9.189,-1.343
2.4153811475409834,2.890050008719917,-9.192492021276596,-1.3451753575165677
2.423379098360656,2.8841791724799446,-9.197682180851064,-1.3484085716777119
2.4313770491803277,2.8783083362399724,-9.202872340425532,-1.3516417858388559
2.439375,2.8724375,-9.2080625,-1.354875
2.447372950819672,2.866566663760028,-9.213252659574469,-1.358108214161144
2.4553709016393443,2.860695827520056,-9.218442819148937,-1.361341428322288
2.4633688524590163,2.854824991280084,-9.223632978723405,-1.364574642483432
2.471366803278688,2.848954155040112,-9.228823138297873,-1.3678078566445762
2.4793647540983605,2.8430833188001396,-9.234013297872341,-1.3710410708057201
2.4873627049180325,2.837212482560168,-9.23920345744681,-1.374274284966864
2.495360655737705,2.8313416463201957,-9.244393617021277,-1.3775074991280083
2.5033586065573767,2.8254708100802235,-9.249583776595744,-1.3807407132891523
2.511356557377049,2.9240931911326378,-9.347777151639345,-1.4055186289120714
2.519354508196721,2.926183564642325,-9.34277843237705,-1.4171520119225032
2.5273524590163934,2.928273938152012,-9.337779713114754,-1.4287853949329357
2.5353504098360653,2.9303643116616986,-9.33278099385246,-1.4404187779433675
2.5433483606557377,2.9324546851713857,-9.327782274590165,-1.4520521609538
2.5513463114754096,2.934545058681073,-9.322783555327868,-1.4636855439642318
2.559344262295082,2.93663543219076,-9.317784836065574,-1.4753189269746643
2.567342213114754,2.938725805700447,-9.312786116803279,-1.4869523099850963
2.575340163934426,2.940816179210134,-9.307787397540983,-1.4985856929955288
2.583338114754098,2.9429065527198213,-9.302788678278688,-1.5102190760059606
2.5913360655737705,2.9449969262295084,-9.297789959016393,-1.521852459016393
2.5993340163934424,2.9304661885246084,-9.27663319672133,-1.529158811475414
2.6073319672131148,2.770024590163935,-9.184170081967213,-1.574979508196721
2.6153299180327867,2.8114269048062592,-9.12682337462742,-1.5650506240685542
2.623327868852459,2.8140625931445604,-9.141274217585693,-1.5706855439642324
2.631325819672131,2.816698281482861,-9.155725060543963,-1.5763204638599104
2.6393237704918033,2.8193339698211624,-9.170175903502235,-1.5819553837555886
2.6473217213114753,2.8219696581594635,-9.184626746460506,-1.5875903036512666
2.6553196721311476,2.8246053464977647,-9.199077589418778,-1.593225223546945
2.6633176229508195,2.8272410348360655,-9.21352843237705,-1.5988601434426228
2.6713155737704914,2.8298767231743667,-9.22797927533532,-1.6044950633383008
2.679313524590164,2.8325124115126674,-9.242430118293592,-1.6101299832339793
2.6873114754098357,2.8351480998509686,-9.256880961251863,-1.6157649031296573
2.695309426229508,2.83778378818927,-9.271331804210135,-1.6213998230253355
2.70330737704918,2.8911721311475427,-9.189368852459015,-1.3532663934426166
2.7113053278688524,2.909557331000184,-9.218114662000369,-1.5852226699207959
2.7193032786885243,2.912972186406336,-9.224944372812672,-1.5804598452753733
2.7273012295081966,2.9163870418124884,-9.231774083624977,-1.5756970206299503
2.7352991803278686,2.9198018972186404,-9.238603794437282,-1.5709341959845278
2.743297131147541,2.9232167526247927,-9.245433505249586,-1.5661713713391048
2.751295081967213,2.9266316080309447,-9.25226321606189,-1.5614085466936822
2.759293032786885,2.930046463437097,-9.259092926874194,-1.5566457220482592
2.767290983606557,2.933461318843249,-9.265922637686497,-1.5518828974028367
2.7752889344262295,2.9368761742494014,-9.272752348498802,-1.547120072757414
2.7832868852459014,2.9402910296555533,-9.279582059311107,-1.5423572481119912
2.7912848360655738,2.9437058850617057,-9.286411770123411,-1.5375944234665684
2.7992827868852457,2.938375000000006,-9.289889344262297,-1.522254098360663
2.807280737704918,2.826062500000003,-9.187088114754099,-1.482308401639348
2.81527868852459,2.9042227369921596,-9.221163043478262,-1.5885933713471132
2.8232766393442623,2.8981373396293657,-9.226466032608696,-1.5918968727726301
2.8312745901639342,2.892051942266572,-9.231769021739131,-1.5952003741981469
2.8392725409836066,2.8859665449037775,-9.237072010869566,-1.5985038756236636
2.8472704918032785,2.8798811475409836,-9.242375000000001,-1.6018073770491803
2.855268442622951,2.8737957501781892,-9.247677989130436,-1.6051108784746972
2.863266393442623,2.8677103528153958,-9.25298097826087,-1.608414379900214
2.8712643442622947,2.861624955452602,-9.258283967391305,-1.6117178813257305
2.879262295081967,2.8555395580898075,-9.26358695652174,-1.6150213827512474
2.887260245901639,2.8494541607270136,-9.268889945652175,-1.6183248841767641
2.8952581967213114,2.8433687633642193,-9.27419293478261,-1.621628385602281
2.9032561475409833,2.848,-9.195,-1.51
2.9112540983606556,2.9302132949018196,-9.164931003422806,-1.7094228067014952
2.9192520491803275,2.928279724373987,-9.169677040172942,-1.6981729418122864
2.92725,2.9263461538461537,-9.174423076923077,-1.686923076923077
2.935247950819672,2.924412583318321,-9.179169113673213,-1.6756732120338682
2.943245901639344,2.9224790127904883,-9.183915150423347,-1.6644233471446588
2.951243852459016,2.9205454422626556,-9.188661187173482,-1.6531734822554498
2.9592418032786885,2.9186118717348224,-9.193407223923618,-1.6419236173662404
2.9672397540983604,2.9166783012069897,-9.198153260673752,-1.6306737524770316
2.9752377049180327,2.914744730679157,-9.202899297423889,-1.6194238875878222
2.9832356557377047,2.912811160151324,-9.207645334174023,-1.6081740226986134
2.991233606557377,2.910877589623491,-9.212391370924157,-1.596924157809404
2.999231557377049,2.89487500000002,-9.211905737704926,-1.5682858606557626
3.0072295081967213,2.8213606557377,-9.13024590163934,-1.5647540983606545
3.015227459016393,2.866791666666667,-9.201777322404372,-1.5334125683060114
3.0232254098360656,2.848,-9.195,-1.51
3.0312233606557375,2.848,-9.195,-1.51
3.03922131147541,2.848,-9.195,-1.51
3.0472192622950818,2.848,-9.195,-1.51
3.055217213114754,2.848,-9.195,-1.51
3.063215163934426,2.848,-9.195,-1.51
3.071213114754098,2.848,-9.195,-1.51
3.0792110655737703,2.848,-9.195,-1.51
3.0872090163934423,2.848,-9.195,-1.51
3.0952069672131146,2.848,-9.195,-1.51
3.1032049180327865,2.9264918032787004,-9.174065573770463,-1.6877704918033472
3.111202868852459,2.97,-9.239,-1.662
3.119200819672131,2.97,-9.239,-1.662
3.127198770491803,2.97,-9.239,-1.662
3.135196721311475,2.97,-9.239,-1.662
3.1431946721311474,2.97,-9.239,-1.662
3.1511926229508194,2.97,-9.239,-1.662
3.1591905737704917,2.97,-9.239,-1.662
3.1671885245901636,2.97,-9.239,-1.662
3.175186475409836,2.97,-9.239,-1.662
3.183184426229508,2.97,-9.239,-1.662
3.1911823770491803,2.97,-9.239,-1.662
3.199180327868852,2.9480000000000195,-9.231065573770499,-1.6345901639344504
3.2071782786885246,2.8247540983606534,-9.243565573770491,-1.6529713114754083
3.2151762295081965,2.896411931818182,-9.298705942622952,-1.695529619970194
3.223174180327869,2.8908678977272726,-9.296706454918034,-1.6886222988077495
3.2311721311475408,2.885323863636364,-9.294706967213115,-1.6817149776453058
3.239170081967213,2.8797798295454546,-9.292707479508197,-1.6748076564828613
3.247168032786885,2.8742357954545454,-9.290707991803279,-1.6679003353204176
3.2551659836065574,2.8686917613636362,-9.288708504098361,-1.6609930141579732
3.2631639344262293,2.8631477272727275,-9.286709016393443,-1.6540856929955292
3.2711618852459017,2.8576036931818183,-9.284709528688525,-1.647178371833085
3.2791598360655736,2.852059659090909,-9.282710040983607,-1.640271050670641
3.2871577868852455,2.8465156250000003,-9.28071055327869,-1.633363729508197
3.295155737704918,2.840971590909091,-9.278711065573772,-1.626456408345753
3.30315368852459,2.9246219262295217,-9.165459016393438,-1.6983237704918364
3.311151639344262,2.849439745378444,-9.191466079525638,-1.518376700383676
3.319149590163934,2.85131160620858,-9.186871512033486,-1.5292675270317397
3.3271475409836064,2.853183467038716,-9.182276944541332,-1.5401583536798042
3.3351454918032784,2.855055327868852,-9.17768237704918,-1.5510491803278683
3.3431434426229507,2.856927188698988,-9.173087809557028,-1.5619400069759326
3.3511413934426226,2.8587990495291242,-9.168493242064876,-1.5728308336239967
3.359139344262295,2.8606709103592607,-9.163898674572724,-1.5837216602720612
3.367137295081967,2.8625427711893967,-9.159304107080573,-1.594612486920125
3.3751352459016393,2.8644146320195327,-9.15470953958842,-1.6055033135681895
3.383133196721311,2.8662864928496687,-9.150114972096269,-1.6163941402162534
3.3911311475409835,2.8681583536798048,-9.145520404604117,-1.627284966864318
3.3991290983606555,2.8739374999999914,-9.14242008196721,-1.6429057377049072
3.407127049180328,3.1622969034608364,-9.412347449908925,-1.8788387978142067
3.4151249999999997,3.7663352941176456,-9.622505882352941,-2.2223691176470615
3.423122950819672,3.790046865959498,-9.59766518804243,-2.1752282545805217
3.431120901639344,3.813758437801349,-9.57282449373192,-2.128087391513985
3.4391188524590164,3.837470009643201,-9.547983799421408,-2.0809465284474453
3.4471168032786883,3.861181581485052,-9.523143105110897,-2.0338056653809087
3.4551147540983607,3.884893153326904,-9.498302410800386,-1.9866648023143691
3.4631127049180326,3.908604725168755,-9.473461716489876,-1.9395239392478323
3.471110655737705,3.932316297010607,-9.448621022179363,-1.8923830761812928
3.479108606557377,3.9560278688524577,-9.423780327868853,-1.845242213114756
3.4871065573770488,3.9797394406943085,-9.398939633558342,-1.798101350048219
3.495104508196721,4.003451012536161,-9.374098939247832,-1.7509604869816795
3.503102459016393,2.980907786885239,-9.540885245901606,-0.12897336065562875
3.5111004098360654,2.918507399817852,-9.470903916211293,-0.42455931238615624
3.5190983606557373,2.737664845173049,-9.417228779599274,-0.4761905282331492
3.5270963114754097,2.5568222905282356,-9.36355364298725,-0.527821744080145
3.5350942622950816,2.3759797358834325,-9.30987850637523,-0.5794529599271381
3.543092213114754,2.1951371812386187,-9.256203369763206,-0.6310841757741339
3.551090163934426,2.0142946265938155,-9.202528233151186,-0.6827153916211268
3.5590881147540983,1.8334520719490022,-9.148853096539163,-0.7343466074681226
3.56708606557377,1.652609517304199,-9.095177959927144,-0.7859778233151157
3.5750840163934425,1.4717669626593857,-9.04150282331512,-0.8376090391621116
3.5830819672131144,1.2909244080145823,-8.987827686703099,-0.8892402550091045
3.591079918032787,1.110081853369769,-8.934152550091076,-0.9408714708561003
3.5990778688524587,0.9362950819671806,-8.906385245901484,-0.9715204918034046
3.607075819672131,0.8321641524241367,-9.6927258022323,-1.298011401290548
3.615073770491803,0.8405024415765606,-9.710933903034531,-1.2094383501918409
3.6230717213114754,0.848840730728985,-9.729142003836763,-1.1208652990931287
3.6310696721311473,0.8571790198814089,-9.747350104638995,-1.0322922479944214
3.6390676229508196,0.8655173090338333,-9.765558205441227,-0.9437191968957093
3.6470655737704916,0.8738555981862572,-9.783766306243459,-0.8551461457970021
3.655063524590164,0.8821938873386816,-9.801974407045693,-0.76657309469829
3.663061475409836,0.8905321764911056,-9.820182507847925,-0.6780000435995828
3.671059426229508,0.89887046564353,-9.838390608650156,-0.5894269925008707
3.67905737704918,0.9072087547959539,-9.856598709452388,-0.5008539414021634
3.687055327868852,0.9155470439483778,-9.87480681025462,-0.41228089030345627
3.6950532786885244,0.9238853331008022,-9.893014911056854,-0.3237078392047441
3.7030512295081963,0.7590471311475208,-9.125428278688489,0.27172848360660873
3.7110491803278687,1.0653916798871854,-10.169034373347436,-0.5569421822668815
3.7190471311475406,1.0311638903578368,-10.132656597038606,-0.3604333906222542
3.727045081967213,0.9969361008284863,-10.096278820729774,-0.16392459897761602
3.735043032786885,0.9627083112991376,-10.059901044420943,0.03258419266701129
3.7430409836065572,0.928480521769787,-10.023523268112111,0.22909298431164948
3.751038934426229,0.8942527322404384,-9.98714549180328,0.4256017759562767
3.7590368852459015,0.8600249427110879,-9.950767715494448,0.6221105676009149
3.7670348360655734,0.8257971531817392,-9.914389939185618,0.8186193592455422
3.775032786885246,0.7915693636523886,-9.878012162876786,1.0151281508901804
3.7830307377049177,0.75734157412304,-9.841634386567955,1.2116369425348077
3.79102868852459,0.7231137845936895,-9.805256610259123,1.4081457341794459
3.799026639344262,0.6913709016393234,-9.753788934426364,1.5966741803279332
3.8070245901639344,0.933945901639343,-9.38204426229508,1.2524319672131154
3.8150225409836063,1.1513937353629848,-9.970146662763423,1.0449285714285863
3.8230204918032786,1.2646431896377242,-10.334356304391823,1.1327754503137006
3.8310184426229505,1.3325764015381474,-10.29031820481684,1.199326300344057
3.839016393442623,1.4005096134385744,-10.246280105241855,1.2658771503744173
3.847014344262295,1.4684428253389976,-10.202242005666871,1.3324280004047737
3.855012295081967,1.5363760372394246,-10.158203906091885,1.398978850435134
3.863010245901639,1.6043092491398478,-10.114165806516901,1.4655297004654906
3.8710081967213115,1.6722424610402749,-10.070127706941916,1.5320805504958506
3.8790061475409834,1.740175672940698,-10.02608960736693,1.598631400526207
3.8870040983606557,1.808108884841125,-9.982051507791946,1.6651822505565672
3.8950020491803277,1.8760420967415483,-9.938013408216962,1.7317331005869239
3.9029999999999996,2.627000000000078,-8.838999999999743,1.2735000000001317
3.910997950819672,2.480296651552145,-10.243751940181374,0.8071959583188
3.918995901639344,2.4020188350191862,-10.21541877397977,0.8727961719567472
3.926993852459016,2.3237410184862233,-10.187085607778165,0.9383963855946978
3.934991803278688,2.2454632019532643,-10.158752441576562,1.003996599232645
3.9429897540983605,2.167185385420301,-10.130419275374956,1.0695968128705957
3.9509877049180324,2.088907568887342,-10.102086109173353,1.1351970265085427
3.958985655737705,2.0106297523543786,-10.073752942971748,1.2007972401464935
3.9669836065573767,1.9323519358214196,-10.045419776770144,1.2663974537844407
3.974981557377049,1.8540741192884564,-10.017086610568539,1.3319976674223915
3.982979508196721,1.7757963027554975,-9.988753444366935,1.3975978810603387
3.9909774590163933,1.6975184862225343,-9.96042027816533,1.4631980946982892
3.9989754098360653,1.6192406696895754,-9.932087111963726,1.5287983083362362
4.006973360655738,1.272065904283448,-10.494030671602328,1.2016257271285036
4.01497131147541,1.3007037281861458,-10.57521417239556,1.220373611845585
4.0229692622950814,1.3293415520888403,-10.656397673188785,1.2391214965626645
4.030967213114754,1.3579793759915382,-10.737581173982019,1.257869381279746
4.038965163934426,1.386617199894236,-10.818764674775252,1.2766172659968273
4.0469631147540985,1.415255023796934,-10.899948175568484,1.2953651507139088
4.05496106557377,1.4438928476996284,-10.98113167636171,1.314113035430988
4.062959016393442,1.4725306716023263,-11.062315177154943,1.3328609201480695
4.070956967213115,1.5011684955050242,-11.143498677948177,1.3516088048651511
4.078954918032787,1.529806319407722,-11.224682178741409,1.3703566895822326
4.086952868852459,1.5584441433104166,-11.305865679534634,1.3891045742993118
4.094950819672131,1.5870819672131145,-11.387049180327868,1.4078524590163932
4.102948770491803,0.2964412568305448,-8.763954918032693,2.3168196721311434
4.110946721311475,0.2140440034512464,-8.834300690250211,2.1569775668679783
4.118944672131147,0.2659044003451221,-8.86343006902502,2.2835977566867918
4.1269426229508195,0.3177647972389977,-8.892559447799826,2.410217946505605
4.134940573770492,0.36962519413287337,-8.921688826574632,2.5368381363244183
4.142938524590163,0.4214855910267432,-8.950818205349437,2.6634583261432176
4.150936475409836,0.4733459879206189,-8.979947584124243,2.7900785159620307
4.158934426229508,0.5252063848144946,-9.00907696289905,2.9166987057808442
4.16693237704918,0.5770667817083702,-9.038206341673856,3.0433188955996573
4.174930327868852,0.6289271786022401,-9.06733572044866,3.1699390854184566
4.182928278688524,0.6807875754961158,-9.096465099223467,3.2965592752372697
4.190926229508197,0.7326479723899915,-9.125594477998273,3.423179465056083
4.198924180327869,0.7845083692838671,-9.15472385677308,3.5497996548748967
4.20692213114754,0.9713372950819854,-8.793863934426241,3.2070073770491847
4.214920081967213,0.7492316779170587,-8.839924228543877,3.353954170684669
4.222918032786885,0.8555573770491737,-8.839265573770492,3.3361704918032795
4.2309159836065575,0.9618830761812887,-8.838606918997106,3.3183868129218905
4.238913934426229,1.0682087753133918,-8.837948264223723,3.3006031340405033
4.246911885245901,1.1745344744455068,-8.837289609450337,3.2828194551591143
4.254909836065574,1.2808601735776217,-8.836630954676952,3.265035776277725
4.262907786885246,1.3871858727097366,-8.835972299903569,3.247252097396336
4.2709057377049175,1.49351157184184,-8.835313645130183,3.2294684185149487
4.27890368852459,1.5998372709739548,-8.834654990356798,3.2116847396335597
4.286901639344262,1.7061629701060697,-8.833996335583414,3.1939010607521703
4.294899590163935,1.8124886692381845,-8.833337680810029,3.1761173818707813
4.302897540983606,1.1266864754098125,-8.493805327868946,4.58816188524609
4.3108954918032785,1.5979303060690617,-9.139351696023716,2.8418329046041158
4.318893442622951,1.5951225148238577,-9.057074904080917,2.8985843215905143
4.326891393442622,1.592314723578654,-8.974798112138128,2.9553357385769066
4.334889344262295,1.5895069323334496,-8.892521320195328,3.0120871555633046
4.342887295081967,1.5866991410882456,-8.810244528252529,3.068838572549703
4.350885245901639,1.5838913498430414,-8.72796773630973,3.1255899895361017
4.358883196721311,1.5810835585978376,-8.645690944366939,3.182341406522494
4.366881147540983,1.5782757673526335,-8.56341415242414,3.239092823508892
4.374879098360656,1.5754679761074293,-8.481137360481341,3.2958442404952906
4.382877049180328,1.5726601848622253,-8.398860568538542,3.352595657481689
4.390874999999999,1.5698523936170214,-8.31658377659575,3.409347074468081
4.398872950819672,1.5670446023718174,-8.234306984652951,3.4660984914544795
4.406870901639344,0.7636413934426207,-8.645689036885248,4.609707735655729
4.4148688524590165,1.0623972112304507,-8.336068400226113,5.705891840964764
4.422866803278688,1.0802317222536264,-8.24147194742793,5.725105309025814
4.43086475409836,1.0980662332768039,-8.146875494629736,5.744318777086866
4.438862704918033,1.1159007442999813,-8.052279041831541,5.763532245147918
4.446860655737705,1.1337352553231588,-7.9576825890333485,5.78274571320897
4.4548586065573765,1.1515697663463345,-7.8630861362351645,5.80195918127002
4.462856557377049,1.169404277369512,-7.768489683436971,5.821172649331072
4.470854508196721,1.1872387883926894,-7.673893230638777,5.840386117392124
4.478852459016394,1.2050732994158668,-7.579296777840582,5.859599585453177
4.486850409836065,1.2229078104390423,-7.484700325042399,5.878813053514226
4.4948483606557375,1.24074232146222,-7.390103872244206,5.898026521575279
4.50284631147541,1.301925204918035,-7.885253073770515,5.1355324453551585
4.510844262295081,1.3586014919874683,-9.475532878983243,4.675239362681881
4.518842213114754,1.468505917295999,-9.385847992263772,4.876446237797009
4.526840163934426,1.57841034260453,-9.2961631055443,5.077653112912136
4.534838114754098,1.6883147679130608,-9.206478218824827,5.278859988027263
4.54283606557377,1.7982191932215796,-9.116793332105367,5.480066863142369
4.550834016393442,1.9081236185301105,-9.027108445385895,5.681273738257496
4.558831967213115,2.0180280438386413,-8.937423558666422,5.882480613372623
4.566829918032787,2.127932469147172,-8.847738671946951,6.083687488487751
4.574827868852458,2.237836894455691,-8.75805378522749,6.284894363602856
4.582825819672131,2.3477413197642223,-8.668368898508017,6.486101238717983
4.590823770491803,2.457645745072753,-8.578684011788546,6.68730811383311
4.5988217213114755,2.567550170381284,-8.488999125069075,6.888514988948238
4.606819672131147,1.7610983606557693,-8.328868852459022,6.343016393442644
4.614817622950819,1.6998085922607715,-7.714735465116275,6.883122545749139
4.622815573770492,1.685765678612277,-7.748773255813951,6.914463353030879
4.630813524590164,1.6717227649637822,-7.782811046511627,6.945804160312619
4.6388114754098355,1.6576798513152893,-7.816848837209299,6.977144967594355
4.646809426229508,1.6436369376667948,-7.8508866279069744,7.008485774876094
4.65480737704918,1.6295940240183002,-7.88492441860465,7.039826582157834
4.662805327868853,1.6155511103698055,-7.918962209302326,7.071167389439573
4.670803278688524,1.6015081967213125,-7.952999999999998,7.10250819672131
4.678801229508196,1.587465283072818,-7.9870377906976735,7.133849004003049
4.686799180327869,1.5734223694243232,-8.02107558139535,7.1651898112847885
4.694797131147541,1.5593794557758287,-8.055113372093025,7.196530618566528
4.702795081967213,1.1755278688524835,-8.586854098360622,5.5439229508197805
4.710793032786885,1.8958745446265968,-8.28205589708561,5.139065232240435
4.718790983606557,2.1317252276867107,-8.286765801457195,5.041223633879778
4.726788934426229,2.367575910746799,-8.29147570582878,4.9433820355191305
4.734786885245901,2.6034265938069128,-8.296185610200364,4.845540437158473
4.7427848360655736,2.839277276867027,-8.300895514571948,4.747698838797815
4.750782786885246,3.075127959927141,-8.305605418943534,4.649857240437157
4.758780737704917,3.310978642987229,-8.310315323315118,4.552015642076511
4.76677868852459,3.546829326047343,-8.315025227686704,4.454174043715853
4.774776639344262,3.782680009107457,-8.319735132058288,4.3563324453551955
4.7827745901639345,4.018530692167571,-8.324445036429871,4.258490846994538
4.790772540983606,4.254381375227659,-8.329154940801457,4.160649248633891
4.798770491803278,4.4902320582877735,-8.333864845173041,4.062807650273233
4.806768442622951,4.266962916446326,-8.187670126035608,3.4168118720253853
4.814766393442623,4.366292305658386,-8.127384496738937,3.53807112638816
4.8227643442622945,4.4656216948704355,-8.067098867442272,3.659330380750921
4.830762295081967,4.564951084082495,-8.006813238145602,3.7805896351136954
4.838760245901639,4.664280473294555,-7.946527608848933,3.90184888947647
4.846758196721312,4.763609862506615,-7.8862419795522625,4.023108143839245
4.854756147540983,4.8629392517186645,-7.825956350255598,4.1443673982020055
4.862754098360655,4.962268640930724,-7.765670720958928,4.26562665256478
4.870752049180328,5.061598030142784,-7.705385091662258,4.386885906927555
4.87875,5.160927419354844,-7.645099462365588,4.508145161290329
4.886747950819672,5.2602568085668935,-7.5848138330689245,4.62940441565309
4.894745901639344,5.359586197778953,-7.524528203772254,4.750663670015864
4.902743852459016,4.302279713114728,-7.2,4.781403688524595
4.910741803278689,5.077459016393409,-7.237090163934432,4.451639344262272
4.91873975409836,4.6767594686263445,-7.276759468626344,4.269721594120968
4.9267377049180325,4.649180327868853,-7.249180327868853,4.352459016393442
4.934735655737705,4.621601187111362,-7.221601187111362,4.435196438665915
4.942733606557376,4.594022046353874,-7.194022046353874,4.517933860938378
4.950731557377049,4.566442905596383,-7.166442905596383,4.6006712832108505
4.958729508196721,4.538863764838892,-7.1388637648388915,4.683408705483323
4.9667274590163935,4.5112846240814015,-7.111284624081401,4.766146127755797
4.974725409836065,4.483705483323914,-7.0837054833239135,4.84888355002826
4.982723360655737,4.456126342566423,-7.056126342566422,4.931620972300733
4.99072131147541,4.428547201808931,-7.028547201808931,5.014358394573206
4.998719262295082,4.40096806105144,-7.00096806105144,5.0970958168456795
5.0067172131147535,4.40925436277101,-7.302313590692752,3.5976864093072476
5.014715163934426,4.512453728186137,-7.328113432046534,3.5718865679534657
5.022713114754098,4.6156530936012645,-7.353913273400316,3.546086726599684
5.030711065573771,4.718852459016392,-7.3797131147540975,3.520286885245902
5.038709016393442,4.822051824431507,-7.405512956107876,3.494487043892123
5.046706967213114,4.925251189846635,-7.431312797461659,3.4686872025383413
5.054704918032787,5.028450555261762,-7.45711263881544,3.4428873611845594
5.062702868852459,5.131649920676889,-7.482912480169222,3.4170875198307775
5.070700819672131,5.234849286092005,-7.508712321523001,3.3912876784769987
5.078698770491803,5.338048651507132,-7.534512162876783,3.365487837123217
5.086696721311475,5.441248016922259,-7.560312004230565,3.339687995769435
5.094694672131148,5.5444473823373865,-7.586111845584346,3.313888154415653
5.102692622950819,4.698620901639056,-6.886940573770541,3.4523094262295957
5.1106905737704915,5.6443675880711455,-7.7332803235088985,3.2585852153819332
5.118688524590164,5.753105685385415,-7.6858882106731805,3.2467584583188005
5.126686475409835,5.8618437826996725,-7.638496097837467,3.2349317012556695
5.134684426229508,5.970581880013942,-7.591103985001748,3.223104944192537
5.14268237704918,6.079319977328211,-7.54371187216603,3.211278187129404
5.150680327868852,6.188058074642481,-7.496319759330311,3.1994514300662718
5.158678278688524,6.296796171956739,-7.448927646494599,3.1876246730031403
5.166676229508196,6.405534269271008,-7.40153553365888,3.1757979159400076
5.174674180327869,6.514272366585278,-7.354143420823162,3.1639711588768753
5.182672131147541,6.623010463899547,-7.306751307987443,3.1521444018137426
5.1906700819672125,6.731748561213805,-7.259359195151729,3.140317644750611
5.198668032786885,6.840486658528074,-7.211967082316011,3.128490887687479
5.206665983606557,5.3801642614230865,-6.315665983606557,2.0966632368329225
5.2146639344262296,5.4913698116498075,-6.3236639344262295,2.2198657132891517
5.222661885245901,5.602575361876516,-6.331661885245901,2.343068189745367
5.230659836065573,5.713780912103236,-6.339659836065573,2.4662706662015963
5.238657786885246,5.824986462329957,-6.347657786885246,2.5894731426578255
5.246655737704918,5.936192012556678,-6.355655737704918,2.7126756191140546
5.25465368852459,6.047397562783386,-6.36365368852459,2.83587809557027
5.262651639344262,6.158603113010106,-6.371651639344262,2.959080572026499
5.270649590163934,6.2698086632368275,-6.379649590163934,3.0822830484827284
5.278647540983607,6.381014213463548,-6.387647540983607,3.2054855249389576
5.286645491803278,6.492219763690256,-6.395645491803278,3.3286880013951734
5.2946434426229505,6.6034253139169765,-6.4036434426229505,3.4518904778514026
5.302641393442623,6.242570696721323,-6.628524590163937,3.0703114754098437
5.310639344262295,6.324016393442623,-6.794827868852459,2.5568934426229495
5.318637295081967,6.260541345226618,-6.880241031822562,2.267423288331723
5.326635245901639,6.225256268081004,-6.920324879459979,2.3112708775313386
5.334633196721311,6.189971190935391,-6.960408727097396,2.3551184667309544
5.342631147540983,6.154686113789781,-7.000492574734809,2.398966055930565
5.350629098360655,6.119401036644168,-7.040576422372225,2.4428136451301805
5.358627049180328,6.084115959498554,-7.080660270009642,2.486661234329796
5.366625,6.0488308823529415,-7.1207441176470585,2.5305088235294115
5.3746229508196715,6.013545805207332,-7.160827965284471,2.5743564127290224
5.382620901639344,5.978260728061718,-7.200911812921888,2.6182040019286377
5.390618852459016,5.942975650916105,-7.240995660559305,2.6620515911282534
5.3986168032786885,5.907690573770491,-7.281079508196721,2.705899180327869
5.40661475409836,7.12563760027905,-7.045802319497737,2.3363460934775
5.414612704918032,7.009922567143364,-7.010151879141963,2.357872493024065
5.422610655737705,6.894207534007678,-6.974501438786189,2.3793988925706304
5.430608606557377,6.778492500871992,-6.938850998430415,2.4009252921171953
5.438606557377049,6.662777467736319,-6.903200558074645,2.422451691663758
5.446604508196721,6.547062434600633,-6.867550117718872,2.4439780912103233
5.454602459016393,6.431347401464947,-6.831899677363098,2.4655044907568886
5.462600409836066,6.315632368329261,-6.796249237007324,2.4870308903034535
5.470598360655737,6.199917335193588,-6.760598796651554,2.508557289850016
5.4785963114754095,6.084202302057902,-6.724948356295781,2.5300836893965815
5.486594262295082,5.968487268922216,-6.689297915940006,2.5516100889431463
5.494592213114754,5.85277223578653,-6.653647475584233,2.5731364884897117
5.502590163934426,5.742721311475447,-6.87601639344263,2.778885245901635
5.510588114754098,5.093427610978077,-6.7735681985632725,2.498204848959293
5.51858606557377,5.357629581875118,-6.6996994842512425,2.5009906520537855
5.526584016393443,5.621831552772159,-6.6258307699392125,2.503776455148278
5.534581967213114,5.88603352366917,-6.551962055627191,2.5065622582427705
5.542579918032787,6.1502354945662105,-6.478093341315161,2.509348061337263
5.550577868852459,6.414437465463251,-6.404224627003131,2.5121338644317555
5.55857581967213,6.678639436360263,-6.33035591269111,2.5149196675262475
5.566573770491803,6.942841407257304,-6.25648719837908,2.5177054706207405
5.574571721311475,7.207043378154345,-6.18261848406705,2.520491273715233
5.5825696721311475,7.471245349051385,-6.10874976975502,2.5232770768097255
5.590567622950819,7.735447319948397,-6.034881055442999,2.5260628799042175
5.598565573770491,7.999649290845438,-5.961012341130969,2.5288486829987105
5.606563524590164,6.379282765085454,-6.950342692710152,1.9312939701778817
5.614561475409836,6.3807292029996505,-6.926519009417511,1.9890664021625366
5.6225594262295076,6.382175640913847,-6.9026953261248725,2.0468388341471853
5.63055737704918,6.383622078828043,-6.878871642832231,2.1046112661318404
5.638555327868852,6.385068516742239,-6.85504795953959,2.162383698116495
5.646553278688525,6.386514954656435,-6.831224276246949,2.22015613010115
5.654551229508196,6.387961392570631,-6.80740059295431,2.2779285620857985
5.6625491803278685,6.389407830484827,-6.783576909661669,2.3357009940704536
5.670547131147541,6.390854268399023,-6.759753226369027,2.3934734260551087
5.678545081967213,6.392300706313219,-6.735929543076386,2.451245858039764
5.686543032786885,6.393747144227415,-6.7121058597837475,2.5090182900244122
5.694540983606557,6.395193582141611,-6.688282176491106,2.5667907220090673
5.702538934426229,6.49793481045082,-6.582717853483607,2.418330686475411
5.710536885245902,6.452446465163934,-6.608211321721312,2.3193560450819652
5.718534836065573,6.397966188524601,-6.6229077868852535,2.2708565573770114
5.726532786885246,6.384432973645985,-6.604780867399875,2.4198600332019087
5.734530737704918,6.4082243463374144,-6.613082537870928,2.4551927526457775
5.742528688524589,6.4320157190288425,-6.621384208341979,2.4905254720896424
5.750526639344262,6.455807091720272,-6.629685878813031,2.525858191533511
5.758524590163934,6.479598464411702,-6.637987549284083,2.5611909109773796
5.7665225409836065,6.503389837103133,-6.646289219755135,2.5965236304212485
5.774520491803278,6.52718120979456,-6.654590890226187,2.6318563498651133
5.78251844262295,6.550972582485991,-6.662892560697239,2.667189069308982
5.790516393442623,6.574763955177421,-6.6711942311682915,2.702521788752851
5.798514344262295,6.598555327868851,-6.679495901639344,2.73785450819672
5.8065122950819665,5.952745901638778,-6.9794344262293295,2.866090163934054
5.814510245901639,7.258800779138897,-6.890533282291476,2.4189504143397684
5.822508196721311,7.159046117816611,-6.972270581877138,2.1572152765267547
5.830506147540984,7.059291456494323,-7.054007881462801,1.895480138713741
5.838504098360655,6.959536795172047,-7.1357451810484545,1.6337450009007561
5.8465020491803275,6.859782133849761,-7.217482480634116,1.3720098630877426
5.8545,6.760027472527474,-7.2992197802197785,1.110274725274729
5.862497950819672,6.660272811205187,-7.380957079805441,0.8485395874617152
5.870495901639344,6.5605181498829115,-7.4626943793910945,0.5868044496487306
5.878493852459016,6.460763488560624,-7.544431678976757,0.32506931183571686
5.886491803278688,6.361008827238337,-7.626168978562419,0.06333417402270314
5.894489754098361,6.26125416591605,-7.707906278148082,-0.19840096379031014
5.902487704918032,5.914969262295202,-8.557905737705262,0.02614344262293166
5.910485655737705,6.087792039244906,-7.749921758569296,0.8055932273555239
5.918483606557377,6.110816443119721,-7.793546944858418,0.7845885080311317
5.926481557377049,6.133840846994536,-7.837172131147541,0.7635837887067395
5.934479508196721,6.156865250869347,-7.880797317436659,0.7425790693823496
5.942477459016393,6.179889654744162,-7.924422503725781,0.7215743500579574
5.9504754098360655,6.202914058618977,-7.968047690014902,0.7005696307335652
5.958473360655737,6.225938462493788,-8.01167287630402,0.6795649114091753
5.966471311475409,6.248962866368603,-8.055298062593142,0.6585601920847831
5.974469262295082,6.271987270243418,-8.098923248882265,0.6375554727603909
5.982467213114754,6.295011674118232,-8.142548435171387,0.6165507534359987
5.9904651639344255,6.318036077993044,-8.186173621460505,0.5955460341116089
5.998463114754098,6.341060481867859,-8.229798807749626,0.5745413147872167
6.00646106557377,5.596369877049028,-8.044326844262313,0.2748596311473449
6.014459016393443,5.318261736214604,-7.4025516020864375,0.6497200074515624
6.022456967213114,5.38360862984351,-7.424636852645303,0.7808682237332207
6.030454918032786,5.448955523472424,-7.446722103204171,0.9120164400148936
6.038452868852459,5.514302417101338,-7.468807353763039,1.0431646562965664
6.046450819672131,5.579649310730252,-7.490892604321907,1.174312872578239
6.054448770491803,5.644996204359159,-7.512977854880773,1.3054610888598974
6.062446721311475,5.710343097988073,-7.535063105439641,1.4366093051415703
6.070444672131147,5.775689991616987,-7.557148355998509,1.567757521423243
6.07844262295082,5.8410368852459005,-7.579233606557377,1.698905737704916
6.086440573770491,5.906383778874807,-7.601318857116242,1.8300539539865741
6.0944385245901636,5.971730672503721,-7.6234041076751105,1.961202170268247
6.102436475409836,4.7698119633099125,-8.056071721311474,2.1676739851678373
6.110434426229508,4.634608508977361,-7.984090163934425,2.133777907884465
6.11843237704918,4.499405054644825,-7.912108606557386,2.0998818306010967
6.126430327868852,4.490754098360651,-7.90257581967213,1.6138463114754686
6.1344282786885245,4.96080669398907,-7.812525956284154,1.7363306010928952
6.142426229508196,5.038120218579228,-7.753874316939896,1.8109781420764957
6.150424180327868,5.115433743169394,-7.695222677595632,1.8856256830601046
6.158422131147541,5.19274726775956,-7.636571038251368,1.9602732240437135
6.166420081967213,5.270060792349726,-7.577919398907104,2.0349207650273224
6.1744180327868845,5.347374316939884,-7.5192677595628465,2.1095683060109227
6.182415983606557,5.424687841530051,-7.460616120218583,2.184215846994532
6.190413934426229,5.502001366120217,-7.401964480874319,2.2588633879781406
6.198411885245902,5.579314890710384,-7.343312841530055,2.3335109289617497
6.206409836065573,5.549662713637986,-10.870617021276628,3.1096124869201374
6.214407786885245,5.173333602197446,-10.528066489361727,2.988281871294044
6.222405737704918,4.7970044907569065,-10.185515957446825,2.866951255667951
6.23040368852459,4.420675379316366,-9.842965425531922,2.745620640041858
6.238401639344262,4.044346267875868,-9.500414893617057,2.6242900244157785
6.246399590163934,3.6680171564353286,-9.157864361702156,2.5029594087896854
6.254397540983606,3.2916880449947885,-8.815313829787254,2.381628793163592
6.262395491803279,2.915358933554249,-8.472763297872351,2.260298177537499
6.27039344262295,2.539029822113751,-8.130212765957486,2.1389675619114197
6.2783913934426225,2.162700710673211,-7.7876622340425845,2.0176369462853265
6.286389344262295,1.7863715992326714,-7.445111702127682,1.8963063306592336
6.294387295081967,1.4100424877921318,-7.10256117021278,1.7749757150331404
6.302385245901639,4.666491803279007,-8.865360655738177,1.0432295081966803
6.310383196721311,5.5445282525287745,-8.773083405999301,0.638722575863272
6.3183811475409835,5.592856295779561,-8.810350453435646,0.6249388733868153
6.326379098360656,5.641184339030347,-8.847617500871992,0.6111551709103588
6.334377049180327,5.689512382281127,-8.884884548308333,0.5973714684339038
6.342375,5.737840425531914,-8.92215159574468,0.5835877659574471
6.350372950819672,5.7861684687827,-8.959418643181024,0.5698040634809906
6.3583709016393435,5.83449651203348,-8.996685690617367,0.5560203610045356
6.366368852459016,5.882824555284266,-9.033952738053712,0.5422366585280789
6.374366803278688,5.931152598535053,-9.071219785490058,0.5284529560516223
6.382364754098361,5.979480641785838,-9.108486832926403,0.5146692535751658
6.390362704918032,6.02780868503662,-9.145753880362745,0.5008855510987107
6.398360655737704,6.0761367282874055,-9.18302092779909,0.48710184862225414
6.406358606557377,4.076992827868843,-8.417944672131142,2.1486311475408746
6.414356557377049,4.089092100522429,-8.412320077463521,2.5402609890109886
6.422354508196721,4.064043573230052,-8.382525513421008,2.5456222527472523
6.430352459016393,4.038995045937671,-8.352730949378493,2.550983516483516
6.438350409836065,4.01394651864529,-8.322936385335977,2.55634478021978
6.446348360655738,3.9888979913529097,-8.29314182129346,2.5617060439560437
6.454346311475409,3.9638494640605315,-8.263347257250947,2.5670673076923074
6.4623442622950815,3.938800936768151,-8.233552693208432,2.572428571428571
6.470342213114754,3.9137524094757703,-8.203758129165916,2.577789835164835
6.478340163934426,3.8887038821833895,-8.1739635651234,2.583151098901099
6.486338114754098,3.8636553548910118,-8.144169001080888,2.5885123626373625
6.49433606557377,3.838606827598631,-8.114374437038371,2.593873626373626
6.502334016393442,4.757974043715816,-7.796303278688544,1.570415300546443
6.510331967213115,5.259890163934395,-7.448244262295073,1.5951295081966699
6.518329918032786,5.091009259259255,-7.853711192066373,1.1520693179518222
6.526327868852459,5.127148148148145,-7.942182351750651,1.2306664642784795
6.534325819672131,5.163287037037035,-8.030653511434927,1.3092636106051367
6.542323770491803,5.199425925925925,-8.119124671119206,1.387860756931794
6.550321721311475,5.235564814814811,-8.207595830803474,1.4664579032584426
6.558319672131147,5.271703703703701,-8.29606699048775,1.5450550495850999
6.5663176229508196,5.307842592592592,-8.384538150172029,1.6236521959117571
6.574315573770491,5.343981481481478,-8.473009309856295,1.7022493422384057
6.582313524590163,5.380120370370368,-8.561480469540573,1.780846488565063
6.590311475409836,5.416259259259258,-8.64995162922485,1.8594436348917203
6.598309426229508,5.2548237704917495,-8.74474692622951,2.037574795081995
6.60630737704918,5.050299616323701,-9.305238925706323,1.6396041158004844
6.614305327868852,4.881491803278702,-9.222877049180335,1.676360655737702
6.622303278688524,4.712683990233703,-9.140515172654348,1.7131171956749196
6.630301229508197,4.543876177188704,-9.05815329612836,1.749873735612137
6.638299180327868,4.375068364143724,-8.975791419602382,1.7866302755493506
6.6462971311475405,4.206260551098724,-8.893429543076394,1.823386815486568
6.654295081967213,4.037452738053726,-8.811067666550407,1.8601433554237856
6.662293032786885,3.8686449250087263,-8.728705790024419,1.896899895361003
6.670290983606557,3.6998371119637463,-8.646343913498441,1.9336564352982166
6.678288934426229,3.531029298918747,-8.563982036972455,1.9704129752354342
6.686286885245901,3.3622214858737483,-8.481620160446466,2.0071695151726514
6.694284836065574,3.1934136728287488,-8.39925828392048,2.043926055109869
6.702282786885245,4.774647540983286,-8.881633196721173,2.817493852458913
6.710280737704918,4.930892221834672,-9.819476696023717,3.9781600976630664
6.71827868852459,4.869631321939309,-9.825177363097314,3.803906871294035
6.726276639344262,4.8083704220439465,-9.83087803017091,3.629653644925004
6.734274590163934,4.747109522148591,-9.836578697244505,3.4554004185559917
6.742272540983606,4.6858486222532285,-9.842279364318102,3.2811471921869604
6.7502704918032785,4.624587722357866,-9.847980031391698,3.106893965817929
6.75826844262295,4.5633268224625105,-9.853680698465293,2.9326407394489173
6.766266393442622,4.502065922567148,-9.85938136553889,2.758387513079886
6.774264344262295,4.4408050226717855,-9.865082032612486,2.5841342867108548
6.782262295081967,4.379544122776423,-9.870782699686083,2.4098810603418235
6.790260245901639,4.318283222881067,-9.876483366759679,2.2356278339728117
6.798258196721311,4.244153688524623,-9.858762295082018,1.9206024590167103
6.806256147540983,3.8419234972677776,-9.029609972677589,1.9117971311475341
6.814254098360656,3.6627939834375605,-9.526115768125738,2.956170103092781
6.822252049180327,3.391523280378599,-9.631325925299972,3.0416739690721557
6.8302499999999995,3.120252577319607,-9.73653608247422,3.12717783505154
6.838247950819672,2.8489818742606157,-9.841746239648467,3.2126817010309243
6.846245901639344,2.577711171201624,-9.946956396822715,3.2981855670103086
6.854243852459016,2.3064404681426622,-10.05216655399695,3.3836894329896836
6.862241803278688,2.0351697650836704,-10.157376711171198,3.469193298969068
6.87023975409836,1.7638990620246786,-10.262586868345444,3.5546971649484522
6.878237704918033,1.4926283589656872,-10.367797025519693,3.6402010309278365
6.886235655737704,1.2213576559067256,-10.473007182693927,3.7257048969072115
6.894233606557377,0.9500869528477338,-10.578217339868175,3.811208762886596
6.902231557377049,0.678816249788742,-10.683427497042421,3.89671262886598
6.910229508196721,0.07635519125681267,-10.059568306010904,3.480213114754081
6.918227459016393,1.8341547131147617,-8.962610655737592,2.7299918032787027
6.926225409836065,0.5718838797814129,-7.596211538461537,2.98622977091215
6.9342233606557375,0.7451728142076466,-7.633740384615384,2.9479831599411526
6.94222131147541,0.9184617486338804,-7.671269230769231,2.909736548970155
6.950219262295081,1.0917506830600952,-7.708798076923074,2.8714899379991623
6.958217213114754,1.265039617486329,-7.746326923076921,2.833243327028165
6.966215163934426,1.4383285519125628,-7.783855769230768,2.794996716057168
6.9742131147540976,1.6116174863387773,-7.821384615384611,2.756750105086175
6.98221106557377,1.7849064207650112,-7.858913461538458,2.7185034941151778
6.990209016393442,1.958195355191245,-7.896442307692305,2.680256883144181
6.998206967213115,2.147814988290365,-8.004965456674359,2.6296653981264844
7.006204918032786,1.4834836065577188,-9.499581967213915,3.0551598360652434
7.0142028688524585,1.3200078731665301,-8.124022821397741,4.117731880931849
7.022200819672131,1.2539195427092371,-8.26394486626401,4.015863244176022
7.030198770491803,1.1878312122519443,-8.403866911130278,3.913994607420195
7.038196721311475,1.1217428817946589,-8.543788955996531,3.8121259706643786
7.046194672131147,1.055654551337366,-8.6837110008628,3.710257333908552
7.054192622950819,0.9895662208800732,-8.823633045729068,3.6083886971527246
7.062190573770492,0.9234778904227803,-8.963555090595337,3.5065200603968973
7.070188524590163,0.8573895599654948,-9.103477135461588,3.4046514236410816
7.078186475409836,0.791301229508202,-9.243399180327858,3.3027827868852544
7.086184426229508,0.7252128990509091,-9.383321225194127,3.200914150129427
7.09418237704918,0.6591245685936163,-9.523243270060394,3.0990455133736
7.102180327868852,0.5930362381363308,-9.663165314926648,2.997176876617784
7.110178278688524,1.4033627049189392,-9.312631147540795,2.3520676229510546
7.1181762295081965,0.1865949218013948,-9.406682165065009,2.075280148859996
7.126174180327869,0.07692187205577344,-9.251411602600337,2.0900809543998493
7.13417213114754,-0.03275117768983571,-9.09614104013568,2.104881759939701
7.142170081967213,-0.14242422743545707,-8.940870477671009,2.1196825654795544
7.150168032786885,-0.2520972771810784,-8.785599915206335,2.1344833710194075
7.158165983606557,-0.3617703269266998,-8.630329352741663,2.149284176559261
7.166163934426229,-0.471443376672309,-8.475058790277007,2.1640849820991126
7.174161885245901,-0.5811164264179303,-8.319788227812335,2.1788857876389662
7.182159836065574,-0.6907894761635516,-8.164517665347663,2.1936865931788194
7.190157786885245,-0.8004625259091609,-8.009247102883007,2.2084873987186713
7.1981557377049175,-0.8727254098362824,-7.732643442623716,2.1561106557381158
7.20615368852459,3.22273401639344,-2.414213783433975,7.318507226056937
7.214151639344262,3.448276229508199,-4.015571915444364,8.081680112165667
7.222149590163934,3.673818442622933,-5.616930047454575,8.844852998274314
7.230147540983606,3.8993606557376923,-7.218288179464965,9.608025884383046
7.238145491803278,4.124902868852451,-8.819646311475354,10.371198770491777
7.246143442622951,4.3504450819672105,-10.421004443485744,11.134371656600509
7.254141393442622,4.575987295081944,-12.022362575495954,11.897544542709156
7.262139344262295,4.801529508196704,-13.623720707506344,12.660717428817886
7.270137295081967,5.027071721311462,-15.225078839516733,13.423890314926618
7.278135245901639,5.252613934426222,-16.826436971527123,14.18706320103535
7.286133196721311,5.478156147540956,-18.427795103537335,14.950236087143995
7.294131147540983,5.703698360655714,-20.029153235547724,15.713408973252726
7.3021290983606555,1.0055102459016296,-21.940922131146838,2.0386536885248137
7.310127049180328,2.0922677595629757,-10.431996584699121,5.346232923497576
7.318124999999999,0.7715132352941478,-12.875272058823583,2.4722691176471034
7.326122950819672,0.5175547733847865,-12.414684185149511,2.096553616200612
7.334120901639344,0.26359631147542517,-11.954096311475437,1.7208381147541207
7.342118852459016,0.009637849566063839,-11.493508437801363,1.3451226133076295
7.350116803278688,-0.2443206123432693,-11.032920564127341,0.96940711186118
7.35811475409836,-0.4982790742526306,-10.572332690453269,0.5936916104146888
7.366112704918033,-0.752237536161992,-10.111744816779195,0.21797610896819775
7.374110655737704,-1.006195998071325,-9.651156943105175,-0.15773939247825197
7.382108606557376,-1.2601544599806862,-9.1905690694311,-0.533454893924743
7.390106557377049,-1.5141129218900475,-8.729981195757027,-0.9091703953712345
7.398104508196721,-1.8252264344262072,-7.182654713115034,-1.270001024590155
7.406102459016393,9.724393707033325,-9.987484399788453,8.482097214877538
7.414100409836065,9.661958090957173,-10.136091485986237,8.11281548563374
7.422098360655737,9.59952247488102,-10.28469857218402,7.743533756389944
7.43009631147541,9.537086858804868,-10.433305658381803,7.374252027146147
7.438094262295081,9.474651242728724,-10.581912744579569,7.004970297902391
7.4460922131147536,9.412215626652571,-10.730519830777352,6.635688568658594
7.454090163934426,9.349780010576419,-10.879126916975135,6.266406839414797
7.462088114754098,9.287344394500266,-11.027734003172919,5.897125110171
7.47008606557377,9.224908778424123,-11.176341089370686,5.527843380927244
7.478084016393442,9.16247316234797,-11.324948175568469,5.1585616516834465
7.4860819672131145,9.100037546271817,-11.473555261766252,4.78927992243965
7.494079918032787,9.037601930195665,-11.622162347964036,4.419998193195853
7.502077868852458,6.299989344262809,-7.155916393443038,-0.9981106557377891
7.510075819672131,5.194838387978166,-9.816050569216744,3.4844051912568528
7.518073770491803,4.805071584699466,-10.062831785063745,3.112233879781432
7.526071721311475,4.415304781420765,-10.309613000910748,2.7400625683060107
7.534069672131147,4.025537978142108,-10.556394216757722,2.3678912568306307
7.542067622950819,3.6357711748634074,-10.803175432604725,1.99571994535521
7.550065573770492,3.246004371584707,-11.049956648451726,1.6235486338797886
7.558063524590164,2.856237568306007,-11.296737864298727,1.2513773224043678
7.566061475409835,2.4664707650273496,-11.543519080145703,0.8792060109289879
7.574059426229508,2.0767039617486494,-11.790300295992704,0.5070346994535666
7.58205737704918,1.686937158469949,-12.037081511839705,0.1348633879781458
7.590055327868852,1.2971703551912919,-12.283862727686682,-0.23730792349723417
7.598053278688524,0.8260860655745444,-12.50896721311494,-0.7065245901630165
7.606051229508196,5.144672676142308,-7.388677406696893,-1.2370257019532718
7.614049180327869,5.143396407394489,-7.414713289152423,-1.0616663760027965
7.62204713114754,5.142120138646669,-7.4407491716079495,-0.8863070500523406
7.6300450819672125,5.140843869898848,-7.466785054063478,-0.7109477241018652
7.638043032786885,5.139567601151029,-7.492820936519007,-0.5355883981513899
7.646040983606557,5.138291332403209,-7.518856818974537,-0.3602290722009145
7.654038934426229,5.137015063655388,-7.544892701430062,-0.1848697462504587
7.662036885245901,5.135738794907569,-7.570928583885592,-0.009510420299983391
7.6700348360655735,5.134462526159749,-7.596964466341121,0.16584890565049193
7.678032786885246,5.1331862574119285,-7.62300034879665,0.34120823160096725
7.686030737704917,5.131909988664109,-7.649036231252176,0.5165675575514233
7.69402868852459,5.130633719916289,-7.675072113707706,0.6919268835018986
7.702026639344262,1.1459334016394047,-5.67651946721317,5.716906762295142
7.710024590163934,0.23344774590164102,-7.443938012295087,2.915342981557372
7.718022540983606,0.2977646004098324,-7.627057761270481,2.7219758580942734
7.726020491803278,0.3620814549180309,-7.810177510245897,2.5286087346311534
7.734018442622951,0.4263983094262294,-7.993297259221311,2.335241611168033
7.742016393442623,0.49071516393442793,-8.176417008196726,2.141874487704913
7.750014344262294,0.5550320184426193,-8.35953675717212,1.9485073642418143
7.758012295081967,0.6193488729508179,-8.542656506147535,1.7551402407786942
7.766010245901639,0.6836657274590163,-8.72577625512295,1.5617731173155742
7.7740081967213115,0.7479825819672148,-8.908896004098365,1.368405993852454
7.782006147540983,0.8122994364754061,-9.09201575307376,1.1750388703893553
7.790004098360655,0.8766162909836046,-9.275135502049174,0.9816717469262355
7.798002049180328,0.9409331454918033,-9.458255251024589,0.788304623463115
7.805999999999999,4.716499999999302,-12.883499999999376,-0.46649999999833525
7.8139979508196715,5.351813209331672,-13.598919293820932,-2.473576562781463
7.821995901639344,5.1801648802017795,-13.613684741488019,-2.6250981805080045
7.829993852459016,5.008516551071886,-13.628450189155107,-2.7766197982345457
7.837991803278688,4.836868221942012,-13.643215636822193,-2.92814141596107
7.84598975409836,4.66521989281212,-13.65798108448928,-3.0796630336876114
7.853987704918032,4.493571563682227,-13.672746532156367,-3.2311846514141527
7.861985655737705,4.321923234552335,-13.687511979823455,-3.3827062691406944
7.869983606557376,4.150274905422461,-13.702277427490541,-3.5342278868672183
7.877981557377049,3.978626576292568,-13.717042875157627,-3.68574950459376
7.885979508196721,3.806978247162675,-13.731808322824715,-3.837271122320301
7.893977459016393,3.6353299180327827,-13.746573770491803,-3.9887927400468426
7.901975409836065,0.8571147540976953,-9.579172131147864,-5.562745901637926
7.909973360655737,0.11754747267768229,-8.506358948087563,-1.4972325819673895
7.91797131147541,0.15965387481370844,-8.344472429210143,-1.3072939176602185
7.925969262295082,0.20546032041728646,-8.187421758569304,-1.1239772494411373
7.933967213114753,0.2512667660208594,-8.030371087928481,-0.9406605812220765
7.941965163934426,0.29707321162443745,-7.873320417287642,-0.7573439130029954
7.949963114754098,0.34287965722801544,-7.7162697466468035,-0.5740272447839143
7.9579610655737705,0.3886861028315935,-7.559219076005965,-0.3907105765648331
7.965959016393442,0.43449254843516644,-7.402168405365144,-0.20739390834577232
7.973956967213114,0.48029899403874443,-7.245117734724304,-0.024077240126691324
7.981954918032787,0.5261054396423225,-7.088067064083465,0.1592394280923899
7.989952868852458,0.5719118852458954,-6.931016393442643,0.3425560963114507
7.9979508196721305,0.6177183308494735,-6.773965722801805,0.5258727645305317
8.005948770491802,1.351176229508293,-9.031469262294095,-0.09817725409804748
8.013946721311475,0.9980268256334033,-9.628901266766025,-0.31694672131147494
8.021944672131147,0.8974538934425969,-9.60609618340163,-0.3364335297131088
8.02994262295082,1.0342188524590092,-9.642786782786883,-0.3677255122950804
8.037940573770491,1.1709838114753914,-9.679477382172125,-0.39901749487704496
8.045938524590163,1.3077487704917734,-9.71616798155737,-0.4303094774590096
8.053936475409836,1.444513729508186,-9.75285858094262,-0.4616014600409811
8.061934426229508,1.5812786885245678,-9.789549180327862,-0.49289344262294577
8.069932377049179,1.71804364754095,-9.826239779713106,-0.5241854252049104
8.077930327868852,1.8548086065573623,-9.862930379098357,-0.5554774077868819
8.085928278688524,1.9915735655737445,-9.899620978483599,-0.5867693903688466
8.093926229508197,2.128338524590157,-9.936311577868851,-0.6180613729508181
8.101924180327869,3.157214871194344,-11.012185889929754,-2.6785951405152217
8.10992213114754,2.0608354135618514,-9.345805234724287,-1.2453562779433678
8.117920081967213,2.0333879005216087,-9.396155970566321,-1.2484463953055143
8.125918032786885,2.005940387481372,-9.446506706408343,-1.25153651266766
8.133915983606556,1.9784928744411359,-9.496857442250366,-1.254626630029806
8.14191393442623,1.9510453614008934,-9.5472081780924,-1.2577167473919524
8.149911885245901,1.9235978483606568,-9.597558913934424,-1.2608068647540982
8.157909836065574,1.8961503353204143,-9.647909649776459,-1.2638969821162447
8.165907786885246,1.8687028222801778,-9.698260385618482,-1.2669870994783905
8.173905737704917,1.8412553092399415,-9.748611121460504,-1.2700772168405363
8.18190368852459,1.8138077961996988,-9.798961857302539,-1.2731673342026828
8.189901639344262,1.7863602831594623,-9.849312593144562,-1.2762574515648286
8.197899590163933,1.6630450819672766,-10.02983811475401,-1.357264344262245
8.205897540983607,1.0907308743169668,-9.472856557376982,-1.4251666666668048
8.213895491803278,0.9070617315573849,-9.902859887295072,-0.5833418172503754
8.22189344262295,0.8640727459016504,-9.95184733606556,-0.5676185730253394
8.229891393442623,0.8210837602459062,-10.00083478483606,-0.5518953288002997
8.237889344262294,0.7780947745901716,-10.049822233606548,-0.5361720845752636
8.245887295081967,0.7351057889344276,-10.098809682377047,-0.520448840350224
8.253885245901639,0.692116803278693,-10.147797131147536,-0.5047255961251879
8.26188319672131,0.6491278176229585,-10.196784579918024,-0.4890023519001518
8.269881147540984,0.6061388319672143,-10.245772028688522,-0.47327910767511217
8.277879098360655,0.5631498463114797,-10.29475947745901,-0.45755586345007604
8.285877049180327,0.5201608606557452,-10.3437469262295,-0.44183261922503997
8.293875,0.4771718750000011,-10.392734374999998,-0.42610937500000035
8.301872950819671,0.6192308743169289,-10.003275273224089,-0.3293032786885342
8.309870901639345,0.8789043792595369,-9.483918286056372,-1.032293562350341
8.317868852459016,0.9147603610241314,-9.547452569533988,-1.034989500828882
8.325866803278688,0.9506163427887258,-9.610986853011601,-1.037685439307423
8.33386475409836,0.9864723245533281,-9.674521136489231,-1.0403813777859645
8.341862704918032,1.0223283063179225,-9.738055419966845,-1.0430773162645055
8.349860655737704,1.058184288082517,-9.80158970344446,-1.0457732547430465
8.357858606557377,1.0940402698471194,-9.865123986922088,-1.048469193221588
8.365856557377048,1.1298962516117137,-9.928658270399703,-1.051165131700129
8.373854508196722,1.1657522333763162,-9.99219255387733,-1.0538610701786704
8.381852459016393,1.2016082151409107,-10.055726837354946,-1.0565570086572114
8.389850409836065,1.237464196905505,-10.119261120832562,-1.0592529471357524
8.397848360655738,1.2733201786701074,-10.18279540431019,-1.0619488856142938
8.40584631147541,1.2076325136611974,-10.032911202185783,-0.8332643442622875
8.41384426229508,1.2961431693988918,-10.210998907103795,-0.9756278688524342
8.421842213114754,0.5024317772890851,-10.46056719812075,-0.8419399990004003
8.429840163934426,0.5361792283086741,-10.35083921431428,-0.8666166033586548
8.437838114754097,0.5699266793282631,-10.241111230507814,-0.8912932077169092
8.44583606557377,0.6036741303478598,-10.131383246701322,-0.9159698120751691
8.453834016393442,0.6374215813674489,-10.021655262894855,-0.9406464164334236
8.461831967213115,0.6711690323870454,-9.911927279088363,-0.9653230207916835
8.469829918032787,0.7049164834066345,-9.802199295281895,-0.989999625149938
8.477827868852458,0.7386639344262236,-9.692471311475428,-1.0146762295081924
8.485825819672131,0.7724113854458201,-9.582743327668936,-1.0393528338664524
8.493823770491803,0.8061588364654093,-9.47301534386247,-1.0640294382247069
8.501821721311474,2.3912336065563284,-8.338211065574484,-0.3397684426234474
8.509819672131147,3.2896546448087274,-9.593483606557378,-0.2782344262295192
8.517817622950819,3.1167211748633896,-9.586818647540984,-0.3979370901639334
8.525815573770492,2.9437877049180132,-9.58015368852459,-0.5176397540983741
8.533813524590164,2.7708542349726755,-9.573488729508197,-0.6373424180327885
8.541811475409835,2.5979207650273377,-9.566823770491805,-0.7570450819672027
8.549809426229508,2.4249872950819613,-9.560158811475409,-0.8767477459016434
8.55780737704918,2.2520538251366236,-9.553493852459017,-0.9964504098360576
8.565805327868851,2.079120355191286,-9.546828893442624,-1.1161530737704717
8.573803278688525,1.9061868852459094,-9.54016393442623,-1.2358557377049126
8.581801229508196,1.7332534153005716,-9.533498975409836,-1.355558401639327
8.58979918032787,1.5603199453551952,-9.526834016393442,-1.4752610655737675
8.59779713114754,1.3873864754098575,-9.52016905737705,-1.5949637295081818
8.605795081967212,-0.8122131147540647,-9.98369672131124,-1.573036885246125
8.613793032786885,-0.7239868169398934,-9.626491826047358,0.3508001366120225
8.621790983606557,-0.654937841530063,-9.640977003642986,0.33533743169399094
8.629788934426228,-0.5858888661202325,-9.655462181238612,0.3198747267759594
8.637786885245902,-0.5168398907103866,-9.669947358834243,0.30441202185792443
8.645784836065573,-0.44779091530055615,-9.68443253642987,0.2889493169398929
8.653782786885245,-0.37874193989072563,-9.698917714025498,0.2734866120218613
8.661780737704918,-0.3096929644808798,-9.713402891621127,0.2580239071038264
8.66977868852459,-0.24064398907104934,-9.727888069216755,0.2425612021857948
8.677776639344263,-0.17159501366120344,-9.742373246812386,0.22709849726775985
8.685774590163934,-0.10254603825137298,-9.756858424408014,0.21163579234972832
8.693772540983606,-0.033497062841542524,-9.77134360200364,0.19617308743169679
8.701770491803279,0.46872131147542073,-9.739737704918028,0.7735737704918649
8.70976844262295,0.620990778688443,-9.470135245901739,0.9116854508195946
8.717766393442622,0.6436489381520097,-9.489537350968693,0.8404522168405585
8.725764344262295,0.6525557470193731,-9.527164074143066,0.7533836158718421
8.733762295081966,0.6614625558867346,-9.56479079731743,0.6663150149031449
8.74176024590164,0.6703693647540981,-9.602417520491802,0.5792464139344286
8.749758196721311,0.6792761736214596,-9.640044243666166,0.4921778129657315
8.757756147540983,0.6881829824888211,-9.67767096684053,0.4051092119970344
8.765754098360656,0.6970897913561845,-9.715297690014902,0.31804061102831793
8.773752049180327,0.705996600223546,-9.752924413189266,0.23097201005962087
8.781749999999999,0.7149034090909075,-9.79055113636363,0.1439034090909238
8.789747950819672,0.723810217958271,-9.828177859538004,0.056834808122207425
8.797745901639344,0.7327170268256326,-9.865804582712366,-0.030233792846489638
8.805743852459015,0.8015282786885106,-9.768002868852465,-0.5767887295081926
8.813741803278688,0.9102568306010956,-9.825352459016399,-0.7730273224043829
8.82173975409836,1.0190563524589675,-9.779198770492012,-0.9618872950820648
8.829737704918033,1.1115804164820553,-9.528988037217545,-0.8669787328311906
8.837735655737704,1.1383843597696028,-9.58951307044749,-0.920370458573322
8.845733606557376,1.1651883030571506,-9.650038103677437,-0.9737621843154534
8.85373155737705,1.1919922463447044,-9.710563136907396,-1.0271539100575966
8.86172950819672,1.218796189632252,-9.771088170137343,-1.0805456357997278
8.869727459016392,1.2456001329197997,-9.83161320336729,-1.133937361541859
8.877725409836065,1.2724040762073534,-9.89213823659725,-1.1873290872840023
8.885723360655737,1.299208019494901,-9.952663269827196,-1.2407208130261336
8.89372131147541,1.3260119627824547,-10.013188303057156,-1.2941125387682768
8.901719262295082,0.9348299180328622,-9.668967213114849,-0.5769241803279037
8.909717213114753,0.9496065573770502,-10.000426229508198,-0.6531598360655797
8.917715163934426,0.9406626123744048,-9.985634320465362,-0.6030221443680581
8.925713114754098,0.9317186673717615,-9.970842411422527,-0.5528844526705476
8.93371106557377,0.9227747223691181,-9.956050502379695,-0.5027467609730372
8.941709016393443,0.9138307773664728,-9.941258593336858,-0.4526090692755157
8.949706967213114,0.9048868323638294,-9.926466684294025,-0.4024713775780052
8.957704918032787,0.895942887361184,-9.91167477525119,-0.35233368588048364
8.965702868852459,0.8869989423585407,-9.896882866208356,-0.3021959941829732
8.97370081967213,0.8780549973558973,-9.882090957165522,-0.2520583024854628
8.981698770491803,0.8691110523532519,-9.867299048122685,-0.2019206107879412
8.989696721311475,0.8601671073506085,-9.852507139079853,-0.15178291909043085
8.997694672131146,0.7339057377050313,-9.691729508196863,-0.051120901639396886
9.00569262295082,0.6689836065575084,-9.626081967213215,-0.4495327868852539
9.013690573770491,0.5990434381192553,-9.568930305350385,-0.4494932669789221
9.021688524590163,0.6209279409115434,-9.582377409475766,-0.4552060889929732
9.029686475409836,0.6428124437038363,-9.595824513601151,-0.46091891100702553
9.037684426229507,0.6646969464961243,-9.609271617726533,-0.46663173302107663
9.04568237704918,0.6865814492884172,-9.622718721851918,-0.472344555035129
9.053680327868852,0.7084659520807053,-9.6361658259773,-0.4780573770491801
9.061678278688523,0.7303504548729933,-9.649612930102682,-0.4837701990632312
9.069676229508197,0.7522349576652863,-9.663060034228067,-0.4894830210772836
9.077674180327868,0.7741194604575743,-9.676507138353449,-0.4951958430913347
9.08567213114754,0.7960039632498623,-9.68995424247883,-0.5009086651053858
9.093670081967213,0.8178884660421553,-9.703401346604215,-0.5066214871194381
9.101668032786884,0.6890368852458657,-9.777815573770347,-0.6228934426224046
9.109665983606558,0.6725839509940722,-9.65488738228113,-0.4823122602023017
9.11766393442623,0.6861123997209632,-9.644847401464947,-0.4799298918730379
9.1256618852459,0.699640848447854,-9.634807420648762,-0.4775475235437741
9.133659836065574,0.713169297174748,-9.624767439832578,-0.4751651552145098
9.141657786885245,0.7266977459016389,-9.614727459016395,-0.472782786885246
9.149655737704917,0.7402261946285298,-9.604687478200212,-0.4704004185559822
9.15765368852459,0.7537546433554237,-9.594647497384026,-0.46801805022671783
9.165651639344262,0.7672830920823147,-9.584607516567843,-0.465635681897454
9.173649590163935,0.7808115408092087,-9.574567535751656,-0.46325331356818966
9.181647540983606,0.7943399895360996,-9.564527554935474,-0.46087094523892586
9.189645491803278,0.8078684382629905,-9.55448757411929,-0.45848857690966205
9.197643442622951,0.8213968869898844,-9.544447593303104,-0.45610620858039774
9.205641393442622,1.1044325346784394,-9.90179350567465,-0.6624153530895329
9.213639344262294,1.1285081967213706,-9.757319672131217,-0.5932540983607026
9.221637295081967,0.8145520589383293,-9.519162739071035,-0.5959070306401242
9.229635245901639,0.8155041959406711,-9.550488046448082,-0.6060948965651819
9.23763319672131,0.816456332943013,-9.58181335382513,-0.6162827624902397
9.245631147540983,0.8174084699453551,-9.613138661202182,-0.6264706284152997
9.253629098360655,0.8183606069476969,-9.64446396857923,-0.6366584943403575
9.261627049180328,0.819312743950039,-9.675789275956284,-0.6468463602654174
9.269625,0.8202648809523808,-9.70711458333333,-0.6570342261904752
9.277622950819671,0.8212170179547227,-9.738439890710378,-0.667222092115533
9.285620901639344,0.8221691549570648,-9.76976519808743,-0.677409958040593
9.293618852459016,0.8231212919594065,-9.801090505464478,-0.6875978239656507
9.301616803278687,0.8384948770491414,-9.853130122950757,-0.6821967213115152
9.30961475409836,0.7069065573770491,-9.575014207650272,-0.38682158469945355
9.317612704918032,0.7213028688524578,-9.589943715846992,-0.4057500683060094
9.325610655737705,0.7356991803278696,-9.604873224043716,-0.4246785519125694
9.333608606557377,0.7500954918032784,-9.619802732240437,-0.4436070355191253
9.341606557377048,0.764491803278687,-9.634732240437156,-0.46253551912568114
9.349604508196721,0.7788881147540989,-9.64966174863388,-0.4814640027322412
9.357602459016393,0.7932844262295076,-9.664591256830601,-0.5003924863387971
9.365600409836064,0.8076807377049162,-9.67952076502732,-0.5193209699453529
9.373598360655738,0.8220770491803282,-9.694450273224044,-0.5382494535519129
9.381596311475409,0.8364733606557369,-9.709379781420765,-0.5571779371584689
9.389594262295082,0.8508696721311487,-9.724309289617487,-0.5761064207650288
9.397592213114754,0.8652659836065574,-9.739238797814208,-0.5950349043715847
9.405590163934425,0.9407278688524596,-9.80194547023296,-0.767087489214842
9.413588114754099,0.9343295081967211,-9.796641566005178,-0.7524386108714406
9.42158606557377,0.927931147540984,-9.791337661777396,-0.7377897325280424
9.429584016393441,0.9215327868852469,-9.786033757549614,-0.7231408541846442
9.437581967213115,0.9151344262295084,-9.78072985332183,-0.7084919758412428
9.445579918032786,0.9087360655737712,-9.775425949094048,-0.6938430974978446
9.453577868852458,0.902337704918034,-9.770122044866266,-0.6791942191544464
9.461575819672131,0.8959393442622955,-9.764818140638482,-0.664545340811045
9.469573770491802,0.8895409836065583,-9.7595142364107,-0.6498964624676468
9.477571721311476,0.8831426229508198,-9.754210332182916,-0.6352475841242453
9.485569672131147,0.8767442622950827,-9.748906427955134,-0.6205987057808472
9.493567622950819,0.8703459016393456,-9.743602523727352,-0.6059498274374491
9.501565573770492,0.8195409836065872,-9.709672131147572,-0.4621557377049573
9.509563524590163,0.9190238352027608,-9.973982463330458,-0.6001650560828302
9.517561475409835,0.9253380069025013,-9.95520832614323,-0.5944402070750654
9.525559426229508,0.9316521786022434,-9.936434188955996,-0.5887153580672994
9.53355737704918,0.9379663503019839,-9.917660051768769,-0.5829905090595345
9.541555327868853,0.944280522001726,-9.898885914581536,-0.5772656600517685
9.549553278688524,0.9505946937014665,-9.880111777394307,-0.5715408110440037
9.557551229508196,0.9569088654012071,-9.861337640207077,-0.5658159620362389
9.565549180327869,0.9632230371009491,-9.842563503019845,-0.5600911130284728
9.57354713114754,0.9695372088006897,-9.823789365832615,-0.554366264020708
9.581545081967212,0.9758513805004303,-9.805015228645386,-0.5486414150129432
9.589543032786885,0.9821655522001723,-9.786241091458153,-0.5429165660051771
9.597540983606557,0.9884797238999129,-9.767466954270926,-0.5371917169974123
9.60553893442623,0.964653688524588,-9.722897540983604,-0.521452868852458
9.613536885245901,0.9172008196721305,-9.659321721311475,-0.5183545081967199
9.621534836065573,0.9656897696617562,-9.629272826312512,-0.9331496161029271
9.629532786885246,0.9584004980286364,-9.639599294459432,-0.9210008300477274
9.637530737704918,0.9511112263955182,-9.64992576260635,-0.9088520439925303
9.645528688524589,0.9438219547623998,-9.660252230753267,-0.8967032579373332
9.653526639344262,0.93653268312928,-9.670578698900187,-0.8845544718821334
9.661524590163934,0.9292434114961617,-9.680905167047104,-0.8724056858269362
9.669522540983605,0.9219541398630435,-9.691231635194022,-0.8602568997717392
9.677520491803278,0.9146648682299237,-9.701558103340941,-0.8481081137165394
9.68551844262295,0.9073755965968054,-9.71188457148786,-0.8359593276613423
9.693516393442623,0.9000863249636856,-9.722211039634779,-0.8238105416061425
9.701514344262295,0.9878237704918579,-9.775655737704934,-0.6145706967213198
9.709512295081966,0.7463692490745639,-9.757907985193023,-0.5269300634584866
9.71751024590164,0.7452512559492332,-9.740020095187733,-0.5338960206240084
9.72550819672131,0.7441332628239028,-9.722132205182445,-0.5408619777895287
9.733506147540982,0.7430152696985723,-9.704244315177158,-0.5478279349550491
9.741504098360656,0.7418972765732417,-9.686356425171867,-0.554793892120571
9.749502049180327,0.7407792834479113,-9.668468535166582,-0.5617598492860912
9.7575,0.7396612903225807,-9.650580645161291,-0.5687258064516131
9.765497950819672,0.7385432971972502,-9.632692755156004,-0.5756917636171334
9.773495901639343,0.7374253040719198,-9.614804865150717,-0.5826577207826538
9.781493852459016,0.7363073109465891,-9.596916975145426,-0.5896236779481756
9.789491803278688,0.7351893178212586,-9.579029085140139,-0.5965896351136959
9.79748975409836,0.7340713246959283,-9.561141195134853,-0.6035555922792162
9.805487704918033,0.893047593865679,-9.568831041776836,-0.7668634320465355
9.813485655737704,0.9040555261766247,-9.594802882072974,-0.7822573373876236
9.821483606557377,0.9150634584875729,-9.620774722369116,-0.7976512427287151
9.829481557377049,0.9260713907985185,-9.646746562665255,-0.8130451480698032
9.83747950819672,0.9370793231094642,-9.672718402961392,-0.8284390534108913
9.845477459016394,0.9480872554204123,-9.698690243257536,-0.8438329587519828
9.853475409836065,0.9590951877313579,-9.724662083553673,-0.8592268640930709
9.861473360655737,0.9701031200423037,-9.75063392384981,-0.874620769434159
9.86947131147541,0.9811110523532518,-9.776605764145954,-0.8900146747752506
9.877469262295081,0.9921189846641975,-9.80257760444209,-0.9054085801163387
9.885467213114753,1.0031269169751431,-9.82854944473823,-0.9208024854574268
9.893465163934426,1.0141348492860913,-9.854521285034371,-0.9361963907985184
9.901463114754097,0.8798586065573843,-9.869297131147512,-0.6581270491803355
9.90946106557377,0.8650225194132876,-9.771689969801555,-0.46254408973252803
9.917459016393442,0.8539095772217439,-9.75645176876618,-0.4632176013805004
9.925456967213114,0.8427966350302003,-9.741213567730805,-0.46389111302847275
9.933454918032787,0.8316836928386542,-9.725975366695428,-0.4645646246764452
9.941452868852458,0.8205707506471105,-9.710737165660053,-0.4652381363244176
9.94945081967213,0.8094578084555668,-9.69549896462468,-0.4659116479723899
9.957448770491803,0.7983448662640207,-9.6802607635893,-0.4665851596203624
9.965446721311475,0.787231924072477,-9.665022562553927,-0.4672586712683347
9.973444672131148,0.7761189818809309,-9.649784361518549,-0.4679321829163072
9.98144262295082,0.7650060396893873,-9.634546160483175,-0.46860569456427953
9.98944057377049,0.7538930974978436,-9.6193079594478,-0.4692792062122519
9.997438524590164,0.7427801553062975,-9.604069758412423,-0.46995271786022436
10.005436475409835,0.9094979508196337,-9.677491803278684,-0.5991875000000185
10.013434426229507,1.010412599005343,-9.706082151409097,-0.8840209983422384
10.02143237704918,1.0039423466568433,-9.715248342236139,-0.8732372444280722
10.029430327868852,0.997472094308345,-9.724414533063179,-0.8624534905139084
10.037428278688523,0.9910018419598468,-9.733580723890217,-0.8516697365997447
10.045426229508196,0.9845315896113471,-9.742746914717259,-0.8408859826855786
10.053424180327868,0.9780613372628488,-9.751913105544299,-0.8301022287714148
10.061422131147541,0.9715910849143492,-9.761079296371339,-0.8193184748572487
10.069420081967213,0.9651208325658509,-9.770245487198379,-0.808534720943085
10.077418032786884,0.9586505802173527,-9.779411678025419,-0.7977509670289212
10.085415983606557,0.952180327868853,-9.788577868852459,-0.7869672131147551
10.093413934426229,0.9457100755203548,-9.797744059679498,-0.7761834592005914
10.1014118852459,0.8938164845173112,-9.763424408014577,-0.6596851092896334
10.109409836065574,0.8100765027322735,-9.753158469945348,-0.5616939890710586
10.117407786885245,0.8668808976409432,-9.739647640943623,-0.6024892792882818
10.125405737704918,0.8698069772091164,-9.738477209116354,-0.6240447321071575
10.13340368852459,0.872733056777289,-9.737306777289085,-0.6456001849260284
10.141401639344261,0.8756591363454614,-9.736136345461816,-0.6671556377448994
10.149399590163934,0.8785852159136346,-9.734965913634547,-0.6887110905637751
10.157397540983606,0.8815112954818072,-9.733795481807277,-0.710266543382646
10.165395491803277,0.8844373750499797,-9.732625049980008,-0.731821996201517
10.17339344262295,0.8873634546181529,-9.731454618152739,-0.7533774490203927
10.181391393442622,0.8902895341863254,-9.73028418632547,-0.7749329018392637
10.189389344262295,0.8932156137544985,-9.7291137544982,-0.7964883546581394
10.197387295081967,0.8965809426229513,-9.704568647540963,-0.7805942622950517
10.205385245901638,0.9903565573770289,-9.687381147541064,-0.6753565573770289
10.213383196721312,1.0868360655737699,-9.6495881147541,-0.8710040983606552
10.221381147540983,1.0737641459545217,-9.66343402961396,-0.8618881544156534
10.229379098360655,1.0606922263352738,-9.677279944473822,-0.8527722104706514
10.237377049180328,1.0476203067160228,-9.691125859333686,-0.8436562665256475
10.245375,1.0345483870967749,-9.704971774193547,-0.8345403225806456
10.25337295081967,1.0214764674775267,-9.71881768905341,-0.8254243786356437
10.261370901639344,1.008404547858276,-9.732663603913274,-0.8163084346906397
10.269368852459015,0.9953326282390279,-9.746509518773136,-0.8071924907456379
10.277366803278689,0.982260708619777,-9.760355433633,-0.798076546800634
10.28536475409836,0.969188789000529,-9.774201348492861,-0.7889606028556321
10.293362704918032,0.9561168693812809,-9.788047263352723,-0.7798446589106302
10.301360655737705,0.94304494976203,-9.801893178212588,-0.7707287149656262
10.309358606557376,0.9358656079235048,-9.833813866120225,-0.6009967554644978
10.317356557377048,0.8845454234972815,-9.79249112021859,-0.48569296448090515
10.325354508196721,0.8702194698070145,-9.777967239053748,-0.46578053019298554
10.333352459016393,0.8654611952687289,-9.770374247769249,-0.47053880473127113
10.341350409836066,0.8607029207304422,-9.762781256484748,-0.47529707926955783
10.349348360655737,0.8559446461921565,-9.75518826520025,-0.4800553538078435
10.357346311475409,0.8511863716538709,-9.747595273915751,-0.4848136283461291
10.365344262295082,0.8464280971155842,-9.740002282631252,-0.48957190288441577
10.373342213114753,0.8416698225772986,-9.732409291346753,-0.4943301774227014
10.381340163934425,0.8369115480390129,-9.724816300062255,-0.49908845196098706
10.389338114754098,0.8321532735007262,-9.717223308777754,-0.5038467264992738
10.39733606557377,0.8273949989624406,-9.709630317493255,-0.5086050010375593
10.405334016393443,0.8227104800936776,-9.668949355971899,-0.651277224824358
10.413331967213114,0.8653656595501334,-9.580555470834922,-0.5478028021349601
10.421329918032786,0.8803385674799835,-9.596179374761723,-0.567704679756003
10.429327868852459,0.8953114754098369,-9.611803278688527,-0.5876065573770503
10.43732581967213,0.9102843833396869,-9.627427182615326,-0.6075084349980931
10.445323770491802,0.9252572912695369,-9.643051086542126,-0.627410312619136
10.453321721311475,0.9402301991993903,-9.65867499046893,-0.6473121902401834
10.461319672131147,0.9552031071292404,-9.67429889439573,-0.6672140678612263
10.469317622950818,0.9701760150590903,-9.68992279832253,-0.6871159454822692
10.477315573770491,0.9851489229889437,-9.705546702249332,-0.7070178231033165
10.485313524590163,1.0001218309187938,-9.721170606176132,-0.7269197007243594
10.493311475409836,1.015094738848647,-9.736794510102936,-0.7468215783454067
10.501309426229508,0.9647704918033075,-9.761641393442618,-0.5801045081966726
10.50930737704918,0.8210510018214928,-9.66448738615665,-0.6426410746812388
10.517305327868852,0.8281602914389802,-9.659244285063753,-0.6413969489981785
10.525303278688524,0.835269581056466,-9.654001183970857,-0.6401528233151185
10.533301229508195,0.8423788706739517,-9.648758082877961,-0.6389086976320585
10.541299180327869,0.849488160291439,-9.643514981785064,-0.6376645719489982
10.54929713114754,0.8565974499089248,-9.638271880692168,-0.6364204462659382
10.557295081967213,0.8637067395264122,-9.63302877959927,-0.6351763205828779
10.565293032786885,0.870816029143898,-9.627785678506376,-0.6339321948998179
10.573290983606556,0.8779253187613838,-9.62254257741348,-0.6326880692167578
10.58128893442623,0.8850346083788712,-9.617299476320582,-0.6314439435336976
10.589286885245901,0.8921438979963568,-9.612056375227686,-0.6301998178506375
10.597284836065572,0.8931608606557566,-9.619817622950778,-0.643384221311429
10.605282786885246,0.9039310329631588,-9.76972408778424,-0.682255156002115
10.613280737704917,0.9035010356072625,-9.755534175039662,-0.6776111845584347
10.62127868852459,0.903071038251366,-9.74134426229508,-0.6729672131147535
10.629276639344262,0.9026410408954698,-9.727154349550501,-0.6683232416710733
10.637274590163933,0.9022110435395735,-9.712964436805922,-0.663679270227393
10.645272540983607,0.901781046183677,-9.698774524061342,-0.6590352987837118
10.653270491803278,0.9013510488277807,-9.684584611316764,-0.6543913273400316
10.66126844262295,0.9009210514718844,-9.670394698572185,-0.6497473558963514
10.669266393442623,0.900491054115988,-9.656204785827603,-0.6451033844526701
10.677264344262294,0.9000610567600916,-9.642014873083024,-0.6404594130089899
10.685262295081966,0.8996310594041954,-9.627824960338446,-0.6358154415653097
10.693260245901639,0.899201062048299,-9.613635047593863,-0.6311714701216284
10.70125819672131,1.0136120218579254,-9.75018613387978,-0.7574678961748631
10.709256147540984,0.9602923497267725,-9.789509392076505,-0.7667988387978149
10.717254098360655,0.9396511089681775,-9.80108379942141,-0.7646222757955644
10.725252049180327,0.9360755544840892,-9.798166899710704,-0.7564361378977832
10.73325,0.9325,-9.795250000000001,-0.7482500000000001
10.741247950819671,0.9289244455159116,-9.792333100289296,-0.7400638621022188
10.749245901639343,0.9253488910318232,-9.789416200578593,-0.7318777242044374
10.757243852459016,0.9217733365477341,-9.786499300867888,-0.7236915863066543
10.765241803278688,0.9181977820636457,-9.783582401157185,-0.715505448408873
10.77323975409836,0.9146222275795565,-9.78066550144648,-0.7073193105110899
10.781237704918032,0.911046673095468,-9.777748601735777,-0.6991331726133085
10.789235655737704,0.9074711186113797,-9.774831702025073,-0.6909470347155273
10.797233606557377,0.898977459016403,-9.749106557377093,-0.6665307377049494
10.805231557377049,0.9376004098360736,-9.799410860655746,-0.7599272540983792
10.81322950819672,0.904,-9.772,-0.683
10.821227459016393,0.904,-9.772,-0.683
10.829225409836065,0.904,-9.772,-0.683
10.837223360655738,0.904,-9.772,-0.683
10.84522131147541,0.904,-9.772,-0.683
10.853219262295081,0.904,-9.772,-0.683
10.861217213114754,0.904,-9.772,-0.683
10.869215163934426,0.904,-9.772,-0.683
10.877213114754097,0.904,-9.772,-0.683
10.88521106557377,0.904,-9.772,-0.683
10.893209016393442,0.904,-9.772,-0.683
10.901206967213113,0.9807602459016096,-9.677657786885199,-0.7981362704918338
10.909204918032787,0.8265414290805422,-9.668148164647185,-0.6441883464005703
10.917202868852458,0.8408855800071269,-9.672234074305061,-0.6464486368496078
10.925200819672131,0.8552297309337147,-9.676319983962937,-0.6487089272986459
10.933198770491803,0.8695738818602993,-9.680405893620813,-0.6509692177476836
10.941196721311474,0.8839180327868839,-9.684491803278688,-0.6532295081967211
10.949194672131147,0.8982621837134717,-9.688577712936565,-0.6554897986457592
10.957192622950819,0.9126063346400564,-9.69266362259444,-0.6577500890947968
10.96519057377049,0.926950485566641,-9.696749532252316,-0.6600103795438343
10.973188524590164,0.9412946364932288,-9.700835441910192,-0.6622706699928724
10.981186475409835,0.9556387874198135,-9.704921351568068,-0.6645309604419101
10.989184426229508,0.9699829383464013,-9.709007261225944,-0.6667912508909482
10.99718237704918,0.9767049180328022,-9.718380122950808,-0.6702766393442596
11.005180327868851,0.9434942448552485,-9.802660969654692,-0.7709040809208226
11.013178278688525,0.953619310254622,-9.800363685908616,-0.7770301709103595
11.021176229508196,0.9637443756539932,-9.79806640216254,-0.7831562608998951
11.029174180327868,0.9738694410533644,-9.795769118416464,-0.7892823508894306
11.03717213114754,0.9839945064527378,-9.793471834670388,-0.7954084408789674
11.045170081967212,0.994119571852109,-9.791174550924312,-0.8015345308685029
11.053168032786886,1.0042446372514824,-9.788877267178234,-0.8076606208580398
11.061165983606557,1.0143697026508536,-9.78657998343216,-0.8137867108475754
11.069163934426228,1.0244947680502248,-9.784282699686084,-0.8199128008371108
11.077161885245902,1.0346198334495984,-9.781985415940007,-0.8260388908266477
11.085159836065573,1.0447448988489696,-9.77968813219393,-0.8321649808161833
11.093157786885245,1.0548699642483408,-9.777390848447855,-0.8382910708057187
11.101155737704918,0.8192843905915876,-9.665390591589455,-0.6423161083392773
11.10915368852459,0.8338893442622922,-9.634094262295088,-0.6071946721311543
11.11715163934426,0.8484942979329969,-9.602797933000721,-0.5720732359230312
11.125149590163934,0.8857161885245854,-9.688659836065552,-0.6230461065573615
11.133147540983606,0.9120535673054718,-9.766060494112216,-0.6815906257215425
11.141145491803279,0.9210653428769346,-9.75941430962826,-0.6800135649965365
11.14914344262295,0.9300771184483955,-9.752768125144309,-0.6784365042715308
11.157141393442622,0.9390888940198563,-9.746121940660355,-0.6768594435465252
11.165139344262295,0.9481006695913191,-9.739475756176402,-0.6752823828215192
11.173137295081967,0.95711244516278,-9.732829571692449,-0.6737053220965136
11.181135245901638,0.9661242207342409,-9.726183387208497,-0.6721282613715079
11.189133196721311,0.9751359963057037,-9.719537202724544,-0.6705512006465019
11.197131147540983,0.9788415300546478,-9.714180327868851,-0.6658087431694009
11.205129098360656,0.8630042097291518,-9.861828804347827,-0.7837361903064858
11.213127049180327,0.8632650124732716,-9.851222826086957,-0.7673925516749833
11.221124999999999,0.8635258152173912,-9.84061684782609,-0.7510489130434809
11.229122950819672,0.863786617961511,-9.830010869565218,-0.7347052744119748
11.237120901639344,0.8640474207056308,-9.81940489130435,-0.7183616357804723
11.245118852459015,0.8643082234497504,-9.80879891304348,-0.7020179971489697
11.253116803278688,0.8645690261938702,-9.798192934782609,-0.6856743585174636
11.26111475409836,0.86482982893799,-9.787586956521741,-0.6693307198859612
11.269112704918031,0.8650906316821096,-9.776980978260871,-0.6529870812544587
11.277110655737705,0.8653514344262295,-9.766375000000002,-0.6366434426229526
11.285108606557376,0.8656122371703492,-9.755769021739132,-0.62029980399145
11.29310655737705,0.865873039914469,-9.745163043478263,-0.6039561653599439
11.30110450819672,0.9460881147541297,-9.838266393442673,-0.640016393442591
11.309102459016392,0.9327117631670748,-9.64120260725497,-0.7167599407045689
11.317100409836065,0.9259900810952217,-9.646222597663062,-0.7179511248692012
11.325098360655737,0.9192683990233702,-9.651242588071154,-0.7191423090338331
11.333096311475408,0.9125467169515186,-9.656262578479245,-0.7203334931984651
11.341094262295082,0.9058250348796655,-9.661282568887339,-0.7215246773630972
11.349092213114753,0.8991033528078138,-9.66630255929543,-0.7227158615277292
11.357090163934426,0.8923816707359608,-9.671322549703522,-0.7239070456923613
11.365088114754098,0.8856599886641092,-9.676342540111614,-0.7250982298569932
11.37308606557377,0.8789383065922576,-9.681362530519706,-0.7262894140216252
11.381084016393443,0.8722166245204045,-9.686382520927799,-0.7274805981862574
11.389081967213114,0.8654949424485529,-9.691402511335891,-0.7286717823508894
11.397079918032786,0.8587732603767012,-9.696422501743982,-0.7298629665155213
11.405077868852459,0.8976175160370636,-9.607316331076264,-0.628156450463293
11.41307581967213,0.8873592747683546,-9.609663555773341,-0.6218971846044198
11.421073770491804,0.8771010334996434,-9.61201078047042,-0.6156379187455451
11.429071721311475,0.8668427922309344,-9.614358005167498,-0.6093786528866718
11.437069672131146,0.8565845509622254,-9.616705229864575,-0.6031193870277985
11.44506762295082,0.8463263096935141,-9.619052454561654,-0.5968601211689238
11.453065573770491,0.8360680684248051,-9.621399679258731,-0.5906008553100506
11.461063524590163,0.8258098271560961,-9.623746903955809,-0.5843415894511773
11.469061475409836,0.8155515858873847,-9.626094128652886,-0.5780823235923026
11.477059426229507,0.8052933446186757,-9.628441353349965,-0.5718230577334293
11.485057377049179,0.7950351033499667,-9.630788578047042,-0.5655637918745561
11.493055327868852,0.7847768620812555,-9.63313580274412,-0.5593045260156814
11.501053278688524,0.9123852459015962,-9.637368852459016,-0.6909118852458577
11.509051229508197,0.939938012295082,-9.734954405737708,-0.7477305327868862
11.517049180327868,0.903877049180328,-9.767942622950823,-0.6816721311475422
11.52504713114754,0.9023336748633872,-9.622195355191254,-0.639931352459014
11.533045081967213,0.9067428015973097,-9.642292770071458,-0.6543891866330389
11.541043032786884,0.9111519283312313,-9.662390184951658,-0.6688470208070605
11.549040983606556,0.9155610550651527,-9.682487599831859,-0.6833048549810821
11.55703893442623,0.9199701817990752,-9.702585014712064,-0.697762689155107
11.5650368852459,0.9243793085329967,-9.722682429592265,-0.7122205233291286
11.573034836065574,0.9287884352669191,-9.74277984447247,-0.7266783575031533
11.581032786885245,0.9331975620008406,-9.762877259352669,-0.741136191677175
11.589030737704917,0.937606688734762,-9.78297467423287,-0.7555940258511966
11.59702868852459,0.9398196721311176,-9.801192622950795,-0.7650081967212431
11.605026639344262,0.8455085382513593,-9.686779713114747,-0.7019347677595474
11.613024590163933,0.9111134647264664,-9.772903297108122,-0.6794997237060245
11.621022540983606,0.922436406336341,-9.774341130963345,-0.6739281175170386
11.629020491803278,0.9337593479462132,-9.775778964818567,-0.6683565113280538
11.637018442622951,0.9450822895560879,-9.77721679867379,-0.662784905139068
11.645016393442623,0.95640523116596,-9.778654632529012,-0.6572132989500832
11.653014344262294,0.9677281727758322,-9.780092466384232,-0.6516416927610985
11.661012295081967,0.9790511143857068,-9.781530300239455,-0.6460700865721125
11.669010245901639,0.9903740559955789,-9.782968134094677,-0.6404984803831278
11.67700819672131,1.001696997605451,-9.7844059679499,-0.6349268741941432
11.685006147540983,1.0130199392153258,-9.785843801805122,-0.6293552680051572
11.693004098360655,1.024342880825198,-9.787281635660342,-0.6237836618161725
11.701002049180326,0.9367581967215474,-9.638057377049124,-0.7158504098362114
11.709,0.9066881720430102,-9.76947311827957,-0.6703118279569918
11.716997950819671,0.9109881456019734,-9.765431143134146,-0.6500159527586857
11.724995901639344,0.9152881191609376,-9.76138916798872,-0.6297200775603751
11.732993852459016,0.9195880927199006,-9.757347192843293,-0.609424202362069
11.740991803278687,0.9238880662788638,-9.753305217697868,-0.5891283271637628
11.74898975409836,0.9281880398378279,-9.749263242552441,-0.5688324519654522
11.756987704918032,0.9324880133967911,-9.745221267407016,-0.5485365767671462
11.764985655737703,0.9367879869557543,-9.741179292261592,-0.52824070156884
11.772983606557377,0.9410879605147183,-9.737137317116165,-0.5079448263705294
11.780981557377048,0.9453879340736815,-9.733095341970738,-0.4876489511722233
11.788979508196721,0.9496879076326455,-9.729053366825314,-0.4673530759739126
11.796977459016393,0.9539878811916087,-9.725011391679887,-0.4470572007756065
11.804975409836064,0.9040604717296754,-9.769560973569758,-0.6792104382736739
11.812973360655738,0.9043053069588491,-9.759685952659753,-0.6638674305787904
11.82097131147541,0.9045501421880228,-9.749810931749751,-0.6485244228839102
11.82896926229508,0.9047949774171964,-9.739935910839748,-0.6331814151890302
11.836967213114754,0.90503981264637,-9.730060889929744,-0.6178384074941465
11.844965163934425,0.9052846478755436,-9.72018586901974,-0.6024953997992665
11.852963114754099,0.9055294831047174,-9.710310848109735,-0.5871523921043829
11.86096106557377,0.905774318333891,-9.700435827199733,-0.5718093844095028
11.868959016393442,0.9060191535630645,-9.69056080628973,-0.5564663767146226
11.876956967213115,0.9062639887922382,-9.680685785379726,-0.5411233690197391
11.884954918032786,0.9065088240214119,-9.670810764469723,-0.525780361324859
11.892952868852458,0.9067536592505855,-9.66093574355972,-0.5104373536299789
11.900950819672131,0.9069984944797591,-9.651060722649715,-0.49509434593509527
11.908948770491802,0.8798417008196753,-9.709953381147534,-0.5619021516393364
11.916946721311474,0.904,-9.772,-0.683
11.924944672131147,0.8749932219419913,-9.73794222887768,-0.6015636034047912
11.932942622950819,0.8870926860025199,-9.7351737074401,-0.6090488650693555
11.940940573770492,0.8991921500630513,-9.732405186002522,-0.6165341267339216
11.948938524590163,0.9112916141235801,-9.729636664564943,-0.624019388398486
11.956936475409835,0.9233910781841088,-9.726868143127364,-0.6315046500630503
11.964934426229508,0.9354905422446402,-9.724099621689785,-0.6389899117276164
11.97293237704918,0.947590006305169,-9.721331100252206,-0.6464751733921809
11.980930327868851,0.9596894703656977,-9.718562578814629,-0.6539604350567452
11.988928278688524,0.9717889344262292,-9.715794057377048,-0.6614456967213113
11.996926229508196,0.9838883984867578,-9.71302553593947,-0.6689309583858757
12.004924180327869,0.903622377930548,-9.77168200246783,-0.6821354442094125
12.01292213114754,0.900354398025736,-9.768930019390094,-0.6746534902168166
12.020920081967212,0.8970864181209239,-9.766178036312358,-0.6671715362242207
12.028918032786885,0.8938184382161113,-9.763426053234621,-0.6596895822316231
12.036915983606557,0.8905504583112992,-9.760674070156885,-0.6522076282390272
12.044913934426228,0.8872824784064872,-9.757922087079148,-0.6447256742464313
12.052911885245901,0.8840144985016745,-9.75517010400141,-0.6372437202538338
12.060909836065573,0.8807465185968625,-9.752418120923673,-0.6297617662612378
12.068907786885246,0.8774785386920498,-9.749666137845937,-0.6222798122686403
12.076905737704918,0.8742105587872377,-9.7469141547682,-0.6147978582760444
12.084903688524589,0.8709425788824258,-9.744162171690464,-0.6073159042834485
12.092901639344262,0.867674598977613,-9.741410188612727,-0.599833950290851
12.100899590163934,0.8624016393442646,-9.720658811475422,-0.6562725409835679
12.108897540983605,0.904,-9.772,-0.683
12.116895491803279,0.904,-9.772,-0.683
12.12489344262295,0.904,-9.772,-0.683
12.132891393442621,0.904,-9.772,-0.683
12.140889344262295,0.904,-9.772,-0.683
12.148887295081966,0.904,-9.772,-0.683
12.15688524590164,0.904,-9.772,-0.683
12.164883196721311,0.904,-9.772,-0.683
12.172881147540982,0.904,-9.772,-0.683
12.180879098360656,0.904,-9.772,-0.683
12.188877049180327,0.904,-9.772,-0.683
12.196874999999999,0.904,-9.772,-0.683
12.204872950819672,0.9036394333570924,-9.77169636493229,-0.6821744921596588
12.212870901639343,0.9003359319315758,-9.768914468995012,-0.6746112125801867
12.220868852459017,0.8970324305060585,-9.766132573057734,-0.667047933000713
12.228866803278688,0.893728929080542,-9.763350677120457,-0.659484653421241
12.23686475409836,0.8904254276550255,-9.76056878118318,-0.651921373841769
12.244862704918033,0.8871219262295083,-9.757786885245903,-0.6443580942622952
12.252860655737704,0.8838184248039918,-9.755004989308626,-0.6367948146828232
12.260858606557376,0.8805149233784753,-9.752223093371347,-0.6292315351033511
12.268856557377049,0.877211421952958,-9.74944119743407,-0.6216682555238774
12.27685450819672,0.8739079205274414,-9.746659301496793,-0.6141049759444053
12.284852459016392,0.8706044191019249,-9.743877405559516,-0.6065416963649333
12.292850409836065,0.8673009176764076,-9.741095509622237,-0.5989784167854596
12.300848360655737,0.904,-9.772,-0.683
12.30884631147541,0.904,-9.772,-0.683
12.316844262295081,0.904,-9.772,-0.683
12.324842213114753,0.904,-9.772,-0.683
12.332840163934426,0.904,-9.772,-0.683
12.340838114754098,0.904,-9.772,-0.683
12.348836065573769,0.904,-9.772,-0.683
12.356834016393442,0.904,-9.772,-0.683
12.364831967213114,0.904,-9.772,-0.683
12.372829918032787,0.904,-9.772,-0.683
12.380827868852458,0.904,-9.772,-0.683
12.38882581967213,0.904,-9.772,-0.683
12.396823770491803,0.904,-9.772,-0.683
12.404821721311475,0.8627131147541022,-9.722332991803299,-0.6510553278687886
12.412819672131146,0.858,-9.697,-0.73
12.42081762295082,0.858,-9.697,-0.73
12.42881557377049,0.858,-9.697,-0.73
12.436813524590164,0.858,-9.697,-0.73
12.444811475409836,0.858,-9.697,-0.73
12.452809426229507,0.858,-9.697,-0.73
12.46080737704918,0.858,-9.697,-0.73
12.468805327868852,0.858,-9.697,-0.73
12.476803278688523,0.858,-9.697,-0.73
12.484801229508196,0.858,-9.697,-0.73
12.492799180327868,0.858,-9.697,-0.73
12.50079713114754,0.9521147540984334,-9.736515368852405,-0.6745799180327742
12.508795081967213,0.819,-9.666,-0.643
12.516793032786884,0.819,-9.666,-0.643
12.524790983606557,0.819,-9.666,-0.643
12.532788934426229,0.819,-9.666,-0.643
12.5407868852459,0.819,-9.666,-0.643
12.548784836065574,0.819,-9.666,-0.643
12.556782786885245,0.819,-9.666,-0.643
12.564780737704917,0.819,-9.666,-0.643
12.57277868852459,0.819,-9.666,-0.643
12.580776639344261,0.819,-9.666,-0.643
12.588774590163935,0.819,-9.666,-0.643
12.596772540983606,0.819,-9.666,-0.643
12.604770491803277,0.9114836065574068,-9.687778688524585,-0.6390163934425723
12.61276844262295,0.942372153916211,-9.687768442622952,-0.5884734744990899
12.620766393442622,0.9387286429872496,-9.695766393442623,-0.5974489526411657
12.628764344262294,0.9350851320582881,-9.703764344262295,-0.6064244307832415
12.636762295081967,0.9314416211293258,-9.711762295081968,-0.6153999089253193
12.644760245901638,0.9277981102003644,-9.71976024590164,-0.624375387067395
12.652758196721312,0.9241545992714021,-9.727758196721313,-0.6333508652094728
12.660756147540983,0.9205110883424407,-9.735756147540984,-0.6423263433515486
12.668754098360655,0.9168675774134792,-9.743754098360656,-0.6513018214936244
12.676752049180328,0.9132240664845169,-9.751752049180329,-0.6602772996357021
12.68475,0.9095805555555555,-9.75975,-0.6692527777777779
12.69274795081967,0.9059370446265941,-9.767747950819672,-0.6782282559198537
12.700745901639344,0.8613442622950823,-9.714975409836068,-0.6739836065573706
12.708743852459015,0.8251872088006885,-9.666157635893011,-0.649305435720447
12.716741803278687,0.8384048748921455,-9.666494391716999,-0.6627756686798936
12.72473975409836,0.8516225409836055,-9.666831147540984,-0.6762459016393432
12.732737704918032,0.8648402070750625,-9.66716790336497,-0.6897161345987898
12.740735655737705,0.8780578731665224,-9.667504659188957,-0.7031863675582394
12.748733606557376,0.8912755392579793,-9.667841415012942,-0.716656600517686
12.756731557377048,0.9044932053494363,-9.668178170836928,-0.7301268334771326
12.764729508196721,0.9177108714408962,-9.668514926660915,-0.7435970664365822
12.772727459016393,0.9309285375323532,-9.6688516824849,-0.7570672993960288
12.780725409836064,0.9441462036238102,-9.669188438308886,-0.7705375323554754
12.788723360655737,0.9573638697152701,-9.669525194132873,-0.784007765314925
12.796721311475409,0.9705815358067271,-9.669861949956859,-0.7974779982743716
12.804719262295082,0.8713340163934384,-9.744491803278684,-0.6082120901639247
12.812717213114754,0.858,-9.697,-0.73
12.820715163934425,0.858,-9.697,-0.73
12.828713114754098,0.858,-9.697,-0.73
12.83671106557377,0.858,-9.697,-0.73
12.844709016393441,0.858,-9.697,-0.73
12.852706967213114,0.858,-9.697,-0.73
12.860704918032786,0.858,-9.697,-0.73
12.86870286885246,0.858,-9.697,-0.73
12.87670081967213,0.858,-9.697,-0.73
12.884698770491802,0.858,-9.697,-0.73
12.892696721311475,0.858,-9.697,-0.73
12.900694672131147,0.9020286885246688,-9.731756147540965,-0.6182889344262781
12.908692622950818,0.9453672659968269,-9.69203860391327,-0.5852441829719714
12.916690573770492,0.9458832628239026,-9.706142517186672,-0.5898021549444734
12.924688524590163,0.9463992596509782,-9.720246430460072,-0.5943601269169744
12.932686475409835,0.9469152564780537,-9.734350343733471,-0.5989180988894753
12.940684426229508,0.9474312533051295,-9.748454257006873,-0.6034760708619773
12.94868237704918,0.947947250132205,-9.762558170280272,-0.6080340428344783
12.956680327868852,0.9484632469592807,-9.776662083553674,-0.6125920148069802
12.964678278688524,0.9489792437863563,-9.790765996827075,-0.6171499867794812
12.972676229508195,0.9494952406134319,-9.804869910100473,-0.621707958751982
12.980674180327869,0.9500112374405076,-9.818973823373875,-0.626265930724484
12.98867213114754,0.9505272342675831,-9.833077736647274,-0.630823902696985
12.996670081967212,0.9225215163935087,-9.810485655737788,-0.6219334016393746
13.004668032786885,0.9121437841530057,-9.666911202185792,-0.6720993852459022
13.012665983606556,0.940803107923494,-9.797544398907089,-0.7660753073770384
13.02066393442623,0.9458781354927909,-9.794689709658305,-0.7606740075054313
13.028661885245901,0.9499252913292512,-9.786017232865891,-0.750941561327277
13.036659836065573,0.9539724471657114,-9.777344756073475,-0.7412091151491226
13.044657786885246,0.9580196030021726,-9.76867227928106,-0.731476668970966
13.052655737704917,0.9620667588386328,-9.759999802488643,-0.7217442227928115
13.060653688524589,0.9661139146750931,-9.751327325696229,-0.7120117766146571
13.068651639344262,0.9701610705115542,-9.742654848903811,-0.7022793304365005
13.076649590163933,0.9742082263480145,-9.733982372111397,-0.6925468842583461
13.084647540983607,0.9782553821844756,-9.725309895318981,-0.6828144380801895
13.092645491803278,0.9823025380209359,-9.716637418526565,-0.6730819919020351
13.10064344262295,0.9031086065573724,-9.742584016393286,-0.6733729508196208
13.108641393442623,0.9036504529767041,-9.760464948231235,-0.679224892148404
13.116639344262294,0.9032295081967214,-9.746573770491805,-0.6746786885245907
13.124637295081966,0.9028085634167387,-9.732682592752376,-0.6701324849007774
13.132635245901639,0.9023876186367559,-9.718791415012943,-0.6655862812769631
13.14063319672131,0.9019666738567731,-9.704900237273513,-0.6610400776531498
13.148631147540982,0.9015457290767904,-9.691009059534084,-0.6564938740293365
13.156629098360655,0.9011247842968076,-9.67711788179465,-0.651947670405522
13.164627049180327,0.9007038395168249,-9.663226704055221,-0.6474014667817087
