accel_time_list,accel_x_list,accel_y_list,accel_z_list
0.0,-4.3,-2.3,8.7
0.0079953007518797,-4.70140977443609,-2.19906015037594,8.1
0.0159906015037594,-4.712025545792192,-2.3060127728960955,8.206012772896095
0.023985902255639097,-4.73129133073648,-2.3156456653682396,8.215645665368239
0.0319812030075188,-4.750557115680769,-2.325278557840384,8.225278557840383
0.0399765037593985,-4.769822900625057,-2.334911450312528,8.234911450312529
0.04797180451127819,-4.789088685569345,-2.3445443427846726,8.244544342784673
0.055967105263157894,-4.808354470513634,-2.3541772352568167,8.254177235256817
0.0639624060150376,-4.827620255457922,-2.3638101277289607,8.263810127728961
0.07195770676691729,-4.846886040402211,-2.373443020201105,8.273443020201105
0.079953007518797,-4.866151825346499,-2.3830759126732493,8.28307591267325
0.08794830827067669,-4.885417610290787,-2.3927088051453933,8.292708805145395
0.09594360902255639,-4.608458646616542,-2.3028195488721805,8.3
0.1039389097744361,-4.7,-2.2987781954887216,8.3
0.11193421052631579,-4.606820931639443,-2.4,8.3
0.1199295112781955,-4.616010932503673,-2.4,8.3
0.1279248120300752,-4.6252009333679025,-2.4,8.3
0.1359201127819549,-4.634390934232132,-2.4,8.3
0.14391541353383458,-4.643580935096361,-2.4,8.3
0.1519107142857143,-4.652770935960591,-2.4,8.3
0.159906015037594,-4.661960936824821,-2.4,8.3
0.16790131578947368,-4.67115093768905,-2.4,8.3
0.17589661654135338,-4.68034093855328,-2.4,8.3
0.1838919172932331,-4.6895309394175095,-2.4,8.3
0.19188721804511277,-4.698720940281739,-2.4,8.3
0.19988251879699248,-4.7,-2.3,8.3
0.2078778195488722,-4.7,-2.3,8.3
0.2158731203007519,-4.7,-2.3,8.3
0.22386842105263158,-4.7,-2.3,8.3
0.23186372180451129,-4.7,-2.3,8.3
0.239859022556391,-4.7,-2.3,8.3
0.24785432330827067,-4.7,-2.3,8.3
0.2558496240601504,-4.7,-2.3,8.3
0.2638449248120301,-4.7,-2.3,8.3
0.2718402255639098,-4.7,-2.3,8.3
0.2798355263157895,-4.7,-2.3,8.3
0.28783082706766916,-4.7,-2.3,8.3
0.29582612781954887,-4.7,-2.3,8.3
0.3038214285714286,-4.8,-2.3,8.2
0.3118167293233083,-4.8,-2.3,8.2
0.319812030075188,-4.793830730672836,-2.3,8.206169269327164
0.3278073308270677,-4.783580345093503,-2.3,8.216419654906497
0.33580263157894735,-4.77332995951417,-2.3,8.22667004048583
0.34379793233082706,-4.763079573934837,-2.3,8.236920426065163
0.35179323308270677,-4.752829188355504,-2.3,8.247170811644496
0.3597885338345865,-4.742578802776171,-2.3,8.25742119722383
0.3677838345864662,-4.732328417196839,-2.3,8.267671582803162
0.3757791353383459,-4.722078031617506,-2.3,8.277921968382495
0.38377443609022555,-4.711827646038173,-2.3,8.288172353961828
0.39176973684210525,-4.70157726045884,-2.3,8.298422739541161
0.39976503759398496,-4.8,-2.3,8.2
0.40776033834586467,-4.8,-2.3,8.2
0.4157556390977444,-4.8,-2.3,8.2
0.4237509398496241,-4.8,-2.3,8.2
0.4317462406015038,-4.8,-2.3,8.2
0.43974154135338345,-4.8,-2.3,8.2
0.44773684210526316,-4.8,-2.3,8.2
0.45573214285714286,-4.8,-2.3,8.2
0.46372744360902257,-4.8,-2.3,8.2
0.4717227443609023,-4.8,-2.3,8.2
0.479718045112782,-4.8,-2.3,8.2
0.48771334586466164,-4.8,-2.3,8.2
0.49570864661654135,-4.8,-2.264567669172932,8.2
0.5037039473684211,-4.8,-2.2,8.2
0.5116992481203008,-4.8,-2.2,8.2
0.5196945488721805,-4.8,-2.2,8.2
0.5276898496240602,-4.8,-2.2,8.2
0.5356851503759399,-4.8,-2.2,8.2
0.5436804511278196,-4.8,-2.2,8.2
0.5516757518796993,-4.8,-2.2,8.2
0.559671052631579,-4.8,-2.2,8.2
0.5676663533834586,-4.8,-2.2,8.2
0.5756616541353383,-4.8,-2.2,8.2
0.583656954887218,-4.8,-2.2,8.2
0.5916522556390977,-4.8,-2.2,8.2
0.5996475563909774,-4.8,-2.299311110222364,8.2
0.6076428571428572,-4.8,-2.29080547112462,8.2
0.6156381578947369,-4.8,-2.2822998320268755,8.2
0.6236334586466166,-4.8,-2.273794192929131,8.2
0.6316287593984963,-4.8,-2.265288553831387,8.2
0.639624060150376,-4.8,-2.2567829147336425,8.2
0.6476193609022557,-4.8,-2.248277275635898,8.2
0.6556146616541354,-4.8,-2.239771636538154,8.2
0.6636099624060151,-4.8,-2.2312659974404094,8.2
0.6716052631578947,-4.8,-2.2227603583426654,8.2
0.6796005639097744,-4.8,-2.214254719244921,8.2
0.6875958646616541,-4.8,-2.2057490801471764,8.2
0.6955911654135338,-4.8,-2.229558270676694,8.2
0.7035864661654135,-4.838220551378447,-2.3,8.2
0.7115817669172932,-4.9,-2.3,8.2
0.719577067669173,-4.9,-2.3,8.2
0.7275723684210527,-4.9,-2.3,8.2
0.7355676691729324,-4.9,-2.3,8.2
0.7435629699248121,-4.9,-2.3,8.2
0.7515582706766918,-4.9,-2.3,8.2
0.7595535714285715,-4.9,-2.3,8.2
0.7675488721804511,-4.9,-2.3,8.2
0.7755441729323308,-4.9,-2.3,8.2
0.7835394736842105,-4.9,-2.3,8.2
0.7915347744360902,-4.9,-2.3,8.2
0.7995300751879699,-4.829398496240603,-2.3706015037593975,8.170601503759396
0.8075253759398496,-4.8,-2.3,8.3
0.8155206766917293,-4.8,-2.3,8.3
0.823515977443609,-4.8,-2.3,8.3
0.8315112781954888,-4.8,-2.3,8.3
0.8395065789473685,-4.8,-2.3,8.3
0.8475018796992482,-4.8,-2.3,8.3
0.8554971804511279,-4.8,-2.3,8.3
0.8634924812030076,-4.8,-2.3,8.3
0.8714877819548872,-4.8,-2.3,8.3
0.8794830827067669,-4.8,-2.3,8.3
0.8874783834586466,-4.8,-2.3,8.3
0.8954736842105263,-4.8,-2.3,8.276315789473685
0.903468984962406,-4.8,-2.291149749373433,8.2
0.9114642857142857,-4.794124423963133,-2.305875576036866,8.194124423963133
0.9194595864661654,-4.785527326380467,-2.3144726736195325,8.185527326380466
0.9274548872180451,-4.776930228797801,-2.323069771202199,8.1769302287978
0.9354501879699249,-4.768333131215135,-2.331666868784865,8.168333131215133
0.9434454887218046,-4.7597360336324686,-2.3402639663675315,8.159736033632468
0.9514407894736843,-4.751138936049802,-2.348861063950198,8.1511389360498
0.959436090225564,-4.742541838467136,-2.3574581615328642,8.142541838467135
0.9674313909774437,-4.7339447408844695,-2.3660552591155306,8.133944740884468
0.9754266917293233,-4.725347643301803,-2.374652356698197,8.125347643301803
0.983421992481203,-4.716750545719137,-2.3832494542808633,8.116750545719135
0.9914172932330827,-4.70815344813647,-2.3918465518635297,8.10815344813647
0.9994125939849624,-4.7412593984962434,-2.4206296992481215,8.1
1.0074078947368421,-5.0,-2.398452862926547,8.1
1.015403195488722,-5.0,-2.3896668181442613,8.1
1.0233984962406015,-5.0,-2.380880773361976,8.1
1.0313937969924811,-5.0,-2.372094728579691,8.1
1.039389097744361,-5.0,-2.3633086837974053,8.1
1.0473843984962405,-5.0,-2.35452263901512,8.1
1.0553796992481204,-5.0,-2.3457365942328345,8.1
1.063375,-5.0,-2.3369505494505494,8.1
1.0713703007518798,-5.0,-2.3281645046682637,8.1
1.0793656015037594,-5.0,-2.3193784598859786,8.1
1.0873609022556392,-5.0,-2.310592415103693,8.1
1.0953562030075188,-5.0,-2.301806370321408,8.1
1.1033515037593986,-4.972070802005012,-2.6,8.0
1.1113468045112782,-4.9054432957393495,-2.6,8.0
1.119342105263158,-4.894433198380567,-3.111133603238867,7.711133603238867
1.1273374060150376,-4.884182812801234,-3.1316343743975326,7.731634374397532
1.1353327067669172,-4.873932427221901,-3.152135145556198,7.752135145556198
1.143328007518797,-4.863682041642568,-3.172635916714864,7.772635916714864
1.1513233082706766,-4.853431656063235,-3.1931366878735297,7.79313668787353
1.1593186090225565,-4.843181270483902,-3.213637459032196,7.813637459032196
1.167313909774436,-4.832930884904569,-3.2341382301908617,7.834138230190862
1.1753092105263159,-4.822680499325236,-3.2546390013495277,7.854639001349528
1.1833045112781955,-4.812430113745903,-3.275139772508193,7.875139772508193
1.1912998120300753,-4.80217972816657,-3.295640543666859,7.89564054366686
1.1992951127819549,-4.944266917293223,-2.2885338345864463,8.096710526315812
1.2072904135338347,-4.8666301169590644,-3.2903560985797813,7.790575396825398
1.2152857142857143,-4.804444444444445,-3.086031746031747,7.959365079365079
1.2232810150375941,-4.742258771929824,-2.8817073934837065,8.128154761904764
1.2312763157894737,-4.680073099415205,-2.6773830409356725,8.296944444444446
1.2392716165413533,-4.617887426900586,-2.473058688387638,8.465734126984126
1.2472669172932331,-4.555701754385964,-2.2687343358395977,8.634523809523811
1.2552622180451127,-4.493516081871346,-2.064409983291563,8.803313492063491
1.2632575187969926,-4.4313304093567245,-1.8600856307435232,8.972103174603177
1.2712528195488721,-4.369144736842106,-1.6557612781954887,9.140892857142857
1.279248120300752,-4.306959064327485,-1.4514369256474486,9.309682539682543
1.2872434210526316,-4.244773391812865,-1.2471125730994141,9.478472222222223
1.2952387218045114,-5.562593984962571,0.6374060150374292,9.589661654135144
1.303234022556391,-4.595296794618124,-3.109406410763752,8.204703205381875
1.3112293233082708,-4.578464582508903,-3.1430708349821934,8.221535417491095
1.3192246240601504,-4.561632370399683,-3.1767352592006337,8.238367629600317
1.3272199248120302,-4.544800158290462,-3.210399683419075,8.255199841709537
1.3352152255639098,-4.527967946181242,-3.2440641076375156,8.272032053818757
1.3432105263157894,-4.511135734072022,-3.277728531855956,8.288864265927977
1.3512058270676692,-4.494303521962801,-3.311392956074397,8.305696478037198
1.3592011278195488,-4.477471309853581,-3.3450573802928374,8.322528690146418
1.3671964285714286,-4.460639097744361,-3.378721804511279,8.33936090225564
1.3751917293233082,-4.443806885635141,-3.4123862287297193,8.35619311436486
1.383187030075188,-4.42697467352592,-3.4460506529481605,8.37302532647408
1.3911823308270677,-4.4101424614167,-3.4797150771666012,8.389857538583302
1.3991776315789475,-4.105592105263108,-3.4065789473685406,7.7523026315788375
1.407172932330827,-2.481453634085213,-6.6,6.681453634085213
1.415168233082707,-2.4459189640768586,-6.6,6.645918964076858
1.4231635338345865,-2.4103842940685047,-6.6,6.6103842940685045
1.4311588345864663,-2.37484962406015,-6.6,6.57484962406015
1.439154135338346,-2.339314954051796,-6.6,6.539314954051796
1.4471494360902255,-2.3037802840434427,-6.6,6.503780284043443
1.4551447368421053,-2.268245614035088,-6.6,6.468245614035088
1.463140037593985,-2.232710944026734,-6.6,6.432710944026734
1.4711353383458647,-2.1971762740183793,-6.6,6.3971762740183795
1.4791306390977443,-2.1616416040100255,-6.6,6.361641604010026
1.4871259398496242,-2.1261069340016707,-6.6,6.326106934001671
1.4951212406015038,-2.851749566223251,-5.18275014459225,7.18275014459225
1.5031165413533836,-3.220763447079245,-5.059745517640252,7.059745517640252
1.5111118421052632,-4.040789473684213,-5.103947368421065,7.1815789473684255
1.519107142857143,-4.108774250440917,-5.408774250440918,7.317548500881834
1.5271024436090226,-4.118644992109904,-5.418644992109905,7.337289984219809
1.5350977443609022,-4.128515733778891,-5.428515733778892,7.357031467557783
1.543093045112782,-4.138386475447879,-5.43838647544788,7.376772950895758
1.5510883458646616,-4.148257217116866,-5.448257217116867,7.396514434233732
1.5590836466165414,-4.158127958785854,-5.4581279587858536,7.416255917571707
1.567078947368421,-4.167998700454841,-5.4679987004548405,7.435997400909682
1.5750742481203008,-4.1778694421238285,-5.477869442123828,7.455738884247657
1.5830695488721804,-4.187740183792815,-5.487740183792815,7.4754803675856305
1.5910648496240603,-4.197610925461803,-5.497610925461803,7.495221850923605
1.5990601503759398,-5.30902255639098,-5.50902255639098,6.724060150375949
1.6070554511278197,-5.619746036286368,-5.760507927427263,7.526328048381825
1.6150507518796993,-5.645817669172932,-5.7083646616541355,7.56109022556391
1.623046052631579,-5.671889302059497,-5.656221395881006,7.595852402745996
1.6310413533834587,-5.697960934946061,-5.604078130107878,7.630614579928081
1.6390366541353383,-5.724032567832625,-5.551934864334751,7.665376757110167
1.647031954887218,-5.750104200719189,-5.499791598561621,7.700138934292252
1.6550272556390977,-5.776175833605754,-5.447648332788494,7.734901111474338
1.6630225563909775,-5.802247466492318,-5.395505067015364,7.769663288656424
1.671017857142857,-5.828319099378882,-5.343361801242237,7.804425465838509
1.679013157894737,-5.854390732265447,-5.291218535469107,7.839187643020596
1.6870084586466165,-5.8804623651520105,-5.23907526969598,7.8739498202026805
1.6950037593984963,-5.600075187969925,-3.700977443609034,7.000225563909777
1.702999060150376,-5.000187969924803,-5.399906015037598,6.700093984962401
1.7109943609022558,-4.784103725222145,-5.603325786056051,6.6317925495557075
1.7189896616541354,-4.765932587149692,-5.721438183527,6.668134825700615
1.7269849624060152,-4.747761449077238,-5.839550580997952,6.704477101845524
1.7349802631578948,-4.7295903110047846,-5.957662978468901,6.74081937799043
1.7429755639097744,-4.711419172932331,-6.075775375939848,6.777161654135338
1.7509708646616542,-4.693248034859876,-6.1938877734108,6.8135039302802465
1.7589661654135338,-4.675076896787423,-6.312000170881749,6.849846206425154
1.7669614661654136,-4.656905758714969,-6.4301125683527,6.886188482570062
1.7749567669172932,-4.6387346206425155,-6.548224965823649,6.922530758714969
1.782952067669173,-4.620563482570061,-6.666337363294601,6.958873034859877
1.7909473684210526,-4.602392344497607,-6.78444976076555,6.9952153110047846
1.7989426691729324,-4.977067669173003,-6.4742011278196285,6.59426691729325
1.806937969924812,-5.04267725766028,-6.482929096935888,6.55732274233972
1.8149332706766919,-5.085662745573613,-6.4657349017705545,6.514337254426387
1.8229285714285715,-5.128648233486944,-6.448540706605223,6.471351766513056
1.8309238721804513,-5.171633721400276,-6.431346511439889,6.428366278599723
1.8389191729323309,-5.214619209313607,-6.414152316274557,6.385380790686392
1.8469144736842105,-5.257604697226938,-6.396958121109225,6.3423953027730615
1.8549097744360903,-5.300590185140271,-6.379763925943892,6.299409814859729
1.8629050751879699,-5.343575673053602,-6.362569730778559,6.256424326946398
1.8709003759398497,-5.386561160966934,-6.345375535613226,6.213438839033065
1.8788956766917293,-5.429546648880265,-6.328181340447894,6.170453351119734
1.8868909774436091,-5.472532136793598,-6.310987145282561,6.127467863206402
1.8948862781954887,-5.596209273182961,-6.1316337719298195,6.027843045112779
1.9028815789473685,-5.862719298245621,-5.665241228070164,5.827960526315784
1.9108768796992481,-5.81231203007519,-5.756907894736835,5.993843984962405
1.918872180451128,-5.790281258702311,-5.780562517404622,5.931968810916178
1.9268674812030075,-5.7804105170333235,-5.760821034066648,5.862873619233269
1.9348627819548874,-5.770539775364337,-5.741079550728673,5.7937784275503565
1.942858082706767,-5.76066903369535,-5.721338067390699,5.724683235867446
1.9508533834586466,-5.750798292026363,-5.701596584052725,5.655588044184536
1.9588486842105264,-5.740927550357375,-5.681855100714749,5.586492852501624
1.966843984962406,-5.731056808688388,-5.662113617376775,5.517397660818713
1.9748392857142858,-5.7211860670194,-5.6423721340388004,5.448302469135801
1.9828345864661654,-5.711315325350413,-5.622630650700826,5.379207277452892
1.9908298872180452,-5.701444583681426,-5.602889167362851,5.31011208576998
1.9988251879699248,-5.5793703007518785,-6.820629699248121,4.279370300751879
2.0068204887218046,-5.398091886693478,-7.005724339919569,4.097137830040215
2.0148157894736842,-5.379498164014688,-7.061505507955938,4.069247246022031
2.022811090225564,-5.360904441335898,-7.117286675992307,4.041356662003846
2.030806390977444,-5.3423107186571075,-7.173067844028679,4.01346607798566
2.0388016917293235,-5.323716995978318,-7.228849012065048,3.9855754939674757
2.046796992481203,-5.305123273299528,-7.284630180101417,3.957684909949291
2.0547922932330827,-5.286529550620738,-7.340411348137786,3.929794325931107
2.0627875939849623,-5.267935827941948,-7.396192516174155,3.901903741912922
2.0707828947368423,-5.249342105263158,-7.451973684210527,3.874013157894736
2.078778195488722,-5.230748382584368,-7.507754852246896,3.8461225738765514
2.0867734962406015,-5.212154659905578,-7.563536020283266,3.8182319898583668
2.094768796992481,-5.5997180451127395,-7.061560150375943,3.707800751879715
2.102764097744361,-4.905639097744401,-7.7764097744361,3.0056390977444014
2.1107593984962407,-5.069747402213398,-7.721534172509927,3.108718425276675
2.1187546992481203,-5.141615274140405,-7.640682816592044,3.117701909267551
2.12675,-5.213483146067413,-7.55983146067416,3.126685393258427
2.13474530075188,-5.285351017994425,-7.478980104756272,3.1356688772493033
2.1427406015037596,-5.357218889921432,-7.3981287488383884,3.1446523612401793
2.150735902255639,-5.42908676184844,-7.317277392920505,3.1536358452310553
2.1587312030075188,-5.500954633775447,-7.236426037002621,3.162619329221931
2.1667265037593983,-5.572822505702455,-7.155574681084738,3.171602813212807
2.1747218045112784,-5.644690377629467,-7.0747233251668495,3.1805862972036834
2.182717105263158,-5.716558249556474,-6.993871969248966,3.1895697811945594
2.1907124060150376,-5.788426121483482,-6.913020613331083,3.1985532651854354
2.198707706766917,-5.708987930352196,-6.985619311436487,2.6071903442817566
2.206703007518797,-5.751068460625248,-6.918290462999603,2.6408547685001986
2.214698308270677,-5.793148990898299,-6.8509616145627215,2.6745191927186394
2.2226936090225564,-5.83522952117135,-6.783632766125841,2.7081836169370797
2.230688909774436,-5.8773100514444,-6.716303917688959,2.7418480411555204
2.238684210526316,-5.919390581717454,-6.648975069252075,2.7755124653739625
2.2466795112781957,-5.9614711119905035,-6.581646220815194,2.809176889592403
2.2546748120300752,-6.003551642263554,-6.514317372378313,2.8428413138108435
2.262670112781955,-6.045632172536605,-6.446988523941432,2.876505738029284
2.2706654135338344,-6.087712702809656,-6.379659675504551,2.9101701622477245
2.2786607142857145,-6.129793233082709,-6.312330827067666,2.943834586466167
2.286656015037594,-6.17187376335576,-6.2450019786307855,2.9774990106846073
2.2946513157894737,-6.248205741626797,-6.2241028708133985,2.9276913875598045
2.3026466165413533,-6.393574846206425,-6.296787423103212,2.7096377306903636
2.3106419172932333,-6.81683185235818,-6.71683185235818,2.2831681476418204
2.318637218045113,-7.298277789067263,-6.698277789067263,1.4017222109327374
2.3266325187969925,-7.276668868116237,-6.676668868116237,1.4233311318837634
2.334627819548872,-7.25505994716521,-6.655059947165211,1.4449400528347893
2.342623120300752,-7.233451026214183,-6.633451026214184,1.4665489737858166
2.3506184210526317,-7.211842105263157,-6.6118421052631575,1.4881578947368426
2.3586137218045113,-7.190233184312131,-6.590233184312131,1.5097668156878685
2.366609022556391,-7.168624263361105,-6.568624263361105,1.5313757366388945
2.3746043233082705,-7.1470153424100795,-6.54701534241008,1.5529846575899207
2.3825996240601506,-7.125406421459052,-6.525406421459052,1.5745935785409477
2.39059492481203,-7.103797500508026,-6.503797500508027,1.5962024994919737
2.3985902255639098,-7.4,-6.575413533834584,1.091804511278195
2.4065855263157894,-7.8,-6.040760233918126,1.5949049707602343
2.4145808270676694,-7.8,-6.1118295739348385,1.5860213032581454
2.422576127819549,-7.8,-6.182898913951546,1.577137635756057
2.4305714285714286,-7.8,-6.253968253968253,1.5682539682539685
2.438566729323308,-7.8,-6.325037593984961,1.55937030075188
2.4465620300751882,-7.8,-6.396106934001673,1.5504866332497909
2.454557330827068,-7.8,-6.467176274018381,1.5416029657477024
2.4625526315789474,-7.8,-6.5382456140350875,1.5327192982456141
2.470547932330827,-7.8,-6.609314954051795,1.5238356307435255
2.4785432330827066,-7.8,-6.680384294068503,1.5149519632414372
2.4865385338345867,-7.8,-6.751453634085214,1.506068295739348
2.4945338345864663,-7.635588972431074,-6.417794486215537,0.9355889724310742
2.502529135338346,-7.998319631496323,-5.403360737007354,1.4
2.5105244360902255,-7.989533586714038,-5.420932826571924,1.4
2.5185197368421055,-7.980747541931752,-5.438504916136496,1.4
2.526515037593985,-7.971961497149467,-5.456077005701067,1.4
2.5345103383458647,-7.963175452367182,-5.473649095265637,1.4
2.5425056390977443,-7.954389407584896,-5.4912211848302075,1.4
2.5505009398496243,-7.94560336280261,-5.508793274394779,1.4
2.558496240601504,-7.936817318020325,-5.526365363959349,1.4
2.5664915413533835,-7.92803127323804,-5.543937453523919,1.4
2.574486842105263,-7.919245228455755,-5.56150954308849,1.4
2.5824821428571427,-7.91045918367347,-5.57908163265306,1.4
2.5904774436090228,-7.9016731388911845,-5.596653722217632,1.4
2.5984727443609024,-8.026362781954889,-5.7209116541353335,1.3
2.606468045112782,-7.991969843964751,-5.8,1.3160603120704986
2.6144633458646616,-7.983372746382084,-5.8,1.3332545072358308
2.6224586466165416,-7.974775648799418,-5.8,1.3504487024011644
2.630453947368421,-7.966178551216752,-5.8,1.3676428975664967
2.638449248120301,-7.957581453634085,-5.8,1.3848370927318292
2.6464445488721804,-7.94898435605142,-5.8,1.4020312878971617
2.6544398496240604,-7.9403872584687525,-5.8,1.4192254830624953
2.66243515037594,-7.931790160886086,-5.8,1.4364196782278276
2.6704304511278196,-7.923193063303421,-5.8,1.45361387339316
2.6784257518796992,-7.914595965720754,-5.8,1.4708080685584926
2.686421052631579,-7.905998868138088,-5.8,1.488002263723825
2.694416353383459,-7.819454887218041,-5.71945488721804,1.5402725563909796
2.7024116541353385,-7.776503759398436,-5.964661654135419,1.3823308270677095
2.710406954887218,-7.6164598997493735,-6.191770050125314,1.491770050125313
2.7184022556390977,-7.63422723475355,-6.1828863826232245,1.4828863826232248
2.7263975563909777,-7.651994569757728,-6.174002715121135,1.474002715121136
2.7343928571428573,-7.669761904761905,-6.165119047619047,1.4651190476190474
2.742388157894737,-7.687529239766082,-6.156235380116959,1.456235380116959
2.7503834586466165,-7.705296574770259,-6.147351712614871,1.4473517126148705
2.7583787593984965,-7.723063909774436,-6.1384680451127815,1.4384680451127816
2.766374060150376,-7.740831244778613,-6.129584377610693,1.4295843776106931
2.7743693609022557,-7.75859857978279,-6.120700710108604,1.4207007101086049
2.7823646616541353,-7.776365914786967,-6.111817042606516,1.4118170426065164
2.790359962406015,-7.794133249791144,-6.102933375104428,1.402933375104428
2.798355263157895,-7.9822368421052525,-5.675657894736767,1.4355263157894953
2.8063505639097746,-7.913657126687688,-5.072685746624624,1.6
2.814345864661654,-7.93085132185302,-5.03829735629396,1.6
2.8223411654135337,-7.948045517018353,-5.003908965963294,1.6
2.830336466165414,-7.965239712183686,-4.969520575632628,1.6
2.8383317669172934,-7.9824339073490185,-4.935132185301963,1.6
2.846327067669173,-7.999628102514351,-4.900743794971298,1.6
2.8543223684210526,-8.016822297679683,-4.866355404640633,1.6
2.8623176691729326,-8.034016492845018,-4.831967014309966,1.6
2.870312969924812,-8.051210688010348,-4.797578623979302,1.6
2.878308270676692,-8.068404883175681,-4.763190233648636,1.6
2.8863035714285714,-8.085599078341014,-4.728801843317972,1.6
2.894298872180451,-8.185056390977454,-4.625281954887272,1.8850563909774543
2.902294172932331,-8.203294172932331,-3.993411654135338,2.193411654135338
2.9102894736842106,-8.21128947368421,-3.9774210526315787,2.177421052631579
2.9182847744360902,-8.21928477443609,-3.9614304511278196,2.1614304511278197
2.92628007518797,-8.22728007518797,-3.9454398496240604,2.1454398496240605
2.93427537593985,-8.23527537593985,-3.9294492481203003,2.1294492481203005
2.9422706766917295,-8.24327067669173,-3.913458646616541,2.1134586466165413
2.950265977443609,-8.251265977443609,-3.897468045112782,2.097468045112782
2.9582612781954887,-8.259261278195488,-3.8814774436090227,2.081477443609023
2.9662565789473687,-8.26725657894737,-3.8654868421052626,2.065486842105263
2.9742518796992483,-8.27525187969925,-3.8494962406015034,2.0494962406015036
2.982247180451128,-8.283247180451129,-3.833505639097744,2.0335056390977444
2.9902424812030075,-8.291242481203009,-3.817515037593985,2.017515037593985
2.998237781954887,-8.299237781954888,-3.801524436090226,2.001524436090226
3.006233082706767,-8.286043233082706,-5.241870300751884,2.2860432330827054
3.0142283834586467,-8.236072603383457,-5.391782189849626,2.236072603383458
3.0222236842105263,-8.2,-5.483528265107212,2.1862735542560103
3.030218984962406,-8.2,-5.42430381509329,2.1369198459110748
3.038214285714286,-8.2,-5.365079365079363,2.087566137566136
3.0462095864661656,-8.2,-5.30585491506544,2.0382124292212005
3.054204887218045,-8.2,-5.246630465051517,1.9888587208762645
3.0622001879699248,-8.2,-5.1874060150375945,1.9395050125313287
3.0701954887218044,-8.2,-5.128181565023672,1.8901513041863929
3.0781907894736844,-8.2,-5.068957115009745,1.8407975958414542
3.086186090225564,-8.2,-5.0097326649958225,1.7914438874965184
3.0941813909774436,-8.2,-4.950508214981899,1.7420901791515826
3.102176691729323,-8.258834586466154,-5.076503759398464,1.817669172932309
3.1101719924812032,-8.505110570544007,-4.707665855816011,1.4051105705440072
3.118167293233083,-8.523923042901371,-4.735884564352057,1.4239230429013712
3.1261625939849624,-8.542735515258736,-4.764103272888103,1.442735515258735
3.134157894736842,-8.561547987616098,-4.7923219814241484,1.4615479876160986
3.142153195488722,-8.580360459973463,-4.820540689960195,1.4803604599734634
3.1501484962406017,-8.599172932330827,-4.848759398496241,1.4991729323308274
3.1581437969924813,-8.617985404688191,-4.876978107032286,1.517985404688191
3.166139097744361,-8.636797877045554,-4.905196815568332,1.5367978770455548
3.1741343984962405,-8.655610349402918,-4.933415524104378,1.5556103494029185
3.1821296992481205,-8.674422821760283,-4.961634232640425,1.5744228217602834
3.190125,-8.693235294117647,-4.989852941176471,1.5932352941176473
3.1981203007518797,-8.785338345864664,-4.743984962406009,1.6853383458646636
3.2061156015037593,-8.695245839317394,-4.7,1.7
3.2141109022556393,-8.677278871335641,-4.7,1.7
3.222106203007519,-8.65931190335389,-4.7,1.7
3.2301015037593985,-8.641344935372137,-4.7,1.7
3.238096804511278,-8.623377967390386,-4.7,1.7
3.246092105263158,-8.605410999408633,-4.7,1.7
3.2540874060150378,-8.587444031426882,-4.7,1.7
3.2620827067669174,-8.56947706344513,-4.7,1.7
3.270078007518797,-8.551510095463378,-4.7,1.7
3.2780733082706766,-8.533543127481625,-4.7,1.7
3.2860686090225566,-8.515576159499872,-4.7,1.7
3.294063909774436,-8.196804511278192,-4.896804511278193,2.1
3.302059210526316,-8.196710526315789,-4.7,1.9098684210526318
3.3100545112781954,-8.188113428733123,-4.7,1.9356597138006304
3.3180498120300754,-8.179516331150456,-4.7,1.9614510065486306
3.326045112781955,-8.17091923356779,-4.7,1.9872422992966294
3.3340404135338346,-8.162322135985123,-4.7,2.013033592044628
3.342035714285714,-8.153725038402458,-4.7,2.0388248847926267
3.3500310150375943,-8.14512794081979,-4.7,2.064616177540627
3.358026315789474,-8.136530843237125,-4.7,2.0904074702886257
3.3660216165413535,-8.127933745654458,-4.7,2.1161987630366244
3.374016917293233,-8.119336648071792,-4.7,2.141990055784623
3.3820122180451127,-8.110739550489125,-4.7,2.167781348532622
3.3900075187969927,-8.10214245290646,-4.7,2.193572641280622
3.3980028195488723,-7.59971804511276,-4.038374783111618,3.0005639097744794
3.405998120300752,-6.800187969924794,-3.792365529207629,4.599624060150411
3.4139934210526315,-6.70249177631579,-4.022425986842105,6.20249177631579
3.4219887218045115,-6.71248590225564,-4.112373120300756,6.21248590225564
3.429984022556391,-6.7224800281954895,-4.202320253759401,6.2224800281954895
3.4379793233082707,-6.732474154135338,-4.292267387218047,6.232474154135338
3.4459746240601503,-6.742468280075188,-4.382214520676691,6.242468280075188
3.4539699248120304,-6.752462406015038,-4.472161654135342,6.252462406015038
3.46196522556391,-6.7624565319548875,-4.562108787593988,6.2624565319548875
3.4699605263157896,-6.772450657894737,-4.652055921052633,6.272450657894737
3.477955827067669,-6.7824447838345865,-4.742003054511279,6.2824447838345865
3.4859511278195487,-6.792438909774436,-4.831950187969924,6.292438909774436
3.493946428571429,-6.897321428571429,-5.775892857142859,5.716071428571428
3.5019417293233084,-10.194642857142968,-7.05338345864671,1.7456766917290296
3.509937030075188,-10.9817563571851,-7.915588831629636,-0.9077944158148179
3.5179323308270676,-10.730218805440574,-7.933555799611388,-0.9167778998056938
3.5259276315789476,-10.478681253696033,-7.951522767593141,-0.9257613837965702
3.533922932330827,-10.227143701951507,-7.969489735574893,-0.9347448677874463
3.541918233082707,-9.97560615020698,-7.987456703556644,-0.9437283517783221
3.5499135338345864,-9.724068598462452,-8.005423671538397,-0.9527118357691982
3.5579088345864665,-9.472531046717911,-8.02339063952015,-0.9616953197600746
3.565904135338346,-9.220993494973385,-8.0413576075019,-0.9706788037509505
3.5738994360902256,-8.969455943228859,-8.059324575483652,-0.9796622877418265
3.5818947368421052,-8.717918391484332,-8.077291543465405,-0.9886457717327024
3.589890037593985,-8.466380839739806,-8.095258511447156,-0.9976292557235784
3.597885338345865,-5.341071428571566,-9.312781954886697,-2.201597744360837
3.6058806390977445,-6.2316439369700865,-5.043805991041436,-1.5096844504879239
3.613875939849624,-6.036014237721969,-4.746108622620387,-1.288537833946573
3.6218712406015037,-5.840384538473851,-4.448411254199337,-1.067391217405222
3.6298665413533837,-5.644754839225722,-4.150713885778272,-0.846244600863859
3.6378618421052633,-5.449125139977603,-3.853016517357222,-0.6250979843225082
3.645857142857143,-5.253495440729485,-3.555319148936173,-0.40395136778115726
3.6538524436090225,-5.057865741481367,-3.257621780515124,-0.18280475123980633
3.6618477443609025,-4.8622360422332385,-2.959924412094058,0.03834186530155681
3.669843045112782,-4.66660634298512,-2.662227043673009,0.25948848184290774
3.6778383458646617,-4.470976643737002,-2.3645296752519593,0.48063509838425866
3.6858336466165413,-4.275346944488884,-2.0668323068309102,0.7017817149256096
3.693828947368421,-3.3539473684211316,-1.634210526315807,2.723684210526123
3.701824248120301,-6.852681636155611,-2.054664514547242,6.121811662307944
3.7098195488721806,-7.521853546910754,-2.732526969597906,6.2174076495586785
3.71781484962406,-8.191025457665896,-3.41038942464857,6.313003636809413
3.7258101503759398,-8.860197368421039,-4.088251879699234,6.408599624060148
3.73380545112782,-9.529369279176219,-4.766114334749936,6.504195611310888
3.7418007518796994,-10.198541189931362,-5.4439767898006,6.599791598561623
3.749796052631579,-10.867713100686505,-6.121839244851264,6.695387585812358
3.7577913533834586,-11.536885011441647,-6.799701699901929,6.790983573063093
3.7657866541353386,-12.206056922196828,-7.4775641549526295,6.886579560313833
3.7737819548872182,-12.87522883295197,-8.155426610003294,6.982175547564568
3.781777255639098,-13.544400743707113,-8.833289065053958,7.077771534815302
3.7897725563909774,-14.213572654462258,-9.511151520104622,7.1733675220660365
3.797767857142857,-4.4276785714286575,6.122916666666795,28.550595238095454
3.805763157894737,-0.03026315789464018,-0.4065789473685655,17.623684210526072
3.8137584586466167,-5.090833027691179,-2.5770825692279473,3.50833027691179
3.8217537593984963,-5.071332294150009,-2.528330735375023,3.313322941500092
3.829749060150376,-5.051831560608839,-2.479578901522099,3.118315606088394
3.837744360902256,-5.0323308270676685,-2.4308270676691714,2.9233082706766855
3.8457396616541355,-5.012830093526499,-2.3820752338162468,2.7283009352649876
3.853734962406015,-4.993329359985329,-2.3333233999633225,2.53329359985329
3.8617302631578947,-4.973828626444159,-2.2845715661103982,2.3382862644415923
3.8697255639097747,-4.954327892902988,-2.235819732257471,2.1432789290298833
3.8777208646616543,-4.934827159361819,-2.1870678984045466,1.9482715936181856
3.885716165413534,-4.915326425820649,-2.138316064551622,1.7532642582064877
3.8937114661654135,-4.557706766917314,-1.0731203007519416,1.6
3.901706766917293,-9.09473684210517,-3.3928571428571113,6.472556390977369
3.909702067669173,-9.307201993748395,-3.459026780434224,8.005754202923063
3.9176973684210528,-8.480721466587806,-3.1715552927261936,8.96698698994679
3.9256926691729324,-7.654240939427218,-2.884083805018163,9.928219776970518
3.933687969924812,-6.827760412266631,-2.5966123173101323,10.889452563994244
3.941683270676692,-6.001279885105998,-2.309140829602086,11.850685351018026
3.9496785714285716,-5.1747993579454095,-2.0216693418940554,12.81191813804175
3.957673872180451,-4.348318830784821,-1.7341978541860248,13.77315092506548
3.965669172932331,-3.521838303624233,-1.4467263664779941,14.734383712089206
3.973664473684211,-2.6953577764635996,-1.1592548787699477,15.695616499112987
3.9816597744360904,-1.8688772493030115,-0.8717833910619168,16.656849286136715
3.98965507518797,-1.0423967221424242,-0.5843119033538864,17.61808207316044
3.9976503759398496,-5.231353383458513,1.877894736842145,11.419548872180622
4.00564567669173,-2.0081015037594,-3.4865789473684035,5.121522556390996
4.013640977443609,-2.025868838763577,-3.237836257309927,5.38803258145365
4.021636278195489,-2.0436361737677537,-2.9890935672514503,5.654542606516303
4.0296315789473685,-2.0614035087719307,-2.7403508771929737,5.921052631578958
4.037626879699248,-2.0791708437761076,-2.4916081871344966,6.187562656641611
4.045622180451128,-2.0969381787802845,-2.24286549707602,6.454072681704265
4.053617481203007,-2.1147055137844615,-1.9941228070175432,6.720582706766918
4.061612781954888,-2.13247284878864,-1.7453801169590388,6.987092731829602
4.069608082706767,-2.150240183792817,-1.4966374269005622,7.2536027568922545
4.077603383458647,-2.168007518796994,-1.2478947368420856,7.520112781954909
4.0855986842105265,-2.185774853801171,-0.9991520467836086,7.7866228070175625
4.093593984962406,-2.9969924812029745,-2.2345864661653536,9.354887218045056
4.101589285714286,-4.094431643625192,-0.9167050691244227,9.266589861751156
4.109584586466165,-4.07723744845986,-0.9682876546204201,9.163424690759161
4.117579887218045,-4.060043253294527,-1.0198702401164175,9.060259519767165
4.1255751879699245,-4.042849058129195,-1.071452825612415,8.95709434877517
4.133570488721805,-4.025654862963861,-1.1230354111084182,8.853929177783165
4.141565789473685,-4.008460667798528,-1.1746179966044155,8.750764006791169
4.149561090225564,-3.9912664726331957,-1.226200582100413,8.647598835799174
4.157556390977444,-3.974072277467863,-1.2777831675964104,8.54443366480718
4.165551691729323,-3.9568780823025307,-1.3293657530924077,8.441268493815185
4.173546992481203,-3.939683887137198,-1.3809483385884052,8.338103322823189
4.181542293233083,-3.9224896919718657,-1.4325309240844026,8.234938151831194
4.189537593984962,-3.9052954968065334,-1.4841135095804,8.1317729808392
4.197532894736842,-4.1472039473684035,-1.6294407894736807,7.558881578947362
4.205528195488722,-4.480341478696745,-1.696068295739349,7.692136591478698
4.213523496240602,-6.675076580339738,-1.7875382901698689,7.712461709830132
4.2215187969924814,-6.59611064698784,-1.74805532349392,7.75194467650608
4.229514097744361,-6.517144713635942,-1.7085723568179711,7.791427643182029
4.237509398496241,-6.438178780284044,-1.6690893901420223,7.830910609857978
4.24550469924812,-6.359212846932147,-1.6296064234660734,7.870393576533926
4.2535,-6.28024691358025,-1.5901234567901246,7.909876543209875
4.261495300751879,-6.2012809802283515,-1.5506404901141755,7.9493595098858245
4.26949060150376,-6.122315046876445,-1.5111575234382224,7.988842476561778
4.2774859022556395,-6.043349113524547,-1.4716745567622735,8.028325443237726
4.285481203007519,-5.96438318017265,-1.4321915900863247,8.067808409913676
4.293476503759399,-5.530874060150236,-1.2523496240600942,8.026174812030048
4.301471804511278,-5.0,-1.0005073166787937,8.499492683321206
4.309467105263158,-5.0,-1.00910441426146,8.49089558573854
4.3174624060150375,-5.0,-1.0177015118441262,8.482298488155873
4.325457706766917,-5.0,-1.0262986094267925,8.473701390573208
4.333453007518797,-5.0,-1.0348957070094587,8.465104292990542
4.341448308270677,-5.0,-1.043492804592126,8.456507195407875
4.349443609022557,-5.0,-1.052089902174792,8.447910097825208
4.357438909774436,-5.0,-1.0606869997574584,8.439313000242542
4.365434210526316,-5.0,-1.0692840973401245,8.430715902659875
4.373429511278196,-5.0,-1.0778811949227909,8.42211880507721
4.381424812030075,-5.0,-1.086478292505457,8.413521707494544
4.389420112781955,-5.0,-1.0950753900881234,8.404924609911877
4.397415413533834,-4.7,-1.4123120300751912,8.57077067669173
4.405410714285714,-4.9004720853858785,-2.200472085385878,8.099527914614121
4.413406015037594,-4.909662086250108,-2.2096620862501086,8.090337913749892
4.421401315789474,-4.918852087114338,-2.218852087114338,8.081147912885662
4.429396616541354,-4.928042087978567,-2.2280420879785674,8.071957912021432
4.437391917293233,-4.937232088842797,-2.237232088842797,8.062767911157204
4.445387218045113,-4.946422089707026,-2.246422089707026,8.053577910292974
4.453382518796992,-4.955612090571256,-2.2556120905712556,8.044387909428744
4.461377819548872,-4.964802091435486,-2.264802091435485,8.035197908564514
4.469373120300752,-4.9739920922997145,-2.2739920922997143,8.026007907700285
4.477368421052632,-4.983182093163945,-2.2831820931639446,8.016817906836055
4.485363721804512,-4.992372094028174,-2.292372094028174,8.007627905971825
4.493359022556391,-5.0,-2.3226503759398542,8.0
4.501354323308271,-4.88228383458647,-2.1645676691729396,8.21771616541353
4.5093496240601505,-4.8,-2.0,8.3
4.51734492481203,-4.8,-2.0,8.3
4.52534022556391,-4.8,-2.0,8.3
4.533335526315789,-4.8,-2.0,8.3
4.541330827067669,-4.8,-2.0,8.3
4.549326127819549,-4.8,-2.0,8.3
4.557321428571429,-4.8,-2.0,8.3
4.565316729323309,-4.8,-2.0,8.3
4.573312030075188,-4.8,-2.0,8.3
4.581307330827068,-4.8,-2.0,8.3
4.589302631578947,-4.8,-2.0,8.3
4.597297932330827,-4.8,-2.044149436090226,8.255850563909775
4.6052932330827065,-4.8,-2.22932330827066,8.2
4.613288533834586,-4.872885338345864,-2.3,8.2
4.621283834586467,-5.0,-2.191003192913791,8.2
4.629279135338346,-5.0,-2.1690982593469976,8.2
4.637274436090226,-5.0,-2.147193325780204,8.2
4.645269736842105,-5.0,-2.1252883922134105,8.2
4.653265037593985,-5.0,-2.1033834586466167,8.2
4.661260338345865,-5.0,-2.0814785250798233,8.2
4.669255639097744,-5.0,-2.0595735915130295,8.2
4.677250939849624,-5.0,-2.037668657946236,8.2
4.685246240601504,-5.0,-2.0157637243794397,8.2
4.693241541353384,-5.0,-2.0,8.2
4.7012368421052635,-4.9,-2.1,8.2
4.709232142857143,-4.9,-2.092306231003039,8.20769376899696
4.717227443609023,-4.9,-2.083800591905295,8.216199408094704
4.725222744360902,-4.9,-2.075294952807551,8.22470504719245
4.733218045112782,-4.9,-2.0667893137098066,8.233210686290192
4.7412133458646615,-4.9,-2.0582836746120625,8.241716325387937
4.749208646616541,-4.9,-2.049778035514318,8.250221964485682
4.757203947368422,-4.9,-2.041272396416573,8.258727603583427
4.765199248120301,-4.9,-2.0327667573188286,8.267233242681172
4.773194548872181,-4.9,-2.0242611182210846,8.275738881778915
4.78118984962406,-4.9,-2.01575547912334,8.28424452087666
4.78918515037594,-4.9,-2.007249840025596,8.292750159974405
4.7971804511278195,-4.9,-1.9409774436090292,8.3
4.805175751879699,-4.9,-2.1,8.2
4.813171052631579,-4.9,-2.1,8.2
4.821166353383458,-4.9,-2.1,8.2
4.829161654135339,-4.9,-2.1,8.2
4.837156954887218,-4.9,-2.1,8.2
4.845152255639098,-4.9,-2.1,8.2
4.853147556390978,-4.9,-2.1,8.2
4.861142857142857,-4.9,-2.1,8.2
4.869138157894737,-4.9,-2.1,8.2
4.877133458646616,-4.9,-2.1,8.2
4.885128759398496,-4.9,-2.1,8.2
4.8931240601503765,-4.9,-2.1,8.2
4.901119360902256,-4.998783303367113,-2.201216696632887,8.2
4.909114661654136,-4.990092759071592,-2.209907240928408,8.2
4.917109962406015,-4.981402214776071,-2.2185977852239294,8.2
4.925105263157895,-4.97271167048055,-2.2272883295194505,8.2
4.9331005639097745,-4.964021126185028,-2.235978873814972,8.2
4.941095864661654,-4.955330581889507,-2.2446694181104934,8.2
4.949091165413534,-4.946640037593985,-2.2533599624060145,8.2
4.957086466165413,-4.937949493298464,-2.262050506701536,8.2
4.965081766917294,-4.929258949002942,-2.2707410509970583,8.2
4.973077067669173,-4.920568404707421,-2.2794315952925794,8.2
4.981072368421053,-4.9118778604118996,-2.2881221395881006,8.2
4.9890676691729325,-4.903187316116378,-2.2968126838836223,8.2
4.997062969924812,-4.9,-2.2,8.2
5.005058270676692,-4.9,-2.2,8.2
5.013053571428571,-4.9,-2.2,8.2
5.021048872180451,-4.9,-2.2,8.2
5.0290441729323305,-4.9,-2.2,8.2
5.037039473684211,-4.9,-2.2,8.2
5.045034774436091,-4.9,-2.2,8.2
5.05303007518797,-4.9,-2.2,8.2
5.06102537593985,-4.9,-2.2,8.2
5.069020676691729,-4.9,-2.2,8.2
5.077015977443609,-4.9,-2.2,8.2
5.085011278195489,-4.9,-2.2,8.2
5.093006578947368,-4.9,-2.1496710526315894,8.2
5.101001879699249,-4.9,-2.1,8.202152558816396
5.108997180451128,-4.9,-2.1,8.210749656399061
5.116992481203008,-4.9,-2.1,8.219346753981728
5.1249877819548875,-4.9,-2.1,8.227943851564394
5.132983082706767,-4.9,-2.1,8.236540949147061
5.140978383458647,-4.9,-2.1,8.245138046729727
5.148973684210526,-4.9,-2.1,8.253735144312394
5.156968984962406,-4.9,-2.1,8.26233224189506
5.1649642857142855,-4.9,-2.1,8.270929339477727
5.172959586466166,-4.9,-2.1,8.279526437060394
5.1809548872180455,-4.9,-2.1,8.28812353464306
5.188950187969925,-4.9,-2.1,8.296720632225727
5.196945488721805,-4.8,-2.2972744360902326,8.2
5.204940789473684,-4.9063879456706285,-2.1872241086587434,8.206387945670627
5.212936090225564,-4.914985043253295,-2.1700299134934107,8.214985043253295
5.2209313909774435,-4.923582140835961,-2.1528357183280784,8.22358214083596
5.228926691729323,-4.932179238418628,-2.1356415231627457,8.232179238418627
5.236921992481203,-4.940776336001294,-2.1184473279974134,8.240776336001293
5.244917293233083,-4.949373433583961,-2.101253132832079,8.24937343358396
5.252912593984963,-4.957970531166627,-2.084058937666746,8.257970531166627
5.260907894736842,-4.966567628749293,-2.066864742501414,8.266567628749293
5.268903195488722,-4.975164726331959,-2.0496705473360812,8.27516472633196
5.276898496240602,-4.983761823914626,-2.032476352170749,8.283761823914626
5.284893796992481,-4.992358921497292,-2.0152821570054162,8.292358921497293
5.292889097744361,-4.955545112781947,-1.9110902255638935,8.3
5.30088439849624,-4.9,-1.932369987468671,8.2
5.308879699248121,-4.9,-1.9989974937343393,8.2
5.3168750000000005,-4.9,-2.009487951807229,8.2
5.32487030075188,-4.9,-2.0191208442793736,8.2
5.33286560150376,-4.9,-2.0287537367515176,8.2
5.340860902255639,-4.9,-2.0383866292236617,8.2
5.348856203007519,-4.9,-2.0480195216958057,8.2
5.3568515037593984,-4.9,-2.0576524141679498,8.2
5.364846804511278,-4.9,-2.067285306640094,8.2
5.372842105263158,-4.9,-2.076918199112238,8.2
5.380837406015038,-4.9,-2.086551091584383,8.2
5.388832706766918,-4.9,-2.096183984056527,8.2
5.396828007518797,-4.9,-2.0,8.291400375939858
5.404823308270677,-4.9,-2.0,8.2
5.4128186090225565,-4.9,-2.0,8.2
5.420813909774436,-4.9,-2.0,8.2
5.428809210526316,-4.9,-2.0,8.2
5.436804511278195,-4.9,-2.0,8.2
5.444799812030075,-4.9,-2.0,8.2
5.452795112781955,-4.9,-2.0,8.2
5.460790413533835,-4.9,-2.0,8.2
5.468785714285715,-4.9,-2.0,8.2
5.476781015037594,-4.9,-2.0,8.2
5.484776315789474,-4.9,-2.0,8.2
5.492771616541353,-4.9,-2.011023093447906,8.2
5.500766917293233,-4.9,-2.011654135338364,8.288345864661636
5.508762218045113,-4.9,-2.0,8.206474402297879
5.516757518796993,-4.9,-2.0,8.215457886288755
5.524752819548873,-4.9,-2.0,8.224441370279632
5.532748120300752,-4.9,-2.0,8.233424854270508
5.540743421052632,-4.9,-2.0,8.242408338261384
5.548738721804511,-4.9,-2.0,8.25139182225226
5.556734022556391,-4.9,-2.0,8.260375306243136
5.564729323308271,-4.9,-2.0,8.269358790234012
5.57272462406015,-4.9,-2.0,8.278342274224888
5.58071992481203,-4.9,-2.0,8.287325758215765
5.58871522556391,-4.9,-2.0,8.296309242206641
5.59671052631579,-4.9,-2.0,8.2
5.6047058270676695,-4.9,-2.0,8.201916659626594
5.612701127819549,-4.9,-2.0,8.21090014361747
5.620696428571429,-4.9,-2.0,8.219883627608347
5.628691729323308,-4.9,-2.0,8.228867111599223
5.636687030075188,-4.9,-2.0,8.237850595590098
5.6446823308270675,-4.9,-2.0,8.246834079580974
5.652677631578947,-4.9,-2.0,8.255817563571851
5.660672932330828,-4.9,-2.0,8.264801047562727
5.668668233082707,-4.9,-2.0,8.273784531553604
5.676663533834587,-4.9,-2.0,8.28276801554448
5.684658834586466,-4.9,-2.0,8.291751499535357
5.692654135338346,-4.9,-2.0,8.3
5.700649436090226,-4.9,-2.0,8.3
5.708644736842105,-4.9,-2.0,8.236293859649123
5.716640037593985,-4.9,-2.0,8.20460764252403
5.724635338345865,-4.9,-2.0,8.21472827638717
5.732630639097745,-4.9,-2.0,8.22484891025031
5.740625939849624,-4.9,-2.0,8.234969544113449
5.748621240601504,-4.9,-2.0,8.245090177976587
5.756616541353384,-4.9,-2.0,8.255210811839726
5.764611842105263,-4.9,-2.0,8.265331445702865
5.772607142857143,-4.9,-2.0,8.275452079566005
5.780602443609022,-4.9,-2.0,8.285572713429143
5.788597744360902,-4.9,-2.0,8.295693347292282
5.7965930451127825,-4.9,-2.0,8.208472073039745
5.804588345864662,-4.9,-2.0,8.220582706766882
5.812583646616542,-4.9,-2.0,8.2
5.820578947368421,-4.9,-2.0,8.2
5.828574248120301,-4.9,-2.0,8.2
5.8365695488721805,-4.9,-2.0,8.2
5.84456484962406,-4.9,-2.0,8.2
5.85256015037594,-4.9,-2.0,8.2
5.860555451127819,-4.9,-2.0,8.2
5.8685507518797,-4.9,-2.0,8.2
5.876546052631579,-4.9,-2.0,8.2
5.884541353383459,-4.9,-2.0,8.2
5.892536654135339,-4.9,-2.0,8.2
5.900531954887218,-4.9,-2.0,8.2
5.908527255639098,-4.9,-2.0,8.2
5.916522556390977,-4.9,-2.0,8.2
5.924517857142857,-4.9,-2.0,8.2
5.932513157894737,-4.9,-2.0,8.2
5.940508458646617,-4.9,-2.0,8.2
5.948503759398497,-4.9,-2.0,8.2
5.956499060150376,-4.9,-2.0,8.2
5.964494360902256,-4.9,-2.0,8.2
5.972489661654135,-4.9,-2.0,8.2
5.980484962406015,-4.9,-2.0,8.2
5.988480263157895,-4.9,-2.0,8.2
5.996475563909774,-4.826221804511286,-2.0,8.2
6.004470864661655,-4.9,-2.0,8.206883898576228
6.012466165413534,-4.9,-2.0,8.215389537673971
6.020461466165414,-4.9,-2.0,8.223895176771716
6.0284567669172935,-4.9,-2.0,8.232400815869461
6.036452067669173,-4.9,-2.0,8.240906454967206
6.044447368421053,-4.9,-2.0,8.24941209406495
6.052442669172932,-4.9,-2.0,8.257917733162694
6.060437969924812,-4.9,-2.0,8.266423372260439
6.0684332706766915,-4.9,-2.0,8.274929011358182
6.076428571428572,-4.9,-2.0,8.283434650455929
6.0844238721804516,-4.9,-2.0,8.291940289553672
6.092419172932331,-4.9,-2.0,8.3
6.100414473684211,-4.9,-2.05487938596491,8.25487938596491
6.10840977443609,-4.9,-2.0,8.2
6.11640507518797,-4.9,-2.0,8.2
6.1244003759398495,-4.9,-2.0,8.2
6.132395676691729,-4.9,-2.0,8.2
6.140390977443609,-4.9,-2.0,8.2
6.148386278195489,-4.9,-2.0,8.2
6.156381578947369,-4.9,-2.0,8.2
6.164376879699248,-4.9,-2.0,8.2
6.172372180451128,-4.9,-2.0,8.2
6.180367481203008,-4.9,-2.0,8.2
6.188362781954887,-4.9,-2.0,8.2
6.196358082706767,-4.9,-2.1,8.2
6.204353383458646,-4.9,-2.0,8.2
6.212348684210527,-4.9,-2.0,8.2
6.2203439849624065,-4.9,-2.0,8.2
6.228339285714286,-4.9,-2.0,8.2
6.236334586466166,-4.9,-2.0,8.2
6.244329887218045,-4.9,-2.0,8.2
6.252325187969925,-4.9,-2.0,8.2
6.2603204887218045,-4.9,-2.0,8.2
6.268315789473684,-4.9,-2.0,8.2
6.276311090225564,-4.9,-2.0,8.2
6.284306390977444,-4.9,-2.0,8.2
6.292301691729324,-4.9,-2.0,8.2
6.300296992481203,-4.9,-2.0,8.2
6.308292293233083,-4.9,-2.0,8.2
6.3162875939849625,-4.9,-2.0,8.2
6.324282894736842,-4.9,-2.0,8.2
6.332278195488722,-4.9,-2.0,8.2
6.340273496240601,-4.9,-2.0,8.2
6.348268796992481,-4.9,-2.0,8.2
6.356264097744361,-4.9,-2.0,8.2
6.364259398496241,-4.9,-2.0,8.2
6.372254699248121,-4.9,-2.0,8.2
6.38025,-4.9,-2.0,8.2
6.38824530075188,-4.9,-2.0,8.2
6.396240601503759,-4.9,-2.0,8.26203007518797
6.404235902255639,-4.9,-2.0963228383458645,8.2
6.412231203007519,-4.9,-2.0872372693096377,8.2
6.420226503759399,-4.9,-2.07815170027341,8.2
6.428221804511279,-4.9,-2.069066131237183,8.2
6.436217105263158,-4.9,-2.0599805622009564,8.2
6.444212406015038,-4.9,-2.0508949931647296,8.2
6.4522077067669175,-4.9,-2.0418094241285027,8.2
6.460203007518797,-4.9,-2.032723855092276,8.2
6.468198308270677,-4.9,-2.023638286056049,8.2
6.476193609022556,-4.9,-2.0145527170198223,8.2
6.484188909774436,-4.9,-2.0054671479835955,8.2
6.492184210526316,-4.9,-2.0,8.2
6.500179511278196,-4.9,-2.0,8.2
6.5081748120300755,-4.9,-2.0,8.203691641895436
6.516170112781955,-4.9,-2.0,8.21298850323483
6.524165413533835,-4.9,-2.0,8.222285364574226
6.532160714285714,-4.9,-2.0,8.231582225913622
6.540156015037594,-4.9,-2.0,8.240879087253017
6.5481513157894735,-4.9,-2.0,8.25017594859241
6.556146616541353,-4.9,-2.0,8.259472809931806
6.564141917293234,-4.9,-2.0,8.268769671271203
6.572137218045113,-4.9,-2.0,8.278066532610596
6.580132518796993,-4.9,-2.0,8.287363393949992
6.588127819548872,-4.9,-2.0,8.296660255289387
6.596123120300752,-4.9,-2.0,8.237537593984959
6.604118421052632,-4.9,-2.0,8.3
6.612113721804511,-4.9,-2.0,8.3
6.620109022556391,-4.9,-2.0,8.3
6.628104323308271,-4.9,-2.0,8.3
6.636099624060151,-4.9,-2.0,8.3
6.6440949248120305,-4.9,-2.0,8.3
6.65209022556391,-4.9,-2.0,8.3
6.66008552631579,-4.9,-2.0,8.3
6.668080827067669,-4.9,-2.0,8.3
6.676076127819549,-4.9,-2.0,8.3
6.684071428571428,-4.9,-2.0,8.3
6.692066729323308,-4.9,-2.0,8.299046723952745
6.7000620300751885,-4.9,-2.05310150375944,8.2
6.708057330827068,-4.9,-2.0046106032125777,8.2
6.716052631578948,-4.9,-2.0136961722488045,8.2
6.724047932330827,-4.9,-2.0227817412850313,8.2
6.732043233082707,-4.9,-2.031867310321258,8.2
6.7400385338345865,-4.9,-2.040952879357485,8.2
6.748033834586466,-4.9,-2.0500384483937117,8.2
6.756029135338346,-4.9,-2.0591240174299386,8.2
6.764024436090225,-4.9,-2.0682095864661654,8.2
6.772019736842106,-4.9,-2.077295155502393,8.2
6.780015037593985,-4.9,-2.08638072453862,8.2
6.788010338345865,-4.9,-2.0954662935748467,8.2
6.796005639097745,-4.9,-2.1,8.2
6.804000939849624,-4.9,-2.0,8.205377354677013
6.811996240601504,-4.9,-2.0,8.21397445225968
6.819991541353383,-4.9,-2.0,8.222571549842346
6.827986842105263,-4.9,-2.0,8.231168647425013
6.8359821428571435,-4.9,-2.0,8.23976574500768
6.843977443609023,-4.9,-2.0,8.248362842590346
6.851972744360903,-4.9,-2.0,8.256959940173013
6.859968045112782,-4.9,-2.0,8.265557037755679
6.867963345864662,-4.9,-2.0,8.274154135338346
6.875958646616541,-4.9,-2.0,8.282751232921012
6.883953947368421,-4.9,-2.0,8.291348330503679
6.891949248120301,-4.9,-2.0,8.299945428086344
6.89994454887218,-4.9,-2.0,8.258186584883262
6.907939849624061,-4.9,-2.0,8.216106054610204
6.91593515037594,-4.9,-2.0,8.2
6.92393045112782,-4.9,-2.0,8.2
6.9319257518796995,-4.9,-2.0,8.2
6.939921052631579,-4.9,-2.0,8.2
6.947916353383459,-4.9,-2.0,8.2
6.955911654135338,-4.9,-2.0,8.2
6.963906954887218,-4.9,-2.0,8.2
6.9719022556390975,-4.9,-2.0,8.2
6.979897556390978,-4.9,-2.0,8.2
6.987892857142858,-4.9,-2.0,8.2
6.995888157894737,-4.9,-2.003728070175442,8.2
7.003883458646617,-4.9,-2.0,8.2
7.011878759398496,-4.9,-2.0,8.2
7.019874060150376,-4.9,-2.0,8.2
7.027869360902256,-4.9,-2.0,8.2
7.035864661654135,-4.9,-2.0,8.2
7.043859962406016,-4.9,-2.0,8.2
7.051855263157895,-4.9,-2.0,8.2
7.059850563909775,-4.9,-2.0,8.2
7.067845864661654,-4.9,-2.0,8.2
7.075841165413534,-4.9,-2.0,8.2
7.083836466165414,-4.9,-2.0,8.2
7.091831766917293,-4.9,-2.0,8.2
7.099827067669173,-4.9,-2.0,8.2
7.107822368421052,-4.9,-2.0,8.2
7.115817669172933,-4.9,-2.0,8.2
7.1238129699248125,-4.9,-2.0,8.2
7.131808270676692,-4.9,-2.0,8.2
7.139803571428572,-4.9,-2.0,8.2
7.147798872180451,-4.9,-2.0,8.2
7.155794172932331,-4.9,-2.0,8.2
7.1637894736842105,-4.9,-2.0,8.2
7.17178477443609,-4.9,-2.0,8.2
7.17978007518797,-4.9,-2.0,8.2
7.18777537593985,-4.9,-2.0,8.2
7.19577067669173,-4.988533834586501,-2.0114661654134998,8.2
7.203765977443609,-4.9,-2.1,8.2
7.211761278195489,-4.9,-2.1,8.2
7.2197565789473686,-4.9050764580369846,-2.1,8.2
7.227751879699248,-4.915880918512498,-2.1,8.2
7.235747180451128,-4.926685378988011,-2.1,8.2
7.243742481203007,-4.937489839463524,-2.1,8.2
7.251737781954888,-4.948294299939038,-2.1,8.2
7.259733082706767,-4.959098760414551,-2.1,8.2
7.267728383458647,-4.969903220890064,-2.1,8.2
7.275723684210527,-4.980707681365576,-2.1,8.2
7.283718984962406,-4.991512141841089,-2.1,8.2
7.291714285714286,-4.9,-2.0,8.3
7.299709586466165,-4.9,-1.9932226399331665,8.3
7.307704887218045,-4.9,-1.9851465785676314,8.3
7.315700187969925,-4.9,-1.9770705172020966,8.3
7.323695488721805,-4.9,-1.9689944558365606,8.3
7.331690789473685,-4.9,-1.9609183944710258,8.3
7.339686090225564,-4.9,-1.9528423331054907,8.3
7.347681390977444,-4.9,-1.9447662717399559,8.3
7.3556766917293235,-4.9,-1.936690210374421,8.3
7.363671992481203,-4.9,-1.928614149008886,8.3
7.371667293233083,-4.9,-1.920538087643351,8.3
7.379662593984962,-4.9,-1.912462026277816,8.3
7.387657894736842,-4.9,-1.9043859649122812,8.3
7.395653195488722,-4.9826597744361205,-1.9826597744361203,8.217340225563879
7.403648496240602,-4.9,-2.0,8.3
7.4116437969924815,-4.9,-2.0,8.3
7.419639097744361,-4.9,-2.0,8.3
7.427634398496241,-4.9,-2.0,8.3
7.43562969924812,-4.9,-2.0,8.3
7.443625,-4.9,-2.0,8.3
7.4516203007518795,-4.9,-2.0,8.3
7.45961560150376,-4.9,-2.0,8.3
7.46761090225564,-4.9,-2.0,8.3
7.475606203007519,-4.9,-2.0,8.3
7.483601503759399,-4.9,-2.0,8.3
7.491596804511278,-4.929840225563928,-2.0,8.270159774436072
7.499592105263158,-4.820394736842102,-1.979605263157898,8.3
7.507587406015038,-4.8062779842865595,-2.2,8.2
7.515582706766917,-4.815261468277435,-2.2,8.2
7.523578007518797,-4.8242449522683115,-2.2,8.2
7.531573308270677,-4.833228436259188,-2.2,8.2
7.539568609022557,-4.842211920250064,-2.2,8.2
7.5475639097744365,-4.85119540424094,-2.2,8.2
7.555559210526316,-4.8601788882318155,-2.2,8.2
7.563554511278196,-4.869162372222692,-2.2,8.2
7.571549812030075,-4.8781458562135676,-2.2,8.2
7.579545112781955,-4.887129340204444,-2.2,8.2
7.5875404135338345,-4.89611282419532,-2.2,8.2
7.595535714285714,-4.9,-2.0,8.3
7.6035310150375945,-4.9017202416152745,-1.9017202416152743,8.198279758384725
7.611526315789474,-4.910703725606151,-1.9107037256061503,8.189296274393849
7.619521616541354,-4.9196872095970265,-1.9196872095970263,8.180312790402972
7.627516917293233,-4.928670693587903,-1.9286706935879023,8.171329306412098
7.635512218045113,-4.937654177578779,-1.9376541775787783,8.162345822421221
7.6435075187969925,-4.946637661569655,-1.9466376615696543,8.153362338430345
7.651502819548872,-4.955621145560531,-1.9556211455605303,8.144378854439468
7.659498120300752,-4.964604629551406,-1.9646046295514064,8.135395370448594
7.667493421052632,-4.9735881135422835,-1.9735881135422835,8.126411886457715
7.675488721804512,-4.98257159753316,-1.9825715975331595,8.11742840246684
7.683484022556391,-4.9915550815240355,-1.9915550815240355,8.108444918475964
7.691479323308271,-5.0,-1.9760338345864392,8.1
7.699474624060151,-4.898414382731022,-1.9,8.30158561726898
7.70746992481203,-4.8898172851483555,-1.9,8.310182714851646
7.71546522556391,-4.881220187565689,-1.9,8.318779812434311
7.723460526315789,-4.872623089983023,-1.9,8.327376910016978
7.731455827067669,-4.864025992400356,-1.9,8.335974007599644
7.7394511278195495,-4.855428894817689,-1.9,8.344571105182311
7.747446428571429,-4.846831797235023,-1.9,8.353168202764978
7.755441729323309,-4.838234699652356,-1.9,8.361765300347644
7.763437030075188,-4.82963760206969,-1.9,8.37036239793031
7.771432330827068,-4.821040504487024,-1.9,8.378959495512976
7.7794276315789475,-4.812443406904358,-1.9,8.387556593095642
7.787422932330827,-4.803846309321692,-1.9,8.39615369067831
7.795418233082707,-4.8,-1.9,8.344772086466172
7.803413533834586,-4.929323308270692,-2.0,8.229323308270692
7.811408834586467,-4.9,-2.0,8.2
7.819404135338346,-4.9,-2.0,8.2
7.827399436090226,-4.9,-2.0,8.2
7.8353947368421055,-4.9,-2.0,8.2
7.843390037593985,-4.9,-2.0,8.2
7.851385338345865,-4.9,-2.0,8.2
7.859380639097744,-4.9,-2.0,8.2
7.867375939849624,-4.9,-2.0,8.2
7.875371240601504,-4.9,-2.0,8.2
7.883366541353384,-4.9,-2.0,8.2
7.891361842105264,-4.9,-2.0,8.2
7.899357142857143,-4.9,-2.0,8.2
7.907352443609023,-4.9,-2.0,8.2
7.915347744360902,-4.9,-2.0,8.2
7.923343045112782,-4.860355968045112,-2.0,8.239644031954889
7.931338345864662,-4.810385338345864,-2.0,8.289614661654136
7.939333646616541,-4.8,-2.2,8.2
7.947328947368422,-4.8,-2.2,8.2
7.955324248120301,-4.8,-2.2,8.2
7.963319548872181,-4.8,-2.2,8.2
7.9713148496240605,-4.8,-2.2,8.2
7.97931015037594,-4.8,-2.2,8.2
7.98730545112782,-4.8,-2.2,8.2
7.995300751879699,-4.8,-2.2,8.2
8.00329605263158,-4.8,-2.2,8.2
8.01129135338346,-4.8,-2.2,8.2
8.019286654135339,-4.8,-2.1,8.214332706766934
8.027281954887219,-4.695300751879693,-1.5765037593984657,9.81813909774445
8.035277255639098,-4.609109022556394,-1.1273270676691838,11.13168233082704
8.043272556390978,-4.641090225563913,-1.2232706766917394,10.89182330827065
8.051267857142857,-4.673071428571431,-1.3192142857142948,10.651964285714262
8.059263157894737,-4.70505263157895,-1.4151578947368504,10.412105263157873
8.067258458646617,-4.737033834586469,-1.5111015037594058,10.172246240601485
8.075253759398496,-4.769015037593987,-1.6070451127819614,9.932387218045097
8.083249060150376,-4.800996240601505,-1.7029887218045168,9.692528195488707
8.091244360902255,-4.832977443609024,-1.7989323308270722,9.452669172932318
8.099239661654135,-4.864958646616542,-1.8948759398496278,9.21281015037593
8.107234962406014,-4.8969398496240615,-1.9908195488721834,8.972951127819542
8.115230263157894,-4.92892105263158,-2.0867631578947385,8.733092105263152
8.123225563909775,-4.960902255639105,-2.182706766917316,8.493233082706709
8.131220864661655,-4.992883458646624,-2.278650375939871,8.253374060150321
8.139216165413535,-5.026127819548862,-1.8909774436090974,7.9
8.147211466165414,-4.708076441102756,-2.102692147034252,8.302692147034254
8.155206766917294,-4.7613784461152875,-2.120459482038429,8.32045948203843
8.163202067669173,-4.814680451127818,-2.138226817042606,8.338226817042607
8.171197368421053,-4.867982456140349,-2.155994152046783,8.355994152046783
8.179192669172933,-4.921284461152879,-2.17376148705096,8.37376148705096
8.187187969924812,-4.97458646616541,-2.1915288220551368,8.391528822055138
8.195183270676692,-4.7,-2.072775689223071,8.327224310776929
8.203178571428571,-4.8,-2.1,8.3
8.211173872180451,-4.8,-2.1,8.3
8.21916917293233,-4.8,-2.1,8.3
8.22716447368421,-4.8,-2.1,8.3
8.23515977443609,-4.8,-2.1,8.3
8.24315507518797,-4.8,-2.1,8.3
8.251150375939849,-4.8,-2.1,8.3
8.25914567669173,-4.8,-2.1,8.3
8.26714097744361,-4.8,-2.1,8.3
8.27513627819549,-4.8,-2.1,8.3
8.28313157894737,-4.8,-2.1,8.3
8.291126879699249,-4.8,-2.1,8.3
8.299122180451128,-4.8,-2.1,8.3
8.307117481203008,-4.8,-2.1,8.3
8.315112781954888,-4.8,-2.1,8.3
8.323108082706767,-4.8,-2.1,8.3
8.331103383458647,-4.8,-2.1,8.3
8.339098684210526,-4.8,-2.1,8.3
8.347093984962406,-4.8,-2.1,8.3
8.355089285714286,-4.8,-2.1,8.3
8.363084586466165,-4.8,-2.1,8.3
8.371079887218045,-4.8,-2.1,8.3
8.379075187969924,-4.8,-2.1,8.3
8.387070488721804,-4.8,-2.1,8.3
8.395065789473684,-4.8,-2.1,8.3
8.403061090225565,-4.8,-2.1,8.3
8.411056390977445,-4.8,-2.1,8.3
8.419051691729324,-4.8,-2.1,8.3
8.427046992481204,-4.8,-2.1,8.3
8.435042293233083,-4.8,-2.1,8.3
8.443037593984963,-4.8,-2.1,8.3
8.451032894736842,-4.8,-2.1,8.3
8.459028195488722,-4.8,-2.1,8.3
8.467023496240602,-4.8,-2.1,8.3
8.475018796992481,-4.8,-2.1,8.3
8.48301409774436,-4.8,-2.1,8.3
8.49100939849624,-4.8,-2.1,8.3
8.49900469924812,-4.8,-2.1,8.3
8.507,-4.8,-2.1,8.3
