gyro_time_list,gyro_x_list,gyro_y_list,gyro_z_list
0.0,0.4,0.0,0.1
0.008,-0.10317460317460318,0.0,0.0
0.016,-0.10952380952380952,0.0,0.0
0.024,-0.11587301587301588,0.0,0.0
0.032,-0.12222222222222223,0.0,0.0
0.04,-0.1285714285714286,0.0,0.0
0.048,-0.13492063492063494,0.0,0.0
0.056,-0.14126984126984127,0.0,0.0
0.064,-0.14761904761904762,0.0,0.0
0.07200000000000001,-0.15396825396825398,0.0,0.0
0.08,-0.16031746031746033,0.0,0.0
0.088,-0.16666666666666669,0.0,0.0
0.096,-0.173015873015873,0.0,0.0
0.10400000000000001,-0.1793650793650794,0.0,0.0
0.112,-0.18571428571428572,0.0,0.0
0.12,-0.19206349206349208,0.0,0.0
0.128,-0.19841269841269843,0.0,0.0
0.136,-0.1,0.0,-0.099
0.14400000000000002,-0.1,0.0,-0.091
0.152,-0.1,0.0,-0.08300000000000002
0.16,-0.1,0.0,-0.07500000000000001
0.168,-0.1,0.0,-0.067
0.176,-0.1,0.0,-0.05900000000000002
0.184,-0.1,0.0,-0.051000000000000004
0.192,-0.1,0.0,-0.043
0.2,-0.1,0.0,-0.03499999999999999
0.20800000000000002,-0.1,0.0,-0.026999999999999982
0.216,-0.1,0.0,-0.019000000000000003
0.224,-0.1,0.0,-0.010999999999999996
0.232,-0.1,0.0,-0.002999999999999975
0.24,0.0,0.0,0.0
0.248,0.0,0.0,0.0
0.256,0.0,0.0,0.0
0.264,0.0,0.0,0.0
0.272,0.0,0.0,0.0
0.28,0.0,0.0,0.0
0.28800000000000003,0.0,0.0,0.0
0.296,0.0,0.0,0.0
0.304,0.0,0.0,0.0
0.312,0.0,0.0,0.0
0.32,0.0,0.0,0.0
0.328,0.0,0.0,0.0
0.336,0.0,0.0,0.0
0.34400000000000003,0.0,0.0,0.0
0.352,0.0,0.0,0.0
0.36,0.0,0.0,0.0
0.368,0.0,0.0,0.0
0.376,0.0,0.0,0.0
0.384,0.0,0.0,0.0
0.392,0.0,0.0,0.0
0.4,0.0,0.0,0.0
0.40800000000000003,0.0,0.0,0.0
0.41600000000000004,0.0,0.0,0.0
0.424,0.0,0.0,0.0
0.432,0.0,0.0,0.0
0.44,0.0,0.0,0.0
0.448,0.0,0.0,0.0
0.456,0.0,0.0,0.0
0.464,0.0,0.0,0.0
0.47200000000000003,0.0,0.0,0.0
0.48,0.0,0.0,0.0
0.488,0.0,0.0,0.0
0.496,0.0,0.0,0.0
0.504,0.0,0.0,0.0
0.512,0.0,0.0,0.0
0.52,0.0,0.0,0.0
0.528,0.0,0.0,0.0
0.536,0.0,0.0,0.0
0.544,0.0,0.0,0.0
0.552,0.0,0.0,0.0
0.56,0.0,0.0,0.0
0.5680000000000001,0.0,0.0,0.0
0.5760000000000001,0.0,0.0,0.0
0.584,0.0,0.0,0.0
0.592,0.0,0.0,0.0
0.6,0.0,0.0,0.0
0.608,0.0,0.0,0.0
0.616,0.0,0.0,0.0
0.624,0.0,0.0,0.0
0.632,0.0,0.0,0.0
0.64,0.0,0.0,0.0
0.648,0.0,0.0,0.0
0.656,0.0,0.0,0.0
0.664,0.0,0.0,0.0
0.672,0.0,0.0,0.0
0.68,0.0,0.0,0.0
0.6880000000000001,0.0,0.0,0.0
0.6960000000000001,0.0,0.0,0.0
0.704,0.0,0.0,0.0
0.712,0.0,0.0,0.0
0.72,0.0,0.0,0.0
0.728,0.0,0.0,0.0
0.736,0.0,0.0,0.0
0.744,0.0,0.0,0.0
0.752,0.0,0.0,0.0
0.76,0.0,0.0,0.0
0.768,0.0,0.0,0.0
0.776,0.0,0.0,0.0
0.784,0.0,0.0,0.0
0.792,0.0,0.0,0.0
0.8,0.0,0.0,0.0
0.808,0.0,0.0,0.0
0.8160000000000001,0.0,0.0,0.0
0.8240000000000001,0.0,0.0,0.0
0.8320000000000001,0.0,0.0,0.0
0.84,0.0,0.0,0.0
0.848,0.0,0.0,0.0
0.856,0.0,0.0,0.0
0.864,0.0,0.0,0.0
0.872,0.0,0.0,0.0
0.88,0.0,0.0,0.0
0.888,0.0,0.0,0.0
0.896,0.0,0.0,0.0
0.904,0.0,0.0,0.0
0.912,0.0,0.0,0.0
0.92,0.0,0.0,0.0
0.928,0.0,0.0,0.0
0.936,0.0,0.0,0.0
0.9440000000000001,0.0,0.0,0.0
0.9520000000000001,0.0,0.0,0.0
0.96,0.0,0.0,0.0
0.968,0.0,0.0,0.0
0.976,0.0,0.0,0.0
0.984,0.0,0.0,0.0
0.992,0.0,0.0,0.0
1.0,0.0,0.0,0.0
1.008,0.0,0.0,0.0
1.016,0.0,0.0,0.0
1.024,0.0,0.0,0.0
1.032,0.0,0.0,0.0
1.04,0.0,0.0,0.0
1.048,0.0,0.0,0.0
1.056,0.0,0.0,0.0
1.064,0.0,0.0,0.0
1.072,0.0,0.0,0.0
1.08,0.0,0.0,0.0
1.088,0.0,0.0,0.0
1.096,0.0,0.0,0.0
1.104,0.0,0.0,0.0
1.112,0.0,0.0,0.0
1.12,0.0,0.0,0.0
1.1280000000000001,0.0,0.0,0.0
1.1360000000000001,0.0,0.0,0.0
1.1440000000000001,0.0,0.0,0.0
1.1520000000000001,0.0,0.0,0.0
1.16,0.0,0.0,0.0
1.168,0.0,0.0,0.0
1.176,0.0,0.0,0.0
1.184,0.0,0.0,0.0
1.192,0.0,0.0,0.0
1.2,0.0,0.0,0.0
1.208,0.0,0.0,0.0
1.216,0.0,0.0,0.0
1.224,0.0,0.0,0.0
1.232,0.0,0.0,0.0
1.24,0.0,0.0,0.0
1.248,0.0,0.0,0.0
1.256,0.0,0.0,0.0
1.264,0.0,0.0,0.0
1.272,0.0,0.0,0.0
1.28,0.0,0.0,0.0
1.288,0.0,0.0,0.0
1.296,0.0,0.0,0.0
1.304,0.0,0.0,0.0
1.312,0.0,0.0,0.0
1.32,0.0,0.0,0.0
1.328,0.0,0.0,0.0
1.336,0.0,0.0,0.0
1.344,0.0,0.0,0.0
1.352,0.0,0.0,0.0
1.36,0.0,0.0,0.0
1.368,0.0,0.0,0.0
1.3760000000000001,0.0,0.0,0.0
1.3840000000000001,0.0,0.0,0.0
1.3920000000000001,0.0,0.0,0.0
1.4000000000000001,0.0,0.0,0.0
1.408,0.0,0.0,0.0
1.416,0.0,0.0,0.0
1.424,0.0,0.0,0.0
1.432,0.0,0.0,0.0
1.44,0.0,0.0,0.0
1.448,0.0,0.0,0.0
1.456,0.0,0.0,0.0
1.464,0.0,0.0,0.0
1.472,0.0,0.0,0.0
1.48,0.0,0.0,0.0
1.488,0.0,0.0,0.0
1.496,0.0,0.0,0.0
1.504,0.0,0.0,0.0
1.512,0.0,0.0,0.0
1.52,0.0,0.0,0.0
1.528,0.0,0.0,0.0
1.536,0.0,0.0,0.0
1.544,-0.04545454545454601,0.0,0.0
1.552,-0.1,0.0,0.0
1.56,-0.09183673469387754,0.0,0.0
1.568,-0.08367346938775508,0.0,0.0
1.576,-0.0755102040816326,0.0,0.0
1.584,-0.06734693877551014,0.0,0.0
1.592,-0.05918367346938767,0.0,0.0
1.6,-0.0510204081632652,0.0,0.0
1.608,-0.04285714285714273,0.0,0.0
1.616,-0.03469387755102027,0.0,0.0
1.624,-0.026530612244897805,0.0,0.0
1.6320000000000001,-0.018367346938775328,0.0,0.0
1.6400000000000001,-0.010204081632652864,0.0,0.0
1.6480000000000001,-0.002040816326530401,0.0,0.0
1.6560000000000001,0.08333333333333148,0.0,0.0
1.6640000000000001,0.0,0.0,0.0
1.672,0.0,0.0,0.0
1.68,0.0,0.0,0.0
1.688,0.0,0.0,0.0
1.696,0.0,0.0,0.0
1.704,0.0,0.0,0.0
1.712,0.0,0.0,0.0
1.72,0.0,0.0,0.0
1.728,0.0,0.0,0.0
1.736,0.0,0.0,0.0
1.744,0.0,0.0,0.0
1.752,0.0,0.0,0.0
1.76,0.0,0.0,0.0
1.768,0.0,0.0,0.0
1.776,0.0,0.0,0.0
1.784,0.0,0.0,0.0
1.792,0.0,0.0,0.0
1.8,0.0,0.0,0.0
1.808,0.0,0.0,0.0
1.816,0.0,0.0,0.0
1.824,0.0,0.0,0.0
1.832,0.0,0.0,0.0
1.84,0.10192307692307694,-0.1,0.0
1.848,0.10961538461538464,-0.1,0.0
1.856,0.11730769230769235,-0.1,0.0
1.864,0.12500000000000006,-0.1,0.0
1.872,0.13269230769230778,-0.1,0.0
1.8800000000000001,0.14038461538461547,-0.1,0.0
1.8880000000000001,0.1480769230769232,-0.1,0.0
1.8960000000000001,0.15576923076923088,-0.1,0.0
1.9040000000000001,0.1634615384615386,-0.1,0.0
1.9120000000000001,0.17115384615384632,-0.1,0.0
1.92,0.17884615384615382,-0.1,0.0
1.928,0.18653846153846151,-0.1,0.0
1.936,0.19423076923076923,-0.1,0.0
1.944,0.17777777777777806,-0.1,0.0
1.952,0.1,-0.050000000000005554,0.0
1.96,-0.0049382716049382784,0.0,0.0
1.968,-0.014814814814814834,0.0,0.0
1.976,-0.02469135802469139,0.0,0.0
1.984,-0.034567901234567947,0.0,0.0
1.992,-0.04444444444444451,0.0,0.0
2.0,-0.054320987654321064,0.0,0.0
2.008,-0.06419753086419762,0.0,0.0
2.016,-0.07407407407407418,0.0,0.0
2.024,-0.08395061728395073,0.0,0.0
2.032,-0.09382716049382729,0.0,0.0
2.04,0.0,0.1,0.0
2.048,0.09431818181818193,0.0,0.0
2.056,0.08522727272727279,0.0,0.0
2.064,0.07613636363636364,0.0,0.0
2.072,0.06704545454545452,0.0,0.0
2.08,0.05795454545454537,0.0,0.0
2.088,0.048863636363636234,0.0,0.0
2.096,0.0397727272727271,0.0,0.0
2.104,0.030681818181817963,0.0,0.0
2.112,0.021590909090908827,0.0,0.0
2.12,0.012499999999999692,0.0,0.0
2.128,0.0034090909090905563,0.0,0.0
2.136,0.1,0.0,0.1
2.144,0.005000000000000334,0.0,0.1
2.152,0.013000000000000334,0.0,0.1
2.16,0.021000000000000334,0.0,0.1
2.168,0.029000000000000338,0.0,0.1
2.176,0.03700000000000034,0.0,0.1
2.184,0.04500000000000034,0.0,0.1
2.192,0.05300000000000034,0.0,0.1
2.2,0.06100000000000034,0.0,0.1
2.208,0.06900000000000034,0.0,0.1
2.216,0.07700000000000035,0.0,0.1
2.224,0.08500000000000034,0.0,0.1
2.232,0.09300000000000035,0.0,0.1
2.24,0.2,0.0,0.1
2.248,0.28571428571428753,-0.08571428571428753,0.0
2.2560000000000002,0.2921052631578944,-0.007894736842105557,0.0
2.2640000000000002,0.28157894736842076,-0.01842105263157924,0.0
2.2720000000000002,0.2710526315789471,-0.028947368421052926,0.0
2.2800000000000002,0.2605263157894734,-0.03947368421052661,0.0
2.2880000000000003,0.24999999999999972,-0.0500000000000003,0.0
2.2960000000000003,0.23947368421052603,-0.06052631578947398,0.0
2.3040000000000003,0.22894736842105234,-0.07105263157894767,0.0
2.312,0.21842105263157924,-0.08157894736842076,0.0
2.32,0.20789473684210558,-0.09210526315789445,0.0
2.328,-0.0499999999999889,0.0,0.0
2.336,-0.09411764705882374,-0.09411764705882374,0.0
2.344,-0.08627450980392176,-0.08627450980392176,0.0
2.352,-0.07843137254901979,-0.07843137254901979,0.0
2.36,-0.07058823529411781,-0.07058823529411781,0.0
2.368,-0.06274509803921582,-0.06274509803921582,0.0
2.376,-0.05490196078431385,-0.05490196078431385,0.0
2.384,-0.04705882352941187,-0.04705882352941187,0.0
2.392,-0.039215686274509894,-0.039215686274509894,0.0
2.4,-0.03137254901960791,-0.03137254901960791,0.0
2.408,-0.023529411764705938,-0.023529411764705938,0.0
2.416,-0.015686274509803963,-0.015686274509803963,0.0
2.424,-0.007843137254901975,-0.007843137254901975,0.0
2.432,0.0,0.0,0.0
2.44,-0.0021505376344083662,0.09784946236559164,0.19784946236559164
2.448,-0.010752688172042786,0.08924731182795723,0.18924731182795723
2.456,-0.019354838709677205,0.0806451612903228,0.18064516129032282
2.464,-0.027956989247311624,0.07204301075268837,0.17204301075268838
2.472,-0.03655913978494604,0.06344086021505396,0.16344086021505397
2.48,-0.04516129032258046,0.05483870967741954,0.15483870967741956
2.488,-0.05376344086021488,0.046236559139785124,0.14623655913978512
2.496,-0.0623655913978493,0.037634408602150705,0.1376344086021507
2.504,-0.07096774193548372,0.029032258064516286,0.1290322580645163
2.512,-0.07956989247311815,0.02043010752688186,0.12043010752688187
2.52,-0.08817204301075256,0.011827956989247448,0.11182795698924745
2.528,-0.09677419354838698,0.0032258064516130225,0.10322580645161303
2.536,-0.1,0.0,0.0
2.544,-0.19499999999999984,0.005000000000000185,0.0
2.552,-0.18833333333333316,0.011666666666666851,0.0
2.56,-0.1816666666666665,0.018333333333333517,0.0
2.568,-0.17499999999999982,0.025000000000000185,0.0
2.576,-0.16833333333333317,0.03166666666666685,0.0
2.584,-0.1616666666666665,0.03833333333333352,0.0
2.592,-0.15499999999999983,0.045000000000000186,0.0
2.6,-0.14833333333333315,0.051666666666666854,0.0
2.608,-0.1416666666666665,0.05833333333333352,0.0
2.616,-0.13499999999999984,0.06500000000000018,0.0
2.624,-0.12833333333333316,0.07166666666666685,0.0
2.632,-0.12166666666666649,0.07833333333333352,0.0
2.64,-0.11499999999999982,0.08500000000000019,0.0
2.648,-0.10833333333333316,0.09166666666666685,0.0
2.656,-0.10166666666666649,0.09833333333333352,0.0
2.664,-0.1,0.1,0.1
2.672,-0.1,0.08805970149253727,0.08805970149253727
2.68,-0.1,0.07611940298507451,0.07611940298507451
2.688,-0.1,0.06417910447761177,0.06417910447761177
2.696,-0.1,0.05223880597014902,0.05223880597014902
2.704,-0.1,0.040298507462686275,0.040298507462686275
2.712,-0.1,0.028358208955223535,0.028358208955223535
2.72,-0.1,0.01641791044776078,0.01641791044776078
2.728,-0.1,0.00447761194029804,0.00447761194029804
2.736,-0.1,0.0,0.0
2.744,-0.09318181818181794,0.00681818181818207,0.1
2.7520000000000002,-0.08409090909090884,0.01590909090909116,0.1
2.7600000000000002,-0.07499999999999976,0.02500000000000025,0.1
2.7680000000000002,-0.06590909090909067,0.034090909090909345,0.1
2.7760000000000002,-0.05681818181818157,0.04318181818181843,0.1
2.7840000000000003,-0.04772727272727248,0.052272727272727526,0.1
2.7920000000000003,-0.03863636363636339,0.06136363636363661,0.1
2.8000000000000003,-0.029545454545454305,0.0704545454545457,0.1
2.8080000000000003,-0.02045454545454521,0.0795454545454548,0.1
2.816,-0.011363636363636617,0.08863636363636339,0.1
2.824,-0.002272727272727537,0.09772727272727247,0.1
2.832,0.0,0.0,0.1
2.84,0.0,0.0,0.1
2.848,0.0,0.0,0.1
2.856,0.0,0.0,0.1
2.864,0.0,0.0,0.1
2.872,0.0,0.0,0.1
2.88,0.0,0.0,0.1
2.888,0.0,0.0,0.1
2.896,0.0,0.0,0.1
2.904,0.0,0.0,0.1
2.912,0.0,0.0,0.1
2.92,0.0,0.0,0.1
2.928,0.0,0.0,0.0
2.936,0.1,0.0,0.0
2.944,0.1,0.0,0.0
2.952,0.1,0.0,0.0
2.96,0.1,0.0,0.0
2.968,0.1,0.0,0.0
2.976,0.1,0.0,0.0
2.984,0.1,0.0,0.0
2.992,0.1,0.0,0.0
3.0,0.1,0.0,0.0
3.008,0.1,0.0,0.0
3.016,0.1,0.0,0.0
3.024,0.1,0.0,0.0
3.032,0.1,0.0,0.0
3.04,0.1,0.0,0.0
3.048,0.05,-0.05,0.0
3.056,0.0,0.0,0.0
3.064,0.0,0.0,0.0
3.072,0.0,0.0,0.0
3.08,0.0,0.0,0.0
3.088,0.0,0.0,0.0
3.096,0.0,0.0,0.0
3.104,0.0,0.0,0.0
3.112,0.0,0.0,0.0
3.12,0.0,0.0,0.0
3.128,0.0,0.0,0.0
3.136,0.0,0.0,0.0
3.144,0.0,0.0,0.0
3.152,0.0,0.0,0.0
3.16,0.0,0.0,0.0
3.168,0.0,0.0,0.0
3.176,0.0,0.0,0.0
3.184,0.0,0.0,0.0
3.192,0.0,0.0,0.0
3.2,0.0,0.0,0.0
3.208,0.0,0.0,0.0
3.216,0.0,0.0,0.0
3.224,0.0,0.0,0.0
3.232,0.0,0.0,0.0
3.24,0.0,0.0,0.0
3.248,0.0,0.0,0.0
3.2560000000000002,0.0,0.0,0.0
3.2640000000000002,0.0,0.0,0.0
3.2720000000000002,0.0,0.0,0.0
3.2800000000000002,0.0,0.0,0.0
3.2880000000000003,0.0,0.0,0.0
3.2960000000000003,0.0,0.0,0.0
3.3040000000000003,0.0,0.0,0.0
3.3120000000000003,0.0,0.0,0.0
3.3200000000000003,0.0,0.0,0.0
3.3280000000000003,4.440892098499143e-14,0.0,0.0
3.336,0.0,0.0,0.0
3.344,0.0,0.0,0.0
3.352,0.0,0.0,0.0
3.36,0.0,0.0,0.0
3.368,0.0,0.0,0.0
3.376,0.0,0.0,0.0
3.384,0.0,0.0,0.0
3.392,0.0,0.0,0.0
3.4,0.0,0.0,0.0
3.408,0.0,0.0,0.0
3.416,0.0,0.0,0.0
3.424,0.0,0.0,0.0
3.432,0.0,0.0,0.0
3.44,-0.05,0.0,0.0
3.448,0.0,0.0,0.0
3.456,0.0,0.0,0.0
3.464,0.0,0.0,0.0
3.472,0.0,0.0,0.0
3.48,0.0,0.0,0.0
3.488,0.0,0.0,0.0
3.496,0.0,0.0,0.0
3.504,0.0,0.0,0.0
3.512,0.0,0.0,0.0
3.52,0.0,0.0,0.0
3.528,-0.1,0.0,0.0
3.536,-0.1,0.0,0.0
3.544,-0.1,0.0,0.0
3.552,-0.1,0.0,0.0
3.56,-0.1,0.0,0.0
3.568,-0.1,0.0,0.0
3.576,-0.1,0.0,0.0
3.584,-0.1,0.0,0.0
3.592,-0.1,0.0,0.0
3.6,-0.1,0.0,0.0
3.608,-0.1,0.0,0.0
3.616,-0.1,0.0,0.0
3.624,-0.1,0.0,0.0
3.632,-0.1,0.0,0.0
3.64,-0.3,0.059999999999994676,-0.059999999999994676
3.648,-0.4048192771084338,-0.0903614457831325,-0.1
3.656,-0.4144578313253013,-0.07108433734939748,-0.1
3.664,-0.4240963855421688,-0.05180722891566246,-0.1
3.672,-0.4337349397590363,-0.03253012048192744,-0.1
3.68,-0.4433734939759038,-0.013253012048192417,-0.1
3.688,-0.4530120481927713,0.006024096385542604,-0.1
3.696,-0.46265060240963884,0.025301204819277612,-0.1
3.704,-0.47228915662650633,0.04457831325301265,-0.1
3.712,-0.4819277108433738,0.06385542168674765,-0.1
3.72,-0.4915662650602413,0.08313253012048266,-0.1
3.728,-0.5,0.0,-0.1
3.736,-0.19716981132075462,-0.09716981132075461,-0.09716981132075461
3.744,-0.18962264150943384,-0.08962264150943385,-0.08962264150943385
3.7520000000000002,-0.18207547169811308,-0.08207547169811306,-0.08207547169811306
3.7600000000000002,-0.1745283018867923,-0.0745283018867923,-0.0745283018867923
3.7680000000000002,-0.16698113207547152,-0.06698113207547152,-0.06698113207547152
3.7760000000000002,-0.15943396226415077,-0.05943396226415076,-0.05943396226415076
3.7840000000000003,-0.15188679245283,-0.05188679245282998,-0.05188679245282998
3.7920000000000003,-0.14433962264150924,-0.044339622641509216,-0.044339622641509216
3.8000000000000003,-0.13679245283018843,-0.036792452830188435,-0.036792452830188435
3.8080000000000003,-0.12924528301886767,-0.029245283018867668,-0.029245283018867668
3.8160000000000003,-0.1216981132075469,-0.0216981132075469,-0.0216981132075469
3.8240000000000003,-0.11415094339622613,-0.01415094339622612,-0.01415094339622612
3.8320000000000003,-0.10660377358490536,-0.006603773584905354,-0.006603773584905354
3.84,-0.1,0.0,0.0
3.848,-0.1,-0.02222222222222003,-0.02222222222222003
3.856,-0.1,-0.050000000000011105,-0.050000000000011105
3.864,-0.09104477611940327,-0.008955223880596727,-0.1
3.872,-0.07910447761194053,-0.020895522388059473,-0.1
3.88,-0.06716417910447778,-0.03283582089552222,-0.1
3.888,-0.05522388059701504,-0.04477611940298497,-0.1
3.896,-0.0432835820895523,-0.05671641791044771,-0.1
3.904,-0.03134328358208954,-0.06865671641791046,-0.1
3.912,-0.019402985074626802,-0.0805970149253732,-0.1
3.92,-0.007462686567164062,-0.09253731343283594,-0.1
3.928,-0.1,0.0,0.0
3.936,-0.1,0.0,0.0
3.944,-0.09148936170212768,0.0,0.0
3.952,-0.08297872340425536,0.0,0.0
3.96,-0.07446808510638304,0.0,0.0
3.968,-0.06595744680851072,0.0,0.0
3.976,-0.0574468085106384,0.0,0.0
3.984,-0.04893617021276608,0.0,0.0
3.992,-0.04042553191489376,0.0,0.0
4.0,-0.031914893617021434,0.0,0.0
4.008,-0.02340425531914911,0.0,0.0
4.016,-0.014893617021276798,0.0,0.0
4.024,-0.006382978723404473,0.0,0.0
4.032,0.06666666666666668,0.0,0.0
4.04,-0.05,0.0,0.0
4.048,-0.1,0.0,0.0
4.056,-0.1,0.0,0.0
4.064,-0.1,0.0,0.0
4.072,-0.1,0.0,0.0
4.08,-0.1,0.0,0.0
4.088,-0.1,0.0,0.0
4.096,-0.1,0.0,0.0
4.104,-0.1,0.0,0.0
4.112,-0.1,0.0,0.0
4.12,-0.1,0.0,0.0
4.128,-0.06000000000000356,0.0,0.0
4.136,0.0,0.0,0.0
4.144,0.0,0.0,0.008163265306122467
4.152,0.0,0.0,0.016326530612244934
4.16,0.0,0.0,0.0244897959183674
4.168,0.0,0.0,0.03265306122448987
4.176,0.0,0.0,0.04081632653061234
4.184,0.0,0.0,0.0489795918367348
4.192,0.0,0.0,0.05714285714285727
4.2,0.0,0.0,0.06530612244897974
4.208,0.0,0.0,0.0734693877551022
4.216,0.0,0.0,0.08163265306122468
4.224,0.0,0.0,0.08979591836734714
4.232,0.0,0.0,0.0979591836734696
4.24,0.0,0.0,0.0
4.248,0.1,0.0,0.0
4.256,0.09012345679012339,0.0,0.0
4.264,0.08024691358024678,0.0,0.0
4.272,0.07037037037037017,0.0,0.0
4.28,0.060493827160493556,0.0,0.0
4.288,0.050617283950616945,0.0,0.0
4.296,0.040740740740740335,0.0,0.0
4.304,0.030864197530863724,0.0,0.0
4.312,0.020987654320987106,0.0,0.0
4.32,0.011111111111110503,0.0,0.0
4.328,0.001234567901233885,0.0,0.0
4.336,0.0,0.0,0.0
4.344,0.0,0.0,0.0
4.352,0.0,0.0,0.0
4.36,0.0,0.0,0.0
4.368,0.0,0.0,0.0
4.376,0.0,0.0,0.0
4.384,0.0,0.0,0.0
4.392,0.0,0.0,0.0
4.4,0.0,0.0,0.0
4.408,0.0,0.0,0.0
4.416,0.0,0.0,0.0
4.424,0.0,0.0,0.0
4.432,0.0,0.0,0.0
4.44,0.0,0.0,0.0
4.448,0.0,0.0,0.0
4.456,0.0,0.0,0.0
4.464,0.0,0.0,0.0
4.472,0.0,0.0,0.0
4.48,0.0,0.0,0.0
4.488,0.0,0.0,0.0
4.496,0.0,0.0,0.0
4.5040000000000004,0.0,0.0,0.0
4.5120000000000005,0.0,0.0,0.0
4.5200000000000005,0.0,0.0,0.0
4.5280000000000005,0.0,0.0,0.0
4.5360000000000005,0.0,0.0,0.0
4.5440000000000005,0.0,0.0,0.0
4.5520000000000005,0.0,0.0,0.0
4.5600000000000005,0.0,0.0,0.0
4.5680000000000005,0.0,0.0,0.0
4.5760000000000005,0.0,0.0,0.0
4.5840000000000005,0.0,0.0,0.0
4.5920000000000005,0.0,0.0,0.0
4.6000000000000005,0.0,0.0,0.0
4.6080000000000005,0.0,0.0,0.0
4.616,0.0,0.0,0.0
4.624,0.0,0.0,0.0
4.632,0.0,0.0,0.0
4.64,0.010526315789472454,0.0,0.0
4.648,0.05263157894736695,0.0,0.0
4.656,0.09473684210526144,0.0,0.0
4.664,0.1,0.0,0.0
4.672,0.0,0.0,0.0
4.68,0.0,0.0,0.0
4.688,0.0,0.0,0.0
4.696,0.0,0.0,0.0
4.704,0.0,0.0,0.0
4.712,0.0,0.0,0.0
4.72,0.0,0.0,0.0
4.728,0.0,0.0,0.0
4.736,0.0,0.0,0.0
4.744,0.0,0.0,0.0
4.752,0.0,0.0,0.0
4.76,0.0,0.0,0.0
4.768,0.0,0.0,0.0
4.776,0.0,0.0,0.0
4.784,0.0,0.0,0.0
4.792,0.0,0.0,0.0
4.8,0.0,0.0,0.0
4.808,0.0,0.0,0.0
4.816,0.0,0.0,0.0
4.824,0.0,0.0,0.0
4.832,0.0,0.0,0.0
4.84,0.0,0.0,0.0
4.848,0.0,0.0,0.0
4.856,0.0,0.0,0.0
4.864,0.0,0.0,0.0
4.872,0.0,0.0,0.0
4.88,0.0,0.0,0.0
4.888,0.0,0.0,0.0
4.896,0.0,0.0,0.0
4.904,0.0,0.0,0.0
4.912,0.0,0.0,0.0
4.92,0.0,0.0,0.0
4.928,0.0,0.0,0.0
4.936,0.0,0.0,0.0
4.944,0.0,0.0,0.0
4.952,0.0,0.0,0.0
4.96,0.0,0.0,0.0
4.968,0.0,0.0,0.0
4.976,0.0,0.0,0.0
4.984,0.0,0.0,0.0
4.992,0.0,0.0,0.0
5.0,0.0,0.0,0.0
5.008,0.0,0.0,0.0
5.016,0.0,0.0,0.0
5.024,0.0,0.0,0.0
5.032,0.0,0.0,0.0
5.04,0.0,0.0,0.0
5.048,0.0,0.0,0.0
5.056,0.0,0.0,0.0
5.064,0.0,0.0,0.0
5.072,0.0,0.0,0.0
5.08,0.0,0.0,0.0
5.088,0.0,0.0,0.0
5.096,0.0,0.0,0.0
5.104,0.0,0.0,0.0
5.112,0.0,0.0,0.0
5.12,0.0,0.0,0.0
5.128,0.0,0.0,0.0
5.136,0.0,0.0,0.0
5.144,0.0,0.0,0.0
5.152,0.0,0.0,0.0
5.16,0.0,0.0,0.0
5.168,0.0,0.0,0.0
5.176,0.0,0.0,0.0
5.184,0.0,0.0,0.0
5.192,0.0,0.0,0.0
5.2,0.0,0.0,0.0
5.208,0.0,0.0,0.0
5.216,0.0,0.0,0.0
5.224,0.0,0.0,0.0
5.232,0.0,0.0,0.0
5.24,0.0,0.0,0.0
5.248,-0.00792079207920793,0.0,0.0
5.256,-0.01584158415841586,0.0,0.0
5.264,-0.023762376237623787,0.0,0.0
5.272,-0.03168316831683172,0.0,0.0
5.28,-0.039603960396039646,0.0,0.0
5.288,-0.047524752475247574,0.0,0.0
5.296,-0.05544554455445551,0.0,0.0
5.304,-0.06336633663366344,0.0,0.0
5.312,-0.07128712871287136,0.0,0.0
5.32,-0.07920792079207929,0.0,0.0
5.328,-0.08712871287128722,0.0,0.0
5.336,-0.09504950495049515,0.0,0.0
5.344,-0.14999999999997782,0.0,0.0499999999999778
5.352,-0.03529411764705944,0.0,0.06470588235294056
5.36,-0.08235294117647028,0.0,0.017647058823529724
5.368,-0.1,0.0,0.0
5.376,-0.1,0.0,0.0
5.384,-0.1,0.0,0.0
5.392,-0.1,0.0,0.0
5.4,-0.1,0.0,0.0
5.408,-0.1,0.0,0.0
5.416,-0.1,0.0,0.0
5.424,-0.1,0.0,0.0
5.432,-0.5,-0.1,0.1
5.44,-0.49381443298969047,-0.1,0.09381443298969046
5.448,-0.48556701030927807,-0.1,0.08556701030927805
5.456,-0.4773195876288656,-0.1,0.07731958762886562
5.464,-0.4690721649484532,-0.1,0.06907216494845321
5.472,-0.4608247422680408,-0.1,0.06082474226804079
5.48,-0.45257731958762837,-0.1,0.052577319587628374
5.488,-0.44432989690721597,-0.1,0.04432989690721595
5.496,-0.4360824742268036,-0.1,0.03608247422680354
5.5040000000000004,-0.4278350515463911,-0.1,0.027835051546391112
5.5120000000000005,-0.4195876288659787,-0.1,0.0195876288659787
5.5200000000000005,-0.4113402061855663,-0.1,0.011340206185566276
5.5280000000000005,-0.4030927835051539,-0.1,0.003092783505153865
5.5360000000000005,-8.881784196998286e-14,0.0,0.0
5.5440000000000005,-0.12258064516129215,0.0,0.007526881720430713
5.5520000000000005,-0.14838709677419543,0.0,0.016129032258065133
5.5600000000000005,-0.17419354838709866,0.0,0.024731182795699552
5.5680000000000005,-0.20000000000000195,0.0,0.03333333333333397
5.5760000000000005,-0.2258064516129052,0.0,0.04193548387096839
5.5840000000000005,-0.2516129032258084,0.0,0.05053763440860281
5.5920000000000005,-0.2774193548387117,0.0,0.05913978494623723
5.6000000000000005,-0.303225806451615,0.0,0.06774193548387165
5.6080000000000005,-0.32903225806451825,0.0,0.07634408602150607
5.6160000000000005,-0.3548387096774215,0.0,0.08494623655914049
5.6240000000000006,-0.3806451612903248,0.0,0.0935483870967749
5.632,-0.8,0.0,0.1
5.64,-0.6902912621359225,0.0,0.1
5.648,-0.6747572815533984,0.0,0.1
5.656,-0.6592233009708742,0.0,0.1
5.664,-0.64368932038835,0.0,0.1
5.672,-0.6281553398058258,0.0,0.1
5.68,-0.6126213592233016,0.0,0.1
5.688,-0.5970873786407774,0.0,0.1
5.696,-0.5815533980582532,0.0,0.1
5.704,-0.5660194174757291,0.0,0.1
5.712,-0.5504854368932048,0.0,0.1
5.72,-0.5349514563106808,0.0,0.1
5.728,-0.5194174757281566,0.0,0.1
5.736,-0.5038834951456324,0.0,0.1
5.744,-0.1117647058823514,0.0882352941176486,0.011764705882351404
5.752,-0.15882352941176225,0.04117647058823776,0.05882352941176225
5.76,-0.20285714285714132,0.0,0.10142857142857066
5.768,-0.2257142857142844,0.0,0.1128571428571422
5.776,-0.24857142857142747,0.0,0.12428571428571374
5.784,-0.2714285714285705,0.0,0.13571428571428526
5.792,-0.2942857142857136,0.0,0.1471428571428568
5.8,-0.3171428571428567,0.0,0.15857142857142836
5.808,-0.33999999999999975,0.0,0.16999999999999987
5.816,-0.3628571428571429,0.0,0.18142857142857144
5.824,-0.3857142857142859,0.0,0.19285714285714295
5.832,-0.5,-0.07500000000001111,0.2249999999999889
5.84,-0.497777777777779,0.1,0.2
5.848,-0.4800000000000012,0.1,0.2
5.856,-0.46222222222222337,0.1,0.2
5.864,-0.44444444444444553,0.1,0.2
5.872,-0.42666666666666775,0.1,0.2
5.88,-0.4088888888888899,0.1,0.2
5.888,-0.3911111111111121,0.1,0.2
5.896,-0.37333333333333424,0.1,0.2
5.904,-0.3555555555555564,0.1,0.2
5.912,-0.3377777777777786,0.1,0.2
5.92,-0.3200000000000008,0.1,0.2
5.928,-0.30222222222222295,0.1,0.2
5.936,-0.9200000000000071,0.0,0.43999999999999645
5.944,-0.7833333333333337,0.011111111111110893,0.5
5.952,-0.7566666666666669,0.028888888888888714,0.5
5.96,-0.7300000000000002,0.04666666666666654,0.5
5.968,-0.7033333333333335,0.06444444444444436,0.5
5.976,-0.6766666666666667,0.08222222222222218,0.5
5.984,-0.65,0.1,0.5
5.992,-0.6233333333333333,0.11777777777777783,0.5
6.0,-0.5966666666666666,0.13555555555555565,0.5
6.008,-0.5699999999999998,0.1533333333333335,0.5
6.016,-0.543333333333333,0.1711111111111113,0.5
6.024,-0.5166666666666664,0.18888888888888913,0.5
6.032,-0.04999999999999999,0.35,0.25
6.04,-0.314953271028039,0.5,0.4
6.048,-0.34485981308411373,0.5,0.4
6.056,-0.37476635514018847,0.5,0.4
6.064,-0.4046728971962632,0.5,0.4
6.072,-0.43457943925233794,0.5,0.4
6.08,-0.4644859813084127,0.5,0.4
6.088,-0.4943925233644874,0.5,0.4
6.096,-0.5242990654205621,0.5,0.4
6.104,-0.5542056074766368,0.5,0.4
6.112,-0.5841121495327116,0.5,0.4
6.12,-0.6140186915887864,0.5,0.4
6.128,-0.6439252336448611,0.5,0.4
6.136,-0.6738317757009358,0.5,0.4
6.144,-0.7,0.5166666666666716,0.4
6.152,-0.34999999999998227,0.7300000000000106,0.3
6.16,0.050000000000026634,0.970000000000016,0.3
6.168,0.1169230769230743,1.2907692307692304,0.5184615384615391
6.176,0.006153846153844095,1.2784615384615383,0.5430769230769236
6.184,-0.10461538461538611,1.266153846153846,0.567692307692308
6.192,-0.21538461538461628,1.2538461538461538,0.5923076923076925
6.2,-0.3261538461538465,1.2415384615384615,0.616923076923077
6.208,-0.4369230769230767,1.2292307692307691,0.6415384615384614
6.216,-0.5476923076923068,1.216923076923077,0.6661538461538459
6.224,-0.6584615384615371,1.2046153846153846,0.6907692307692304
6.232,-0.975000000000025,1.2249999999999863,0.6750000000000027
6.24,0.10000000000000003,1.9,0.5
6.248,0.0717647058823529,1.9094117647058824,0.5188235294117647
6.256,0.0435294117647058,1.9188235294117646,0.5376470588235295
6.264,0.015294117647058708,1.928235294117647,0.5564705882352942
6.272,-0.0129411764705884,1.9376470588235295,0.575294117647059
6.28,-0.04117647058823551,1.9470588235294117,0.5941176470588236
6.288,-0.06941176470588259,1.9564705882352942,0.6129411764705883
6.296,-0.0976470588235297,1.9658823529411764,0.6317647058823531
6.304,-0.1258823529411768,1.9752941176470589,0.6505882352941178
6.312,-0.1541176470588239,1.9847058823529413,0.6694117647058826
6.32,-0.18235294117647102,1.9941176470588236,0.6882352941176473
6.328,-1.450000000000111,1.9499999999999778,0.6999999999999555
6.336,-1.3499999999999723,1.8124999999999931,0.6875000000000069
6.344,-0.7869565217391291,1.486956521739129,0.904347826086957
6.352,-0.7608695652173901,1.46086956521739,0.91304347826087
6.36,-0.734782608695651,1.434782608695651,0.921739130434783
6.368,-0.7086956521739121,1.408695652173912,0.930434782608696
6.376,-0.6826086956521731,1.382608695652173,0.939130434782609
6.384,-0.6565217391304341,1.356521739130434,0.947826086956522
6.392,-0.630434782608695,1.330434782608695,0.956521739130435
6.4,-0.604347826086956,1.304347826086956,0.965217391304348
6.408,-0.578260869565217,1.278260869565217,0.973913043478261
6.416,-0.552173913043478,1.252173913043478,0.982608695652174
6.424,-0.526086956521739,1.226086956521739,0.991304347826087
6.432,-0.5,1.2,1.0
6.44,-1.7000000000000888,1.0,1.2
6.448,-1.1454545454545435,1.2181818181818187,1.1939393939393936
6.456,-1.0727272727272708,1.242424242424243,1.1858585858585857
6.464,-0.9999999999999982,1.2666666666666673,1.1777777777777776
6.472,-0.9272727272727255,1.2909090909090915,1.1696969696969695
6.48,-0.8545454545454529,1.3151515151515156,1.1616161616161613
6.488,-0.7818181818181802,1.3393939393939398,1.1535353535353534
6.496,-0.7090909090909077,1.3636363636363642,1.1454545454545453
6.5040000000000004,-0.6363636363636349,1.3878787878787884,1.1373737373737371
6.5120000000000005,-0.5636363636363623,1.4121212121212126,1.1292929292929292
6.5200000000000005,-0.49090909090908963,1.4363636363636367,1.121212121212121
6.5280000000000005,-0.418181818181817,1.460606060606061,1.113131313131313
6.5360000000000005,-0.34545454545454435,1.4848484848484853,1.105050505050505
6.5440000000000005,-0.1,1.6,0.8971428571428562
6.5520000000000005,-0.1,1.6,0.8742857142857134
6.5600000000000005,-0.1,1.6,0.8514285714285706
6.5680000000000005,-0.1,1.6,0.8285714285714278
6.5760000000000005,-0.1,1.6,0.8057142857142852
6.5840000000000005,-0.17500000000000276,1.6750000000000027,1.0250000000000083
6.5920000000000005,-1.0,1.105405405405406,0.894594594594594
6.6000000000000005,-1.0,1.116216216216217,0.8837837837837832
6.6080000000000005,-1.0,1.1270270270270277,0.8729729729729723
6.6160000000000005,-1.0,1.1378378378378387,0.8621621621621615
6.6240000000000006,-1.0,1.1486486486486494,0.8513513513513506
6.632000000000001,-1.0,1.1594594594594603,0.8405405405405398
6.640000000000001,-1.0,1.170270270270271,0.8297297297297289
6.648000000000001,-1.0,1.181081081081082,0.8189189189189181
6.656000000000001,-1.0,1.1918918918918928,0.8081081081081073
6.664,-0.6500000000000221,1.1500000000000221,0.6
6.672,-0.4193548387096752,0.8,0.5935483870967749
6.68,-0.45806451612902993,0.8,0.5806451612903234
6.688,-0.4967741935483846,0.8,0.5677419354838718
6.696,-0.5354838709677393,0.8,0.5548387096774202
6.704,-0.5741935483870939,0.8,0.5419354838709687
6.712,-0.6129032258064486,0.8,0.529032258064517
6.72,-0.6516129032258033,0.8,0.5161290322580655
6.728,-0.6903225806451581,0.8,0.503225806451614
6.736,-0.5,0.4,0.3
6.744,-0.5,0.3822222222222222,0.3088888888888889
6.752,-0.5,0.36444444444444435,0.3177777777777778
6.76,-0.5,0.34666666666666657,0.3266666666666667
6.768,-0.5,0.32888888888888873,0.33555555555555566
6.776,-0.5,0.3111111111111109,0.34444444444444455
6.784,-0.5,0.2933333333333331,0.35333333333333344
6.792,-0.5,0.2755555555555553,0.3622222222222224
6.8,-0.5,0.25777777777777744,0.3711111111111113
6.808,-0.5,0.23999999999999963,0.3800000000000002
6.816,-0.5,0.2222222222222218,0.3888888888888891
6.824,-0.5,0.20444444444444398,0.397777777777778
6.832,-0.2749999999999917,0.35000000000000553,0.32499999999999724
6.84,-0.34999999999996667,0.20000000000002216,0.3
6.848,-0.5071428571428568,0.1,0.3
6.856,-0.5153061224489793,0.1,0.3
6.864,-0.5234693877551018,0.1,0.3
6.872,-0.5316326530612242,0.1,0.3
6.88,-0.5397959183673466,0.1,0.3
6.888,-0.5479591836734692,0.1,0.3
6.896,-0.5561224489795916,0.1,0.3
6.904,-0.5642857142857141,0.1,0.3
6.912,-0.5724489795918365,0.1,0.3
6.92,-0.580612244897959,0.1,0.3
6.928,-0.5887755102040815,0.1,0.3
6.936,-0.5969387755102039,0.1,0.3
6.944,-0.4888888888888955,0.21111111111110453,0.24444444444444774
6.952,-0.4,0.3,0.2
6.96,-0.3567901234567919,0.40864197530864166,0.20864197530864162
6.968,-0.30740740740740885,0.41851851851851823,0.21851851851851825
6.976,-0.25802469135802575,0.42839506172839487,0.22839506172839485
6.984,-0.20864197530864273,0.43827160493827144,0.23827160493827146
6.992,-0.15925925925925968,0.4481481481481481,0.24814814814814806
7.0,-0.10987654320987661,0.4580246913580247,0.2580246913580247
7.008,-0.06049382716049356,0.4679012345679013,0.26790123456790127
7.016,-0.011111111111110517,0.4777777777777779,0.2777777777777779
7.024,0.03827160493827253,0.4876543209876545,0.28765432098765453
7.032,0.08765432098765563,0.4975308641975311,0.2975308641975311
7.04,-0.04999999999999999,0.25,0.35
7.048,0.17500000000000107,0.3833333333333341,0.39166666666666705
7.056,0.14642857142857235,0.3642857142857149,0.38214285714285745
7.064,0.11785714285714362,0.3452380952380958,0.3726190476190479
7.072,0.08928571428571488,0.3261904761904766,0.3630952380952383
7.08,0.060714285714286165,0.3071428571428575,0.35357142857142876
7.088,0.032142857142857445,0.2880952380952383,0.34404761904761916
7.096,0.0035714285714286975,0.2690476190476192,0.33452380952380956
7.104,-0.025000000000000022,0.25,0.325
7.112,-0.05357142857142877,0.23095238095238085,0.3154761904761904
7.12,-0.08214285714285746,0.2119047619047617,0.30595238095238086
7.128,-0.060000000000021314,0.1,0.3799999999999929
7.136,-0.1,0.1,0.4
7.144,-0.09207920792079208,0.10792079207920793,0.40792079207920795
7.152,-0.08415841584158415,0.11584158415841586,0.4158415841584159
7.16,-0.07623762376237622,0.12376237623762379,0.4237623762376238
7.168,-0.0683168316831683,0.13168316831683172,0.43168316831683173
7.176,-0.06039603960396036,0.13960396039603964,0.43960396039603966
7.184,-0.05247524752475243,0.14752475247524757,0.4475247524752476
7.192,-0.0445544554455445,0.15544554455445553,0.4554455445544555
7.2,-0.03663366336633657,0.16336633663366346,0.46336633663366344
7.208,-0.02871287128712864,0.17128712871287138,0.4712871287128714
7.216,-0.020792079207920713,0.1792079207920793,0.4792079207920793
7.224,-0.012871287128712786,0.18712871287128724,0.48712871287128723
7.232,-0.004950495049504858,0.19504950495049517,0.49504950495049516
7.24,0.0,0.1,0.6
7.248,0.19277108433734916,0.2,0.6
7.256,0.1831325301204817,0.2,0.6
7.264,0.17349397590361423,0.2,0.6
7.272,0.16385542168674677,0.2,0.6
7.28,0.1542168674698793,0.2,0.6
7.288,0.14457831325301185,0.2,0.6
7.296,0.1349397590361444,0.2,0.6
7.304,0.12530120481927695,0.2,0.6
7.312,0.11566265060240949,0.2,0.6
7.32,0.10602409638554203,0.2,0.6
7.328,0.06999999999999823,0.16999999999999824,0.6300000000000018
7.336,0.1,0.3,0.8
7.344,0.2,0.4,0.8
7.352,0.278048780487804,0.38536585365853604,0.9
7.36,0.2487804878048771,0.36585365853658475,0.9
7.368,0.2195121951219502,0.34634146341463345,0.9
7.376,0.19024390243902328,0.3268292682926822,0.9
7.384,0.16097560975609637,0.3073170731707309,0.9
7.392,0.13170731707316946,0.28780487804877963,0.9
7.4,0.10243902439024255,0.2682926829268284,0.9
7.408,0.07317073170731567,0.24878048780487713,0.9
7.416,0.04390243902438873,0.22926829268292584,0.9
7.424,0.014634146341461818,0.20975609756097457,0.9
7.432,0.3,0.3749999999999917,0.9
7.44,0.3,0.2333333333333136,0.9666666666666864
7.448,0.411627906976746,0.31162790697674597,0.905813953488373
7.456,0.43023255813953665,0.3302325581395366,0.9151162790697683
7.464,0.4488372093023273,0.34883720930232726,0.9244186046511637
7.472,0.46744186046511793,0.3674418604651179,0.933720930232559
7.48,0.4860465116279086,0.38604651162790854,0.9430232558139543
7.488,0.5046511627906992,0.40465116279069924,0.9523255813953496
7.496,0.5232558139534899,0.4232558139534899,0.9616279069767449
7.5040000000000004,0.5418604651162805,0.4418604651162805,0.9709302325581403
7.5120000000000005,0.5604651162790711,0.46046511627907116,0.9802325581395356
7.5200000000000005,0.5790697674418618,0.4790697674418618,0.9895348837209309
7.5280000000000005,0.5976744186046524,0.49767441860465245,0.9988372093023262
7.5360000000000005,0.3000000000000444,0.3000000000000444,0.9
7.5440000000000005,0.30430107526881767,0.2956989247311823,0.9
7.5520000000000005,0.3129032258064521,0.2870967741935479,0.9
7.5600000000000005,0.3215053763440865,0.2784946236559135,0.9
7.5680000000000005,0.33010752688172096,0.2698924731182791,0.9
7.5760000000000005,0.33870967741935537,0.26129032258064466,0.9
7.5840000000000005,0.3473118279569898,0.2526881720430102,0.9
7.5920000000000005,0.3559139784946242,0.24408602150537578,0.9
7.6000000000000005,0.3645161290322586,0.23548387096774137,0.9
7.6080000000000005,0.3731182795698931,0.22688172043010696,0.9
7.6160000000000005,0.3817204301075275,0.21827956989247255,0.9
7.6240000000000006,0.3903225806451619,0.20967741935483813,0.9
7.632000000000001,0.3989247311827963,0.20107526881720372,0.9
7.640000000000001,0.7500000000000278,0.46250000000002084,0.8124999999999931
7.648000000000001,0.3049382716049399,0.298765432098765,0.8
7.656000000000001,0.3444444444444464,0.2888888888888884,0.8
7.664000000000001,0.3839506172839528,0.2790123456790118,0.8
7.672000000000001,0.42345679012345927,0.26913580246913515,0.8
7.68,0.4629629629629613,0.2592592592592597,0.8
7.688,0.5024691358024678,0.24938271604938306,0.8
7.696,0.5419753086419742,0.23950617283950645,0.8
7.704,0.5814814814814806,0.22962962962962985,0.8
7.712,0.6209876543209871,0.21975308641975322,0.8
7.72,0.6604938271604935,0.20987654320987664,0.8
7.728,0.7,0.2,0.8
7.736,1.6916666666666713,0.49687500000000173,0.2989583333333339
7.744,1.6250000000000047,0.4718750000000017,0.2906250000000006
7.752,1.558333333333338,0.44687500000000174,0.2822916666666672
7.76,1.4916666666666714,0.4218750000000018,0.2739583333333339
7.768,1.4250000000000047,0.39687500000000175,0.26562500000000056
7.776,1.3583333333333378,0.37187500000000173,0.25729166666666725
7.784,1.2916666666666714,0.3468750000000017,0.24895833333333392
7.792,1.2250000000000045,0.32187500000000174,0.2406250000000006
7.8,1.158333333333338,0.2968750000000018,0.23229166666666726
7.808,1.0916666666666712,0.27187500000000175,0.22395833333333393
7.816,1.0250000000000048,0.2468750000000018,0.2156250000000006
7.824,0.958333333333338,0.22187500000000177,0.20729166666666726
7.832,0.650000000000111,0.10000000000004441,0.10000000000004441
7.84,0.8,0.3977011494252876,-0.1022988505747124
7.848,0.8,0.38850574712643704,-0.11149425287356302
7.856,0.8,0.3793103448275864,-0.12068965517241362
7.864,0.8,0.3701149425287358,-0.12988505747126422
7.872,0.8,0.36091954022988515,-0.13908045977011485
7.88,0.8,0.3517241379310346,-0.14827586206896545
7.888,0.8,0.34252873563218394,-0.15747126436781606
7.896,0.8,0.33333333333333337,-0.16666666666666669
7.904,0.8,0.32413793103448274,-0.1758620689655173
7.912,0.8,0.3149425287356321,-0.1850574712643679
7.92,0.8,0.3057471264367815,-0.19425287356321852
7.928,0.6874999999999959,0.3,-0.16249999999999862
7.936,-1.3,-0.30000000000000004,-0.2
7.944,-1.2394230769230798,-0.47980769230769327,-0.29326923076923106
7.952,-1.1701923076923106,-0.4567307692307702,-0.2855769230769234
7.96,-1.1009615384615414,-0.4336538461538471,-0.2778846153846157
7.968,-1.0317307692307722,-0.41057692307692406,-0.270192307692308
7.976,-0.9625000000000029,-0.38750000000000095,-0.2625000000000003
7.984,-0.8932692307692337,-0.36442307692307785,-0.2548076923076926
7.992,-0.8240384615384644,-0.34134615384615485,-0.24711538461538493
8.0,-0.7548076923076952,-0.31826923076923175,-0.23942307692307724
8.008000000000001,-0.6855769230769183,-0.2951923076923061,-0.23173076923076869
8.016,-0.6163461538461568,-0.2721153846153856,-0.22403846153846185
8.024000000000001,-0.5471153846153799,-0.24903846153845993,-0.21634615384615333
8.032,-0.47788461538461835,-0.22596153846153944,-0.20865384615384647
8.040000000000001,-0.40865384615384137,-0.20288461538461378,-0.20096153846153794
8.048,-0.4571428571428282,-0.17142857142856055,0.0
8.056000000000001,-0.9666666666666864,-0.3,0.0
8.064,-1.2031249999999982,-0.3015624999999991,0.0
8.072000000000001,-1.228125000000001,-0.3140625000000005,0.0
8.08,-1.2531249999999983,-0.32656249999999915,0.0
8.088000000000001,-1.278125000000001,-0.33906250000000054,0.0
8.096,-1.3031249999999983,-0.3515624999999991,0.0
8.104000000000001,-1.3281250000000009,-0.3640625000000005,0.0
8.112,-1.3531249999999981,-0.37656249999999913,0.0
8.120000000000001,-1.378125000000001,-0.38906250000000053,0.0
8.128,-1.4,-0.45,0.05
8.136000000000001,-0.6041237113402076,-0.40206185567010383,0.0
8.144,-0.6206185567010306,-0.41030927835051534,0.0
8.152000000000001,-0.6371134020618573,-0.4185567010309286,0.0
8.16,-0.6536082474226802,-0.42680412371134013,0.0
8.168000000000001,-0.6701030927835069,-0.4350515463917535,0.0
8.176,-0.6865979381443299,-0.443298969072165,0.0
8.184000000000001,-0.7030927835051566,-0.4515463917525783,0.0
8.192,-0.7195876288659796,-0.45979381443298983,0.0
8.2,-0.7360824742268026,-0.4680412371134013,0.0
8.208,-0.7525773195876293,-0.47628865979381463,0.0
8.216,-0.7690721649484523,-0.48453608247422614,0.0
8.224,-0.785567010309279,-0.4927835051546395,0.0
8.232,-0.8,-0.5499999999999556,0.0
8.24,-0.1333333333333432,-0.4,0.0
8.248,-0.09285714285714468,-0.4,-0.007142857142855331
8.256,-0.08333333333333404,-0.4,-0.016666666666665962
8.264,-0.07380952380952552,-0.4,-0.02619047619047448
8.272,-0.06428571428571489,-0.4,-0.035714285714285116
8.28,-0.05476190476190638,-0.4,-0.04523809523809363
8.288,-0.045238095238095744,-0.4,-0.05476190476190426
8.296,-0.035714285714287225,-0.4,-0.06428571428571278
8.304,-0.026190476190476597,-0.4,-0.07380952380952341
8.312,-0.01666666666666808,-0.4,-0.08333333333333193
8.32,-0.0071428571428574505,-0.4,-0.09285714285714256
8.328,0.2499999999999556,-0.3,-0.15000000000004443
8.336,-0.2,-0.5,-0.1
8.344,-0.2,-0.5,-0.10824742268041151
8.352,-0.2,-0.5,-0.11649484536082484
8.36,-0.2,-0.5,-0.12474226804123634
8.368,-0.2,-0.5,-0.13298969072164968
8.376,-0.2,-0.5,-0.1412371134020612
8.384,-0.2,-0.5,-0.14948453608247453
8.392,-0.2,-0.5,-0.157731958762886
8.4,-0.2,-0.5,-0.16597938144329935
8.408,-0.2,-0.5,-0.17422680412371086
8.416,-0.2,-0.5,-0.18247422680412417
8.424,-0.2,-0.5,-0.19072164948453568
8.432,-0.2,-0.5,-0.19896907216494902
8.44,0.18888888888887573,-0.25555555555556214,-0.25555555555556214
8.448,0.2962499999999954,-0.20125000000000154,-0.1
8.456,0.26624999999999877,-0.21125000000000044,-0.1
8.464,0.2362499999999954,-0.22125000000000153,-0.1
8.472,0.20624999999999874,-0.23125000000000043,-0.1
8.48,0.1762499999999954,-0.24125000000000152,-0.1
8.488,0.14624999999999874,-0.2512500000000004,-0.1
8.496,0.11624999999999541,-0.26125000000000154,-0.1
8.504,0.08624999999999874,-0.27125000000000044,-0.1
8.512,0.056249999999995415,-0.28125000000000155,-0.1
8.52,0.026249999999998774,-0.2912500000000004,-0.1
8.528,0.0,-0.3,-0.08888888888887574
8.536,0.0,-0.3,1.3877787807814457e-17
8.544,0.2,-0.1,-0.1
8.552,0.1901234567901245,-0.1,-0.1
8.56,0.18024691358024678,-0.1,-0.1
8.568,0.17037037037037128,-0.1,-0.1
8.576,0.16049382716049357,-0.1,-0.1
8.584,0.15061728395061805,-0.1,-0.1
8.592,0.14074074074074033,-0.1,-0.1
8.6,0.1308641975308648,-0.1,-0.1
8.608,0.12098765432098711,-0.1,-0.1
8.616,0.1111111111111116,-0.1,-0.1
8.624,0.10123456790123389,-0.1,-0.1
8.632,0.0,-0.15000000000000002,-0.1
8.64,0.0043478260869579495,-0.09565217391304205,-0.1
8.648,0.013043478260869986,-0.08695652173913002,-0.1
8.656,0.021739130434783954,-0.07826086956521605,-0.1
8.664,0.030434782608695993,-0.06956521739130402,-0.1
8.672,0.03913043478260996,-0.060869565217390044,-0.1
8.68,0.047826086956522,-0.05217391304347801,-0.1
8.688,0.05652173913043597,-0.04347826086956404,-0.1
8.696,0.065217391304348,-0.034782608695652,-0.1
8.704,0.07391304347826197,-0.026086956521738036,-0.1
8.712,0.082608695652174,-0.017391304347826,-0.1
8.72,0.09130434782608798,-0.008695652173912022,-0.1
8.728,0.10000000000000002,1.3877787807814457e-17,-0.1
8.736,0.0009708737864089559,0.0,0.1
8.744,0.008737864077670255,0.0,0.1
8.752,0.01650485436893328,0.0,0.1
8.76,0.024271844660194577,0.0,0.1
8.768,0.0320388349514576,0.0,0.1
8.776,0.039805825242718904,0.0,0.1
8.784,0.047572815533981926,0.0,0.1
8.792,0.05533980582524323,0.0,0.1
8.8,0.06310679611650624,0.0,0.1
8.808,0.07087378640776755,0.0,0.1
8.816,0.07864077669903057,0.0,0.1
8.824,0.08640776699029187,0.0,0.1
8.832,0.09417475728155489,0.0,0.1
8.84,0.1,0.0933333333333365,0.0933333333333365
8.848,0.1,0.039999999999992895,0.039999999999992895
8.856,0.1,0.0,0.0
8.864,0.11176470588235433,0.0,0.0
8.872,0.12352941176470604,0.0,0.0
8.88,0.13529411764706037,0.0,0.0
8.888,0.14705882352941207,0.0,0.0
8.896,0.15882352941176642,0.0,0.0
8.904,0.1705882352941181,0.0,0.0
8.912,0.18235294117647244,0.0,0.0
8.92,0.19411764705882414,0.0,0.0
8.928,0.020000000000021317,-0.020000000000021317,-0.1
8.936,0.09787234042553124,0.0,0.0
8.944,0.08936170212765805,0.0,0.0
8.952,0.08085106382978675,0.0,0.0
8.96,0.07234042553191357,0.0,0.0
8.968,0.06382978723404227,0.0,0.0
8.976,0.055319148936169085,0.0,0.0
8.984,0.04680851063829779,0.0,0.0
8.992,0.0382978723404246,0.0,0.0
9.0,0.029787234042553304,0.0,0.0
9.008000000000001,0.02127659574468012,0.0,0.0
9.016,0.01276595744680882,0.0,0.0
9.024000000000001,0.004255319148935635,0.0,0.0
9.032,0.0,0.0,0.05
9.040000000000001,0.10555555555555644,0.0,0.0
9.048,0.11444444444444436,0.0,0.0
9.056000000000001,0.12333333333333427,0.0,0.0
9.064,0.13222222222222219,0.0,0.0
9.072000000000001,0.14111111111111208,0.0,0.0
9.08,0.15000000000000002,0.0,0.0
9.088000000000001,0.1588888888888899,0.0,0.0
9.096,0.16777777777777783,0.0,0.0
9.104000000000001,0.17666666666666775,0.0,0.0
9.112,0.18555555555555564,0.0,0.0
9.120000000000001,0.19444444444444556,0.0,0.0
9.128,0.3,0.0,0.0
9.136000000000001,0.5903846153846138,0.1,0.0
9.144,0.575,0.1,0.0
9.152000000000001,0.5596153846153827,0.1,0.0
9.16,0.544230769230769,0.1,0.0
9.168000000000001,0.5288461538461517,0.1,0.0
9.176,0.513461538461538,0.1,0.0
9.184000000000001,0.4980769230769207,0.1,0.0
9.192,0.4826923076923069,0.1,0.0
9.200000000000001,0.46730769230768965,0.1,0.0
9.208,0.4519230769230759,0.1,0.0
9.216000000000001,0.43653846153845866,0.1,0.0
9.224,0.4211538461538449,0.1,0.0
9.232,0.40576923076923105,0.1,0.0
9.24,0.16666666666666669,0.08333333333333334,0.0
9.248,0.07777777777779094,0.03888888888889547,0.0
9.256,-0.05,0.0,0.0
9.264,0.006944444444443142,0.1,0.0
9.272,0.018055555555555623,0.1,0.0
9.28,0.02916666666666564,0.1,0.0
9.288,0.04027777777777812,0.1,0.0
9.296,0.05138888888888814,0.1,0.0
9.304,0.06250000000000062,0.1,0.0
9.312,0.07361111111111063,0.1,0.0
9.32,0.08472222222222311,0.1,0.0
9.328,0.09583333333333313,0.1,0.0
9.336,0.0,0.1,0.1
9.344,0.10561797752808876,0.2,0.0
9.352,0.11460674157303354,0.2,0.0
9.36,0.12359550561797632,0.2,0.0
9.368,0.1325842696629211,0.2,0.0
9.376,0.1415730337078639,0.2,0.0
9.384,0.15056179775280867,0.2,0.0
9.392,0.15955056179775146,0.2,0.0
9.4,0.16853932584269626,0.2,0.0
9.408,0.17752808988763905,0.2,0.0
9.416,0.18651685393258383,0.2,0.0
9.424,0.1955056179775266,0.2,0.0
9.432,0.15000000000000002,0.2,0.0
9.44,0.0,0.2,0.1
9.448,-0.007608695652173662,0.2,0.1
9.456,-0.016304347826085867,0.2,0.1
9.464,-0.025,0.2,0.1
9.472,-0.033695652173912204,0.2,0.1
9.48,-0.04239130434782634,0.2,0.1
9.488,-0.051086956521738544,0.2,0.1
9.496,-0.05978260869565268,0.2,0.1
9.504,-0.06847826086956488,0.2,0.1
9.512,-0.07717391304347902,0.2,0.1
9.52,-0.08586956521739122,0.2,0.1
9.528,-0.09456521739130536,0.2,0.1
9.536,0.0,0.2,0.1
9.544,0.0,0.3,0.1
9.552,-0.1,0.2,0.1
9.56,-0.1,0.2,0.1
9.568,-0.1,0.2,0.1
9.576,-0.1,0.2,0.1
9.584,-0.1,0.2,0.1
9.592,-0.1,0.2,0.1
9.6,-0.1,0.2,0.1
9.608,-0.1,0.2,0.1
9.616,-0.1,0.2,0.1
9.624,-0.1,0.2,0.1
9.632,-0.125,0.2,0.1
9.64,-0.1916666666666716,0.2,0.1
9.648,-0.09753086419753222,0.4,0.1
9.656,-0.08765432098765452,0.4,0.1
9.664,-0.077777777777779,0.4,0.1
9.672,-0.06790123456790129,0.4,0.1
9.68,-0.05802469135802578,0.4,0.1
9.688,-0.048148148148148065,0.4,0.1
9.696,-0.03827160493827255,0.4,0.1
9.704,-0.028395061728394844,0.4,0.1
9.712,-0.018518518518519322,0.4,0.1
9.72,-0.008641975308641622,0.4,0.1
9.728,0.0,0.4,0.2
9.736,-0.1,0.3967391304347825,0.1
9.744,-0.1,0.38804347826087027,0.1
9.752,-0.1,0.3793478260869561,0.1
9.76,-0.1,0.3706521739130439,0.1
9.768,-0.1,0.3619565217391298,0.1
9.776,-0.1,0.3532608695652176,0.1
9.784,-0.1,0.3445652173913034,0.1
9.792,-0.1,0.3358695652173912,0.1
9.8,-0.1,0.3271739130434771,0.1
9.808,-0.1,0.3184782608695649,0.1
9.816,-0.1,0.3097826086956508,0.1
9.824,-0.1,0.30108695652173856,0.1
9.832,-0.2980582524271821,0.2,0.0
9.84,-0.2825242718446595,0.2,0.0
9.848,-0.2669902912621334,0.2,0.0
9.856,-0.25145631067961083,0.2,0.0
9.864,-0.2359223300970848,0.2,0.0
9.872,-0.2203883495145622,0.2,0.0
9.88,-0.20485436893203615,0.2,0.0
9.888,-0.18932038834951354,0.2,0.0
9.896,-0.1737864077669875,0.2,0.0
9.904,-0.15825242718446492,0.2,0.0
9.912,-0.14271844660193886,0.2,0.0
9.92,-0.12718446601941627,0.2,0.0
9.928,-0.11165048543689021,0.2,0.0
9.936,0.1,0.3,0.1
9.944,0.2,0.3,0.1
9.952,0.08588235294117608,0.39294117647058807,0.1
9.96,0.06705882352940945,0.38352941176470473,0.1
9.968,0.048235294117647015,0.3741176470588235,0.1
9.976,0.02941176470588039,0.3647058823529402,0.1
9.984,0.01058823529411794,0.355294117647059,0.1
9.992,-0.008235294117648687,0.34588235294117564,0.1
10.0,-0.027058823529411136,0.3364705882352944,0.1
10.008000000000001,-0.04588235294117776,0.3270588235294111,0.1
10.016,-0.0647058823529402,0.3176470588235299,0.1
10.024000000000001,-0.08352941176470682,0.3082352941176466,0.1
10.032,-0.1199999999999929,0.3199999999999929,0.1
10.040000000000001,0.0,0.499999999999998,-1.973729821555798e-15
10.048,0.0,0.4911111111111103,-0.008888888888889722
10.056000000000001,0.0,0.48222222222222055,-0.017777777777779443
10.064,0.0,0.47333333333333283,-0.026666666666667192
10.072000000000001,0.0,0.4644444444444431,-0.035555555555556916
10.08,0.0,0.4555555555555553,-0.04444444444444466
10.088000000000001,0.0,0.4466666666666656,-0.053333333333334385
10.096,0.0,0.4377777777777779,-0.06222222222222214
10.104000000000001,0.0,0.42888888888888815,-0.07111111111111186
10.112,0.0,0.42000000000000043,-0.07999999999999961
10.120000000000001,0.0,0.4111111111111107,-0.08888888888888932
10.128,0.0,0.4022222222222229,-0.09777777777777708
10.136000000000001,0.0,0.4,0.0
10.144,0.2,0.4952941176470593,-0.00941176470588142
10.152000000000001,0.2,0.48588235294117577,-0.028235294117648437
10.16,0.2,0.47647058823529437,-0.04705882352941128
10.168000000000001,0.2,0.46705882352941086,-0.0658823529411783
10.176,0.2,0.45764705882352946,-0.08470588235294113
10.184000000000001,0.2,0.44823529411764595,-0.10352941176470816
10.192,0.2,0.4388235294117645,-0.122352941176471
10.200000000000001,0.2,0.42941176470588105,-0.141176470588238
10.208,0.2,0.4199999999999996,-0.16000000000000086
10.216000000000001,0.2,0.4105882352941161,-0.17882352941176788
10.224,0.2,0.4011764705882347,-0.1976470588235307
10.232000000000001,-4.93432455388956e-15,0.20000000000000165,-0.6000000000000033
10.24,-0.0222222222222246,0.2074074074074082,-0.6148148148148164
10.248,-0.04444444444444426,0.21481481481481476,-0.6296296296296295
10.256,-0.06666666666666886,0.22222222222222296,-0.6444444444444459
10.264,-0.08888888888888852,0.22962962962962952,-0.659259259259259
10.272,-0.11111111111111312,0.2370370370370377,-0.6740740740740754
10.28,-0.13333333333333278,0.24444444444444427,-0.6888888888888886
10.288,-0.1555555555555574,0.25185185185185244,-0.7037037037037049
10.296,-0.17777777777777704,0.259259259259259,-0.718518518518518
10.304,-0.20000000000000165,0.2666666666666672,-0.7333333333333345
10.312,-0.22222222222222132,0.27407407407407375,-0.7481481481481476
10.32,-0.2444444444444459,0.28148148148148194,-0.762962962962964
10.328,-0.26666666666666555,0.28888888888888853,-0.7777777777777771
10.336,-0.2888888888888902,0.2962962962962967,-0.7925925925925935
10.344,-0.3,0.2,-0.4
10.352,-0.030000000000001775,-0.09500000000000267,-0.23000000000000176
10.36,0.04999999999999111,0.0249999999999867,-0.15000000000000888
10.368,0.11525423728813637,0.1,-0.08474576271186364
10.376,0.1559322033898273,0.1,-0.04406779661017271
10.384,0.19661016949152726,0.1,-0.0033898305084727326
10.392,0.2372881355932182,0.1,0.0372881355932182
10.4,0.2779661016949182,0.1,0.07796610169491816
10.408,0.31864406779660914,0.1,0.1186440677966091
10.416,0.3593220338983091,0.1,0.1593220338983091
10.424,0.4,0.1,0.20000000000000004
10.432,1.094949494949489,-0.30202020202020446,-0.0010101010101022426
10.44,1.054545454545453,-0.31818181818181884,-0.009090909090909418
10.448,1.0141414141414082,-0.3343434343434368,-0.01717171717171839
10.456,0.9737373737373722,-0.3505050505050511,-0.025252525252525564
10.464,0.9333333333333274,-0.366666666666669,-0.03333333333333453
10.472,0.8929292929292916,-0.3828282828282834,-0.04141414141414171
10.48,0.8525252525252467,-0.39898989898990134,-0.04949494949495068
10.488,0.8121212121212108,-0.4151515151515157,-0.057575757575757856
10.496,0.771717171717166,-0.43131313131313365,-0.06565656565656683
10.504,0.73131313131313,-0.447474747474748,-0.073737373737374
10.512,0.6909090909090851,-0.46363636363636596,-0.08181818181818297
10.52,0.6505050505050494,-0.4797979797979803,-0.08989898989899014
10.528,0.6101010101010045,-0.4959595959595982,-0.09797979797979911
10.536,0.5,-0.3,0.0
10.544,-0.2,-0.3,0.0
10.552,-0.2,-0.3,0.0
10.56,-0.2,-0.3,0.0
10.568,-0.2,-0.3,0.0
10.576,-0.2,-0.3,0.0
10.584,-0.2,-0.3,0.0
10.592,-0.2,-0.3,0.0
10.6,-0.2,-0.3,0.0
10.608,-0.2,-0.3,0.0
10.616,-0.2,-0.3,0.0
10.624,-0.2,-0.3,0.0
10.632,-0.2,-0.8,-0.8
10.64,-0.5080808080808108,-0.5121212121212162,-0.6959595959595946
10.648,-0.5242424242424251,-0.5363636363636377,-0.6878787878787874
10.656,-0.540404040404043,-0.5606060606060645,-0.6797979797979784
10.664,-0.5565656565656574,-0.5848484848484861,-0.6717171717171713
10.672,-0.5727272727272753,-0.609090909090913,-0.6636363636363622
10.68,-0.5888888888888897,-0.6333333333333345,-0.6555555555555551
10.688,-0.6050505050505076,-0.6575757575757615,-0.6474747474747462
10.696,-0.621212121212122,-0.681818181818183,-0.639393939393939
10.704,-0.6373737373737399,-0.7060606060606098,-0.63131313131313
10.712,-0.6535353535353543,-0.7303030303030315,-0.6232323232323228
10.72,-0.6696969696969721,-0.7545454545454583,-0.6151515151515139
10.728,-0.6858585858585865,-0.7787878787878799,-0.6070707070707066
10.736,-0.5999999999998985,-0.7714285714285425,-0.6
10.744,-0.06666666666666667,-0.6,-0.6
10.752,-0.14999999999997335,-0.5999999999999822,-0.649999999999991
10.76,-0.008823529411765091,-0.5,-0.6
10.768,-0.03235294117647374,-0.5,-0.6
10.776,-0.05588235294117716,-0.5,-0.6
10.784,-0.07941176470588582,-0.5,-0.6
10.792,-0.10294117647058923,-0.5,-0.6
10.8,-0.1264705882352979,-0.5,-0.6
10.808,-0.1500000000000013,-0.5,-0.6
10.816,-0.17352941176470996,-0.5,-0.6
10.824,-0.19705882352941337,-0.5,-0.6
10.832,0.042857142857135606,-0.3428571428571356,-0.5571428571428644
10.84,-0.103409090909091,-0.303409090909091,-0.596590909090909
10.848,-0.11250000000000102,-0.312500000000001,-0.587499999999999
10.856,-0.121590909090909,-0.321590909090909,-0.578409090909091
10.864,-0.130681818181819,-0.330681818181819,-0.569318181818181
10.872,-0.139772727272727,-0.339772727272727,-0.560227272727273
10.88,-0.14886363636363703,-0.348863636363637,-0.551136363636363
10.888,-0.15795454545454501,-0.357954545454545,-0.5420454545454549
10.896,-0.16704545454545502,-0.367045454545455,-0.532954545454545
10.904,-0.176136363636363,-0.376136363636363,-0.523863636363637
10.912,-0.18522727272727302,-0.38522727272727303,-0.5147727272727269
10.92,-0.194318181818181,-0.394318181818181,-0.505681818181819
10.928,0.1333333333333136,-0.3,-0.6333333333333432
10.936,-0.3,-0.3,-0.4
10.944,-0.24999999999999445,-0.3,-0.4
10.952,-0.2,-0.3,-0.4
10.96,-0.14999999999999444,-0.3,-0.4
10.968,-0.1,-0.3,-0.4
10.976,-0.04999999999999444,-0.3,-0.4
10.984,0.0,-0.3,-0.4
10.992,0.05000000000000554,-0.3,-0.4
11.0,0.09999999999999998,-0.3,-0.4
11.008000000000001,0.15000000000000552,-0.3,-0.4
11.016,0.19999999999999996,-0.3,-0.4
11.024000000000001,0.2500000000000055,-0.3,-0.4
11.032,0.3,-0.3,-0.4
11.040000000000001,0.1949494949494888,-0.2,-0.5010101010101022
11.048,0.15454545454545293,-0.2,-0.5090909090909094
11.056000000000001,0.11414141414140808,-0.2,-0.5171717171717184
11.064,0.07373737373737221,-0.2,-0.5252525252525255
11.072000000000001,0.03333333333332736,-0.2,-0.5333333333333345
11.08,-0.007070707070708504,-0.2,-0.5414141414141417
11.088000000000001,-0.04747474747475336,-0.2,-0.5494949494949507
11.096,-0.08787878787878922,-0.2,-0.5575757575757578
11.104000000000001,-0.12828282828283405,-0.2,-0.5656565656565669
11.112,-0.16868686868686994,-0.2,-0.573737373737374
11.120000000000001,-0.20909090909091477,-0.2,-0.5818181818181829
11.128,-0.24949494949495066,-0.2,-0.5898989898989901
11.136000000000001,-0.2898989898989955,-0.2,-0.597979797979799
11.144,0.6100000000000124,-0.13999999999999646,-0.5300000000000018
11.152000000000001,0.2,-0.20000000000000248,-0.8999999999999926
11.16,0.2,-0.21111111111111222,-0.8666666666666634
11.168000000000001,0.2,-0.22222222222222443,-0.8333333333333268
11.176,0.2,-0.23333333333333417,-0.7999999999999976
11.184000000000001,0.2,-0.24444444444444635,-0.766666666666661
11.192,0.2,-0.2555555555555561,-0.7333333333333317
11.200000000000001,0.2,-0.2666666666666683,-0.6999999999999951
11.208,0.2,-0.277777777777778,-0.6666666666666659
11.216000000000001,0.2,-0.28888888888889025,-0.6333333333333292
11.224,0.2,-0.3,-0.6
11.232000000000001,0.48571428571424224,-0.2,-0.6714285714285859
11.24,0.48888888888888715,-0.31111111111111284,-0.5055555555555564
11.248000000000001,0.4711111111111073,-0.32888888888889267,-0.5144444444444464
11.256,0.4533333333333315,-0.3466666666666685,-0.5233333333333342
11.264,0.43555555555555564,-0.36444444444444435,-0.5322222222222222
11.272,0.41777777777777586,-0.38222222222222413,-0.5411111111111121
11.28,0.4,-0.4,-0.55
11.288,0.3822222222222202,-0.4177777777777798,-0.5588888888888899
11.296,0.36444444444444435,-0.43555555555555564,-0.5677777777777778
11.304,0.34666666666666457,-0.4533333333333355,-0.5766666666666678
11.312,0.3288888888888887,-0.47111111111111126,-0.5855555555555556
11.32,0.3111111111111089,-0.4888888888888911,-0.5944444444444456
11.328,0.4499999999999778,-0.5000000000000444,-0.5999999999999556
11.336,0.5931034482758658,-0.5034482758620671,-0.4
11.344,0.5379310344827684,-0.5310344827586159,-0.4
11.352,0.4827586206896585,-0.5586206896551708,-0.4
11.36,0.427586206896561,-0.5862068965517195,-0.4
11.368,0.37241379310345124,-0.6137931034482744,-0.4
11.376,0.3172413793103537,-0.6413793103448231,-0.4
11.384,0.2620689655172439,-0.6689655172413781,-0.4
11.392,0.2068965517241464,-0.6965517241379269,-0.4
11.4,0.15172413793103662,-0.7241379310344818,-0.4
11.408,0.09655172413793911,-0.7517241379310304,-0.4
11.416,0.04137931034482922,-0.7793103448275853,-0.4
11.424,-0.07499999999996669,-0.8749999999999667,-0.4499999999999778
11.432,0.10000000000017767,-1.0499999999999778,-0.7000000000000444
11.44,0.5898989898989955,-0.5121212121212054,-0.5939393939393973
11.448,0.5494949494949507,-0.5606060606060592,-0.5696969696969704
11.456,0.5090909090909148,-0.6090909090909022,-0.5454545454545489
11.464,0.46868686868686993,-0.657575757575756,-0.5212121212121219
11.472,0.42828282828283404,-0.7060606060605992,-0.49696969696970045
11.48,0.3878787878787892,-0.754545454545453,-0.47272727272727355
11.488,0.3474747474747533,-0.803030303030296,-0.44848484848485204
11.496,0.3070707070707085,-0.8515151515151498,-0.4242424242424251
11.504,0.2666666666666726,-0.8999999999999928,-0.4000000000000036
11.512,0.22626262626262778,-0.9484848484848467,-0.3757575757575767
11.52,0.18585858585859188,-0.9969696969696897,-0.3515151515151551
11.528,0.14545454545454706,-1.0454545454545436,-0.32727272727272827
11.536,0.10505050505051117,-1.0939393939393867,-0.3030303030303067
11.544,0.2400000000000142,-1.1399999999999966,-0.6200000000000071
11.552,0.39714285714285874,-0.9,-0.5990476190476196
11.56,0.37428571428571344,-0.9,-0.5914285714285711
11.568,0.3514285714285732,-0.9,-0.5838095238095243
11.576,0.32857142857142785,-0.9,-0.5761904761904759
11.584,0.3057142857142876,-0.9,-0.5685714285714292
11.592,0.28285714285714225,-0.9,-0.5609523809523808
11.6,0.260000000000002,-0.9,-0.553333333333334
11.608,0.2371428571428567,-0.9,-0.5457142857142856
11.616,0.21428571428571644,-0.9,-0.5380952380952388
11.624,0.19142857142857111,-0.9,-0.5304761904761903
11.632,0.16857142857143087,-0.9,-0.5228571428571436
11.64,0.14571428571428552,-0.9,-0.5152380952380952
11.648,0.12285714285714527,-0.9,-0.5076190476190484
11.656,0.09999999999999998,-0.9,-0.5
11.664,0.6000000000000001,-0.9,-0.6499999999999999
11.672,-0.07142857142859409,-0.8071428571428595,-0.3071428571428594
11.68,-0.21428571428571883,-0.821428571428572,-0.3214285714285719
11.688,-0.3571428571428753,-0.8357142857142875,-0.3357142857142875
11.696,-0.5,-0.8500000000000001,-0.35
11.704,-0.6428571428571564,-0.8642857142857157,-0.36428571428571566
11.712,-0.7857142857142813,-0.8785714285714281,-0.3785714285714281
11.72,-0.9285714285714377,-0.8928571428571438,-0.3928571428571438
11.728,-0.9000000000000148,-0.9666666666666568,-0.4333333333333284
11.736,-0.7,-1.1,-0.5
11.744,1.3720930232558128,-0.6034883720930233,-0.3
11.752,1.297674418604642,-0.6127906976744197,-0.3
11.76,1.2232558139534877,-0.622093023255814,-0.3
11.768,1.148837209302317,-0.6313953488372104,-0.3
11.776,1.0744186046511626,-0.6406976744186046,-0.3
11.784,0.9999999999999917,-0.650000000000001,-0.3
11.792,0.9255813953488374,-0.6593023255813952,-0.3
11.8,0.8511627906976665,-0.6686046511627917,-0.3
11.808,0.7767441860465122,-0.6779069767441859,-0.3
11.816,0.7023255813953413,-0.6872093023255823,-0.3
11.824,0.627906976744187,-0.6965116279069765,-0.3
11.832,-0.18000000000002842,-0.9,-0.3599999999999858
11.84,-0.04999999999999999,-0.8,-0.35
11.848,0.12210526315789917,-0.792631578947367,-0.4
11.856,0.14736842105263306,-0.784210526315789,-0.4
11.864,0.17263157894737258,-0.7757894736842091,-0.4
11.872,0.19789473684210646,-0.7673684210526313,-0.4
11.88,0.22315789473684597,-0.7589473684210514,-0.4
11.888,0.24842105263157985,-0.7505263157894734,-0.4
11.896,0.27368421052631936,-0.7421052631578935,-0.4
11.904,0.2989473684210533,-0.7336842105263156,-0.4
11.912,0.3242105263157927,-0.7252631578947357,-0.4
11.92,0.34947368421052666,-0.7168421052631577,-0.4
11.928,0.37473684210526614,-0.708421052631578,-0.4
11.936,0.4,-0.7,-0.4
11.944,0.6000000000000147,-0.6333333333333284,-0.4
11.952,0.7,-0.6,-0.4
11.96,0.4,-0.6,-0.4
11.968,0.3083333333333335,-0.7,-0.3
11.976,0.31944444444444575,-0.7,-0.3
11.984,0.3305555555555555,-0.7,-0.3
11.992,0.3416666666666677,-0.7,-0.3
12.0,0.35277777777777747,-0.7,-0.3
12.008000000000001,0.36388888888888965,-0.7,-0.3
12.016,0.3749999999999994,-0.7,-0.3
12.024000000000001,0.3861111111111116,-0.7,-0.3
12.032,0.39722222222222137,-0.7,-0.3
12.040000000000001,1.000000000000002,-0.299999999999998,-0.300000000000002
12.048,1.00909090909091,-0.29090909090909,-0.30909090909091
12.056000000000001,1.01818181818182,-0.28181818181817997,-0.31818181818182
12.064,1.027272727272728,-0.272727272727272,-0.327272727272728
12.072000000000001,1.0363636363636382,-0.263636363636362,-0.33636363636363803
12.08,1.045454545454546,-0.254545454545454,-0.345454545454546
12.088000000000001,1.054545454545456,-0.24545454545454398,-0.354545454545456
12.096,1.0636363636363642,-0.236363636363636,-0.363636363636364
12.104000000000001,1.072727272727274,-0.22727272727272602,-0.372727272727274
12.112,1.081818181818182,-0.218181818181818,-0.381818181818182
12.120000000000001,1.0909090909090922,-0.209090909090908,-0.39090909090909204
12.128,1.1,-0.2,-0.4
12.136000000000001,-0.2949999999999939,-0.5,-0.20100000000000123
12.144,-0.2549999999999981,-0.5,-0.20900000000000038
12.152000000000001,-0.2149999999999935,-0.5,-0.2170000000000013
12.16,-0.17499999999999777,-0.5,-0.22500000000000045
12.168000000000001,-0.13499999999999315,-0.5,-0.23300000000000137
12.176,-0.09499999999999742,-0.5,-0.24100000000000052
12.184000000000001,-0.054999999999992805,-0.5,-0.24900000000000144
12.192,-0.014999999999997071,-0.5,-0.25700000000000056
12.200000000000001,0.02500000000000757,-0.5,-0.2650000000000015
12.208,0.06500000000000328,-0.5,-0.2730000000000007
12.216000000000001,0.10500000000000792,-0.5,-0.2810000000000016
12.224,0.14500000000000363,-0.5,-0.2890000000000007
12.232000000000001,0.18500000000000827,-0.5,-0.29700000000000165
12.24,0.7,-0.3,-0.2
12.248000000000001,0.6829787234042533,-0.3,-0.2
12.256,0.6659574468085103,-0.3,-0.2
12.264000000000001,0.6489361702127636,-0.3,-0.2
12.272,0.6319148936170208,-0.3,-0.2
12.280000000000001,0.6148936170212741,-0.3,-0.2
12.288,0.5978723404255312,-0.3,-0.2
12.296,0.5808510638297882,-0.3,-0.2
12.304,0.5638297872340415,-0.3,-0.2
12.312,0.5468085106382987,-0.3,-0.2
12.32,0.529787234042552,-0.3,-0.2
12.328,0.5127659574468091,-0.3,-0.2
12.336,0.4799999999999929,-0.3,-0.17999999999999292
12.344,0.4,-0.3,-0.1
12.352,-0.4035294117647061,-0.4035294117647061,0.0
12.36,-0.4129411764705875,-0.4129411764705875,0.0
12.368,-0.422352941176471,-0.422352941176471,0.0
12.376,-0.4317647058823524,-0.4317647058823524,0.0
12.384,-0.44117647058823595,-0.44117647058823595,0.0
12.392,-0.45058823529411735,-0.45058823529411735,0.0
12.4,-0.46000000000000085,-0.46000000000000085,0.0
12.408,-0.46941176470588225,-0.46941176470588225,0.0
12.416,-0.47882352941176576,-0.47882352941176576,0.0
12.424,-0.4882352941176472,-0.4882352941176472,0.0
12.432,-0.49764705882353066,-0.49764705882353066,0.0
12.44,0.17999999999997868,-0.2400000000000071,-0.1
12.448,0.5,-0.20987654320987553,-0.09506172839506224
12.456,0.5,-0.22962962962962655,-0.08518518518518674
12.464,0.5,-0.24938271604938198,-0.07530864197530902
12.472,0.5,-0.269135802469133,-0.06543209876543352
12.48,0.5,-0.2888888888888884,-0.0555555555555558
12.488,0.5,-0.30864197530863946,-0.04567901234568029
12.496,0.5,-0.32839506172839483,-0.03580246913580258
12.504,0.5,-0.3481481481481459,-0.02592592592592706
12.512,0.5,-0.3679012345679013,-0.01604938271604936
12.52,0.5,-0.38765432098765235,-0.006172839506173838
12.528,0.0,-0.7,0.1
12.536,-0.3888888888888911,-0.7074074074074059,0.1
12.544,-0.3711111111111113,-0.7192592592592592,0.1
12.552,-0.35333333333333544,-0.7311111111111097,0.1
12.56,-0.33555555555555566,-0.7429629629629628,0.1
12.568,-0.3177777777777798,-0.7548148148148135,0.1
12.576,-0.30000000000000004,-0.7666666666666666,0.1
12.584,-0.28222222222222415,-0.7785185185185172,0.1
12.592,-0.26444444444444437,-0.7903703703703704,0.1
12.6,-0.24666666666666853,-0.802222222222221,0.1
12.608,-0.22888888888888873,-0.8140740740740742,0.1
12.616,-0.2111111111111129,-0.8259259259259247,0.1
12.624,-0.19333333333333308,-0.837777777777778,0.1
12.632,-0.17555555555555724,-0.8496296296296285,0.1
12.64,-0.15777777777777743,-0.8614814814814817,0.1
12.648,-0.14000000000000157,-0.8733333333333323,0.1
12.656,-0.12222222222222179,-0.8851851851851855,0.1
12.664,-0.10444444444444595,-0.8970370370370361,0.1
12.672,0.11428571428573242,-0.7,0.0
12.68,0.19620253164556953,-0.6037974683544305,-0.08481012658227803
12.688,0.18607594936708746,-0.6139240506329126,-0.04430379746834976
12.696,0.17594936708860764,-0.6240506329113924,-0.003797468354430497
12.704,0.16582278481012558,-0.6341772151898744,0.03670886075949778
12.712,0.15569620253164573,-0.6443037974683542,0.07721518987341705
12.72,0.14556962025316367,-0.6544303797468363,0.11772151898734531
12.728,0.13544303797468388,-0.6645569620253161,0.15822784810126458
12.736,0.1253164556962018,-0.6746835443037982,0.19873417721519285
12.744,0.11518987341772198,-0.684810126582278,0.23924050632911212
12.752,0.10506329113923991,-0.6949367088607601,0.27974683544304035
12.76,-0.10000000000000003,-0.7,0.2
12.768,0.12758620689656103,-0.4931034482758597,0.1
12.776,0.18275862068965856,-0.4793103448275854,0.1
12.784,0.23793103448276837,-0.46551724137930794,0.1
12.792,0.2931034482758659,-0.45172413793103355,0.1
12.8,0.34827586206897565,-0.4379310344827561,0.1
12.808,0.4034482758620732,-0.4241379310344817,0.1
12.816,0.458620689655183,-0.4103448275862043,0.1
12.824,0.5,-0.3666666666666568,0.1
12.832,-0.2032967032967073,-0.3,0.1
12.84,-0.22967032967033046,-0.3,0.1
12.848,-0.25604395604395946,-0.3,0.1
12.856,-0.28241758241758264,-0.3,0.1
12.864,-0.30879120879121164,-0.3,0.1
12.872,-0.33516483516483475,-0.3,0.1
12.88,-0.3615384615384638,-0.3,0.1
12.888,-0.387912087912087,-0.3,0.1
12.896,-0.4142857142857159,-0.3,0.1
12.904,-0.4406593406593391,-0.3,0.1
12.912,-0.46703296703296815,-0.3,0.1
12.92,-0.49340659340659127,-0.3,0.1
12.928,1.1,0.10000000000000003,-0.3
12.936,1.4902439024390242,0.2,-0.1
12.944,1.4772357723577219,0.2,-0.1
12.952,1.4642276422764227,0.2,-0.1
12.96,1.4512195121951206,0.2,-0.1
12.968,1.4382113821138214,0.2,-0.1
12.976,1.425203252032519,0.2,-0.1
12.984,1.4121951219512199,0.2,-0.1
12.992,1.3991869918699178,0.2,-0.1
13.0,1.3861788617886184,0.2,-0.1
13.008000000000001,1.3731707317073163,0.2,-0.1
13.016,1.360162601626017,0.2,-0.1
13.024000000000001,1.347154471544715,0.2,-0.1
13.032,1.3341463414634156,0.2,-0.1
13.040000000000001,1.3211382113821135,0.2,-0.1
13.048,1.3081300813008143,0.2,-0.1
13.056000000000001,0.549999999999778,0.049999999999955594,0.0
13.064,-0.3384615384615448,-0.1923076923076965,0.1
13.072000000000001,-0.49649122807017115,-0.3017543859649144,0.0982456140350856
13.08,-0.46842105263157796,-0.315789473684211,0.08421052631578899
13.088000000000001,-0.4403508771929785,-0.32982456140351074,0.07017543859648927
13.096,-0.4122807017543853,-0.34385964912280736,0.05614035087719266
13.104000000000001,-0.38421052631578584,-0.3578947368421071,0.04210526315789293
13.112,-0.35614035087719265,-0.37192982456140367,0.02807017543859633
13.120000000000001,-0.3280701754385932,-0.3859649122807034,0.014035087719296596
13.128,-0.3,-0.4,0.0
13.136000000000001,0.27999999999997865,-0.2,0.020000000000021317
13.144,0.19545454545454594,-0.2045454545454541,0.1
13.152000000000001,0.18636363636363573,-0.2136363636363643,0.1
13.16,0.17727272727272755,-0.22272727272727247,0.1
13.168000000000001,0.16818181818181738,-0.23181818181818264,0.1
13.176,0.1590909090909092,-0.24090909090909082,0.1
13.184000000000001,0.149999999999999,-0.250000000000001,0.1
13.192,0.14090909090909082,-0.2590909090909092,0.1
13.200000000000001,0.1318181818181806,-0.2681818181818194,0.1
13.208,0.12272727272727246,-0.27727272727272756,0.1
13.216000000000001,0.11363636363636226,-0.2863636363636377,0.1
13.224,0.1045454545454541,-0.2954545454545459,0.1
13.232000000000001,-0.4,-0.5000000000001776,0.2
13.24,-0.18421052631578713,-0.6,0.19473684210526238
13.248000000000001,-0.15894736842104762,-0.6,0.18631578947368255
13.256,-0.13368421052631374,-0.6,0.17789473684210458
13.264000000000001,-0.10842105263157423,-0.6,0.16947368421052475
13.272,-0.08315789473684033,-0.6,0.16105263157894678
13.280000000000001,-0.057894736842100836,-0.6,0.15263157894736695
13.288,-0.03263157894736693,-0.6,0.14421052631578898
13.296000000000001,-0.007368421052627444,-0.6,0.13578947368420916
13.304,0.017894736842106462,-0.6,0.1273684210526312
13.312000000000001,0.043157894736845975,-0.6,0.11894736842105136
13.32,0.06842105263157988,-0.6,0.11052631578947339
13.328,0.09368421052631376,-0.6,0.10210526315789542
13.336,0.0,-0.5,0.2
13.344,-0.03199999999999659,-0.5079999999999991,0.2
13.352,-0.06400000000000028,-0.516,0.2
13.36,-0.09599999999999688,-0.5239999999999992,0.2
13.368,-0.12800000000000056,-0.5320000000000001,0.2
13.376,-0.15999999999999714,-0.5399999999999993,0.2
13.384,-0.19200000000000086,-0.5480000000000002,0.2
13.392,-0.22399999999999745,-0.5559999999999994,0.2
13.4,-0.2560000000000011,-0.5640000000000003,0.2
13.408,-0.2879999999999977,-0.5719999999999994,0.2
13.416,-0.3200000000000014,-0.5800000000000003,0.2
13.424,-0.35199999999999804,-0.5879999999999995,0.2
13.432,-0.38400000000000173,-0.5960000000000004,0.2
13.44,-0.45555555555558186,-0.6777777777777909,0.2
13.448,-0.09999999999999992,-0.5,0.2
13.456,0.30000000000000004,-0.3,0.1
13.464,0.3112676056338041,-0.3,0.1
13.472,0.32253521126760576,-0.3,0.1
13.48,0.33380281690140984,-0.3,0.1
13.488,0.3450704225352115,-0.3,0.1
13.496,0.3563380281690156,-0.3,0.1
13.504,0.36760563380281724,-0.3,0.1
13.512,0.3788732394366214,-0.3,0.1
13.52,0.390140845070423,-0.3,0.1
13.528,0.4,-0.2499999999999556,0.1
13.536,0.12000000000002133,-0.3799999999999787,0.1
13.544,0.11238938053097293,-0.39380530973451355,0.09380530973451354
13.552,0.12654867256636965,-0.3867256637168152,0.08672566371681519
13.56,0.14070796460176951,-0.37964601769911527,0.07964601769911525
13.568,0.15486725663716625,-0.3725663716814169,0.07256637168141689
13.576,0.1690265486725661,-0.365486725663717,0.06548672566371694
13.584,0.18318584070796284,-0.3584070796460186,0.05840707964601858
13.592,0.1973451327433627,-0.35132743362831864,0.051327433628318646
13.6,0.21150442477875944,-0.3442477876106203,0.04424778761062028
13.608,0.2256637168141593,-0.33716814159292036,0.03716814159292034
13.616,0.23982300884955604,-0.33008849557522196,0.030088495575221974
13.624,0.2539823008849559,-0.32300884955752207,0.02300884955752204
13.632,0.26814159292035267,-0.3159292035398237,0.015929203539823675
13.64,0.2823008849557525,-0.30884955752212373,0.008849557522123741
13.648,0.29646017699114924,-0.30176991150442534,0.0017699115044253755
13.656,0.7,-0.09999999999991119,-0.10000000000008882
13.664,0.709859154929577,0.0,-0.19014084507042298
13.672,0.7211267605633811,0.0,-0.17887323943661884
13.68,0.7323943661971828,0.0,-0.16760563380281723
13.688,0.7436619718309869,0.0,-0.1563380281690131
13.696,0.7549295774647885,0.0,-0.1450704225352115
13.704,0.7661971830985926,0.0,-0.13380281690140738
13.712,0.7774647887323943,0.0,-0.12253521126760575
13.72,0.7887323943661984,0.0,-0.11126760563380163
13.728,0.8,0.0,-0.1
13.736,-0.39904761904761793,-0.6990476190476178,-0.4
13.744,-0.3914285714285712,-0.6914285714285711,-0.4
13.752,-0.3838095238095227,-0.6838095238095226,-0.4
13.76,-0.37619047619047596,-0.6761904761904759,-0.4
13.768,-0.3685714285714275,-0.6685714285714275,-0.4
13.776,-0.36095238095238075,-0.6609523809523807,-0.4
13.784,-0.35333333333333233,-0.6533333333333323,-0.4
13.792,-0.3457142857142856,-0.6457142857142856,-0.4
13.8,-0.3380952380952371,-0.638095238095237,-0.4
13.808,-0.33047619047619037,-0.6304761904761903,-0.4
13.816,-0.32285714285714195,-0.6228571428571419,-0.4
13.824,-0.3152380952380952,-0.6152380952380951,-0.4
13.832,-0.30761904761904674,-0.6076190476190467,-0.4
13.84,-0.3,-0.6,-0.4
13.848,0.18000000000001423,-0.08999999999998934,-0.15999999999999287
13.856,0.596341463414634,0.2,0.0036585365853659597
13.864,0.5865853658536574,0.2,0.013414634146342573
13.872,0.576829268292683,0.2,0.02317073170731702
13.88,0.5670731707317064,0.2,0.032926829268293635
13.888,0.5573170731707319,0.2,0.04268292682926808
13.896,0.5475609756097553,0.2,0.0524390243902447
13.904,0.5378048780487809,0.2,0.062195121951219144
13.912,0.5280487804878042,0.2,0.07195121951219575
13.92,0.5182926829268298,0.2,0.08170731707317021
13.928,0.5085365853658532,0.2,0.09146341463414683
13.936,0.4,0.2,0.1
13.944,0.2,-0.1,0.0
13.952,0.19101123595505703,-0.1,0.0
13.96,0.1820224719101121,-0.1,0.0
13.968,0.1730337078651691,-0.1,0.0
13.976,0.16404494382022416,-0.1,0.0
13.984,0.1550561797752812,-0.1,0.0
13.992,0.14606741573033621,-0.1,0.0
14.0,0.13707865168539324,-0.1,0.0
14.008000000000001,0.1280898876404483,-0.1,0.0
14.016,0.11910112359550531,-0.1,0.0
14.024000000000001,0.11011235955056035,-0.1,0.0
14.032,0.10112359550561739,-0.1,0.0
14.040000000000001,0.0,-0.1857142857142422,-0.014285714285757797
14.048,-0.10384615384615403,0.18461538461538393,-0.19615384615384598
14.056000000000001,-0.11410256410256552,0.143589743589738,-0.18589743589743452
14.064,-0.12435897435897472,0.10256410256410117,-0.1756410256410253
14.072000000000001,-0.1346153846153862,0.06153846153845524,-0.16538461538461383
14.08,-0.1448717948717954,0.020512820512818414,-0.1551282051282046
14.088000000000001,-0.15512820512820688,-0.020512820512827518,-0.14487179487179314
14.096,-0.16538461538461607,-0.06153846153846432,-0.13461538461538392
14.104000000000001,-0.17564102564102757,-0.1025641025641103,-0.12435897435897243
14.112,-0.1858974358974368,-0.14358974358974708,-0.11410256410256324
14.120000000000001,-0.19615384615384826,-0.184615384615393,-0.10384615384615176
14.128,-0.1,-0.028571428571414075,-0.11428571428570704
14.136000000000001,-0.09479166666666031,0.19895833333333207,-0.1916666666666565
14.144,-0.05312499999999827,0.19062499999999966,-0.12499999999999722
14.152000000000001,-0.011458333333326978,0.1822916666666654,-0.05833333333332316
14.16,0.030208333333335058,0.173958333333333,0.008333333333336107
14.168000000000001,0.07187500000000635,0.16562499999999875,0.07500000000001017
14.176,0.1135416666666684,0.15729166666666633,0.1416666666666695
14.184000000000001,0.1552083333333397,0.14895833333333208,0.20833333333334353
14.192,0.19687500000000172,0.14062499999999967,0.2750000000000028
14.200000000000001,0.238541666666673,0.1322916666666654,0.34166666666667694
14.208,0.28020833333333506,0.12395833333333299,0.40833333333333616
14.216000000000001,0.32187500000000635,0.11562499999999873,0.47500000000001025
14.224,0.36354166666666843,0.10729166666666633,0.5416666666666694
14.232000000000001,0.34999999999995557,0.049999999999955594,0.29999999999973354
14.24,0.020000000000007068,-0.20999999999999466,0.0
14.248000000000001,0.0,-0.21818181818177412,0.1
14.256,0.0,0.0,0.1
14.264000000000001,-0.010810810810812043,0.0,0.08918918918918796
14.272,-0.021621621621621685,0.0,0.07837837837837833
14.280000000000001,-0.03243243243243373,0.0,0.06756756756756627
14.288,-0.04324324324324337,0.0,0.056756756756756635
14.296000000000001,-0.05405405405405542,0.0,0.04594594594594459
14.304,-0.06486486486486506,0.0,0.03513513513513494
14.312000000000001,-0.07567567567567711,0.0,0.024324324324322896
14.32,-0.08648648648648674,0.0,0.013513513513513264
14.328000000000001,-0.09729729729729879,0.0,0.002702702702701218
14.336,0.07142857142858594,0.2571428571428789,0.08571428571429297
14.344,0.2999999999999112,0.34999999999995557,0.10000000000008882
14.352,0.3835294117647065,0.3752941176470597,-0.02470588235294029
14.36,0.36470588235294366,0.34705882352941547,-0.05294117647058454
14.368,0.34588235294117664,0.31882352941176495,-0.08117647058823507
14.376,0.3270588235294138,0.2905882352941207,-0.10941176470587932
14.384,0.3082352941176468,0.2623529411764701,-0.13764705882352984
14.392,0.2894117647058839,0.23411764705882587,-0.1658823529411741
14.4,0.2705882352941169,0.20588235294117535,-0.19411764705882462
14.408,0.2517647058823541,0.1776470588235311,-0.22235294117646887
14.416,0.23294117647058707,0.14941176470588058,-0.2505882352941194
14.424,0.21411764705882422,0.12117647058823627,-0.27882352941176364
14.432,-0.10000000000000003,-0.20000000000000004,-0.4
14.44,-0.09603960396039651,0.01188118811881047,0.1
14.448,-0.08811881188118778,0.03564356435643669,0.1
14.456,-0.0801980198019808,0.05940594059405763,0.1
14.464,-0.07227722772277205,0.08316831683168384,0.1
14.472,-0.06435643564356508,0.10693069306930478,0.1
14.48,-0.05643564356435633,0.130693069306931,0.1
14.488,-0.048514851485149356,0.15445544554455193,0.1
14.496,-0.040594059405940616,0.17821782178217815,0.1
14.504,-0.03267326732673363,0.20198019801979908,0.1
14.512,-0.0247524752475249,0.2257425742574253,0.1
14.52,-0.016831683168317915,0.24950495049504623,0.1
14.528,-0.008910891089109169,0.27326732673267246,0.1
14.536,-0.0009900990099021983,0.2970297029702934,0.1
14.544,0.1,0.1,0.4
14.552,0.1,0.10898876404494297,0.4
14.56,0.1,0.11797752808988793,0.4
14.568,0.1,0.1269662921348309,0.4
14.576,0.1,0.13595505617977588,0.4
14.584,0.1,0.14494382022471883,0.4
14.592,0.1,0.1539325842696638,0.4
14.6,0.1,0.16292134831460675,0.4
14.608,0.1,0.17191011235955173,0.4
14.616,0.1,0.1808988764044947,0.4
14.624,0.1,0.18988764044943968,0.4
14.632,0.1,0.19887640449438262,0.4
14.64,0.17000000000000356,0.2,0.4
14.648,0.23333333333335307,0.06666666666667653,-0.09999999999997039
14.656,0.1,0.008510638297875076,-0.28297872340424984
14.664,0.1,0.02553191489361767,-0.24893617021276465
14.672,0.1,0.04255319148936404,-0.2148936170212719
14.68,0.1,0.059574468085106635,-0.18085106382978675
14.688,0.1,0.076595744680853,-0.146808510638294
14.696,0.1,0.0936170212765956,-0.11276595744680884
14.704,-0.1,0.6,-0.1
14.712,-0.0652173913043512,0.5652173913043512,-0.1
14.72,-0.030434782608694644,0.5304347826086946,-0.1
14.728,0.0010204081632647513,0.49897959183673524,-0.09897959183673526
14.736,0.0091836734693882,0.4908163265306118,-0.09081632653061181
14.744,0.017346938775509836,0.48265306122449014,-0.08265306122449018
14.752,0.02551020408163328,0.4744897959183667,-0.07448979591836673
14.76,0.033673469387754916,0.4663265306122451,-0.06632653061224508
14.768,0.041836734693878365,0.4581632653061216,-0.05816326530612164
14.776,0.05,0.45,-0.05
14.784,0.05816326530612345,0.4418367346938766,-0.041836734693876554
14.792,0.06632653061224508,0.4336734693877549,-0.03367346938775492
14.8,0.07448979591836853,0.4255102040816315,-0.025510204081631474
14.808,0.08265306122449016,0.4173469387755099,-0.017346938775509843
14.816,0.09081632653061361,0.4091836734693864,-0.009183673469386394
14.824,0.09897959183673526,0.4010204081632648,-0.0010204081632647494
14.832,-0.2,-0.30363636363636487,-0.3
14.84,-0.2,-0.3181818181818179,-0.3
14.848,-0.2,-0.33272727272727415,-0.3
14.856,-0.2,-0.3472727272727272,-0.3
14.864,-0.2,-0.36181818181818337,-0.3
14.872,-0.2,-0.3763636363636364,-0.3
14.88,-0.2,-0.39090909090909265,-0.3
14.888,-0.2,-0.4054545454545457,-0.3
14.896,-0.2,-0.4200000000000019,-0.3
14.904,-0.2,-0.43454545454545496,-0.3
14.912,-0.2,-0.4490909090909112,-0.3
14.92,-0.2,-0.4636363636363642,-0.3
14.928,-0.2,-0.4781818181818205,-0.3
14.936,-0.2,-0.49272727272727346,-0.3
14.944,-0.4833333333333136,-0.7999999999998816,-0.8166666666666864
14.952,0.05000000000000002,-0.30000000000000004,0.2
14.96,0.20853658536585537,-0.2,0.28292682926828927
14.968,0.2182926829268298,-0.2,0.2634146341463404
14.976,0.2280487804878064,-0.2,0.24390243902438719
14.984,0.23780487804878087,-0.2,0.22439024390243828
14.992,0.24756097560975748,-0.2,0.20487804878048504
15.0,0.25731707317073194,-0.2,0.18536585365853617
15.008000000000001,0.26707317073170855,-0.2,0.16585365853658293
15.016,0.27682926829268295,-0.2,0.14634146341463405
15.024000000000001,0.28658536585365957,-0.2,0.12682926829268082
15.032,0.296341463414634,-0.2,0.10731707317073194
15.040000000000001,0.0,-0.5,-0.3
15.048,0.007865168539325439,-0.4764044943820237,-0.25280898876404734
15.056000000000001,0.016853932584270225,-0.44943820224718933,-0.19887640449437866
15.064,0.02584269662921301,-0.42247191011236096,-0.1449438202247219
15.072000000000001,0.034831460674157794,-0.3955056179775266,-0.09101123595505323
15.08,0.04382022471910058,-0.3685393258426982,-0.03707865168539648
15.088000000000001,0.05280898876404537,-0.3415730337078639,0.016853932584272202
15.096,0.06179775280898816,-0.31460674157303553,0.07078651685392895
15.104000000000001,0.07078651685393295,-0.2876404494382012,0.12471910112359763
15.112,0.07977528089887573,-0.26067415730337284,0.17865168539325438
15.120000000000001,0.08876404494382051,-0.23370786516853848,0.23258426966292306
15.128,0.0977528089887633,-0.2067415730337101,0.2865168539325798
15.136000000000001,-0.1999999999999961,1.952040482857395e-15,0.09999999999999805
15.144,-0.18241758241758066,0.00879120879120967,0.09120879120879033
15.152000000000001,-0.16483516483516134,0.01758241758241934,0.08241758241758067
15.16,-0.1472527472527459,0.02637362637362706,0.07362637362637295
15.168000000000001,-0.12967032967032655,0.03516483516483673,0.06483516483516327
15.176,-0.1120879120879111,0.04395604395604445,0.05604395604395555
15.184000000000001,-0.09450549450549177,0.05274725274725412,0.047252747252745884
15.192,-0.07692307692307633,0.06153846153846184,0.038461538461538165
15.200000000000001,-0.05934065934065699,0.07032967032967151,0.029670329670328496
15.208,-0.041758241758241554,0.07912087912087923,0.020879120879120777
15.216000000000001,-0.024175824175822203,0.0879120879120889,0.012087912087911101
15.224,-0.006593406593406764,0.09670329670329662,0.003296703296703382
15.232000000000001,0.2,-0.12500000000006664,-0.1500000000000444
15.24,-0.19705882352941168,0.29705882352941165,0.19705882352941168
15.248000000000001,-0.18921568627450885,0.28921568627450883,0.18921568627450885
15.256,-0.18137254901960778,0.2813725490196078,0.18137254901960778
15.264000000000001,-0.17352941176470496,0.27352941176470497,0.17352941176470496
15.272,-0.1656862745098039,0.26568627450980387,0.1656862745098039
15.280000000000001,-0.15784313725490107,0.25784313725490104,0.15784313725490107
15.288,-0.15000000000000002,0.25,0.15000000000000002
15.296000000000001,-0.1421568627450972,0.24215686274509718,0.1421568627450972
15.304,-0.1343137254901961,0.23431372549019613,0.1343137254901961
15.312000000000001,-0.1264705882352933,0.2264705882352933,0.1264705882352933
15.32,-0.11862745098039224,0.21862745098039224,0.11862745098039224
15.328000000000001,-0.11078431372548941,0.21078431372548942,0.11078431372548941
15.336,-0.10294117647058834,0.20294117647058835,0.10294117647058834
15.344,-0.30000000000000004,-0.3,-0.3
