accel_time_list,accel_x_list,accel_y_list,accel_z_list
0.0,-6.1,-5.3,5.3
0.008,-6.1982905982905985,-4.517094017094017,5.498290598290598
0.016,-6.191452991452992,-4.585470085470085,5.4914529914529915
0.024,-6.184615384615385,-4.653846153846154,5.484615384615385
0.032,-6.177777777777778,-4.722222222222222,5.477777777777778
0.04,-6.170940170940171,-4.7905982905982905,5.470940170940171
0.048,-6.164102564102564,-4.858974358974359,5.464102564102564
0.056,-6.157264957264958,-4.927350427350428,5.457264957264957
0.064,-6.15042735042735,-4.995726495726496,5.450427350427351
0.07200000000000001,-6.143589743589743,-5.064102564102564,5.443589743589744
0.08,-6.136752136752136,-5.132478632478632,5.436752136752137
0.088,-6.1299145299145295,-5.200854700854701,5.42991452991453
0.096,-6.123076923076923,-5.269230769230769,5.423076923076923
0.10400000000000001,-6.116239316239316,-5.337606837606837,5.4162393162393165
0.112,-6.109401709401709,-5.405982905982906,5.40940170940171
0.12,-6.102564102564102,-5.4743589743589745,5.402564102564103
0.128,-5.9959999999999996,-5.402,5.8
0.136,-5.9799999999999995,-5.41,5.8
0.14400000000000002,-5.9639999999999995,-5.418,5.8
0.152,-5.948,-5.426,5.8
0.16,-5.932,-5.434,5.8
0.168,-5.9159999999999995,-5.442,5.8
0.176,-5.9,-5.45,5.8
0.184,-5.884,-5.458,5.8
0.192,-5.868,-5.466,5.8
0.2,-5.851999999999999,-5.474,5.8
0.20800000000000002,-5.835999999999999,-5.482,5.8
0.216,-5.82,-5.49,5.8
0.224,-5.804,-5.498,5.8
0.232,-5.85,-5.6000000000000005,5.6
0.24,-6.0954022988505745,-5.402298850574713,5.698850574712644
0.248,-6.058620689655172,-5.420689655172414,5.689655172413794
0.256,-6.0218390804597695,-5.439080459770115,5.680459770114942
0.264,-5.985057471264367,-5.4574712643678165,5.671264367816092
0.272,-5.948275862068965,-5.475862068965517,5.662068965517241
0.28,-5.911494252873563,-5.494252873563219,5.652873563218391
0.28800000000000003,-5.874712643678161,-5.512643678160919,5.64367816091954
0.296,-5.837931034482759,-5.531034482758621,5.634482758620689
0.304,-5.801149425287356,-5.549425287356321,5.625287356321839
0.312,-5.764367816091954,-5.567816091954023,5.6160919540229886
0.32,-5.727586206896552,-5.586206896551724,5.606896551724137
0.328,-6.0,-5.55,5.4
0.336,-5.9,-5.7,5.3
0.34400000000000003,-5.9,-5.946153846153847,5.176923076923076
0.352,-5.886153846153847,-6.104615384615384,5.093076923076922
0.36,-5.849230769230769,-6.116923076923077,5.0746153846153845
0.368,-5.812307692307693,-6.129230769230769,5.056153846153846
0.376,-5.775384615384615,-6.141538461538461,5.037692307692307
0.384,-5.7384615384615385,-6.153846153846153,5.019230769230769
0.392,-5.701538461538462,-6.166153846153846,5.00076923076923
0.4,-5.664615384615384,-6.178461538461538,4.982307692307692
0.40800000000000003,-5.627692307692308,-6.190769230769231,4.963846153846154
0.41600000000000004,-5.59076923076923,-6.203076923076923,4.945384615384615
0.424,-5.553846153846154,-6.2153846153846155,4.926923076923076
0.432,-5.516923076923077,-6.227692307692307,4.908461538461538
0.44,-5.4799999999999995,-6.24,4.89
0.448,-5.443076923076923,-6.252307692307692,4.871538461538461
0.456,-5.406153846153846,-6.264615384615384,4.853076923076923
0.464,-5.369230769230769,-6.276923076923077,4.834615384615384
0.47200000000000003,-5.332307692307692,-6.289230769230769,4.816153846153846
0.48,-5.8,-6.6,4.6
0.488,-5.710810810810811,-5.989189189189189,4.589189189189189
0.496,-5.732432432432432,-5.967567567567568,4.5675675675675675
0.504,-5.754054054054054,-5.9459459459459465,4.545945945945946
0.512,-5.775675675675676,-5.924324324324324,4.524324324324324
0.52,-5.797297297297297,-5.902702702702703,4.5027027027027025
0.528,-6.02,-5.64,4.26
0.536,-6.1,-5.8,4.1
0.544,-6.10919540229885,-5.8,4.081609195402298
0.552,-6.118390804597701,-5.8,4.063218390804598
0.56,-6.127586206896551,-5.8,4.044827586206896
0.5680000000000001,-6.136781609195403,-5.8,4.0264367816091955
0.5760000000000001,-6.145977011494253,-5.8,4.008045977011494
0.584,-6.155172413793103,-5.8,3.989655172413793
0.592,-6.164367816091954,-5.8,3.971264367816092
0.6,-6.173563218390805,-5.8,3.952873563218391
0.608,-6.182758620689655,-5.8,3.9344827586206894
0.616,-6.191954022988506,-5.8,3.9160919540229884
0.624,-6.2,-5.75,3.75
0.632,-6.204081632653061,-5.8,2.7959183673469385
0.64,-6.2122448979591836,-5.8,2.787755102040816
0.648,-6.220408163265306,-5.8,2.779591836734694
0.656,-6.228571428571429,-5.8,2.7714285714285714
0.664,-6.236734693877551,-5.8,2.763265306122449
0.672,-6.244897959183674,-5.8,2.7551020408163263
0.68,-6.253061224489796,-5.8,2.746938775510204
0.6880000000000001,-6.261224489795919,-5.8,2.7387755102040816
0.6960000000000001,-6.2693877551020405,-5.8,2.730612244897959
0.704,-6.277551020408163,-5.8,2.722448979591837
0.712,-6.285714285714286,-5.8,2.7142857142857144
0.72,-6.293877551020408,-5.8,2.706122448979592
0.728,-6.3,-5.55,2.4000000000000004
0.736,-6.2,-5.428571428571429,1.6857142857142857
0.744,-6.281818181818182,-5.527272727272727,1.3454545454545455
0.752,-6.5,-5.6,1.2
0.76,-6.533333333333333,-5.611111111111111,1.1666666666666665
0.768,-6.566666666666666,-5.622222222222222,1.1333333333333333
0.776,-6.6000000000000005,-5.633333333333333,1.0999999999999999
0.784,-6.633333333333334,-5.644444444444445,1.0666666666666664
0.792,-6.666666666666667,-5.655555555555556,1.033333333333333
0.8,-6.7,-5.666666666666667,0.9999999999999997
0.808,-6.733333333333333,-5.677777777777778,0.9666666666666663
0.8160000000000001,-6.766666666666667,-5.688888888888889,0.9333333333333329
0.8240000000000001,-6.7999999999999945,-5.700000000000017,0.8999999999999723
0.8320000000000001,-7.506451612903226,-5.294623655913978,0.6989247311827955
0.84,-7.558064516129032,-5.251612903225806,0.6903225806451613
0.848,-7.609677419354838,-5.208602150537634,0.6817204301075268
0.856,-7.661290322580645,-5.165591397849462,0.6731182795698925
0.864,-7.712903225806452,-5.12258064516129,0.664516129032258
0.872,-7.764516129032258,-5.079569892473118,0.6559139784946236
0.88,-7.816129032258065,-5.036559139784946,0.6473118279569892
0.888,-7.8677419354838705,-4.993548387096774,0.6387096774193548
0.896,-7.919354838709677,-4.950537634408602,0.6301075268817204
0.904,-7.970967741935484,-4.90752688172043,0.621505376344086
0.912,-8.02258064516129,-4.864516129032258,0.6129032258064516
0.92,-8.074193548387097,-4.821505376344086,0.6043010752688172
0.928,-7.8,-4.3,0.9
0.936,-8.62127659574468,-5.00531914893617,0.8893617021276595
0.9440000000000001,-8.65531914893617,-5.013829787234043,0.8723404255319148
0.9520000000000001,-8.689361702127659,-5.022340425531915,0.8553191489361701
0.96,-8.72340425531915,-5.030851063829787,0.8382978723404256
0.968,-8.757446808510638,-5.0393617021276595,0.8212765957446809
0.976,-8.791489361702128,-5.047872340425532,0.8042553191489361
0.984,-8.825531914893617,-5.056382978723404,0.7872340425531914
0.992,-8.859574468085107,-5.064893617021276,0.7702127659574467
1.0,-8.893617021276595,-5.073404255319149,0.753191489361702
1.008,-8.927659574468086,-5.081914893617021,0.7361702127659573
1.016,-8.961702127659574,-5.090425531914893,0.7191489361702126
1.024,-8.995744680851065,-5.098936170212766,0.7021276595744678
1.032,-10.698947368421052,-6.49578947368421,0.012631578947369838
1.04,-10.690526315789473,-6.462105263157894,0.11368421052631733
1.048,-10.682105263157894,-6.428421052631578,0.2147368421052648
1.056,-10.673684210526314,-6.394736842105263,0.3157894736842123
1.064,-10.665263157894737,-6.361052631578946,0.4168421052631598
1.072,-10.656842105263157,-6.327368421052631,0.5178947368421073
1.08,-10.648421052631578,-6.293684210526315,0.6189473684210548
1.088,-10.639999999999999,-6.259999999999999,0.7200000000000023
1.096,-10.631578947368421,-6.226315789473683,0.8210526315789497
1.104,-10.623157894736842,-6.192631578947367,0.9221052631578972
1.112,-10.614736842105263,-6.158947368421051,1.0231578947368447
1.12,-10.606315789473683,-6.125263157894736,1.1242105263157922
1.1280000000000001,-10.199999999999845,-5.400000000000156,1.8999999999998
1.1360000000000001,-9.149999999999995,-5.983333333333332,0.6499999999999945
1.1440000000000001,-8.4,-5.497530864197531,-0.41111111111111237
1.1520000000000001,-8.4,-5.477777777777778,-0.5000000000000013
1.16,-8.4,-5.458024691358025,-0.5888888888888879
1.168,-8.4,-5.438271604938271,-0.6777777777777769
1.176,-8.4,-5.4185185185185185,-0.7666666666666659
1.184,-8.4,-5.398765432098766,-0.855555555555555
1.192,-8.4,-5.379012345679012,-0.944444444444444
1.2,-8.4,-5.359259259259259,-1.033333333333333
1.208,-8.4,-5.339506172839506,-1.122222222222222
1.216,-8.4,-5.319753086419753,-1.211111111111111
1.224,-8.4,-5.3,-1.2999999999999998
1.232,-8.549999999999994,-5.6499999999999835,-2.0
1.24,-8.711235955056178,-6.428089887640449,-1.6
1.248,-8.729213483146067,-6.473033707865168,-1.6
1.256,-8.747191011235955,-6.5179775280898875,-1.6
1.264,-8.765168539325842,-6.562921348314607,-1.6
1.272,-8.78314606741573,-6.607865168539326,-1.6
1.28,-8.801123595505617,-6.652808988764045,-1.6
1.288,-8.819101123595505,-6.697752808988764,-1.6
1.296,-8.837078651685394,-6.742696629213484,-1.6
1.304,-8.85505617977528,-6.787640449438203,-1.6
1.312,-8.873033707865169,-6.832584269662922,-1.6
1.32,-8.891011235955057,-6.877528089887641,-1.6
1.328,-8.1,-5.8,-2.1
1.336,-7.993333333333333,-6.12,-2.4
1.344,-7.982666666666667,-6.152,-2.4
1.352,-7.9719999999999995,-6.184,-2.4
1.36,-7.961333333333333,-6.216,-2.4
1.368,-7.950666666666667,-6.248,-2.4
1.3760000000000001,-7.94,-6.280000000000001,-2.4
1.3840000000000001,-7.929333333333333,-6.312000000000001,-2.4
1.3920000000000001,-7.918666666666667,-6.344000000000001,-2.4
1.4000000000000001,-7.908,-6.376000000000001,-2.4
1.408,-7.500000000000011,-6.5,-2.4
1.416,-6.9,-6.807207207207207,-2.5
1.424,-6.9,-6.821621621621621,-2.5
1.432,-6.9,-6.8360360360360355,-2.5
1.44,-6.9,-6.850450450450451,-2.5
1.448,-6.9,-6.864864864864865,-2.5
1.456,-6.9,-6.879279279279279,-2.5
1.464,-6.9,-6.8936936936936934,-2.5
1.472,-6.9,-6.908108108108108,-2.5
1.48,-6.9,-6.922522522522523,-2.5
1.488,-6.9,-6.936936936936937,-2.5
1.496,-6.9,-6.951351351351351,-2.5
1.504,-6.9,-6.965765765765766,-2.5
1.512,-6.9,-6.98018018018018,-2.5
1.52,-6.9,-6.994594594594595,-2.5
1.528,-6.9,-7.0,-2.3
1.536,-6.833333333333333,-7.2,-2.2333333333333334
1.544,-6.602380952380952,-7.397619047619048,-2.1952380952380954
1.552,-6.6119047619047615,-7.3880952380952385,-2.1761904761904765
1.56,-6.621428571428571,-7.378571428571429,-2.157142857142857
1.568,-6.6309523809523805,-7.3690476190476195,-2.138095238095238
1.576,-6.640476190476191,-7.359523809523809,-2.119047619047619
1.584,-6.65,-7.35,-2.0999999999999996
1.592,-6.65952380952381,-7.34047619047619,-2.0809523809523807
1.6,-6.669047619047619,-7.330952380952381,-2.0619047619047617
1.608,-6.678571428571429,-7.321428571428571,-2.0428571428571427
1.616,-6.688095238095238,-7.311904761904762,-2.0238095238095233
1.624,-6.697619047619048,-7.302380952380952,-2.0047619047619043
1.6320000000000001,-6.899999999999989,-7.399999999999989,-1.1999999999999889
1.6400000000000001,-6.79438202247191,-7.416853932584271,-0.6831460674157299
1.6480000000000001,-6.785393258426966,-7.443820224719102,-0.6561797752808984
1.6560000000000001,-6.776404494382022,-7.470786516853933,-0.629213483146067
1.6640000000000001,-6.7674157303370785,-7.497752808988765,-0.6022471910112355
1.672,-6.758426966292135,-7.524719101123596,-0.5752808988764047
1.68,-6.749438202247191,-7.551685393258427,-0.5483146067415732
1.688,-6.740449438202247,-7.578651685393258,-0.5213483146067417
1.696,-6.7314606741573035,-7.60561797752809,-0.4943820224719102
1.704,-6.722471910112359,-7.632584269662922,-0.4674157303370787
1.712,-6.713483146067416,-7.659550561797753,-0.44044943820224725
1.72,-6.704494382022472,-7.686516853932584,-0.41348314606741576
1.728,-6.0499999999999945,-8.199999999999967,0.04999999999997223
1.736,-5.910752688172043,-8.532258064516128,0.926881720430107
1.744,-5.927956989247312,-8.583870967741936,0.9698924731182791
1.752,-5.945161290322581,-8.635483870967741,1.0129032258064512
1.76,-5.962365591397849,-8.687096774193547,1.0559139784946232
1.768,-5.979569892473118,-8.738709677419354,1.0989247311827954
1.776,-5.996774193548387,-8.79032258064516,1.1419354838709674
1.784,-6.013978494623656,-8.841935483870968,1.1849462365591394
1.792,-6.031182795698925,-8.893548387096773,1.2279569892473114
1.8,-6.048387096774193,-8.94516129032258,1.2709677419354837
1.808,-6.065591397849462,-8.996774193548386,1.3139784946236557
1.816,-6.0827956989247305,-9.048387096774194,1.356989247311828
1.824,-6.1,-9.1,1.4
1.832,-4.995698924731182,-9.095698924731183,1.8086021505376355
1.84,-4.961290322580645,-9.061290322580644,1.8774193548387108
1.848,-4.9268817204301065,-9.026881720430106,1.946236559139786
1.856,-4.892473118279569,-8.99247311827957,2.0150537634408616
1.864,-4.858064516129032,-8.958064516129031,2.083870967741937
1.872,-4.823655913978493,-8.923655913978493,2.152688172043012
1.8800000000000001,-4.789247311827956,-8.889247311827956,2.2215053763440875
1.8880000000000001,-4.7548387096774185,-8.854838709677418,2.290322580645163
1.8960000000000001,-4.720430107526881,-8.82043010752688,2.359139784946238
1.9040000000000001,-4.686021505376343,-8.786021505376343,2.4279569892473134
1.9120000000000001,-4.651612903225805,-8.751612903225805,2.496774193548389
1.92,-4.617204301075269,-8.717204301075268,2.565591397849462
1.928,-4.538461538461539,-8.792307692307691,2.4461538461538477
1.936,-4.4153846153846175,-8.976923076923075,2.1384615384615424
1.944,-2.598809523809524,-8.198809523809523,3.3083333333333322
1.952,-2.5892857142857144,-8.189285714285713,3.374999999999999
1.96,-2.579761904761905,-8.179761904761904,3.4416666666666655
1.968,-2.5702380952380954,-8.170238095238094,3.5083333333333324
1.976,-2.560714285714286,-8.160714285714285,3.574999999999999
1.984,-2.5511904761904765,-8.151190476190475,3.6416666666666657
1.992,-2.541666666666667,-8.141666666666666,3.708333333333332
2.0,-2.5321428571428575,-8.132142857142856,3.774999999999999
2.008,-2.522619047619048,-8.122619047619047,3.841666666666666
2.016,-2.513095238095238,-8.113095238095237,3.9083333333333323
2.024,-2.5035714285714286,-8.103571428571428,3.974999999999999
2.032,-3.5,-8.1,4.4
2.04,-3.534408602150538,-8.108602150537633,4.365591397849463
2.048,-3.5688172043010753,-8.117204301075269,4.331182795698925
2.056,-3.603225806451613,-8.125806451612902,4.296774193548387
2.064,-3.6376344086021506,-8.134408602150538,4.26236559139785
2.072,-3.6720430107526885,-8.143010752688172,4.2279569892473114
2.08,-3.706451612903226,-8.151612903225805,4.193548387096774
2.088,-3.7408602150537638,-8.16021505376344,4.159139784946237
2.096,-3.775268817204301,-8.168817204301074,4.124731182795699
2.104,-3.809677419354839,-8.17741935483871,4.090322580645161
2.112,-3.844086021505377,-8.186021505376344,4.055913978494623
2.12,-3.8784946236559144,-8.194623655913977,4.021505376344086
2.128,-4.2,-8.6,3.5
2.136,-4.2,-8.1,3.8107526881720437
2.144,-4.2,-8.1,3.8279569892473124
2.152,-4.2,-8.1,3.845161290322581
2.16,-4.2,-8.1,3.86236559139785
2.168,-4.2,-8.1,3.8795698924731186
2.176,-4.2,-8.1,3.8967741935483873
2.184,-4.2,-8.1,3.913978494623656
2.192,-4.2,-8.1,3.931182795698925
2.2,-4.2,-8.1,3.948387096774194
2.208,-4.2,-8.1,3.9655913978494626
2.216,-4.2,-8.1,3.9827956989247313
2.224,-4.2,-8.1,4.0
2.232,-3.499999999999989,-7.2749999999999915,4.775000000000015
2.24,-2.8935483870967738,-7.1967741935483875,5.603225806451612
2.248,-2.876344086021505,-7.188172043010753,5.611827956989247
2.2560000000000002,-2.8591397849462363,-7.179569892473118,5.620430107526881
2.2640000000000002,-2.8419354838709676,-7.170967741935484,5.629032258064516
2.2720000000000002,-2.8247311827956985,-7.162365591397849,5.637634408602151
2.2800000000000002,-2.8075268817204297,-7.153763440860215,5.646236559139785
2.2880000000000003,-2.790322580645161,-7.14516129032258,5.65483870967742
2.2960000000000003,-2.7731182795698923,-7.1365591397849455,5.663440860215054
2.3040000000000003,-2.755913978494623,-7.127956989247312,5.672043010752688
2.312,-2.7387096774193553,-7.119354838709677,5.680645161290323
2.32,-2.7215053763440866,-7.110752688172043,5.689247311827957
2.328,-2.704301075268818,-7.102150537634408,5.697849462365592
2.336,-2.6000000000000036,-7.0000000000000036,5.7
2.344,-2.5666666666666567,-6.966666666666657,5.566666666666687
2.352,-2.6,-7.5,5.5
2.36,-2.6150943396226416,-7.537735849056603,5.4849056603773585
2.368,-2.630188679245283,-7.5754716981132075,5.469811320754717
2.376,-2.6452830188679246,-7.613207547169811,5.4547169811320755
2.384,-2.660377358490566,-7.650943396226415,5.439622641509434
2.392,-2.675471698113207,-7.688679245283018,5.4245283018867925
2.4,-2.6905660377358487,-7.726415094339623,5.409433962264151
2.408,-2.70566037735849,-7.764150943396226,5.3943396226415095
2.416,-2.7207547169811317,-7.801886792452829,5.379245283018868
2.424,-2.735849056603773,-7.839622641509433,5.3641509433962264
2.432,-2.7509433962264147,-7.877358490566037,5.349056603773585
2.44,-2.766037735849056,-7.915094339622641,5.333962264150943
2.448,-2.7811320754716977,-7.952830188679244,5.318867924528302
2.456,-2.7962264150943392,-7.990566037735848,5.30377358490566
2.464,-2.95,-8.6,4.85
2.472,-2.907142857142857,-8.414285714285715,4.192857142857143
2.48,-2.9214285714285713,-8.442857142857143,4.178571428571429
2.488,-2.9357142857142855,-8.471428571428572,4.164285714285715
2.496,-2.95,-8.5,4.15
2.504,-2.9642857142857144,-8.528571428571428,4.135714285714285
2.512,-2.9785714285714286,-8.557142857142857,4.121428571428571
2.52,-2.992857142857143,-8.585714285714285,4.107142857142857
2.528,-2.9,-8.1,4.1
2.536,-2.9946236559139785,-8.389247311827958,4.194623655913979
2.544,-2.9860215053763444,-8.372043010752689,4.1860215053763445
2.552,-2.97741935483871,-8.35483870967742,4.17741935483871
2.56,-2.968817204301075,-8.33763440860215,4.168817204301075
2.568,-2.960215053763441,-8.320430107526882,4.160215053763441
2.576,-2.9516129032258065,-8.303225806451612,4.151612903225806
2.584,-2.943010752688172,-8.286021505376343,4.143010752688172
2.592,-2.934408602150538,-8.268817204301074,4.134408602150537
2.6,-2.925806451612903,-8.251612903225807,4.125806451612903
2.608,-2.9172043010752686,-8.234408602150538,4.117204301075269
2.616,-2.9086021505376345,-8.217204301075268,4.108602150537634
2.624,-2.9,-8.2,4.1
2.632,-2.9,-8.5,4.3
2.64,-2.8909090909090907,-8.381818181818183,4.1045454545454545
2.648,-2.8727272727272726,-8.345454545454546,4.113636363636363
2.656,-2.8545454545454545,-8.309090909090909,4.122727272727272
2.664,-2.8363636363636364,-8.272727272727273,4.131818181818182
2.672,-2.8181818181818183,-8.236363636363636,4.140909090909091
2.68,-2.8,-8.2,4.15
2.688,-2.7818181818181817,-8.163636363636364,4.159090909090909
2.696,-2.7636363636363637,-8.127272727272727,4.168181818181818
2.704,-2.7454545454545456,-8.090909090909092,4.177272727272728
2.712,-2.7272727272727275,-8.054545454545455,4.1863636363636365
2.72,-2.7090909090909094,-8.018181818181818,4.195454545454545
2.728,-2.7,-8.133333333333338,4.2
2.736,-2.698876404494382,-7.8022471910112365,4.098876404494382
2.744,-2.689887640449438,-7.820224719101124,4.0898876404494375
2.7520000000000002,-2.6808988764044943,-7.8382022471910116,4.080898876404493
2.7600000000000002,-2.67191011235955,-7.8561797752809,4.07191011235955
2.7680000000000002,-2.6629213483146064,-7.8741573033707875,4.062921348314606
2.7760000000000002,-2.6539325842696626,-7.892134831460675,4.0539325842696625
2.7840000000000003,-2.644943820224719,-7.9101123595505625,4.044943820224718
2.7920000000000003,-2.635955056179775,-7.92808988764045,4.035955056179775
2.8000000000000003,-2.626966292134831,-7.946067415730338,4.026966292134831
2.8080000000000003,-2.617977528089887,-7.964044943820226,4.0179775280898875
2.816,-2.608988764044944,-7.9820224719101125,4.008988764044944
2.824,-2.6,-8.0,4.0
2.832,-2.5,-8.59891304347826,3.497826086956522
2.84,-2.5,-8.590217391304348,3.480434782608696
2.848,-2.5,-8.581521739130435,3.46304347826087
2.856,-2.5,-8.572826086956521,3.4456521739130435
2.864,-2.5,-8.564130434782609,3.4282608695652175
2.872,-2.5,-8.555434782608696,3.4108695652173915
2.88,-2.5,-8.546739130434782,3.3934782608695655
2.888,-2.5,-8.53804347826087,3.376086956521739
2.896,-2.5,-8.529347826086957,3.358695652173913
2.904,-2.5,-8.520652173913044,3.341304347826087
2.912,-2.5,-8.51195652173913,3.323913043478261
2.92,-2.5,-8.503260869565217,3.3065217391304347
2.928,-3.0,-8.5,2.7
2.936,-3.212765957446808,-8.506382978723405,2.519148936170212
2.944,-3.229787234042553,-8.514893617021276,2.5446808510638292
2.952,-3.2468085106382976,-8.523404255319148,2.570212765957446
2.96,-3.2638297872340423,-8.53191489361702,2.5957446808510634
2.968,-3.280851063829787,-8.540425531914893,2.62127659574468
2.976,-3.2978723404255317,-8.548936170212766,2.6468085106382975
2.984,-3.3148936170212764,-8.557446808510639,2.6723404255319143
2.992,-3.331914893617021,-8.565957446808511,2.6978723404255316
3.0,-3.348936170212766,-8.574468085106382,2.7234042553191484
3.008,-3.3659574468085105,-8.582978723404254,2.7489361702127657
3.016,-3.382978723404255,-8.591489361702127,2.774468085106383
3.024,-3.4,-8.6,2.8
3.032,-2.990909090909088,-10.172727272727256,0.25454545454544797
3.04,-2.7,-8.5,-0.4
3.048,-2.842857142857143,-8.585714285714285,-0.380952380952381
3.056,-2.9857142857142858,-8.67142857142857,-0.36190476190476195
3.064,-3.1285714285714286,-8.757142857142858,-0.34285714285714286
3.072,-3.2714285714285714,-8.842857142857143,-0.3238095238095238
3.08,-3.4142857142857146,-8.928571428571429,-0.3047619047619048
3.088,-3.5571428571428574,-9.014285714285714,-0.2857142857142857
3.096,-3.7,-9.1,-0.26666666666666666
3.104,-3.842857142857143,-9.185714285714287,-0.24761904761904763
3.112,-3.9857142857142858,-9.271428571428572,-0.22857142857142856
3.12,-4.128571428571428,-9.357142857142858,-0.20952380952380953
3.128,-3.9499999999999886,-10.399999999999912,-0.9000000000000444
3.136,-4.4638297872340456,-9.361702127659573,-0.5489361702127642
3.144,-4.548936170212769,-9.31063829787234,-0.4808510638297856
3.152,-4.634042553191492,-9.259574468085106,-0.412765957446807
3.16,-4.719148936170215,-9.208510638297872,-0.34468085106382845
3.168,-4.804255319148938,-9.157446808510638,-0.2765957446808499
3.176,-4.889361702127661,-9.106382978723405,-0.2085106382978713
3.184,-4.974468085106384,-9.05531914893617,-0.14042553191489276
3.192,-5.059574468085108,-9.004255319148935,-0.07234042553191422
3.2,-5.144680851063831,-8.953191489361702,-0.004255319148935621
3.208,-5.229787234042554,-8.902127659574468,0.06382978723404298
3.216,-5.314893617021277,-8.851063829787234,0.13191489361702158
3.224,-5.4,-8.8,0.20000000000000007
3.232,-7.016666666666679,-7.649999999999992,-0.5333333333333432
3.24,-7.328089887640451,-7.160674157303368,-0.8056179775280903
3.248,-7.37303370786517,-7.097752808988761,-0.8146067415730341
3.2560000000000002,-7.41797752808989,-7.034831460674154,-0.823595505617978
3.2640000000000002,-7.462921348314609,-6.971910112359548,-0.8325842696629218
3.2720000000000002,-7.507865168539328,-6.908988764044941,-0.8415730337078656
3.2800000000000002,-7.552808988764047,-6.846067415730334,-0.8505617977528095
3.2880000000000003,-7.5977528089887665,-6.783146067415728,-0.8595505617977532
3.2960000000000003,-7.642696629213486,-6.72022471910112,-0.8685393258426971
3.3040000000000003,-7.687640449438204,-6.657303370786513,-0.877528089887641
3.3120000000000003,-7.732584269662923,-6.5943820224719065,-0.8865168539325847
3.3200000000000003,-7.777528089887642,-6.5314606741573,-0.8955056179775286
3.3280000000000003,-7.750000000000144,-7.200000000000067,-1.3
3.336,-8.583870967741936,-7.0,-0.8946236559139786
3.344,-8.558064516129033,-7.0,-0.8860215053763442
3.352,-8.53225806451613,-7.0,-0.8774193548387098
3.36,-8.506451612903225,-7.0,-0.8688172043010753
3.368,-8.480645161290322,-7.0,-0.860215053763441
3.376,-8.45483870967742,-7.0,-0.8516129032258065
3.384,-8.429032258064517,-7.0,-0.8430107526881722
3.392,-8.403225806451614,-7.0,-0.8344086021505377
3.4,-8.377419354838711,-7.0,-0.8258064516129033
3.408,-8.351612903225806,-7.0,-0.8172043010752689
3.416,-8.325806451612904,-7.0,-0.8086021505376344
3.424,-8.3,-7.0,-0.8
3.432,-8.942857142857147,-6.34285714285714,-0.6714285714285733
3.44,-9.058333333333334,-6.3,-0.8166666666666685
3.448,-9.3,-5.9,-0.9
3.456,-9.31,-5.9,-0.93
3.464,-9.32,-5.9,-0.96
3.472,-9.33,-5.9,-0.99
3.48,-9.34,-5.9,-1.02
3.488,-9.350000000000001,-5.9,-1.05
3.496,-9.360000000000001,-5.9,-1.08
3.504,-9.370000000000001,-5.9,-1.1099999999999999
3.512,-9.38,-5.9,-1.14
3.52,-9.39,-5.9,-1.17
3.528,-9.4,-5.9,-1.2
3.536,-9.202247191011235,-4.198876404494382,-1.1033707865168536
3.544,-9.220224719101124,-4.189887640449438,-1.130337078651685
3.552,-9.23820224719101,-4.180898876404495,-1.1573033707865166
3.56,-9.256179775280899,-4.171910112359551,-1.184269662921348
3.568,-9.274157303370785,-4.162921348314606,-1.2112359550561795
3.576,-9.292134831460674,-4.153932584269663,-1.238202247191011
3.584,-9.310112359550562,-4.144943820224719,-1.2651685393258425
3.592,-9.328089887640449,-4.1359550561797755,-1.292134831460674
3.6,-9.346067415730337,-4.126966292134831,-1.3191011235955055
3.608,-9.364044943820225,-4.117977528089887,-1.346067415730337
3.616,-9.382022471910112,-4.108988764044944,-1.3730337078651684
3.624,-9.4,-4.1,-1.4
3.632,-8.59999999999999,-3.8599999999999945,-1.9
3.64,-8.186516853932583,-3.893258426966292,-2.206741573033708
3.648,-8.168539325842696,-3.884269662921348,-2.215730337078652
3.656,-8.150561797752808,-3.875280898876404,-2.224719101123596
3.664,-8.132584269662921,-3.8662921348314603,-2.23370786516854
3.672,-8.114606741573033,-3.8573033707865165,-2.2426966292134836
3.68,-8.096629213483146,-3.8483146067415728,-2.2516853932584273
3.688,-8.078651685393258,-3.8393258426966286,-2.260674157303371
3.696,-8.06067415730337,-3.830337078651685,-2.269662921348315
3.704,-8.042696629213482,-3.821348314606741,-2.2786516853932586
3.712,-8.024719101123594,-3.8123595505617973,-2.2876404494382023
3.72,-8.006741573033707,-3.8033707865168536,-2.296629213483146
3.728,-7.5,-3.7,-2.4
3.736,-7.491666666666666,-3.7,-2.3916666666666666
3.744,-7.483333333333333,-3.7,-2.3833333333333333
3.7520000000000002,-7.475,-3.7,-2.3749999999999996
3.7600000000000002,-7.466666666666667,-3.7,-2.3666666666666663
3.7680000000000002,-7.458333333333333,-3.7,-2.358333333333333
3.7760000000000002,-7.45,-3.7,-2.3499999999999996
3.7840000000000003,-7.441666666666666,-3.7,-2.3416666666666663
3.7920000000000003,-7.433333333333334,-3.7,-2.333333333333333
3.8000000000000003,-7.425,-3.7,-2.3249999999999993
3.8080000000000003,-7.416666666666667,-3.7,-2.316666666666666
3.8160000000000003,-7.408333333333333,-3.7,-2.3083333333333327
3.8240000000000003,-7.4,-3.6999999999999114,-2.299999999999911
3.8320000000000003,-7.483333333333339,-3.5416666666666696,-1.9583333333333306
3.84,-7.649999999999989,-3.699999999999978,-1.8500000000000112
3.848,-7.708433734939759,-3.8168674698795173,-1.7915662650602413
3.856,-7.718072289156626,-3.8361445783132524,-1.7819277108433738
3.864,-7.727710843373494,-3.855421686746987,-1.7722891566265064
3.872,-7.7373493975903616,-3.874698795180722,-1.762650602409639
3.88,-7.746987951807228,-3.8939759036144572,-1.7530120481927713
3.888,-7.756626506024096,-3.9132530120481923,-1.7433734939759038
3.896,-7.766265060240964,-3.9325301204819274,-1.7337349397590363
3.904,-7.775903614457831,-3.9518072289156625,-1.7240963855421687
3.912,-7.785542168674699,-3.9710843373493976,-1.7144578313253012
3.92,-7.795180722891566,-3.9903614457831327,-1.7048192771084336
3.928,-8.0,-4.05,-1.55
3.936,-8.216129032258063,-4.321505376344086,-1.3784946236559144
3.944,-8.241935483870966,-4.355913978494623,-1.3440860215053767
3.952,-8.26774193548387,-4.390322580645161,-1.309677419354839
3.96,-8.293548387096774,-4.424731182795698,-1.2752688172043014
3.968,-8.319354838709677,-4.459139784946236,-1.2408602150537638
3.976,-8.34516129032258,-4.493548387096774,-1.206451612903226
3.984,-8.370967741935484,-4.527956989247311,-1.1720430107526882
3.992,-8.396774193548387,-4.56236559139785,-1.1376344086021506
4.0,-8.42258064516129,-4.596774193548387,-1.103225806451613
4.008,-8.448387096774193,-4.631182795698924,-1.0688172043010753
4.016,-8.474193548387097,-4.665591397849463,-1.0344086021505376
4.024,-8.5,-4.7,-1.0
4.032,-8.8,-4.606315789473683,-0.7978947368421055
4.04,-8.8,-4.63157894736842,-0.7894736842105265
4.048,-8.8,-4.6568421052631574,-0.7810526315789476
4.056,-8.8,-4.6821052631578945,-0.7726315789473686
4.064,-8.8,-4.707368421052631,-0.7642105263157896
4.072,-8.8,-4.732631578947368,-0.7557894736842106
4.08,-8.8,-4.757894736842105,-0.7473684210526317
4.088,-8.8,-4.783157894736842,-0.7389473684210527
4.096,-8.8,-4.808421052631579,-0.7305263157894737
4.104,-8.8,-4.833684210526316,-0.7221052631578947
4.112,-8.8,-4.858947368421053,-0.7136842105263157
4.12,-8.8,-4.8842105263157904,-0.7052631578947367
4.128,-8.9,-5.2,-0.30000000000000004
4.136,-9.1,-6.116483516483517,-0.28681318681318635
4.144,-9.1,-6.160439560439561,-0.2516483516483512
4.152,-9.1,-6.204395604395605,-0.2164835164835161
4.16,-9.1,-6.248351648351648,-0.18131868131868095
4.168,-9.1,-6.292307692307692,-0.14615384615384586
4.176,-9.1,-6.336263736263736,-0.11098901098901073
4.184,-9.1,-6.38021978021978,-0.07582417582417561
4.192,-9.1,-6.4241758241758244,-0.04065934065934046
4.2,-9.1,-6.468131868131868,-0.005494505494505364
4.208,-9.1,-6.512087912087912,0.02967032967032973
4.216,-9.1,-6.556043956043956,0.06483516483516488
4.224,-9.1,-6.6,0.09999999999999998
4.232,-8.772727272727263,-5.990909090909056,0.10909090909089589
4.24,-8.3,-6.0,0.5
4.248,-8.30952380952381,-6.066666666666667,0.5571428571428575
4.256,-8.31904761904762,-6.133333333333334,0.6142857142857149
4.264,-8.32857142857143,-6.200000000000001,0.6714285714285724
4.272,-8.338095238095239,-6.266666666666668,0.7285714285714298
4.28,-8.347619047619048,-6.333333333333335,0.7857142857142873
4.288,-8.357142857142858,-6.400000000000002,0.8428571428571447
4.296,-8.366666666666667,-6.4666666666666694,0.9000000000000021
4.304,-8.376190476190477,-6.533333333333336,0.9571428571428596
4.312,-8.385714285714286,-6.600000000000003,1.0142857142857171
4.32,-8.395238095238096,-6.6666666666666705,1.0714285714285745
4.328,-7.5705882352941085,-5.894117647058822,0.7882352941176434
4.336,-7.335294117647054,-5.8470588235294105,0.6941176470588217
4.344,-7.1,-5.8,0.6
4.352,-6.776923076923076,-6.007692307692308,0.9
4.36,-6.746153846153845,-6.017948717948718,0.9
4.368,-6.715384615384615,-6.028205128205128,0.9
4.376,-6.684615384615384,-6.038461538461538,0.9
4.384,-6.653846153846153,-6.0487179487179485,0.9
4.392,-6.623076923076923,-6.058974358974359,0.9
4.4,-6.592307692307692,-6.069230769230769,0.9
4.408,-6.561538461538461,-6.079487179487179,0.9
4.416,-6.530769230769231,-6.089743589743589,0.9
4.424,-6.5,-6.1,0.9
4.432,-5.521505376344093,-8.301075268817172,2.0956989247311815
4.44,-5.607526881720437,-7.9053763440859885,2.0784946236559128
4.448,-5.693548387096781,-7.509677419354805,2.0612903225806436
4.456,-5.779569892473126,-7.1139784946236215,2.044086021505375
4.464,-5.86559139784947,-6.718279569892438,2.026881720430106
4.472,-5.951612903225814,-6.3225806451612545,2.009677419354837
4.48,-6.037634408602158,-5.926881720430072,1.9924731182795683
4.488,-6.123655913978503,-5.531182795698888,1.9752688172042996
4.496,-6.209677419354847,-5.135483870967706,1.9580645161290307
4.5040000000000004,-6.295698924731191,-4.739784946236522,1.9408602150537617
4.5120000000000005,-6.381720430107535,-4.344086021505339,1.923655913978493
4.5200000000000005,-6.467741935483879,-3.9483870967741552,1.906451612903224
4.5280000000000005,-6.500000000000178,-5.5000000000002665,1.0999999999998225
4.5360000000000005,-6.9064516129032265,-6.1322580645161295,0.7
4.5440000000000005,-6.915053763440861,-6.175268817204302,0.7
4.5520000000000005,-6.923655913978495,-6.218279569892474,0.7
4.5600000000000005,-6.932258064516129,-6.261290322580646,0.7
4.5680000000000005,-6.940860215053764,-6.304301075268818,0.7
4.5760000000000005,-6.9494623655913985,-6.3473118279569904,0.7
4.5840000000000005,-6.958064516129033,-6.3903225806451625,0.7
4.5920000000000005,-6.966666666666667,-6.4333333333333345,0.7
4.6000000000000005,-6.975268817204301,-6.4763440860215065,0.7
4.6080000000000005,-6.983870967741936,-6.5193548387096785,0.7
4.616,-6.99247311827957,-6.562365591397846,0.7
4.624,-6.984615384615393,-6.638461538461517,0.7
4.632,-6.861538461538469,-6.946153846153828,0.7
4.64,-6.4,-7.5,0.4
4.648,-6.7,-7.512345679012346,0.006172839506172678
4.656,-6.7,-7.5320987654320986,0.016049382716049183
4.664,-6.7,-7.551851851851851,0.025925925925925686
4.672,-6.7,-7.571604938271604,0.035802469135802185
4.68,-6.7,-7.591358024691358,0.04567901234567869
4.688,-6.7,-7.611111111111111,0.05555555555555519
4.696,-6.7,-7.6308641975308635,0.0654320987654317
4.704,-6.7,-7.650617283950616,0.0753086419753082
4.712,-6.7,-7.670370370370369,0.08518518518518471
4.72,-6.7,-7.690123456790123,0.0950617283950612
4.728,-6.2,-8.240000000000007,0.13999999999997156
4.736,-6.702247191011236,-7.293258426966292,0.6089887640449427
4.744,-6.711235955056179,-7.2662921348314615,0.644943820224718
4.752,-6.7202247191011235,-7.23932584269663,0.6808988764044931
4.76,-6.729213483146067,-7.212359550561799,0.7168539325842682
4.768,-6.738202247191011,-7.185393258426967,0.7528089887640433
4.776,-6.747191011235954,-7.158426966292136,0.7887640449438185
4.784,-6.7561797752808985,-7.131460674157305,0.8247191011235937
4.792,-6.765168539325842,-7.104494382022473,0.8606741573033687
4.8,-6.774157303370786,-7.077528089887642,0.896629213483144
4.808,-6.783146067415729,-7.0505617977528106,0.9325842696629191
4.816,-6.7921348314606735,-7.02359550561798,0.9685393258426942
4.824,-6.899999999999956,-7.049999999999978,1.0999999999999557
4.832,-7.097872340425532,-6.902127659574468,1.6914893617021285
4.84,-7.089361702127659,-6.910638297872341,1.6574468085106393
4.848,-7.080851063829787,-6.919148936170213,1.6234042553191501
4.856,-7.072340425531915,-6.927659574468085,1.5893617021276607
4.864,-7.0638297872340425,-6.9361702127659575,1.5553191489361715
4.872,-7.05531914893617,-6.94468085106383,1.5212765957446823
4.88,-7.046808510638298,-6.953191489361702,1.487234042553193
4.888,-7.038297872340426,-6.961702127659574,1.4531914893617037
4.896,-7.029787234042553,-6.970212765957447,1.4191489361702145
4.904,-7.021276595744681,-6.978723404255319,1.3851063829787251
4.912,-7.012765957446809,-6.987234042553191,1.351063829787236
4.92,-7.004255319148936,-6.995744680851064,1.3170212765957465
4.928,-7.0,-6.65,1.7999999999999998
4.936,-6.9064516129032265,-6.9,1.4935483870967738
4.944,-6.915053763440861,-6.9,1.4849462365591395
4.952,-6.923655913978495,-6.9,1.4763440860215051
4.96,-6.932258064516129,-6.9,1.4677419354838706
4.968,-6.940860215053764,-6.9,1.4591397849462362
4.976,-6.9494623655913985,-6.9,1.4505376344086018
4.984,-6.958064516129033,-6.9,1.4419354838709675
4.992,-6.966666666666667,-6.9,1.433333333333333
5.0,-6.975268817204301,-6.9,1.4247311827956985
5.008,-6.983870967741936,-6.9,1.4161290322580642
5.016,-6.9924731182795705,-6.9,1.4075268817204296
5.024,-6.95,-7.050000000000001,1.25
5.032,-6.902127659574468,-7.095744680851064,0.9
5.04,-6.910638297872341,-7.078723404255319,0.9
5.048,-6.919148936170213,-7.061702127659575,0.9
5.056,-6.927659574468085,-7.04468085106383,0.9
5.064,-6.9361702127659575,-7.0276595744680845,0.9
5.072,-6.94468085106383,-7.01063829787234,0.9
5.08,-6.953191489361703,-6.993617021276595,0.9
5.088,-6.961702127659575,-6.976595744680851,0.9
5.096,-6.970212765957447,-6.959574468085106,0.9
5.104,-6.9787234042553195,-6.9425531914893615,0.9
5.112,-6.987234042553192,-6.925531914893616,0.9
5.12,-6.995744680851065,-6.908510638297872,0.9
5.128,-6.649999999999933,-7.049999999999933,0.9500000000000667
5.136,-6.916666666666668,-6.508333333333334,1.2
5.144,-6.93888888888889,-6.519444444444445,1.2
5.152,-6.961111111111112,-6.530555555555556,1.2
5.16,-6.983333333333334,-6.541666666666667,1.2
5.168,-7.005555555555556,-6.552777777777778,1.2
5.176,-7.027777777777779,-6.563888888888889,1.2
5.184,-7.050000000000001,-6.575,1.2
5.192,-7.072222222222223,-6.586111111111111,1.2
5.2,-7.094444444444445,-6.597222222222222,1.2
5.208,-6.7,-6.7,1.2
