accel_time_list,accel_x_list,accel_y_list,accel_z_list
0.0,0.7,1.6,10.0
0.007998963193364437,1.1955601635850468,1.3,10.095560163585047
0.015997926386728874,1.1600092160589828,1.3,10.060009216058983
0.02399688958009331,1.1244582685329185,1.3,10.024458268532918
0.03199585277345775,1.0889073210068545,1.3,9.988907321006854
0.03999481596682218,1.0533563734807903,1.3,9.95335637348079
0.04799377916018662,1.0178054259547262,1.3,9.917805425954725
0.05599274235355106,0.982254478428662,1.3,9.882254478428662
0.0639917055469155,0.9467035309025977,1.3,9.846703530902598
0.07199066874027993,0.9111525833765337,1.3,9.811152583376533
0.07998963193364436,0.8756016358504695,1.3,9.77560163585047
0.08798859512700881,0.8400506883244053,1.3,9.740050688324406
0.09598755832037324,0.8044997407983412,1.3,9.70449974079834
0.10398652151373768,0.39973043027475363,1.4002695697252463,9.700269569725245
0.11198548470710212,0.1206396024382832,1.7896801987808584,9.7
0.11998444790046656,0.14822223413953986,1.7758888829302302,9.7
0.127983411093831,0.17580486584079652,1.7620975670796017,9.7
0.13598237428719542,0.2033874975420532,1.7483062512289735,9.7
0.14398133748055986,0.23097012924330987,1.7345149353783451,9.7
0.1519803006739243,0.2585527609445666,1.720723619527717,9.7
0.15997926386728872,0.2861353926458232,1.7069323036770885,9.7
0.16797822706065318,0.31371802434707996,1.69314098782646,9.7
0.17597719025401762,0.34130065604833665,1.6793496719758318,9.7
0.18397615344738205,0.36888328774959334,1.6655583561252034,9.7
0.19197511664074648,0.39646591945084997,1.6517670402745752,9.7
0.19997407983411092,0.4240485511521066,1.6379757244239468,9.7
0.20797304302747535,0.45163118285336334,1.6241844085733184,9.7
0.21597200622083979,0.47921381455462,1.6103930927226902,9.7
0.22397096941420425,0.6970969414204241,1.0087091757387276,9.7
0.23196993260756868,0.6861946316456425,0.9552214734174297,9.606902684177179
0.2399688958009331,0.6639752894418525,1.04409884223259,9.618012355279074
0.24796785899429755,0.6417559472380623,1.1329762110477506,9.62912202638097
0.255966822187662,0.6195366050342722,1.2218535798629109,9.640231697482863
0.26396578538102644,0.597317262830482,1.3107309486780716,9.651341368584758
0.27196474857439085,0.5750979206266921,1.3996083174932317,9.662451039686653
0.2799637117677553,0.5528785784229019,1.4884856863083922,9.673560710788548
0.2879626749611197,0.5306592362191118,1.5773630551235525,9.684670381890443
0.2959616381544842,0.5084398940153216,1.6662404239387132,9.695780052992339
0.3039606013478486,0.33398997753585685,1.1,9.7
0.31195956454121304,0.32080870917573917,1.4375738724727825,9.547205806117159
0.31995852773457745,0.16082944530845117,1.9175116640746466,9.440552963538968
0.3279574909279419,0.12454203429674209,2.065641151984561,9.385274779421955
0.33595645412130637,0.16414086198666517,2.010202793218669,9.361515482808
0.3439554173146708,0.20373968967658795,1.9547644344527768,9.337756186194047
0.35195438050803524,0.24333851736651105,1.8993260756868846,9.313996889580093
0.35995334370139964,0.28293734505643386,1.8438877169209926,9.29023759296614
0.3679523068947641,0.32253617274635693,1.7884493581551002,9.266478296352187
0.3759512700881285,0.3621350004362798,1.7330109993892084,9.242718999738232
0.38395023328149297,0.40173382812620284,1.677572640623316,9.218959703124279
0.39194919647485743,0.4413326558161259,1.6221342818574236,9.195200406510324
0.39994815966822184,0.48093148350604875,1.5666959230915318,9.17144110989637
0.4079471228615863,0.5205303111959718,1.5112575643256394,9.147681813282416
0.4159460860549507,0.5601291388858947,1.4558192055597474,9.123922516668463
0.42394504924831516,0.5997279665758177,1.4003808467938552,9.100163220054508
0.43194401244167957,-0.12060005184033158,1.1484998703991711,8.52789981855884
0.43994297563504403,-0.1539290651460168,1.065177337134958,8.41124827198894
0.4479419388284085,-0.18725807845170206,0.9818548038707448,8.294596725419042
0.4559409020217729,-0.22058709175738708,0.8985322706065322,8.177945178849145
0.46393986521513736,-0.25391610506307233,0.815209737342319,8.061293632279247
0.47193882840850176,-0.2872451183687573,0.7318872040781066,7.944642085709349
0.4799377916018662,-0.3205741316744426,0.6485646708138935,7.827990539139451
0.48793675479523063,-0.35390314498012754,0.5652421375496809,7.711338992569553
0.4959357179885951,-0.3872321582858128,0.48191960428546776,7.594687445999655
0.5039346811819595,-0.42056117159149786,0.3985970710212553,7.4780358994297575
0.511933644375324,-0.45389018489718314,0.3152745377570422,7.36138435285986
0.5199326075686884,-0.4872191982028683,0.23195200449282904,7.244732806289961
0.5279315707620529,-0.4,-0.42410575427682856,6.975894245723171
0.5359305339554172,0.5788847848626243,-1.7788847848626244,7.103016459305339
0.5439294971487817,0.49139612493520046,-1.6913961249352005,7.115514839294971
0.5519284603421462,0.4039074650077766,-1.6039074650077767,7.128013219284603
0.5599274235355106,0.3164188050803527,-1.5164188050803529,7.140511599274236
0.567926386728875,0.2289301451529301,-1.4289301451529302,7.153009979263867
0.5759253499222394,0.1414414852255062,-1.3414414852255063,7.165508359253499
0.5839243131156039,0.05395282529808232,-1.2539528252980823,7.1780067392431315
0.5919232763089683,-0.03353583462934151,-1.1664641653706584,7.190505119232763
0.5999222395023328,-1.1572317262830578,-1.3883359253499248,7.488335925349925
0.6079212026956972,-1.9151673897028723,-2.8303347794057445,7.089888406864751
0.6159201658890616,-1.9783170991241708,-2.9566341982483415,7.0477886005838855
0.6239191290824261,-2.041466808545469,-3.082933617090938,7.00568879430302
0.6319180922757905,-2.1046165179667673,-3.209233035933535,6.963588988022154
0.6399170554691549,-2.167766227388065,-3.33553245477613,6.92148918174129
0.6479160186625194,-2.2309159368093634,-3.461831873618727,6.879389375460424
0.6559149818558838,-2.2940656462306617,-3.5881312924613233,6.837289569179559
0.6639139450492483,-2.35721535565196,-3.7144307113039203,6.795189762898693
0.6719129082426127,-2.420365065073258,-3.840730130146517,6.753089956617828
0.6799118714359771,-2.483514774494556,-3.967029548989112,6.710990150336962
0.6879108346293415,-2.5466644839158543,-4.093328967831709,6.668890344056097
0.695909797822706,-2.6098141933371526,-4.219628386674305,6.626790537775231
0.7039087610160705,-2.6729639027584513,-4.345927805516903,6.584690731494366
0.7119077242094349,-2.7361136121797496,-4.472227224359499,6.5425909252135
0.7199066874027993,-2.799263321601047,-4.598526643202094,6.5004911189326355
0.7279056505961637,-2.681886988076725,-5.16377397615345,7.054339035769826
0.7359046137895282,-2.6373846001125045,-5.0539999779402836,7.29169231108611
0.7439035769828927,-2.713970417921313,-5.164623936997452,7.27467324046193
0.751902540176257,-2.790556235730121,-5.275247896054618,7.257654169837751
0.7599015033696215,-2.867142053538929,-5.385871855111787,7.240635099213571
0.7679004665629859,-2.943727871347738,-5.496495814168955,7.223616028589391
0.7758994297563504,-3.0203136891565467,-5.607119773226123,7.206596957965211
0.7838983929497149,-3.0968995069653555,-5.717743732283291,7.189577887341032
0.7918973561430792,-3.173485324774163,-5.828367691340458,7.172558816716853
0.7998963193364437,-3.250071142582972,-5.938991650397625,7.155539746092673
0.8078952825298081,-3.3266569603917806,-6.0496156094547935,7.138520675468493
0.8158942457231726,-3.403242778200589,-6.160239568511962,7.121501604844314
0.823893208916537,-3.479828596009397,-6.270863527569128,7.104482534220134
0.8318921721099014,-4.925490631711471,-7.47450936828853,7.793627342072132
0.8398911353032659,-5.154032437236168,-7.245967562763831,7.736491890690958
0.8478900984966303,-6.0225246241575885,-6.594232763089688,7.04972783825817
0.8558890616899948,-6.328311212424636,-6.409437070808212,6.771688787575363
0.8638880248833591,-6.361183663904216,-6.420394554634739,6.738816336095784
0.8718869880767236,-6.394056115383796,-6.431352038461266,6.705943884616204
0.8798859512700881,-6.426928566863375,-6.442309522287792,6.6730714331366245
0.8878849144634525,-6.459801018342955,-6.453267006114318,6.640198981657044
0.895883877656817,-6.4926734698225355,-6.464224489940845,6.607326530177464
0.9038828408501813,-6.525545921302115,-6.475181973767372,6.574454078697885
0.9118818040435458,-6.558418372781695,-6.486139457593898,6.541581627218305
0.9198807672369103,-6.591290824261274,-6.497096941420425,6.508709175738725
0.9278797304302747,-8.0639191290824,-5.995991014342489,3.9400898565751095
0.9358786936236391,-8.133526355845271,-6.016763177922636,3.8664736441547274
0.9438776568170035,-8.16756449709363,-6.0337822485468156,3.832435502906368
0.951876620010368,-8.20160263834199,-6.050801319170995,3.7983973616580085
0.9598755832037325,-8.23564077959035,-6.067820389795175,3.7643592204096494
0.9678745463970969,-8.26967892083871,-6.084839460419355,3.73032107916129
0.9758735095904613,-8.303717062087069,-6.1018585310435345,3.696282937912931
0.9838724727838257,-8.337755203335428,-6.118877601667714,3.6622447966645715
0.9918714359771902,-8.371793344583788,-6.135896672291894,3.628206655416212
0.9998703991705546,-8.405831485832147,-6.152915742916074,3.5941685141678525
1.007869362363919,-8.439869627080506,-6.169934813540253,3.5601303729194935
1.0158683255572836,-8.473907768328866,-6.186953884164433,3.526092231671134
1.023867288750648,-9.130093312597202,-6.816822187662002,3.0699066874027987
1.0318662519440123,-9.804113033982992,-7.383547864068033,3.016452135931967
1.0398652151373768,-9.812622569295083,-7.349509722819674,3.0504902771803266
1.0478641783307412,-9.821132104607171,-7.315471581571314,3.0845284184286856
1.0558631415241058,-9.829641639919261,-7.281433440322955,3.1185665596770455
1.0638621047174701,-9.838151175231351,-7.247395299074595,3.1526047009254046
1.0718610679108345,-9.846660710543441,-7.213357157826237,3.1866428421737636
1.079860031104199,-9.85517024585553,-7.179319016577877,3.220680983422123
1.0878589942975634,-9.86367978116762,-7.145280875329518,3.254719124670482
1.095857957490928,-9.87218931647971,-7.111242734081158,3.288757265918842
1.1038569206842923,-9.8806988517918,-7.077204592832799,3.322795407167201
1.1118558838776567,-9.88920838710389,-7.04316645158444,3.3568335484155596
1.1198548470710212,-9.89771792241598,-7.00912831033608,3.3908716896639195
1.1278538102643856,-9.93902540176257,-6.765847589424579,3.5170762052877103
1.13585277345775,-9.992351823051665,-6.4458890616900035,3.6770554691549986
1.1438517366511145,-9.792968088666655,-4.690624118222205,4.097656029555551
1.1518506998444789,-9.7625922790716,-4.650123038762132,4.087530759690533
1.1598496630378434,-9.732216469476544,-4.609621959302058,4.077405489825514
1.1678486262312078,-9.70184065988149,-4.569120879841986,4.067280219960496
1.1758475894245721,-9.671464850286435,-4.528619800381914,4.057154950095478
1.1838465526179367,-9.64108904069138,-4.48811872092184,4.04702968023046
1.191845515811301,-9.610713231096325,-4.4476176414617665,4.036904410365442
1.1998444790046656,-9.58033742150127,-4.407116562001693,4.026779140500423
1.20784344219803,-9.549961611906216,-4.36661548254162,4.016653870635405
1.2158424053913943,-9.51958580231116,-4.326114403081548,4.006528600770387
1.223841368584759,-8.989657853810298,-4.284136858475881,3.773794712286179
1.2318403317781232,-8.68589622313789,-4.357688669413672,3.5576886694136713
1.2398392949714878,-8.669403515522704,-4.308210546568118,3.508210546568117
1.2478382581648522,-8.65291080790752,-4.258732423722565,3.4587324237225645
1.2558372213582165,-8.636418100292337,-4.209254300877012,3.409254300877012
1.263836184551581,-8.619925392677152,-4.159776178031458,3.3597761780314577
1.2718351477449454,-8.603432685061968,-4.110298055185905,3.310298055185905
1.2798341109383098,-8.586939977446784,-4.060819932340352,3.260819932340352
1.2878330741316744,-8.570447269831599,-4.011341809494798,3.2113418094947983
1.2958320373250387,-8.553954562216415,-3.9618636866492456,3.1618636866492453
1.3038310005184033,-8.537461854601231,-3.9123855638036913,3.1123855638036915
1.3118299637117676,-8.520969146986046,-3.8629074409581388,3.0629074409581385
1.319828926905132,-8.504476439370862,-3.813429318112586,3.013429318112586
1.3278278900984966,-7.904357316307877,-4.695642683692124,2.9017429265231507
1.335826853291861,-7.946457122588742,-4.653542877411258,2.918582849035497
1.3438258164852255,-7.988556928869609,-4.611443071130392,2.9354227715478434
1.3518247796785898,-8.030656735150473,-4.569343264849527,2.952262694060189
1.3598237428719542,-8.072756541431339,-4.5272434585686625,2.969102616572535
1.3678227060653187,-8.114856347712205,-4.485143652287796,2.9859425390848817
1.375821669258683,-8.15695615399307,-4.443043846006931,3.002782461597228
1.3838206324520477,-8.199055960273936,-4.400944039726065,3.0196223841095744
1.391819595645412,-8.241155766554801,-4.3588442334452,3.03646230662192
1.3998185588387764,-8.283255572835666,-4.316744427164335,3.053302229134266
1.407817522032141,-8.325355379116532,-4.2746446208834685,3.0701421516466127
1.4158164852255053,-8.367455185397397,-4.232544814602604,3.086982074158959
1.4238154484188699,-8.490772420943497,-4.47231726283049,3.190772420943497
1.4318144116122342,-8.994932198302912,-3.794932198302911,3.3949321983029113
1.4398133748055986,-8.986512237046739,-3.7865122370467383,3.3865122370467384
1.4478123379989631,-8.978092275790566,-3.778092275790565,3.378092275790565
1.4558113011923275,-8.969672314534392,-3.769672314534392,3.369672314534392
1.4638102643856918,-8.96125235327822,-3.761252353278219,3.361252353278219
1.4718092275790564,-8.952832392022046,-3.752832392022046,3.3528323920220457
1.4798081907724208,-8.944412430765873,-3.744412430765873,3.344412430765873
1.4878071539657853,-8.9359924695097,-3.7359924695096995,3.3359924695096996
1.4958061171591497,-8.927572508253528,-3.7275725082535267,3.3275725082535264
1.503805080352514,-8.919152546997354,-3.719152546997354,3.3191525469973535
1.5118040435458786,-8.910732585741181,-3.7107325857411806,3.3107325857411802
1.519803006739243,-8.902312624485008,-3.7023126244850078,3.3023126244850074
1.5278019699326075,-9.028932665169057,-3.377668337077357,3.7512643280917004
1.5358009331259719,-9.0,-2.8027618383654205,4.69723816163458
1.5437998963193362,-9.0,-2.830344470066677,4.669655529933324
1.5517988595127008,-9.0,-2.8579271017679337,4.642072898232066
1.5597978227060652,-9.0,-2.88550973346919,4.61449026653081
1.5677967858994297,-9.0,-2.9130923651704475,4.5869076348295525
1.575795749092794,-9.0,-2.940674996871704,4.559325003128297
1.5837947122861584,-9.0,-2.96825762857296,4.531742371427041
1.591793675479523,-9.0,-2.995840260274217,4.504159739725783
1.5997926386728873,-9.0,-3.0234228919754735,4.476577108024527
1.607791601866252,-9.0,-3.0510055236767304,4.44899447632327
1.6157905650596163,-9.0,-3.078588155377987,4.421411844622013
1.6237895282529806,-8.86052358735097,-3.678952825298062,4.002617936754845
1.6317884914463452,-8.630287713841371,-3.7151438569206854,3.6151438569206853
1.6397874546397095,-8.584573966727932,-3.707713016636034,3.615426033272067
1.647786417833074,-8.566394504924832,-3.716802747537584,3.6336054950751677
1.6557853810264385,-8.548215043121731,-3.7258924784391345,3.651784956878269
1.6637843442198028,-8.53003558131863,-3.734982209340685,3.66996441868137
1.6717833074131674,-8.511856119515528,-3.7440719402422356,3.6881438804844713
1.6797822706065317,-8.493676657712427,-3.753161671143786,3.706323342287572
1.687781233799896,-8.475497195909327,-3.762251402045336,3.724502804090673
1.6957801969932607,-8.457317734106226,-3.771341132946887,3.742682265893774
1.703779160186625,-8.439138272303126,-3.780430863848437,3.7608617276968745
1.7117781233799896,-8.420958810500023,-3.789520594749988,3.779041189499976
1.719777086573354,-8.402779348696923,-3.7986103256515382,3.7972206513030766
1.7277760497667183,-7.794449844479005,-3.798149948159668,3.303700103680663
1.7357750129600829,-7.769453084499741,-3.7898176948332467,3.3203646103335056
1.7437739761534472,-7.744456324520478,-3.7814854415068258,3.3370291169863484
1.7517729393468118,-7.719459564541213,-3.7731531881804043,3.353693623639191
1.7597719025401761,-7.694462804561949,-3.764820934853983,3.3703581302920336
1.7677708657335405,-7.669466044582686,-3.756488681527562,3.387022636944876
1.775769828926905,-7.644469284603422,-3.7481564282011406,3.4036871435977187
1.7837687921202694,-7.619472524624158,-3.7398241748747196,3.420351650250561
1.791767755313634,-7.594475764644894,-3.7314919215482982,3.437016156903404
1.7997667185069983,-7.56947900466563,-3.723159668221877,3.4536806635562463
1.8077656817003627,-7.544482244686367,-3.714827414895456,3.4703451702090886
1.8157646448937272,-7.519485484707102,-3.7064951615690345,3.4870096768619314
1.8237636080870916,-7.676360808709153,-3.8763608087091526,3.852721617418305
1.831762571280456,-7.796648038327666,-3.6041899520904175,3.8991620095819166
1.8397615344738205,-7.761487760554635,-3.6481402993067062,3.8903719401386585
1.8477604976671849,-7.726327482781604,-3.692090646522994,3.8815818706954013
1.8557594608605494,-7.691167205008574,-3.736040993739283,3.872791801252143
1.8637584240539138,-7.656006927235544,-3.7799913409555703,3.864001731808886
1.8717573872472781,-7.620846649462513,-3.823941688171858,3.8552116623656283
1.8797563504406427,-7.585686371689483,-3.867892035388147,3.8464215929223706
1.887755313634007,-7.550526093916452,-3.9118423826044344,3.837631523479113
1.8957542768273716,-7.515365816143421,-3.9557927298207236,3.8288414540358553
1.903753240020736,-7.480205538370392,-3.999743077037011,3.8200513845925976
1.9117522032141003,-7.445045260597361,-4.0436934242532985,3.81126131514934
1.919751166407465,-7.40988498282433,-4.087643771469588,3.8024712457060823
1.9277501296008293,-8.5,-4.4,4.301530876736386
1.9357490927941938,-8.5,-4.4,4.317855291416722
1.9437480559875582,-8.5,-4.4,4.334179706097057
1.9517470191809225,-8.5,-4.4,4.3505041207773925
1.959745982374287,-8.5,-4.4,4.366828535457729
1.9677449455676514,-8.5,-4.4,4.383152950138064
1.9757439087610158,-8.5,-4.4,4.3994773648184
1.9837428719543804,-8.5,-4.4,4.415801779498736
1.9917418351477447,-8.5,-4.4,4.432126194179071
1.9997407983411093,-8.5,-4.4,4.448450608859407
2.0077397615344736,-8.5,-4.4,4.464775023539742
2.015738724727838,-8.5,-4.4,4.4810994382200775
2.0237376879212023,-8.5,-4.4,4.497423852900413
2.031736651114567,-6.901828053804808,-3.701828053804808,4.3
2.0397356143079315,-6.910248015060981,-3.710248015060981,4.3
2.047734577501296,-6.918667976317154,-3.7186679763171537,4.3
2.05573354069466,-6.927087937573327,-3.7270879375733266,4.3
2.0637325038880245,-6.9355078988295,-3.7355078988295,4.3
2.0717314670813893,-6.943927860085673,-3.743927860085673,4.3
2.0797304302747537,-6.952347821341847,-3.752347821341846,4.3
2.087729393468118,-6.960767782598019,-3.760767782598019,4.3
2.0957283566614824,-6.969187743854192,-3.769187743854192,4.3
2.1037273198548467,-6.9776077051103655,-3.777607705110365,4.3
2.1117262830482115,-6.986027666366539,-3.786027666366538,4.3
2.119725246241576,-6.994447627622711,-3.7944476276227115,4.3
2.1277242094349402,-7.0,-3.8724209434940207,4.3275790565059795
2.1357231726283046,-6.918662519440124,-3.881337480559876,4.281337480559876
2.143722135821669,-6.94474609507066,-3.85525390492934,4.25525390492934
2.1517210990150337,-6.970829670701198,-3.829170329298803,4.229170329298802
2.159720062208398,-6.996913246331734,-3.803086753668267,4.203086753668266
2.1677190254017624,-7.022996821962269,-3.777003178037731,4.177003178037731
2.1757179885951268,-7.049080397592805,-3.750919602407195,4.150919602407195
2.183716951788491,-7.075163973223341,-3.7248360267766594,4.124836026776659
2.191715914981856,-7.101247548853879,-3.698752451146122,4.0987524511461215
2.1997148781752203,-7.127331124484415,-3.672668875515586,4.0726688755155855
2.2077138413685846,-7.153414700114951,-3.64658529988505,4.0465852998850504
2.215712804561949,-7.179498275745486,-3.620501724254514,4.0205017242545145
2.2237117677553133,-7.535588387765671,-3.5118627959218904,4.076274408156219
2.2317107309486777,-8.002369103162259,-3.6,3.798420597891827
2.2397096941420425,-8.029032313806809,-3.6,3.780645124128794
2.247708657335407,-8.055695524451357,-3.6,3.7628696503657624
2.255707620528771,-8.082358735095903,-3.6,3.7450941766027306
2.2637065837221355,-8.109021945740452,-3.6,3.727318702839699
2.2717055469155,-8.135685156385,-3.6,3.709543229076667
2.2797045101088647,-8.16234836702955,-3.6,3.6917677553136343
2.287703473302229,-8.189011577674098,-3.6,3.6739922815506025
2.2957024364955934,-8.215674788318644,-3.6,3.6562168077875707
2.3037013996889577,-8.242337998963192,-3.6,3.638441334024539
2.311700362882322,-8.26900120960774,-3.6,3.620665860261507
2.319699326075687,-8.29566442025229,-3.6,3.602890386498474
2.327698289269051,-9.83184292379471,-3.3982309486780715,2.9088452566096414
2.3356972524624156,-9.98182348367029,-3.3898986953516506,2.950506523241747
2.34369621565578,-10.131804043545872,-3.381566442025229,2.9921677898738532
2.3516951788491443,-10.281784603421453,-3.373234188698808,3.033829056505959
2.359694142042509,-10.431765163297044,-3.3649019353723864,3.0754903231380673
2.3676931052358734,-10.581745723172624,-3.3565696820459654,3.1171515897701734
2.3756920684292377,-10.731726283048205,-3.348237428719544,3.158812856402279
2.383691031622602,-10.881706842923787,-3.3399051753931226,3.200474123034385
2.3916899948159664,-11.031687402799369,-3.3315729220667016,3.2421353896664913
2.3996889580093312,-11.181667962674958,-3.32324066874028,3.283796656298599
2.4076879212026956,-11.33164852255054,-3.314908415413859,3.3254579229307053
2.41568688439606,-11.481629082426121,-3.3065761620874374,3.3671191895628114
2.4236858475894243,-11.191368584759054,-3.3342923794712163,3.1342923794712165
2.4316848107827886,-9.985349471454013,-3.0908434196587584,3.2871807875222614
2.4396837739761534,-9.91579326977258,-3.0473707936078624,3.226319111051007
2.447682737169518,-9.84623706809115,-3.003898167556969,3.1654574345797566
2.455681700362882,-9.776680866409722,-2.960425541506076,3.104595758108506
2.4636806635562465,-9.70712466472829,-2.9169529154551825,3.043734081637255
2.471679626749611,-9.637568463046861,-2.873480289404289,2.9828724051660043
2.4796785899429756,-9.568012261365428,-2.8300076633533933,2.9220107286947505
2.48767755313634,-9.498456059683999,-2.7865350373025,2.8611490522234995
2.4956765163297043,-9.42889985800257,-2.743062411251606,2.800287375752249
2.5036754795230687,-9.35934365632114,-2.699589785200713,2.739425699280998
2.511674442716433,-9.289787454639711,-2.6561171591498196,2.6785640228097476
2.519673405909798,-9.220231252958277,-2.612644533098924,2.6177023463384934
2.527672369103162,-7.616278409866028,-0.8099085973097565,2.0
2.5356713322965265,-7.809937518758008,-0.9277880548961788,2.0
2.543670295489891,-8.003596627649987,-1.0456675124826011,2.0
2.5516692586832552,-8.197255736541967,-1.1635469700690235,2.0
2.5596682218766196,-8.390914845433946,-1.281426427655446,2.0
2.5676671850699844,-8.584573954325936,-1.3993058852418745,2.0
2.5756661482633487,-8.778233063217916,-1.5171853428282969,2.0
2.583665111456713,-8.971892172109897,-1.6350648004147192,2.0
2.5916640746500774,-9.165551281001875,-1.7529442580011416,2.0
2.5996630378434418,-9.359210389893855,-1.870823715587564,2.0
2.6076620010368066,-9.552869498785846,-1.9887031731739928,2.0
2.615660964230171,-9.746528607677824,-2.106582630760415,2.0
2.6236599274235353,-10.832996371176757,-2.6340072576464886,2.465992742353512
2.6316588906168996,-10.234110938310025,-2.2336443753240096,2.6
2.639657853810264,-9.80984799076908,-2.1375633371795497,2.5849746651281804
2.6476568170036288,-9.65502934831686,-2.2020711048679753,2.55917155805281
2.655655780196993,-9.500210705864648,-2.266578872556397,2.533368450977441
2.6636547433903575,-9.345392063412435,-2.331086640244819,2.5075653439020726
2.671653706583722,-9.190573420960222,-2.395594407933241,2.481762236826704
2.679652669777086,-9.035754778508009,-2.460102175621663,2.455959129751335
2.687651632970451,-8.880936136055787,-2.524609943310088,2.430156022675965
2.6956505961638153,-8.726117493603574,-2.58911771099851,2.404352915600596
2.7036495593571797,-8.3,-3.190214478389612,2.6055917266345077
2.711648522550544,-8.3,-3.1427630018188064,2.6327068561035394
2.7196474857439084,-8.3,-3.0953115252480012,2.659821985572571
2.727646448937273,-8.3,-3.047860048677193,2.686937115041604
2.7356454121306375,-8.3,-3.0004085721063873,2.714052244510636
2.743644375324002,-8.3,-2.9529570955355817,2.7411673739796676
2.751643338517366,-8.3,-2.905505618964776,2.7682825034486993
2.7596423017107305,-8.3,-2.858054142393971,2.795397632917731
2.7676412649040953,-8.3,-2.8106026658231626,2.822512762386764
2.7756402280974597,-8.3,-2.763151189252357,2.849627891855796
2.783639191290824,-8.3,-2.715699712681552,2.8767430213248275
2.7916381544841884,-8.3,-2.6682482361107462,2.9038581507938597
2.7996371176775527,-8.3,-2.6207967595399406,2.930973280262891
2.8076360808709175,-8.3,-2.5733452829691323,2.9580884097319244
2.815635044064282,-8.3,-2.5258938063983267,2.985203539200956
2.8236340072576462,-8.401268014515292,-3.3019020217729387,3.2006340072576465
2.8316329704510106,-8.417265940902022,-3.3258989113530317,3.208632970451011
2.839631933644375,-8.43326386728875,-3.349895800933125,3.216631933644375
2.8476308968377397,-8.449261793675479,-3.373892690513219,3.22463089683774
2.855629860031104,-8.465259720062209,-3.397889580093312,3.2326298600311043
2.8636288232244684,-8.481257646448936,-3.4218864696734053,3.2406288232244687
2.871627786417833,-8.497255572835666,-3.4458833592534983,3.248627786417833
2.879626749611197,-8.513253499222394,-3.4698802488335914,3.256626749611197
2.887625712804562,-8.529251425609123,-3.4938771384136857,3.2646257128045617
2.8956246759979263,-8.545249351995853,-3.517874027993779,3.272624675997926
2.9036236391912906,-8.56124727838258,-3.541870917573872,3.2806236391912904
2.911622602384655,-8.57724520476931,-3.565867807153965,3.2886226023846548
2.9196215655780193,-8.593243131156038,-3.589864696734058,3.296621565578019
2.9276205287713837,-8.657756609642295,-3.6577566096422958,4.339618973561317
2.9356194919647485,-8.10070396814176,-3.2077436495593554,4.20140793628352
2.943618455158113,-8.10979369904331,-3.3077306894764096,4.21958739808662
2.951617418351477,-8.11888342994486,-3.4077177293934637,4.237766859889721
2.9596163815448415,-8.12797316084641,-3.5077047693105183,4.2559463216928215
2.967615344738206,-8.137062891747961,-3.6076918092275725,4.274125783495922
2.9756143079315707,-8.146152622649511,-3.7076788491446324,4.2923052452990245
2.983613271124935,-8.155242353551062,-3.8076658890616866,4.310484707102125
2.9916122343182994,-8.164332084452612,-3.9076529289787407,4.328664168905226
2.9996111975116637,-8.173421815354162,-4.007639968895795,4.346843630708326
3.007610160705028,-8.182511546255713,-4.107627008812849,4.365023092511428
3.015609123898393,-8.191601277157265,-4.2076140487299085,4.383202554314529
3.023608087091757,-8.291213063763571,-4.421617418351429,4.460808709175715
3.0316070502851216,-8.793646679338744,-4.773411669834686,4.673411669834686
3.039606013478486,-10.972120269569718,-5.091986636714475,4.744073498070383
3.0476049766718503,-11.132099533437005,-5.0742111629514435,4.841838603767059
3.055603939865215,-11.2920787973043,-5.056435689188411,4.939603709463739
3.0636029030585794,-11.452058061171588,-5.038660215425379,5.0373688151604155
3.0716018662519438,-11.612037325038875,-5.020884741662347,5.135133920857091
3.079600829445308,-11.772016588906162,-5.003109267899315,5.232899026553766
3.0875997926386725,-11.93199585277345,-4.985333794136284,5.330664132250442
3.0955987558320373,-12.091975116640747,-4.96755832037325,5.428429237947123
3.1035977190254016,-12.251954380508034,-4.949782846610218,5.526194343643798
3.111596682218766,-12.41193364437532,-4.9320073728471865,5.623959449340473
3.1195956454121303,-12.571912908242608,-4.914231899084155,5.721724555037149
3.1275946086054947,-11.343234836703116,-4.451347848626298,5.202695697252596
3.1355935717988594,-9.487970813335785,-3.593985406667893,4.027824880014715
3.143592534992224,-9.470768741952206,-3.5853843709761035,3.9246124517132395
3.151591498185588,-9.453566670568627,-3.576783335284314,3.821400023411764
3.1595904613789525,-9.436364599185048,-3.5681822995925243,3.7181875951102885
3.167589424572317,-9.419162527801468,-3.5595812639007347,3.6149751668088133
3.1755883877656816,-9.40196045641789,-3.550980228208944,3.511762738507332
3.183587350959046,-9.38475838503431,-3.5423791925171546,3.4085503102058565
3.1915863141524103,-9.36755631365073,-3.533778156825365,3.305337881904381
3.1995852773457747,-9.350354242267152,-3.5251771211335754,3.202125453602905
3.207584240539139,-9.333152170883572,-3.516576085441786,3.09891302530143
3.215583203732504,-9.315950099499991,-3.5079750497499957,2.9957005969999484
3.223582166925868,-9.358216692586826,-3.6164333851736514,2.7835666148263485
3.2315811301192325,-10.610983532422265,-4.8164752986333985,1.7917623506833007
3.239580093312597,-10.645021673670625,-4.867532510505937,1.7662337447470315
3.2475790565059612,-10.679059814918983,-4.918589722378475,1.7407051388107622
3.2555780196993256,-10.713097956167342,-4.969646934251014,1.715176532874493
3.2635769828926904,-10.747136097415703,-5.020704146123555,1.6896479269382223
3.2715759460860547,-10.781174238664063,-5.071761357996094,1.6641193210019531
3.279574909279419,-10.815212379912422,-5.122818569868633,1.6385907150656838
3.2875738724727834,-10.84925052116078,-5.173875781741171,1.6130621091294146
3.295572835666148,-10.88328866240914,-5.224932993613709,1.5875335031931455
3.3035717988595126,-10.9173268036575,-5.27599020548625,1.5620048972568747
3.311570762052877,-10.95136494490586,-5.32704741735879,1.5364762913206054
3.3195697252462413,-10.985403086154218,-5.378104629231328,1.5109476853843362
3.3275686884396056,-9.96469673405914,-3.7078278900985673,1.3215655780197135
3.33556765163297,-9.806700185346944,-3.548166769637191,1.3414665842902473
3.3435666148263348,-9.7080828309082,-3.493379350504555,1.3852965195963558
3.351565578019699,-9.609465476469461,-3.438591931371923,1.4291264549024618
3.3595645412130635,-9.510848122030723,-3.38380451223929,1.4729563902085678
3.367563504406428,-9.412230767591984,-3.329017093106658,1.516786325514674
3.375562467599792,-9.313613413153245,-3.274229673974025,1.56061626082078
3.383561430793157,-9.214996058714501,-3.2194422548413897,1.6044461961268885
3.3915603939865213,-9.116378704275762,-3.164654835708757,1.6482761314329946
3.3995593571798857,-9.017761349837023,-3.109867416576124,1.6921060667391006
3.40755832037325,-8.737667185069997,-2.968833592534999,1.7655832037325006
3.4155572835666144,-7.095794086289703,-3.2021029568551485,1.6
3.423556246759979,-7.035424552754874,-3.232287723622563,1.6
3.4315552099533435,-6.975055019220049,-3.2624724903899756,1.6
3.439554173146708,-6.914685485685223,-3.2926572571573884,1.6
3.447553136340072,-6.854315952150398,-3.322842023924801,1.6
3.4555520995334366,-6.7939464186155725,-3.3530267906922138,1.6
3.4635510627268014,-6.733576885080744,-3.383211557459628,1.6
3.4715500259201657,-6.673207351545919,-3.4133963242270404,1.6
3.47954898911353,-6.612837818011093,-3.4435810909944533,1.6
3.4875479523068944,-6.552468284476268,-3.473765857761866,1.6
3.4955469155002588,-6.492098750941443,-3.5039506245292786,1.6
3.5035458786936235,-6.431729217406614,-3.534135391296693,1.6
3.511544841886988,-6.3713596838717885,-3.5643201580641057,1.6
3.5195438050803523,-6.310990150336964,-3.594504924831518,1.6
3.5275427682737166,-6.241297893397424,-3.717404213205153,1.9825957867948474
3.535541731467081,-6.303464565094564,-3.598267717452718,2.101732282547282
3.5435406946604457,-6.321439763281901,-3.5892801183590497,2.1107198816409505
3.55153965785381,-6.339414961469236,-3.580292519265382,2.1197074807346183
3.5595386210471744,-6.357390159656572,-3.571304920171714,2.128695079828286
3.567537584240539,-6.375365357843908,-3.562317321078046,2.137682678921954
3.575536547433903,-6.393340556031243,-3.5533297219843787,2.1466702780156215
3.583535510627268,-6.411315754218579,-3.5443421228907104,2.15565787710929
3.5915344738206323,-6.429290952405915,-3.5353545237970425,2.1646454762029577
3.5995334370139966,-6.447266150593251,-3.5263669247033747,2.1736330752966255
3.607532400207361,-6.465241348780586,-3.517379325609707,2.1826206743902934
3.6155313634007253,-6.483216546967921,-3.5083917265160394,2.191608273483961
3.6235303265940897,-6.535355106272635,-3.5,2.288387765681588
3.6315292897874545,-7.130585795749092,-3.5305857957490927,3.22234318299637
3.639528252980819,-7.245791322277945,-3.6254396234877473,3.510175849395099
3.647527216174183,-7.326679714120956,-3.670377618956086,3.5281510475824347
3.6555261793675475,-7.407568105963965,-3.715315614424425,3.54612624576977
3.663525142560912,-7.488456497806975,-3.760253609892764,3.5641014439571057
3.6715241057542767,-7.569344889649989,-3.805191605361105,3.5820766421444423
3.679523068947641,-7.650233281492999,-3.850129600829444,3.6000518403317776
3.6875220321410054,-7.731121673336009,-3.8950675962977828,3.6180270385191133
3.6955209953343697,-7.8120100651790185,-3.9400055917661216,3.6360022367064486
3.703519958527734,-7.892898457022029,-3.9849435872344605,3.6539774348937843
3.711518921721099,-7.973786848865043,-4.029881582702801,3.671952633081121
3.7195178849144632,-8.054675240708052,-4.07481957817114,3.6899278312684567
3.7275168481078276,-10.744945567651706,-4.074157594608617,3.6
3.735515811301192,-10.168430733341319,-3.943613171431994,3.7127736571360126
3.7435147744945563,-10.006913207321462,-3.8743913745663408,3.8512172508673186
3.751513737687921,-9.845395681301596,-3.805169577700684,3.989660844598632
3.7595127008812854,-9.68387815528174,-3.735947780835031,4.128104438329938
3.7675116640746498,-9.522360629261883,-3.666725983969378,4.266548032061244
3.775510627268014,-9.360843103242026,-3.597504187103725,4.40499162579255
3.7835095904613785,-9.199325577222169,-3.528282390238072,4.543435219523856
3.7915085536547433,-9.037808051202303,-3.4590605933724152,4.681878813255169
3.7995075168481076,-8.876290525182446,-3.3898387965067625,4.820322406986476
3.807506480041472,-8.714772999162589,-3.3206169996411097,4.958766000717782
3.8155054432348363,-8.55325547314273,-3.2513952027754565,5.097209594449088
3.8235044064282007,-8.391737947122873,-3.1821734059098032,5.235653188180393
3.8315033696215655,-8.23022042110301,-3.1129516090441465,5.374096781911707
3.83950233281493,-9.333191073818215,-2.808734493110056,2.806987594488045
3.847501296008294,-9.509912353671615,-2.855240093071477,2.844192074457182
3.8555002592016585,-9.686633633525012,-2.9017456930328978,2.8813965544263183
3.863499222395023,-9.863354913378412,-2.9482512929943185,2.9186010343954547
3.8714981855883877,-10.04007619323182,-2.994756892955742,2.9558055143645934
3.879497148781752,-10.216797473085219,-3.0412624929171628,2.9930099943337303
3.8874961119751164,-10.393518752938617,-3.087768092878583,3.0302144743028667
3.8954950751684807,-10.570240032792016,-3.134273692840004,3.0674189542720036
3.903494038361845,-10.746961312645414,-3.1807792928014247,3.10462343424114
3.91149300155521,-10.923682592498823,-3.227284892762848,3.1418279142102787
3.919491964748574,-11.10040387235222,-3.273790492724269,3.179032394179415
3.9274909279419385,-10.616969068602046,-3.327676977132651,3.555353954265303
3.935489891135303,-10.094989749752584,-3.6038968613035456,3.493876360808714
3.9434888543286672,-10.013182171638631,-3.6675249776143986,3.3938893208916596
3.9514878175220316,-9.931374593524676,-3.7311530939252515,3.2939022809746046
3.9594867807153964,-9.849567015410718,-3.794781210236108,3.193915241057544
3.9674857439087607,-9.767759437296764,-3.858409326546961,3.0939282011404896
3.975484707102125,-9.68595185918281,-3.922037442857814,2.993941161223435
3.9834836702954894,-9.604144281068855,-3.985665559168667,2.89395412130638
3.991482633488854,-9.522336702954902,-4.04929367547952,2.7939670813893254
3.9994815966822186,-9.440529124840943,-4.112921791790376,2.693980041472265
4.0074805598755825,-9.358721546726994,-4.176549908101226,2.5939930015552157
4.015479523068947,-9.276913968613036,-4.240178024412083,2.4940059616381554
4.023478486262312,-9.128227060653165,-4.3,2.4
4.031477449455676,-8.62838258164858,-3.8761275272161932,2.1954898911352267
4.039476412649041,-8.393110199309533,-3.765550996547657,2.513779601380937
4.047475375842405,-8.384600663997443,-3.7230033199872103,2.530798672005116
4.0554743390357695,-8.376091128685353,-3.6804556434267592,2.5478177426292965
4.063473302229134,-8.367581593373263,-3.6379079668663077,2.5648368132534767
4.071472265422498,-8.359072058061173,-3.595360290305861,2.5818558838776555
4.079471228615863,-8.350562522749083,-3.55281261374541,2.598874954501836
4.087470191809227,-8.342052987436993,-3.5102649371849632,2.6158940251260145
4.095469155002592,-8.333543452124903,-3.467717260624512,2.632913095750195
4.1034681181959565,-8.325033916812814,-3.4251695840640606,2.649932166374376
4.11146708138932,-8.316524381500724,-3.3826219075036144,2.666951236998554
4.119466044582685,-8.308014846188634,-3.340074230943163,2.683970307622735
4.127465007776049,-8.346500777604914,-3.3930015552098283,2.6069984447901717
4.135463970969414,-8.00380656150485,-4.292386876990299,3.3961934384951493
4.143462934162779,-8.012596630948108,-4.274806738103782,3.387403369051891
4.151461897356143,-8.021386700391366,-4.257226599217268,3.378613299608634
4.159460860549507,-8.030176769834624,-4.239646460330753,3.3698232301653763
4.167459823742871,-8.038966839277881,-4.222066321444238,3.361033160722119
4.175458786936236,-8.047756908721139,-4.204486182557722,3.352243091278861
4.183457750129601,-8.056546978164397,-4.186906043671206,3.343453021835603
4.191456713322965,-8.065337047607654,-4.169325904784692,3.334662952392346
4.19945567651633,-8.074127117050912,-4.151745765898176,3.325872882949088
4.2074546397096935,-8.082917186494168,-4.134165627011662,3.317082813505831
4.215453602903058,-8.091707255937427,-4.116585488125146,3.308292744062573
4.223452566096423,-8.112930459897804,-4.145256609642315,3.3193956898467065
4.231451529289787,-8.390720580611658,-4.8181441161223315,3.654432348366995
4.239450492483152,-9.090098496630295,-5.117573872472723,4.045049248315148
4.247449455676516,-9.208868399614898,-5.2,4.117736799229799
4.2554484188698805,-9.218390974845095,-5.2,4.1367819496901905
4.263447382063245,-9.227913550075291,-5.2,4.155827100150583
4.271446345256609,-9.237436125305488,-5.2,4.1748722506109734
4.279445308449974,-9.246958700535684,-5.2,4.193917401071366
4.287444271643338,-9.256481275765879,-5.2,4.212962551531756
4.295443234836703,-9.266003850996075,-5.2,4.232007701992149
4.3034421980300674,-9.275526426226271,-5.2,4.251052852452541
4.311441161223431,-9.285049001456466,-5.2,4.270098002912932
4.319440124416796,-9.294571576686662,-5.2,4.289143153373324
4.32743908761016,-11.675635044064057,-5.9121824779679715,5.0878175220320285
4.335438050803525,-12.196160470910886,-5.523851012001316,5.337696282546531
4.34343701399689,-12.067144935534035,-5.429239619391624,5.26028696132042
4.3514359771902535,-11.938129400157198,-5.334628226781944,5.182877640094318
4.359434940383618,-11.809113864780345,-5.240016834172253,5.1054683188682075
4.367433903576982,-11.680098329403508,-5.1454054415625725,5.028058997642105
4.375432866770347,-11.551082794026657,-5.050794048952881,4.950649676415994
4.383431829963712,-11.422067258649806,-4.95618265634319,4.873240355189883
4.391430793157076,-11.293051723272969,-4.861571263733509,4.795831033963781
4.3994297563504405,-11.164036187896116,-4.766959871123818,4.718421712737669
4.407428719543804,-11.035020652519279,-4.672348478514138,4.641012391511567
4.415427682737169,-10.906005117142428,-4.577737085904446,4.563603070285456
4.423426645930534,-9.872680145153002,-4.286003110419924,4.286003110419924
4.431425609123898,-8.35310730948678,-4.122128045619491,3.3645951270088132
4.439424572317263,-8.449094867807158,-4.162122861586315,3.3006034214618953
4.447423535510627,-8.545082426127523,-4.202117677553134,3.2366117159149845
4.455422498703991,-8.6410699844479,-4.242112493519958,3.1726200103680666
4.463421461897355,-8.737057542768268,-4.282107309486777,3.108628304821156
4.47142042509072,-8.833045101088643,-4.322102125453601,3.044636599274238
4.479419388284085,-8.929032659409021,-4.3620969414204245,2.9806448937273196
4.487418351477449,-9.025020217729388,-4.402091757387244,2.9166531881804088
4.495417314670814,-9.121007776049764,-4.442086573354068,2.852661482633491
4.5034162778641775,-9.21699533437013,-4.4820813893208875,2.78866977708658
4.511415241057542,-9.312982892690508,-4.522076205287711,2.724678071539662
4.519414204250907,-9.408970451010884,-4.562071021254535,2.6606863659927438
4.527413167444271,-9.665266977708448,-4.765266977708447,2.5173665111457764
4.535412130637636,-10.423789585220376,-4.9,2.641631774135658
4.543411093831,-10.458949862993405,-4.9,2.7031622602384573
4.5514100570243645,-10.494110140766436,-4.9,2.764692746341263
4.559409020217729,-10.529270418539468,-4.9,2.826223232444069
4.567407983411093,-10.564430696312497,-4.9,2.8877537185468682
4.575406946604458,-10.59959097408553,-4.9,2.9492842046496746
4.583405909797822,-10.634751251858557,-4.9,3.0108146907524733
4.591404872991187,-10.66991152963159,-4.9,3.072345176855279
4.5994038361845515,-10.705071807404622,-4.9,3.1338756629580855
4.607402799377915,-10.740232085177649,-4.9,3.1954061490608847
4.61540176257128,-10.775392362950681,-4.9,3.2569366351636906
4.623400725764644,-10.8,-4.739951615690381,2.4197338862970925
4.631399688958009,-10.181474993861015,-3.8629499877220286,1.9
4.639398652151374,-10.14779514883632,-3.7955902976726414,1.9
4.647397615344738,-10.11411530381163,-3.7282306076232614,1.9
4.655396578538102,-10.080435458786937,-3.6608709175738743,1.9
4.663395541731466,-10.046755613762247,-3.5935112275244943,1.9
4.671394504924831,-10.013075768737554,-3.526151537475107,1.9
4.679393468118196,-9.97939592371286,-3.45879184742572,1.9
4.68739243131156,-9.94571607868817,-3.39143215737634,1.9
4.695391394504925,-9.912036233663477,-3.324072467326953,1.9
4.7033903576982885,-9.878356388638787,-3.2567127772775732,1.9
4.711389320891653,-9.844676543614094,-3.1893530872281857,1.9
4.719388284085018,-9.810996698589399,-3.1219933971787985,1.9
4.727387247278382,-8.861275272161802,-2.943234836702919,1.9
4.735386210471747,-8.088585807398607,-3.3076094617342617,1.896195269132869
4.743385173665111,-8.061623010117605,-3.3255846599215966,1.8872076700392015
4.7513841368584755,-8.034660212836599,-3.343559858108933,1.8782200709455332
4.75938310005184,-8.007697415555594,-3.3615350562962703,1.869232471851865
4.767382063245204,-7.980734618274592,-3.3795102544836046,1.8602448727581975
4.775381026438569,-7.9537718209935875,-3.3974854526709417,1.8512572736645292
4.783379989631933,-7.926809023712585,-3.415460650858276,1.8422696745708618
4.791378952825298,-7.89984622643158,-3.433435849045613,1.8332820754771935
4.7993779160186625,-7.872883429150575,-3.45141104723295,1.8242944763835252
4.807376879212026,-7.845920631869573,-3.4693862454202846,1.8153068772898577
4.815375842405391,-7.818957834588568,-3.4873614436076212,1.8063192781961894
4.823374805598755,-7.325038880248981,-3.4406298600311227,1.6218895800933681
4.83137376879212,-7.1,-3.4991874591475662,2.202437622557301
4.839372731985485,-7.1,-3.481798408727208,2.254604773818376
4.847371695178849,-7.1,-3.4644093583068516,2.3067719250794454
4.855370658372213,-7.1,-3.4470203078864934,2.35893907634052
4.863369621565577,-7.1,-3.429631257466137,2.4111062276015893
4.871368584758942,-7.1,-3.4122422070457787,2.463273378862664
4.879367547952307,-7.1,-3.39485315662542,2.515440530123739
4.887366511145671,-7.1,-3.3774641062050637,2.5676076813848083
4.895365474339036,-7.1,-3.3600750557847054,2.619774832645883
4.9033644375323995,-7.1,-3.342686005364349,2.6719419839069523
4.911363400725764,-7.1,-3.325296954943991,2.7241091351680273
4.919362363919129,-7.1,-3.3079079045236326,2.776276286429102
4.927361327112493,-7.031933644375352,-2.9361327112492965,2.472265422498593
4.935360290305858,-7.081781003398417,-3.327124013593669,2.927124013593669
4.943359253499222,-7.198417018440331,-3.4227116196400766,2.9924294601199746
4.9513582166925865,-7.3222104964328825,-3.451279345330665,2.982906884889778
4.959357179885951,-7.446003974425433,-3.4798470710212537,2.9733843096595822
4.967356143079315,-7.569797452417971,-3.5084147967118393,2.9638617344293867
4.97535510627268,-7.6935909304105214,-3.536982522402428,2.9543391591991908
4.983354069466044,-7.817384408403059,-3.5655502480930137,2.9448165839689953
4.991353032659409,-7.94117788639561,-3.5941179737836024,2.9352940087387993
4.9993519958527735,-8.06497136438816,-3.622685699474191,2.925771433508603
5.007350959046137,-8.188764842380698,-3.6512534251647764,2.916248858278408
5.015349922239502,-8.312558320373249,-3.679821150855365,2.9067262830482115
5.023348885432866,-9.574442716433033,-3.621703818904465,3.213184724382142
5.031347848626231,-8.474801139372452,-3.203599837232507,4.003599837232507
5.039346811819596,-8.414593889529923,-3.212200872924297,4.012200872924296
5.04734577501296,-8.3543866396874,-3.2208019086160857,4.020801908616086
5.055344738206324,-8.294179389844869,-3.2294029443078758,4.029402944307876
5.063343701399688,-8.233972140002345,-3.238003979999665,4.038003979999664
5.071342664593053,-8.173764890159816,-3.246605015691455,4.046605015691455
5.079341627786418,-8.113557640317286,-3.255206051383245,4.055206051383244
5.087340590979782,-8.053350390474762,-3.2638070870750338,4.063807087075034
5.0953395541731465,-7.993143140632232,-3.272408122766824,4.072408122766824
5.1033385173665105,-7.932935890789708,-3.281009158458613,4.081009158458613
5.111337480559875,-7.872728640947178,-3.289610194150403,4.089610194150403
5.119336443753239,-7.812521391104655,-3.298211229842192,4.0982112298421915
5.127335406946604,-9.967081389320752,-3.021945740452832,2.7890271297735842
5.135334370139969,-10.929971866426689,-2.407492966606672,3.1112394499100082
5.143333333333333,-11.001872659176026,-2.4254681647940064,3.13820224719101
5.151332296526697,-11.073773451925373,-2.443443362981343,3.1651650444720145
5.159331259720061,-11.14567424467471,-2.4614185611686774,3.1921278417530163
5.167330222913426,-11.217575037424057,-2.479393759356014,3.2190906390340213
5.175329186106791,-11.289475830173403,-2.4973689575433506,3.246053436315026
5.183328149300155,-11.36137662292274,-2.515344155730685,3.273016233596028
5.19132711249352,-11.433277415672087,-2.5333193539180217,3.2999790308770325
5.1993260756868835,-11.505178208421425,-2.5512945521053565,3.3269418281580343
5.207325038880248,-11.577079001170771,-2.569269750292693,3.3539046254390392
5.215324002073613,-11.648979793920116,-2.5872449484800293,3.380867422720044
5.223322965266977,-11.438666407465092,-2.6871111975116357,3.574222395023271
5.231321928460342,-10.087325038880302,-2.9643856920683986,3.7195178849145014
5.239320891653706,-9.478203821883772,-3.307265392705409,3.2854692145891815
5.2473198548470705,-9.450621190182515,-3.316459603272495,3.2670807934550097
5.255318818040435,-9.423038558481256,-3.325653813839581,3.248692372320838
5.263317781233799,-9.395455926780002,-3.3348480244066656,3.2303039511866682
5.271316744427164,-9.367873295078745,-3.3440422349737515,3.2119155300524964
5.279315707620528,-9.34029066337749,-3.3532364455408366,3.1935271089183264
5.287314670813893,-9.312708031676232,-3.3624306561079225,3.1751386877841545
5.2953136340072575,-9.285125399974975,-3.3716248666750084,3.156750266649983
5.303312597200621,-9.25754276827372,-3.3808190772420934,3.138361845515813
5.311311560393986,-9.229960136572462,-3.3900132878091793,3.1199734243816413
5.31931052358735,-9.202377504871206,-3.399207498376264,3.1015850032474717
5.327309486780715,-9.097186483811681,-3.6056270323766357,3.1
5.33530844997408,-9.024468636599275,-3.7510627268014485,3.1
5.343307413167444,-8.891833547734707,-3.7081664522652935,3.4040832261326464
5.351306376360808,-8.872083021331337,-3.727916978668663,3.4139584893343313
5.359305339554172,-8.85233249492797,-3.7476675050720307,3.4238337525360154
5.367304302747537,-8.8325819685246,-3.7674180314754,3.4337090157377
5.375303265940902,-8.81283144212123,-3.78716855787877,3.443584278939385
5.383302229134266,-8.793080915717862,-3.806919084282138,3.453459542141069
5.391301192327631,-8.773330389314493,-3.8266696106855074,3.4633348053427535
5.3993001555209945,-8.753579862911124,-3.846420137088875,3.4732100685444376
5.407299118714359,-8.733829336507755,-3.8661706634922446,3.483085331746122
5.415298081907724,-8.714078810104384,-3.8859211898956145,3.492960594947807
5.423297045101088,-8.546863659927466,-3.9765681700362663,3.8062726801450664
5.431296008294453,-7.799671101895052,-4.2019733886296855,3.9
5.439294971487817,-7.790783365013537,-4.255299809918778,3.9
5.4472939346811815,-7.781895628132021,-4.308626231207876,3.9
5.455292897874546,-7.773007891250504,-4.361952652496975,3.9
5.46329186106791,-7.764120154368989,-4.415279073786068,3.9
5.471290824261275,-7.7552324174874725,-4.468605495075167,3.9
5.479289787454639,-7.746344680605957,-4.5219319163642595,3.9
5.487288750648004,-7.737456943724441,-4.575258337653358,3.9
5.4952877138413685,-7.7285692068429235,-4.628584758942457,3.9
5.503286677034732,-7.719681469961409,-4.68191118023155,3.9
5.511285640228097,-7.710793733079892,-4.735237601520648,3.9
5.519284603421461,-7.701905996198376,-4.788564022809741,3.9
5.527283566614826,-8.803049103385224,-5.9,5.2
5.535282529808191,-8.889059460303125,-5.9,5.2
5.543281493001555,-8.975069817221016,-5.9,5.2
5.551280456194919,-9.061080174138917,-5.9,5.2
5.559279419388283,-9.14709053105681,-5.9,5.2
5.567278382581648,-9.23310088797471,-5.9,5.2
5.575277345775013,-9.31911124489261,-5.9,5.2
5.583276308968377,-9.405121601810503,-5.9,5.2
5.591275272161742,-9.491131958728403,-5.9,5.2
5.5992742353551055,-9.577142315646295,-5.9,5.2
5.60727319854847,-9.663152672564197,-5.9,5.2
5.615272161741835,-9.749163029482098,-5.9,5.2
5.623271124935199,-10.999412476239662,-6.1544208282932615,5.6724958239732
5.631270088128564,-12.29486780715445,-5.45692068429267,6.0569206842926695
5.639269051321928,-11.020315585300656,-4.734660212836602,5.3264927394411785
5.6472680145152925,-10.822588405239955,-4.662759420087256,5.245604347598164
5.655266977708657,-10.624861225179252,-4.59085862733791,5.164715955755149
5.663265940902021,-10.427134045118573,-4.518957834588572,5.083827563912144
5.671264904095386,-10.229406865057872,-4.4470570418392255,5.002939172069129
5.67926386728875,-10.03167968499719,-4.375156249089888,4.922050780226124
5.687262830482115,-9.833952504936489,-4.303255456340541,4.841162388383109
5.6952617936754795,-9.636225324875788,-4.231354663591196,4.760273996540095
5.703260756868843,-9.438498144815107,-4.159453870841857,4.67938560469709
5.711259720062208,-9.240770964754406,-4.087553078092511,4.598497212854075
5.719258683255572,-9.043043784693726,-4.015652285343173,4.51760882101107
5.727257646448937,-8.374235355106329,-3.6586738300579973,3.7035722701353273
5.735256609642302,-8.22566096423016,-3.772183959120184,2.913908020439908
5.743255572835666,-9.436625194401236,-5.116277864178326,2.512208398133745
5.75125453602903,-9.526613530326589,-5.15627268014515,2.542204510108863
5.759253499222394,-9.616601866251933,-5.19626749611197,2.5722006220839777
5.767252462415759,-9.706590202177287,-5.236262312078794,2.6021967340590955
5.775251425609124,-9.796578538102642,-5.276257128045618,2.6321928460342137
5.783250388802488,-9.886566874027984,-5.316251944012437,2.6621889580093283
5.791249351995853,-9.97655520995334,-5.356246759979261,2.692185069984446
5.7992483151892165,-10.066543545878682,-5.396241575946081,2.7221811819595607
5.807247278382581,-10.156531881804037,-5.436236391912905,2.7521772939346785
5.815246241575945,-10.24652021772938,-5.476231207879724,2.782173405909793
5.82324520476931,-10.786780715396505,-5.581130119232751,3.205650596163754
5.831244167962675,-9.990969855398564,-4.286454783097846,2.377424638496411
5.839243131156039,-9.973950784774386,-4.260926177161578,2.3348769619359646
5.8472420943494035,-9.956931714150207,-4.235397571225308,2.2923292853755135
5.855241057542767,-9.939912643526027,-4.20986896528904,2.2497816088150673
5.863240020736132,-9.922893572901847,-4.1843403593527695,2.2072339322546166
5.871238983929497,-9.905874502277667,-4.158811753416499,2.1646862556941655
5.879237947122861,-9.888855431653488,-4.133283147480232,2.1221385791337193
5.887236910316226,-9.871836361029308,-4.107754541543961,2.0795909025732686
5.8952358735095896,-9.85481729040513,-4.082225935607694,2.0370432260128224
5.903234836702954,-9.837798219780948,-4.056697329671423,1.9944955494523715
5.911233799896319,-9.820779149156769,-4.031168723735153,1.9519478728919206
5.919232763089683,-9.80376007853259,-4.005640117798885,1.9094001963314744
5.927231726283048,-8.792068429238045,-2.6,1.576827371695218
5.935230689476412,-8.561125325395635,-2.6,1.4844501301582542
5.9432296526697765,-8.518120146936685,-2.6,1.467248058774674
5.951228615863141,-8.475114968477733,-2.6,1.4500459873910938
5.959227579056505,-8.432109790018789,-2.6,1.4328439160075155
5.96722654224987,-8.389104611559837,-2.6,1.4156418446239352
5.975225505443234,-8.346099433100893,-2.6,1.398439773240357
5.983224468636599,-8.303094254641941,-2.6,1.3812377018567767
5.9912234318299635,-8.260089076182991,-2.6,1.3640356304731966
5.999222395023327,-8.217083897724045,-2.6,1.3468335590896183
6.007221358216692,-8.174078719265095,-2.6,1.329631487706038
6.015220321410056,-8.131073540806149,-2.6,1.3124294163224597
6.023219284603421,-7.711625194401364,-2.710964230171039,1.0780715396579226
6.031218247796786,-7.503387629259775,-3.1830618537011257,0.6966123707402251
6.03921721099015,-7.511807590515947,-3.1409620474202633,0.6881924094840526
6.047216174183514,-7.520227551772121,-3.0988622411393965,0.6797724482278792
6.055215137376878,-7.528647513028293,-3.056762434858534,0.6713524869717067
6.063214100570243,-7.537067474284466,-3.0146626285776668,0.6629325257155333
6.071213063763608,-7.54548743554064,-2.9725628222968,0.6545125644593599
6.079212026956972,-7.553907396796812,-2.9304630160159375,0.6460926032031874
6.087210990150337,-7.562327358052986,-2.8883632097350707,0.637672641947014
6.0952099533437005,-7.570747319309159,-2.8462634034542083,0.6292526806908416
6.103208916537065,-7.579167280565332,-2.804163597173341,0.6208327194346681
6.11120787973043,-7.587587241821505,-2.762063790892474,0.6124127581784947
6.119206842923794,-7.5960072030776775,-2.7199639846116117,0.6039927969223222
6.127205806117159,-7.740193537238625,-2.4546613098324066,0.5299032313806875
6.135204769310523,-8.020476931052295,-2.0204769310522956,0.43071539657844354
6.1432037325038875,-8.229897506042832,-2.2074743765107083,0.7074743765107083
6.151202695697252,-8.26844672625182,-2.217111681562955,0.717111681562955
6.159201658890616,-8.306995946460802,-2.226748986615201,0.7267489866152007
6.167200622083981,-8.345545166669789,-2.2363862916674475,0.7363862916674474
6.175199585277345,-8.384094386878772,-2.2460235967196933,0.7460235967196931
6.18319854847071,-8.422643607087759,-2.2556609017719396,0.7556609017719398
6.1911975116640745,-8.461192827296745,-2.2652982068241863,0.7652982068241865
6.199196474857438,-8.499742047505729,-2.274935511876432,0.7749355118764322
6.207195438050803,-8.538291267714715,-2.2845728169286788,0.784572816928679
6.215194401244167,-8.576840487923699,-2.2942101219809246,0.7942101219809246
6.223193364437532,-9.987528697326386,-2.4295193660669225,0.9
6.231192327630897,-10.900648295385047,-2.900864393846727,1.0008643938467272
6.239191290824261,-10.927611092666048,-2.9368147902213964,1.0368147902213964
6.247190254017625,-10.954573889947053,-2.972765186596069,1.0727651865960695
6.255189217210989,-10.981536687228054,-3.0087155829707384,1.1087155829707385
6.263188180404354,-11.00849948450906,-3.0446659793454116,1.1446659793454115
6.271187143597719,-11.035462281790064,-3.0806163757200844,1.1806163757200845
6.279186106791083,-11.062425079071065,-3.1165667720947536,1.2165667720947537
6.287185069984448,-11.08938787635207,-3.1525171684694264,1.2525171684694267
6.2951840331778115,-11.116350673633072,-3.1884675648440957,1.2884675648440957
6.303182996371176,-11.143313470914077,-3.224417961218769,1.324417961218769
6.311181959564541,-11.170276268195082,-3.2603683575934417,1.360368357593442
6.319180922757905,-11.197239065476083,-3.296318753968111,1.396318753968111
6.32717988595127,-10.352382298883144,-2.6349215325887636,2.2412696168528092
6.335178849144634,-9.4,-0.9832037325044005,2.109486780715543
6.3431778123379985,-9.476905132192838,-0.6085450146880931,2.0
6.351176775531363,-9.562608309264604,-0.6180675899182894,2.0
6.359175738724727,-9.648311486336361,-0.6275901651484845,2.0
6.367174701918092,-9.734014663408127,-0.6371127403786807,2.0
6.375173665111456,-9.819717840479884,-0.6466353156088759,2.0
6.383172628304821,-9.90542101755165,-0.656157890839072,2.0
6.3911715914981855,-9.991124194623415,-0.6656804660692683,2.0
6.399170554691549,-10.076827371695172,-0.6752030412994635,2.0
6.407169517884914,-10.162530548766938,-0.6847256165296597,2.0
6.415168481078278,-10.248233725838695,-0.6942481917598549,2.0
6.423167444271643,-11.306279160186607,-1.2125583203732127,2.833488854328567
6.431166407465008,-11.566718506998471,-1.783359253499236,4.499844479004585
6.439165370658372,-11.18688219008857,-1.5868821900885708,5.573764380177141
6.447164333851736,-11.16986311946439,-1.5698631194643904,5.539726238928781
6.4551632970451,-11.152844048840212,-1.552844048840212,5.505688097680424
6.463162260238465,-11.13582497821603,-1.5358249782160316,5.471649956432063
6.47116122343183,-11.11880590759185,-1.5188059075918512,5.437611815183702
6.479160186625194,-11.101786836967673,-1.5017868369676728,5.4035736739353455
6.487159149818559,-11.084767766343493,-1.4847677663434924,5.369535532686985
6.4951581130119225,-11.067748695719313,-1.467748695719314,5.3354973914386274
6.503157076205287,-11.050729625095133,-1.4507296250951336,5.301459250190267
6.511156039398651,-11.033710554470956,-1.433710554470955,5.26742110894191
6.519155002592016,-11.016691483846774,-1.4166914838467748,5.23338296769355
6.527153965785381,-10.983063763608131,-1.446189735614189,5.226174183514708
6.535152928978745,-10.103177812338082,-3.8458786936234124,6.5859979263866
6.5431518921721095,-7.806324520476531,-8.631648522550801,3.145567651632799
6.551150855365473,-8.993385173665127,-7.545764644893765,3.89682737169515
6.559149818558838,-8.854736478313471,-7.215140832901354,4.152794193882823
6.567148781752203,-8.716087782961814,-6.884517020908944,4.408761016070495
6.575147744945567,-8.577439087610173,-6.55389320891657,4.664727838258139
6.583146708138932,-8.438790392258518,-6.2232693969241595,4.920694660445813
6.591145671332296,-8.300141696906877,-5.892645584931785,5.176661482633457
6.59914463452566,-8.161493001555222,-5.562021772939374,5.4326283048211295
6.607143597719025,-8.022844306203565,-5.231397960946964,5.688595127008802
6.615142560912389,-7.884195610851925,-4.900774148954589,5.944561949196446
6.623141524105754,-9.410948678071437,-0.8086780715396809,8.345194401244056
6.631140487299118,-12.290575427682503,-0.16876101607055471,11.464790046656047
6.6391394504924826,-11.486454000747484,-0.3075698940286982,12.174501790299853
6.647138413685847,-11.309732720894075,-0.47499005388982296,11.979178270461874
6.655137376879211,-11.133011441040686,-0.6424102137509291,11.783854750623917
6.663136340072576,-10.956290161187276,-0.8098303736120538,11.588531230785938
6.67113530326594,-10.779568881333887,-0.97725053347316,11.39320771094798
6.679134266459305,-10.602847601480477,-1.1446706933342847,11.19788419111
6.6871332296526695,-10.426126321627066,-1.3120908531954094,11.002560671272022
6.6951321928460334,-10.249405041773677,-1.4795110130565157,10.807237151434064
6.703131156039398,-10.072683761920267,-1.6469311729176404,10.611913631596085
6.711130119232762,-9.895962482066878,-1.8143513327787466,10.41659011175813
6.719129082426127,-9.719241202213468,-1.9817714926398713,10.221266591920148
6.727128045619492,-0.4004130503854562,-10.099449266152725,7.698760848843632
6.735127008812856,-0.42621615746082364,-10.065045123385568,7.621351527617529
6.74312597200622,-0.45201926453619395,-10.030640980618408,7.543942206391418
6.751124935199584,-0.4778223716115614,-9.996236837851251,7.466532885165316
6.759123898392949,-0.5036254786869317,-9.961832695084091,7.389123563939205
6.767122861586314,-0.529428585762302,-9.92742855231693,7.311714242713094
6.775121824779678,-0.5552316928376695,-9.893024409549774,7.2343049214869914
6.783120787973043,-0.5810347999130397,-9.858620266782612,7.156895600260881
6.7911197511664065,-0.6068379069884072,-9.824216124015457,7.079486279034779
6.799118714359771,-0.6326410140637775,-9.789811981248295,7.002076957808667
6.807117677553136,-0.6584441211391479,-9.755407838481135,6.924667636582556
6.8151166407465,-0.6842472282145153,-9.721003695713978,6.847258315356454
6.823115603939865,-0.21040509516412048,-7.964163519218245,5.776301562615888
6.831114567133229,7.1229134266456775,-8.019803006740126,3.8968895800944483
6.8391135303265935,7.283832885621377,-7.084741269616872,3.059582214053445
6.847112493519958,7.265653423818276,-6.7302417644563866,3.014133559545691
6.855111456713322,7.247473962015176,-6.375742259295941,2.968684905037941
6.863110419906687,7.229294500212075,-6.021242754135456,2.923236250530187
6.871109383100051,7.211115038408975,-5.666743248975011,2.8777875960224373
6.879108346293416,7.192935576605873,-5.312243743814526,2.8323389415146827
6.8871073094867805,7.174756114802771,-4.9577442386540405,2.7868902870069285
6.895106272680144,7.1565766529996715,-4.603244733493595,2.741441632499179
6.903105235873509,7.138397191196569,-4.24874522833311,2.6959929779914242
6.911104199066873,7.120217729393469,-3.894245723172665,2.650544323483675
6.919103162260238,7.102038267590368,-3.53974621801218,2.6050956689759204
6.927102125453603,5.559149818558995,-1.0897874546397488,-1.9388629687225958
6.935101088646967,8.57721617418352,6.340264385692117,-6.863794712286147
6.943100051840331,8.532777489775937,5.833663383445679,-6.9882230286273765
6.951099015033695,8.48833880536836,5.327062381199298,-7.112651344968593
6.95909797822706,8.443900120960777,4.82046137895286,-7.237079661309823
6.967096941420425,8.399461436553194,4.3138603767064225,-7.361507977651054
6.975095904613789,8.355022752145617,3.8072593744600405,-7.48593629399227
6.983094867807154,8.310584067738034,3.300658372213603,-7.610364610333501
6.9910938310005175,8.266145383330457,2.7940573699672213,-7.734792926674717
6.999092794193882,8.221706698922876,2.2874563677207833,-7.859221243015948
7.007091757387247,8.177268014515294,1.7808553654743458,-7.983649559357177
7.015090720580611,8.132829330107716,1.2742543632279641,-8.108077875698394
7.023089683773976,-2.0001382408830963,-1.3289960255742002,0.4373595991000272
7.03108864696734,-11.42033736092832,-5.939693743270893,-18.61294413207299
7.0390876101607045,-11.569768541463706,-4.7618244378743215,-20.177576492972914
7.047086573354069,-11.719199721999091,-3.58395513247775,-21.74220885387284
7.055085536547433,-11.868630902534461,-2.4060858270813092,-23.30684121477259
7.063084499740798,-12.018062083069847,-1.2282165216847378,-24.871473575672514
7.071083462934162,-12.167493263605216,-0.05034721628829697,-26.43610593657226
7.079082426127527,-12.316924444140602,1.1275220891082745,-28.00073829747219
7.0870813893208915,-12.466355624675987,2.305391394504845,-29.56537065837211
7.095080352514255,-12.615786805211357,3.4832606999012867,-31.13000301927186
7.10307931570762,-12.765217985746743,4.661130005297858,-32.69463538017179
7.111078278900984,-12.914649166282112,5.838999310694298,-34.25926774107154
7.119077242094349,-13.064080346817498,7.0168686160908695,-35.82390010197146
7.127076205287714,-38.24370139968868,-18.470295489890677,38.26189735614306
7.135075168481078,-26.121350412772284,-7.230430832176677,33.01475164021749
7.143074131674442,-20.04041817867668,-7.264834974943838,27.604700190081513
7.151073094867806,-13.95948594458175,-7.299239117710995,22.19464873994614
7.159072058061171,-7.878553710486145,-7.333643260478155,16.784597289810165
7.167071021254536,-1.7976214763905425,-7.368047403245315,11.374545839674191
7.1750699844479,4.283310757704385,-7.402451546012472,5.964494389538814
7.183068947641265,10.36424299179999,-7.436855688779632,0.5544429394028398
7.1910679108346285,16.44517522589492,-7.471259831546789,-4.855608510732537
7.199066874027993,22.52610745999052,-7.505663974313949,-10.265659960868511
7.207065837221357,28.60703969408545,-7.5400681170811055,-15.675711411003881
7.215064800414722,34.68797192818106,-7.574472259848266,-21.085762861139855
7.223063763608087,21.175583203742956,6.850233281495187,-18.60248833592873
7.231062726801451,-33.98150452162779,2.1252520016116767,8.200483843094423
7.2390616899948155,-37.3231798618397,6.81643398796816,15.764047524322923
7.247060653188179,-35.202524503599015,7.439609027451166,14.117749285688713
7.255059616381544,-33.081869145358105,8.062784066934242,12.47145104705432
7.263058579574909,-30.961213787117188,8.685959106417316,10.825152808419926
7.271057542768273,-28.840558428876513,9.309134145900323,9.178854569785715
7.279056505961638,-26.7199030706356,9.9323091853834,7.532556331151321
7.287055469155002,-24.59924771239492,10.555484224866404,5.88625809251711
7.295054432348366,-22.47859235415401,11.17865926434948,4.239959853882716
7.303053395541731,-20.357936995913096,11.801834303832555,2.5936616152483225
7.311052358735095,-18.237281637672417,12.425009343315562,0.9473633766141116
7.31905132192846,-16.116626279431504,13.048184382798638,-0.6989348620202804
7.327050285121824,-10.605135501803282,6.995827404784833,11.697753217961063
7.335049248315189,-11.42205089176394,6.332083650441799,11.340352734853276
7.343048211508553,-12.238966281724597,5.6683398960987645,10.982952251745488
7.351047174701917,-13.055881671685164,5.004596141755805,10.62555176863774
7.359046137895282,-13.872797061645821,4.34085238741277,10.268151285529953
7.367045101088646,-14.689712451606386,3.6771086330698104,9.910750802422205
7.375044064282011,-15.506627841567045,3.0133648787267764,9.553350319314418
7.3830430274753756,-16.3235432315277,2.3496211243837424,9.19594983620663
7.3910419906687395,-17.140458621488268,1.6858773700407816,8.838549353098882
7.399040953862104,-17.957374011448927,1.022133615697748,8.481148869991095
7.407039917055468,-18.77428940140949,0.35838986135478823,8.123748386883348
7.415038880248833,-19.59120479137015,-0.3053538929882462,7.76634790377556
7.423037843442198,-17.647492223950685,-3.863575686884709,3.106149559357127
7.431036806635562,-6.6478486262300684,3.7374287195452944,4.525142560909411
7.4390357698289264,-7.820946406416561,2.1790535935834394,8.969993185034902
7.44703473302229,-7.731070415479888,2.268929584520113,10.300157850897671
7.455033696215655,-7.641194424543204,2.3588055754567967,11.630322516760588
7.46303265940902,-7.551318433606521,2.4486815663934802,12.960487182623504
7.471031622602384,-7.4614424426698465,2.5385575573301535,14.290651848486274
7.479030585795749,-7.371566451733163,2.6284335482668375,15.62081651434919
7.4870295489891125,-7.28169046079649,2.718309539203511,16.950981180211958
7.495028512182477,-7.191814469859806,2.8081855301401943,18.281145846074875
7.503027475375842,-7.101938478923122,2.898061521076878,19.61131051193779
7.511026438569206,-7.012062487986449,2.9879375120135516,20.941475177800562
7.519025401762571,-6.922186497049766,3.077813502950235,22.27163984366348
7.527024364955935,6.853602903057121,1.2269051321948345,1.861119751170187
7.5350233281492995,8.90182444522484,-2.3041572601548292,-4.0398384588370915
7.543022291342664,8.79001098123157,-2.992240115498031,-4.426885064967642
7.551021254536028,8.678197517238312,-3.6803229708411562,-4.813931671098151
7.559020217729393,8.566384053245041,-4.368405826184358,-5.200978277228701
7.567019180922757,8.454570589251784,-5.056488681527483,-5.588024883359209
7.575018144116122,8.342757125258514,-5.744571536870685,-5.9750714894897605
7.5830171073094865,8.230943661265243,-6.432654392213887,-6.3621180956203105
7.59101607050285,8.119130197271986,-7.120737247557012,-6.749164701750819
7.599015033696215,8.007316733278715,-7.8088201029002136,-7.13621130788137
7.607013996889579,7.895503269285458,-8.49690295824334,-7.523257914011878
7.615012960082944,7.7836898052921875,-9.18498581358654,-7.910304520142429
7.623011923276309,-1.2004208215167707,-0.0021742445033149345,-11.41150245479173
7.631010886469673,-1.4827371695178586,-1.460808709175603,-19.128149300154803
7.639009849663037,-1.7650535175189779,-2.919443173848053,-26.84479614551873
7.647008812856401,-32.15209297137023,-22.62873923000763,3.702962117184782
7.655007776049766,-28.88163080496917,-18.841888300490613,7.540439396026892
7.663006739243131,-25.61116863856811,-15.055037370973597,11.377916674869004
7.671005702436495,-22.340706472167412,-11.268186441457,15.215393953710688
7.67900466562986,-19.07024430576635,-7.481335511939985,19.0528712325528
7.6870036288232235,-15.799782139365654,-3.6944845824233887,22.890348511394485
7.695002592016588,-12.529319972964597,0.0923663470936269,26.727825790236594
7.703001555209953,-9.258857806563537,3.8792172766106425,30.565303069078706
7.711000518403317,-5.988395640162839,7.6660682061272425,34.402780347920384
7.718999481596682,-2.7179334737617786,11.452919135644258,38.2402576267625
7.726998444790046,-11.543934681188475,-4.772706065322531,11.609486780721227
7.7349974079834105,1.5295833551762374,10.111358274940173,-24.14305776410908
7.742996371176775,0.38815827028036765,9.733879113006106,-23.028595476494218
7.750995334370139,-0.7532668146153756,9.356399951072081,-21.914133188879475
7.758994297563504,-1.8946918995112454,8.978920789138014,-20.799670901264612
7.766993260756868,-3.036116984406988,8.601441627203988,-19.68520861364987
7.774992223950233,-4.1775420693028575,8.22396246526992,-18.570746326035007
7.7829911871435975,-5.318967154198727,7.846483303335853,-17.45628403842014
7.790990150336961,-6.460392239094471,7.469004141401829,-16.3418217508054
7.798989113530326,-7.601817323990341,7.091524979467762,-15.227359463190535
7.80698807672369,-8.743242408886085,6.714045817533735,-14.112897175575792
7.814987039917055,-9.884667493781954,6.336566655599668,-12.998434887960927
7.82298600311042,6.809525660964171,-4.787674961119754,9.372278382581348
7.830984966303784,6.773302229135361,-10.166562985999194,17.49248315189182
7.838983929497148,4.856346326330785,-15.278976688307964,16.80275494334596
7.846982892690512,4.462746550149384,-14.682228640549067,15.431504110197855
7.854981855883877,4.06914677396794,-14.085480592790104,14.060253277049597
7.862980819077241,3.6755469977865403,-13.488732545031205,12.689002443901494
7.870979782270606,3.2819472216050958,-12.891984497272242,11.317751610753238
7.878978745463971,2.888347445423652,-12.295236449513279,9.94650077760498
7.8869777086573345,2.4947476692422517,-11.698488401754382,8.575249944456877
7.894976671850699,2.1011478930608076,-11.101740353995417,7.203999111308621
7.902975635044063,-1.8475101393589868,0.6524685146220942,12.557512273960878
7.910974598237428,-1.9752246777404416,0.25588126385862897,12.712114083580534
7.918973561430793,-2.1029392161218965,-0.14070598690483638,12.86671589320019
7.926972524624157,-2.2306537545033374,-0.5372932376682575,13.021317702819829
7.9349714878175215,-2.3583682928847924,-0.9338804884317229,13.175919512439485
7.942970451010885,-2.4860828312662333,-1.330467739195144,13.330521322059123
7.95096941420425,-2.613797369647688,-1.7270549899586094,13.48512313167878
7.958968377397615,-2.741511908029143,-2.1236422407220745,13.639724941298436
7.966967340590979,-2.8692264464105834,-2.5202294914854964,13.794326750918074
7.974966303784344,-2.9969409847920385,-2.916816742248961,13.94892856053773
7.982965266977708,-3.1246555231734794,-3.3134039930123826,14.10353037015737
7.990964230171072,-3.2523700615549345,-3.709991243775848,14.258132179777027
7.998963193364437,-3.3800845999363895,-4.106578494539313,14.412733989396681
8.006962156557801,-3.5077991383178304,-4.503165745302734,14.567335799016321
8.014961119751165,-3.6355136766992713,-4.899752996066156,14.72193760863596
8.02296008294453,2.3903991705546956,-0.8278424053913825,11.669277345775026
8.030959046137895,2.310409538621056,-1.0598123379989366,11.413310523587379
8.038958009331258,2.230419906687417,-1.2917822706064908,11.157343701399734
8.046956972524624,2.15043027475376,-1.5237522032140964,10.90137687921203
8.054955935717988,2.0704406428201203,-1.7557221358216506,10.645410057024385
8.062954898911352,1.9904510108864812,-1.9876920684292048,10.38944323483674
8.070953862104718,1.910461378952824,-2.21966200103681,10.133476412649037
8.078952825298082,1.8304717470191847,-2.4516319336443644,9.877509590461392
8.086951788491445,1.7504821150855454,-2.6836018662519185,9.621542768273745
8.09495075168481,1.670492483151906,-2.9155717988594727,9.3655759460861
8.102949714878175,1.5905028512182489,-3.1475417314670784,9.109609123898396
8.110948678071539,1.5105132192846096,-3.3795116640746325,8.853642301710751
8.118947641264903,1.43052358735097,-3.6114815966821867,8.597675479523105
8.126946604458269,-0.6526697770865604,-1.6992742353553512,9.820632452047835
8.134945567651632,-0.6010384789043031,-4.509597150454044,11.5
8.142944530844996,-0.7644581570482969,-4.363379543693629,11.5
8.150943494038362,-0.9278778351923271,-4.217161936933181,11.5
8.158942457231726,-1.091297513336321,-4.0709443301727655,11.5
8.16694142042509,-1.2547171914803146,-3.9247267234123497,11.5
8.174940383618454,-1.4181368696243086,-3.778509116651934,11.5
8.18293934681182,-1.5815565477683386,-3.6322915098914863,11.5
8.190938310005183,-1.7449762259123325,-3.4860739031310706,11.5
8.198937273198547,-1.9083959040563263,-3.3398562963706553,11.5
8.206936236391913,-2.0718155822003563,-3.193638689610207,11.5
8.214935199585277,-2.2352352603443504,-3.047421082849792,11.5
8.22293416277864,-2.3986549384883444,-2.9012034760893766,11.5
8.230933125972005,-0.9711249351996623,-1.933281493001267,8.42006220839848
8.23893208916537,-0.8056834705205537,-2.6909064471671145,9.007956858728775
8.246931052358734,-0.8544576363337477,-2.612867781866004,9.076240690867246
8.254930015552098,-0.9032318021469419,-2.534829116564893,9.14452452300572
8.262928978745464,-0.9520059679601468,-2.4567904512637653,9.212808355144205
8.270927941938828,-1.0007801337733409,-2.378751785962655,9.281092187282677
8.278926905132192,-1.049554299586535,-2.300713120661544,9.349376019421149
8.286925868325557,-1.09832846539974,-2.222674455360416,9.417659851559636
8.294924831518921,-1.147102631212934,-2.1446357900593056,9.485943683698107
8.302923794712285,-1.1958767970261281,-2.066597124758195,9.55422751583658
8.310922757905649,-1.2446509628393223,-1.9885584594570844,9.62251134797505
8.318921721099015,-1.2934251286525273,-1.9105197941559564,9.690795180113538
8.326920684292379,1.0550544323479212,-2.2052877138414213,10.244479004665079
8.334919647485743,1.1085157499846696,-2.251094499908017,10.402188999816033
8.342918610679108,1.1171167856764606,-2.302700714058763,10.505401428117526
8.350917573872472,1.1257178213682497,-2.354306928209498,10.608613856418996
8.358916537065836,1.1343188570600389,-2.405913142360233,10.711826284720466
8.366915500259202,1.1429198927518298,-2.4575193565109794,10.81503871302196
8.374914463452566,1.151520928443619,-2.509125570661714,10.918251141323429
8.38291342664593,1.1601219641354081,-2.560731784812449,11.021463569624899
8.390912389839293,1.1687229998271973,-2.612337998963184,11.124675997926367
8.39891135303266,1.1773240355189885,-2.66394421311393,11.22788842622786
8.406910316226023,1.1859250712107774,-2.715550427264665,11.33110085452933
8.414909279419387,1.1945261069025666,-2.7671566414154,11.4343132828308
8.422908242612753,0.5,-2.3192673233109184,11.19908415413865
8.430907205806117,0.5,-1.6082483727895693,10.310310465986962
8.43890616899948,-0.8091909858811294,-2.1229774647028234,9.204595492940564
8.446905132192846,-0.8280120757478724,-2.170030189369681,9.214006037873936
8.45490409538621,-0.8468331656146112,-2.217082914036528,9.223416582807305
8.462903058579574,-0.86565425548135,-2.264135638703375,9.232827127740675
8.470902021772938,-0.8844753453480888,-2.311188363370222,9.242237672674044
8.478900984966304,-0.9032964352148317,-2.3582410880370794,9.251648217607416
8.486899948159667,-0.9221175250815705,-2.4052938127039267,9.261058762540786
8.494898911353031,-0.9409386149483093,-2.4523465373707736,9.270469307474155
8.502897874546397,-0.9597597048150524,-2.499399262037631,9.279879852407527
8.510896837739761,-0.9785807946817912,-2.546451986704478,9.289290397340896
8.518895800933125,-0.99740188454853,-2.593504711371325,9.298700942274266
8.52689476412649,-0.5,-1.5263089683771895,9.402630896837719
8.534893727319854,-0.48302424232289215,-1.5848787883855393,9.391512121161446
8.542892690513218,-0.46582217093931383,-1.670889145303431,9.382911085469658
8.550891653706582,-0.4486200995557355,-1.7568995022213223,9.374310049777868
8.558890616899948,-0.4314180281721534,-1.842909859139233,9.365709014086077
8.566889580093312,-0.4142159567885751,-1.9289202160571244,9.357107978394287
8.574888543286676,-0.3970138854049968,-2.014930572975016,9.3485069427025
8.582887506480041,-0.3798118140214147,-2.1009409298929267,9.339905907010708
8.590886469673405,-0.3626097426378364,-2.186951286810818,9.331304871318919
8.59888543286677,-0.3454076712542581,-2.2729616437287095,9.322703835627129
8.606884396060135,-0.328205599870676,-2.35897200064662,9.31410279993534
8.614883359253499,-0.31100352848709767,-2.4449823575645118,9.30550176424355
8.622882322446863,-0.23530326594100864,-2.1470710212546784,9.28823224468633
8.630881285640227,0.0955482115084898,-2.6910964230169796,9.59554821150849
8.638880248833592,0.1066220578433547,-2.6933779421566455,9.626488231373418
8.646879212026956,0.11334387565290421,-2.686656124347096,9.653375502611617
8.65487817522032,0.12006569346245372,-2.6799343065375463,9.680262773849815
8.662877138413686,0.12678751127200472,-2.6732124887279953,9.707150045088019
8.67087610160705,0.13350932908155425,-2.6664906709184457,9.734037316326217
8.678875064800414,0.14023114689110375,-2.6597688531088965,9.760924587564414
8.68687402799378,0.14695296470065478,-2.6530470352993456,9.78781185880262
8.694872991187143,0.15367478251020428,-2.646325217489796,9.814699130040816
8.702871954380507,0.16039660031975378,-2.6396033996802464,9.841586401279015
8.710870917573871,0.1671184181293033,-2.6328815818706968,9.868473672517213
8.718869880767237,0.1738402359388543,-2.626159764061146,9.895360943755417
8.7268688439606,0.18056205374840384,-2.619437946251596,9.922248214993616
8.734867807153964,0.18728387155795334,-2.6127161284420466,9.949135486231814
8.74286677034733,0.19400568936750434,-2.6059943106324956,9.976022757470018
8.750865733540694,0.2,-2.470139968895931,10.08657335406938
8.758864696734058,-0.5027831294538184,-2.302783129453818,9.494433741092363
8.766863659927424,-0.5147218804886925,-2.314721880488692,9.470556239022615
8.774862623120788,-0.526660631523564,-2.3266606315235636,9.446678736952872
8.782861586314151,-0.5385993825584354,-2.3385993825584355,9.42280123488313
8.790860549507515,-0.5505381335933069,-2.350538133593307,9.398923732813387
8.798859512700881,-0.562476884628181,-2.362476884628181,9.375046230743639
8.806858475894245,-0.5744156356630525,-2.3744156356630524,9.351168728673896
8.814857439087609,-0.586354386697924,-2.3863543866979238,9.327291226604153
8.822856402280975,-0.598293137732798,-2.398293137732798,9.303413724534405
8.830855365474338,-0.6,-2.462321504312164,9.3
8.838854328667702,-0.4858268532918942,-2.228740279937841,9.342913426645948
8.846853291861068,-0.3937778309473493,-2.3062221690526505,9.312444338105301
8.854852255054432,-0.383522749930216,-2.316477250069784,9.332954500139568
8.862851218247796,-0.3732676689130827,-2.3267323310869172,9.353464662173835
8.87085018144116,-0.3630125878959494,-2.3369874121040506,9.373974824208101
8.878849144634525,-0.35275750687881385,-2.347242493121186,9.394484986242373
8.88684810782789,-0.34250242586168056,-2.3574975741383195,9.41499514827664
8.894847071021253,-0.3322473448445472,-2.367752655155453,9.435505310310905
8.902846034214619,-0.32199226382741164,-2.3780077361725884,9.456015472345177
8.910844997407983,-0.3117371828102784,-2.3882628171897213,9.476525634379444
8.918843960601347,-0.30148210179314505,-2.3985178982068547,9.49703579641371
8.92684292379471,-0.2,-2.3036493540489307,9.801824677024467
8.934841886988076,-0.2,-2.3194888851249025,9.809744442562453
8.94284085018144,-0.2,-2.3353284162008707,9.817664208100435
8.950839813374804,-0.2,-2.351167947276839,9.82558397363842
8.95883877656817,-0.2,-2.367007478352811,9.833503739176406
8.966837739761534,-0.2,-2.382847009428779,9.84142350471439
8.974836702954898,-0.2,-2.3986865405047473,9.849343270252374
8.982835666148263,-0.2,-2.414526071580719,9.85726303579036
8.990834629341627,-0.2,-2.4303656026566873,9.865182801328345
8.998833592534991,-0.2,-2.4462051337326556,9.873102566866327
9.006832555728355,-0.2,-2.462044664808624,9.881022332404312
9.01483151892172,-0.2,-2.4778841958845956,9.888942097942298
9.022830482115085,-0.2,-2.493723726960564,9.896861863480282
9.030829445308449,-0.2,-2.637984151669971,9.9
9.038828408501814,-0.4,-2.4,9.4
9.046827371695178,-0.4,-2.4,9.4
9.054826334888542,-0.4,-2.4,9.4
9.062825298081908,-0.4,-2.4,9.4
9.070824261275272,-0.4,-2.4,9.4
9.078823224468636,-0.4,-2.4,9.4
9.086822187662,-0.4,-2.4,9.4
9.094821150855365,-0.4,-2.4,9.4
9.102820114048729,-0.4,-2.4,9.4
9.110819077242093,-0.4,-2.4,9.4
9.118818040435459,-0.4,-2.4,9.4
9.126817003628823,-0.43943321237258454,-2.2394332123725844,9.5
9.134815966822186,-0.3929000345602226,-2.214199930879555,9.5
9.142814930015552,-0.38456778123380003,-2.2308644375324,9.5
9.150813893208916,-0.3762355279073793,-2.2475289441852415,9.5
9.15881285640228,-0.36790327458095856,-2.264193450838083,9.5
9.166811819595644,-0.3595710212545378,-2.2808579574909245,9.5
9.17481078278901,-0.35123876792811526,-2.2975224641437695,9.5
9.182809745982373,-0.3429065146016945,-2.314186970796611,9.5
9.190808709175737,-0.3345742612752738,-2.3308514774494524,9.5
9.198807672369103,-0.3262420079488512,-2.3475159841022974,9.5
9.206806635562467,-0.3179097546224305,-2.364180490755139,9.5
9.21480559875583,-0.30957750129600975,-2.3808449974079804,9.5
9.222804561949197,-0.3012452479695872,-2.3975095040608254,9.5
9.23080352514256,-0.3,-2.4,9.7
9.238802488335924,-0.3,-2.4,9.7
9.246801451529288,-0.3,-2.4,9.7
9.254800414722654,-0.3,-2.4,9.7
9.262799377916018,-0.3,-2.4,9.7
9.270798341109382,-0.3,-2.4,9.7
9.278797304302747,-0.3,-2.4,9.7
9.286796267496111,-0.3,-2.4,9.7
9.294795230689475,-0.3,-2.4,9.7
9.302794193882841,-0.3,-2.4,9.7
9.310793157076205,-0.3,-2.4,9.7
9.318792120269569,-0.3,-2.4,9.7
9.326791083462933,-0.2798513910488877,-2.4,9.520148608951112
9.334790046656298,-0.3848755832037267,-2.4,9.5
9.342789009849662,-0.4,-2.4,9.491917845417069
9.350787973043026,-0.4,-2.4,9.482395270186874
9.358786936236392,-0.4,-2.4,9.472872694956676
9.366785899429756,-0.4,-2.4,9.463350119726481
9.37478486262312,-0.4,-2.4,9.453827544496287
9.382783825816485,-0.4,-2.4,9.444304969266089
9.39078278900985,-0.4,-2.4,9.434782394035894
9.398781752203213,-0.4,-2.4,9.4252598188057
9.406780715396577,-0.4,-2.4,9.415737243575505
9.414779678589943,-0.4,-2.4,9.406214668345307
9.422778641783307,-0.4,-2.3,9.41112345404723
9.43077760497667,-0.34074650077766117,-2.359253499222339,9.5
9.438776568170036,-0.3,-2.4,9.507700645647768
9.4467755313634,-0.3,-2.4,9.516790376549318
9.454774494556764,-0.3,-2.4,9.525880107450869
9.46277345775013,-0.3,-2.4,9.53496983835242
9.470772420943494,-0.3,-2.4,9.54405956925397
9.478771384136857,-0.3,-2.4,9.55314930015552
9.486770347330221,-0.3,-2.4,9.56223903105707
9.494769310523587,-0.3,-2.4,9.571328761958622
9.502768273716951,-0.3,-2.4,9.580418492860172
9.510767236910315,-0.3,-2.4,9.589508223761722
9.51876620010368,-0.3,-2.4,9.598597954663273
9.526765163297044,-0.3,-2.3947706065318823,9.6
9.534764126490408,-0.3,-2.383660935429988,9.6
9.542763089683774,-0.3,-2.3725512643280915,9.6
9.550762052877138,-0.3,-2.361441593226197,9.6
9.558761016070502,-0.3,-2.350331922124303,9.6
9.566759979263866,-0.3,-2.339222251022409,9.6
9.574758942457231,-0.3,-2.328112579920512,9.6
9.582757905650595,-0.3,-2.317002908818618,9.6
9.59075686884396,-0.3,-2.305893237716724,9.6
9.598755832037325,-0.3,-2.3,9.6
9.606754795230689,-0.4,-2.3976045258863565,9.5
9.614753758424053,-0.4,-2.3906489057182143,9.5
9.622752721617417,-0.4,-2.3836932855500716,9.5
9.630751684810782,-0.4,-2.3767376653819277,9.5
9.638750648004146,-0.4,-2.369782045213785,9.5
9.64674961119751,-0.4,-2.3628264250456428,9.5
9.654748574390876,-0.4,-2.3558708048774983,9.5
9.66274753758424,-0.4,-2.348915184709356,9.5
9.670746500777604,-0.4,-2.3419595645412135,9.5
9.67874546397097,-0.4,-2.3350039443730695,9.5
9.686744427164333,-0.4,-2.328048324204927,9.5
9.694743390357697,-0.4,-2.3210927040367846,9.5
9.702742353551061,-0.4,-2.314137083868642,9.5
9.710741316744427,-0.4,-2.307181463700498,9.5
9.71874027993779,-0.4,-2.3002258435323553,9.5
9.726739243131155,-0.4,-2.4,9.473924313115411
9.73473820632452,-0.3,-2.3101896910204727,9.594905154489764
9.742737169517884,-0.3,-2.327391762404051,9.586304118797974
9.750736132711248,-0.3,-2.3445938337876293,9.577703083106185
9.758735095904614,-0.3,-2.361795905171211,9.569102047414393
9.766734059097978,-0.3,-2.3789979765547895,9.560501011722605
9.774733022291342,-0.3,-2.396200047938368,9.551899976030816
9.782731985484705,-0.3,-2.413402119321946,9.543298940339026
9.790730948678071,-0.3,-2.4306041907055285,9.534697904647235
9.798729911871435,-0.3,-2.447806262089107,9.526096868955447
9.806728875064799,-0.3,-2.465008333472685,9.517495833263657
9.814727838258165,-0.3,-2.482210404856267,9.508894797571866
9.822726801451529,-0.3,-2.4994124762398453,9.500293761880076
9.830725764644892,-0.3,-2.3,9.597160661828235
9.838724727838258,-0.3,-2.3,9.588828408501813
9.846723691031622,-0.3,-2.3,9.580496155175393
9.854722654224986,-0.3,-2.3,9.572163901848972
9.86272161741835,-0.3,-2.3,9.563831648522552
9.870720580611716,-0.3,-2.3,9.55549939519613
9.87871954380508,-0.3,-2.3,9.547167141869709
9.886718506998443,-0.3,-2.3,9.538834888543288
9.894717470191809,-0.3,-2.3,9.530502635216864
9.902716433385173,-0.3,-2.3,9.522170381890444
9.910715396578537,-0.3,-2.3,9.513838128564023
9.918714359771903,-0.3,-2.3,9.505505875237601
9.926713322965266,-0.37133229652666677,-2.3713322965266665,9.5
9.93471228615863,-0.39372276246304383,-2.306277237536956,9.5
9.942711249351994,-0.3849326930197867,-2.3150673069802132,9.5
9.95071021254536,-0.37614262357652767,-2.3238573764234722,9.5
9.958709175738724,-0.36735255413327056,-2.3326474458667295,9.5
9.966708138932088,-0.35856248469001345,-2.3414375153099862,9.5
9.974707102125453,-0.3497724152467544,-2.3502275847532457,9.5
9.982706065318817,-0.3409823458034973,-2.3590176541965024,9.5
9.990705028512181,-0.3321922763602402,-2.3678077236397597,9.5
9.998703991705547,-0.3234022069169811,-2.3765977930830187,9.5
10.00670295489891,-0.314612137473724,-2.385387862526276,9.5
10.014701918092275,-0.3058220680304669,-2.394177931969533,9.5
10.022700881285639,-0.3,-2.4,9.5
10.030699844479004,-0.3,-2.4,9.599222395023327
10.038698807672368,-0.3,-2.4,9.590334658141812
10.046697770865732,-0.3,-2.4,9.581446921260296
10.054696734059098,-0.3,-2.4,9.572559184378779
10.062695697252462,-0.3,-2.4,9.563671447497264
10.070694660445826,-0.3,-2.4,9.554783710615748
10.078693623639191,-0.3,-2.4,9.54589597373423
10.086692586832555,-0.3,-2.4,9.537008236852715
10.09469155002592,-0.3,-2.4,9.5281204999712
10.102690513219283,-0.3,-2.4,9.519232763089684
10.110689476412649,-0.3,-2.4,9.510345026208167
10.118688439606013,-0.3,-2.4,9.501457289326652
10.126687402799377,-0.3,-2.4,9.598295552727903
10.134686365992742,-0.3,-2.4,9.590215791926523
10.142685329186106,-0.3,-2.4,9.582136031125145
10.15068429237947,-0.3,-2.4,9.574056270323767
10.158683255572836,-0.3,-2.4,9.565976509522388
10.1666822187662,-0.3,-2.4,9.55789674872101
10.174681181959564,-0.3,-2.4,9.549816987919632
10.182680145152927,-0.3,-2.4,9.541737227118254
10.190679108346293,-0.3,-2.4,9.533657466316876
10.198678071539657,-0.3,-2.4,9.525577705515499
10.206677034733021,-0.3,-2.4,9.51749794471412
10.214675997926387,-0.3,-2.4,9.509418183912741
10.22267496111975,-0.3,-2.4,9.501338423111363
10.230673924313114,-0.3981400840965387,-2.398140084096539,9.5
10.238672887506478,-0.38925234721502344,-2.3892523472150233,9.5
10.246671850699844,-0.38036461033350616,-2.380364610333506,9.5
10.254670813893208,-0.3714768734519909,-2.3714768734519907,9.5
10.262669777086572,-0.3625891365704756,-2.3625891365704756,9.5
10.270668740279937,-0.3537013996889583,-2.353701399688958,9.5
10.278667703473301,-0.344813662807443,-2.344813662807443,9.5
10.286666666666665,-0.33592592592592774,-2.3359259259259275,9.5
10.294665629860031,-0.32703818904441045,-2.3270381890444103,9.5
10.302664593053395,-0.31815045216289517,-2.318150452162895,9.5
10.310663556246759,-0.3092627152813799,-2.30926271528138,9.5
10.318662519440123,-0.3003749783998646,-2.3003749783998644,9.5
10.326661482633488,-0.3,-2.3,9.6
10.334660445826852,-0.3,-2.3,9.6
10.342659409020216,-0.3,-2.3136371301691963,9.593181434915401
10.350658372213582,-0.3,-2.332911740273692,9.583544129863153
10.358657335406946,-0.3,-2.352186350378183,9.573906824810908
10.36665629860031,-0.3,-2.371460960482674,9.564269519758662
10.374655261793675,-0.3,-2.39073557058717,9.554632214706414
10.38265422498704,-0.3,-2.4100101806916614,9.54499490965417
10.390653188180403,-0.3,-2.4292847907961526,9.535357604601923
10.398652151373767,-0.3,-2.4485594009006437,9.525720299549677
10.406651114567133,-0.3,-2.4678340110051393,9.516082994497431
10.414650077760497,-0.3,-2.4871086211096305,9.506445689445185
10.42264904095386,-0.3,-2.32339726974263,9.5
10.430648004147226,-0.3,-2.3950553147369935,9.5
10.43864696734059,-0.3,-2.386545779424904,9.5
10.446645930533954,-0.3,-2.3780362441128147,9.5
10.45464489372732,-0.3,-2.3695267088007235,9.5
10.462643856920684,-0.3,-2.361017173488634,9.5
10.470642820114048,-0.3,-2.352507638176545,9.5
10.478641783307411,-0.3,-2.3439981028644556,9.5
10.486640746500777,-0.3,-2.3354885675523644,9.5
10.494639709694141,-0.3,-2.326979032240275,9.5
10.502638672887505,-0.3,-2.3184694969281856,9.5
10.51063763608087,-0.3,-2.3099599616160944,9.5
10.518636599274235,-0.3,-2.301450426304005,9.5
10.526635562467598,-0.3,-2.398278355297265,9.6
10.534634525660964,-0.3,-2.3898583940410907,9.6
10.542633488854328,-0.3,-2.381438432784918,9.6
10.550632452047692,-0.3,-2.3730184715287455,9.6
10.558631415241056,-0.3,-2.3645985102725726,9.6
10.566630378434422,-0.3,-2.356178549016398,9.6
10.574629341627785,-0.3,-2.3477585877602256,9.6
10.58262830482115,-0.3,-2.3393386265040528,9.6
10.590627268014515,-0.3,-2.330918665247878,9.6
10.598626231207879,-0.3,-2.3224987039917058,9.6
10.606625194401243,-0.3,-2.314078742735533,9.6
10.614624157594609,-0.3,-2.3056587814793583,9.6
10.622623120787972,-0.3,-2.387437359599104,9.512562640400896
10.630622083981336,-0.30069120442370617,-2.3993087955762937,9.5
10.6386210471747,-0.3095789413052216,-2.3904210586947783,9.5
10.646620010368066,-0.31846667818673907,-2.3815333218132606,9.5
10.65461897356143,-0.3273544150682545,-2.372645584931745,9.5
10.662617936754794,-0.33624215194977003,-2.3637578480502297,9.5
10.67061689994816,-0.3451298888312875,-2.3548701111687125,9.5
10.678615863141523,-0.35401762571280293,-2.345982374287197,9.5
10.686614826334887,-0.3629053625943184,-2.3370946374056816,9.5
10.694613789528253,-0.37179309947583583,-2.328206900524164,9.5
10.702612752721617,-0.3806808363573513,-2.3193191636426485,9.5
10.71061171591498,-0.3895685732388668,-2.310431426761133,9.5
10.718610679108345,-0.39845631012038224,-2.3015436898796175,9.5
10.72660964230171,-0.36718506998445616,-2.4,9.5
10.734608605495074,-0.30608605495074254,-2.4,9.5
10.742607568688438,-0.3860756868843833,-2.4,9.5
10.750606531881804,-0.39130719489236315,-2.391307194892363,9.5
10.758605495075168,-0.38078224332214755,-2.3807822433221473,9.5
10.766604458268532,-0.370257291751932,-2.370257291751932,9.5
10.774603421461897,-0.35973234018171407,-2.359732340181714,9.5
10.782602384655261,-0.34920738861149847,-2.3492073886114984,9.5
10.790601347848625,-0.33868243704128287,-2.3386824370412826,9.5
10.798600311041989,-0.32815748547106727,-2.328157485471067,9.5
10.806599274235355,-0.31763253390084933,-2.317632533900849,9.5
10.814598237428719,-0.30710758233063373,-2.3071075823306337,9.5
10.822597200622083,-0.3,-2.4,9.559720062208262
10.830596163815448,-0.3,-2.4,9.505890698753104
10.838595127008812,-0.3,-2.4,9.514310660009276
10.846594090202176,-0.3,-2.4,9.522730621265449
10.854593053395542,-0.3,-2.4,9.531150582521624
10.862592016588906,-0.3,-2.4,9.539570543777796
10.87059097978227,-0.3,-2.4,9.547990505033969
10.878589942975633,-0.3,-2.4,9.55641046629014
10.886588906168999,-0.3,-2.4,9.564830427546315
10.894587869362363,-0.3,-2.4,9.573250388802487
10.902586832555727,-0.3,-2.4,9.58167035005866
10.910585795749093,-0.3,-2.4,9.590090311314833
10.918584758942457,-0.3,-2.4,9.598510272571007
10.92658372213582,-0.25837221358205764,-2.4,9.558372213582057
10.934582685329184,-0.39386518095694056,-2.3061348190430593,9.593865180956941
10.94258164852255,-0.3850751115136815,-2.3149248884863183,9.585075111513682
10.950580611715914,-0.3762850420704244,-2.3237149579295755,9.576285042070424
10.958579574909278,-0.3674949726271673,-2.3325050273728327,9.567494972627166
10.966578538102643,-0.35870490318390824,-2.3412950968160917,9.558704903183909
10.974577501296007,-0.34991483374065113,-2.350085166259349,9.549914833740651
10.982576464489371,-0.341124764297394,-2.3588752357026057,9.541124764297393
10.990575427682737,-0.33233469485413497,-2.3676653051458647,9.532334694854136
10.998574390876101,-0.32354462541087786,-2.376455374589122,9.523544625410878
11.006573354069465,-0.31475455596762075,-2.385245444032379,9.51475455596762
11.014572317262829,-0.30596448652436364,-2.3940355134756364,9.505964486524364
11.022571280456194,-0.3285640228097231,-2.4,9.5
11.030570243649558,-0.4,-2.311851582233102,9.594074208883448
11.038569206842922,-0.4,-2.3288706528572805,9.58556467357136
11.046568170036288,-0.4,-2.345889723481463,9.577055138259269
11.054567133229652,-0.4,-2.3629087941056417,9.568545602947179
11.062566096423016,-0.4,-2.37992786472982,9.560036067635089
11.070565059616381,-0.4,-2.3969469353540025,9.551526532322999
11.078564022809745,-0.4,-2.4139660059781813,9.543016997010909
11.08656298600311,-0.4,-2.4309850766023597,9.53450746169882
11.094561949196473,-0.4,-2.4480041472265386,9.525997926386731
11.102560912389839,-0.4,-2.465023217850721,9.51748839107464
11.110559875583203,-0.4,-2.4820422884749,9.50897885576255
11.118558838776567,-0.4,-2.4990613590990782,9.500469320450462
11.126557801969932,-0.3312927093642563,-2.4312927093642562,9.5
11.134556765163296,-0.3,-2.4982508256592166,9.598250825659216
11.14255572835666,-0.3,-2.4892632265655497,9.58926322656555
11.150554691550026,-0.3,-2.4802756274718805,9.58027562747188
11.15855365474339,-0.3,-2.471288028378213,9.571288028378213
11.166552617936754,-0.3,-2.4623004292845456,9.562300429284546
11.174551581130117,-0.3,-2.453312830190878,9.553312830190878
11.182550544323483,-0.3,-2.444325231097209,9.54432523109721
11.190549507516847,-0.3,-2.435337632003542,9.535337632003541
11.198548470710211,-0.3,-2.4263500329098746,9.526350032909875
11.206547433903577,-0.3,-2.4173624338162054,9.517362433816205
11.21454639709694,-0.3,-2.408374834722538,9.508374834722538
11.222545360290304,-0.3,-2.427268014515238,9.472731985484762
11.23054432348367,-0.3,-2.2075411137950423,9.696229443102478
11.238543286677034,-0.3,-2.224560184419221,9.687719907790388
11.246542249870398,-0.3,-2.2415792550433995,9.6792103724783
11.254541213063762,-0.3,-2.2585983256675783,9.67070083716621
11.262540176257128,-0.3,-2.2756173962917607,9.662191301854119
11.270539139450491,-0.3,-2.292636466915939,9.65368176654203
11.278538102643855,-0.3,-2.309655537540118,9.64517223122994
11.286537065837221,-0.3,-2.3266746081643004,9.636662695917849
11.294536029030585,-0.3,-2.343693678788479,9.62815316060576
11.302534992223949,-0.3,-2.3607127494126576,9.619643625293671
11.310533955417315,-0.3,-2.37773182003684,9.61113408998158
11.318532918610678,-0.3,-2.3947508906610184,9.60262455466949
11.326531881804042,-0.3,-2.3005598755832017,9.6
11.334530844997406,-0.3,-2.3089798368393746,9.6
11.342529808190772,-0.3,-2.3173997980955487,9.6
11.350528771384136,-0.3,-2.3258197593517216,9.6
11.3585277345775,-0.3,-2.3342397206078944,9.6
11.366526697770865,-0.3,-2.3426596818640686,9.6
11.37452566096423,-0.3,-2.3510796431202414,9.6
11.382524624157593,-0.3,-2.359499604376414,9.6
11.390523587350959,-0.3,-2.3679195656325884,9.6
11.398522550544323,-0.3,-2.3763395268887613,9.6
11.406521513737687,-0.3,-2.3847594881449337,9.6
11.41452047693105,-0.3,-2.3931794494011065,9.6
11.422519440124416,-0.27402799377919873,-2.3,9.6
11.43051840331778,-0.30418370677572226,-2.3,9.691632586448554
11.438517366511144,-0.3115901541769851,-2.3,9.67681969164603
11.44651632970451,-0.3189966015782496,-2.3,9.6620067968435
11.454515292897874,-0.32640304897951244,-2.3,9.647193902040975
11.462514256091238,-0.3338094963807753,-2.3,9.632381007238449
11.470513219284603,-0.3412159437820398,-2.3,9.61756811243592
11.478512182477967,-0.3486223911833026,-2.3,9.602755217633394
11.486511145671331,-0.35602883858456547,-2.3,9.58794232283087
11.494510108864695,-0.3634352859858283,-2.3,9.573129428028343
11.50250907205806,-0.3708417333870928,-2.3,9.558316533225815
11.510508035251425,-0.37824818078835565,-2.3,9.543503638423289
11.518506998444789,-0.3856546281896185,-2.3,9.528690743620762
11.526505961638154,-0.39306107559088294,-2.3,9.513877848818234
11.534504924831518,-0.4252462415758854,-2.3757387247276562,9.424261275272343
11.542503888024882,-0.30854606835337145,-2.7786348291165712,9.408546068353372
11.550502851218248,-0.3280557346786534,-2.7298606633033664,9.428055734678654
11.558501814411612,-0.3475654010039311,-2.6810864974901722,9.447565401003931
11.566500777604976,-0.3670750673292087,-2.632312331676978,9.467075067329208
11.57449974079834,-0.38658473365448637,-2.583538165863784,9.486584733654487
11.582498703991705,-0.4060943999797683,-2.534764000050579,9.506094399979768
11.590497667185069,-0.425604066305046,-2.485989834237385,9.525604066305046
11.598496630378433,-0.4451137326303236,-2.437215668424191,9.545113732630323
11.606495593571799,-0.4646233989556056,-2.388441502610986,9.564623398955606
11.614494556765163,-0.4841330652808833,-2.339667336797792,9.584133065280882
11.622493519958526,-0.3506480041473193,-2.6733799896317016,9.45064800414732
11.63049248315189,-0.4,-2.6,9.495271070366432
11.638491446345256,-0.4,-2.6,9.486851109110257
11.64649040953862,-0.4,-2.6,9.478431147854083
11.654489372731984,-0.4,-2.6,9.470011186597912
11.66248833592535,-0.4,-2.6,9.461591225341737
11.670487299118713,-0.4,-2.6,9.453171264085565
11.678486262312077,-0.4,-2.6,9.444751302829392
11.686485225505443,-0.4,-2.6,9.436331341573219
11.694484188698807,-0.4,-2.6,9.427911380317045
11.70248315189217,-0.4,-2.6,9.419491419060874
11.710482115085535,-0.4,-2.6,9.4110714578047
11.7184810782789,-0.4,-2.6,9.402651496548526
11.726480041472264,-0.4,-2.6,9.5
11.734479004665628,-0.4,-2.6,9.5
11.742477967858994,-0.4,-2.6,9.5
11.750476931052358,-0.4,-2.6,9.5
11.758475894245722,-0.4,-2.6,9.5
11.766474857439087,-0.4,-2.6,9.5
11.774473820632451,-0.4,-2.6,9.5
11.782472783825815,-0.4,-2.6,9.5
11.790471747019179,-0.4,-2.6,9.5
11.798470710212545,-0.4,-2.6,9.5
11.806469673405909,-0.4,-2.6,9.5
11.814468636599273,-0.4,-2.6,9.5
11.822467599792638,-0.4,-2.6,9.5
11.830466562986002,-0.30368783296383217,-2.6,9.5
11.838465526179366,-0.3121973682759215,-2.6,9.5
11.846464489372732,-0.3207069035880127,-2.6,9.5
11.854463452566096,-0.329216438900102,-2.6,9.5
11.86246241575946,-0.3377259742121913,-2.6,9.5
11.870461378952823,-0.3462355095242806,-2.6,9.5
11.87846034214619,-0.35474504483637187,-2.6,9.5
11.886459305339553,-0.3632545801484612,-2.6,9.5
11.894458268532917,-0.3717641154605505,-2.6,9.5
11.902457231726283,-0.3802736507726417,-2.6,9.5
11.910456194919647,-0.388783186084731,-2.6,9.5
11.91845515811301,-0.3972927213968203,-2.6,9.5
11.926454121306376,-0.4,-2.5004831077727405,9.5
11.93445308449974,-0.4,-2.50899264308483,9.5
11.942452047693104,-0.4,-2.517502178396919,9.5
11.950451010886468,-0.4,-2.5260117137090083,9.5
11.958449974079834,-0.4,-2.5345212490210995,9.5
11.966448937273197,-0.4,-2.543030784333189,9.5
11.974447900466561,-0.4,-2.5515403196452784,9.5
11.982446863659927,-0.4,-2.5600498549573696,9.5
11.990445826853291,-0.4,-2.568559390269459,9.5
11.998444790046655,-0.4,-2.577068925581548,9.5
12.00644375324002,-0.4,-2.585578460893639,9.5
12.014442716433384,-0.4,-2.5940879962057286,9.5
12.022441679626748,-0.3694790046656435,-2.6,9.5
12.030440642820112,-0.4,-2.572032141005594,9.5
12.038439606013478,-0.4,-2.592168835775287,9.5
12.046438569206842,-0.4,-2.5837488745191144,9.5
12.054437532400206,-0.4,-2.5753289132629416,9.5
12.062436495593571,-0.4,-2.5669089520067674,9.5
12.070435458786935,-0.4,-2.5584889907505945,9.5
12.0784344219803,-0.4,-2.5500690294944217,9.5
12.086433385173665,-0.4,-2.5416490682382475,9.5
12.094432348367029,-0.4,-2.5332291069820747,9.5
12.102431311560393,-0.4,-2.524809145725902,9.5
12.110430274753757,-0.4,-2.5163891844697295,9.5
12.118429237947122,-0.4,-2.507969223213555,9.5
12.126428201140486,-0.4,-2.5,9.5
12.13442716433385,-0.4,-2.5037661146525823,9.5
12.142426127527216,-0.4,-2.5125561840958412,9.5
12.15042509072058,-0.4,-2.5213462535390985,9.5
12.158424053913944,-0.4,-2.5301363229823557,9.5
12.16642301710731,-0.4,-2.5389263924256147,9.5
12.174421980300673,-0.4,-2.547716461868872,9.5
12.182420943494037,-0.4,-2.556506531312129,9.5
12.190419906687401,-0.4,-2.565296600755386,9.5
12.198418869880767,-0.4,-2.5740866701986453,9.5
12.20641783307413,-0.4,-2.582876739641902,9.5
12.214416796267495,-0.4,-2.5916668090851593,9.5
12.22241575946086,-0.4,-2.558424053913981,9.541575946086018
12.230414722654224,-0.3,-2.608294453084492,9.445852773457753
12.238413685847588,-0.3037513031292182,-2.6924973937415637,9.40375130312922
12.246412649040954,-0.3125413725724771,-2.674917254855046,9.412541372572477
12.254411612234318,-0.32133144201573405,-2.657337115968532,9.421331442015735
12.262410575427682,-0.33012151145899093,-2.639756977082018,9.43012151145899
12.270409538621045,-0.3389115809022479,-2.622176838195504,9.438911580902248
12.278408501814411,-0.3477016503455068,-2.6045966993089866,9.447701650345508
12.286407465007775,-0.3564917197887637,-2.5870165604224726,9.456491719788763
12.294406428201139,-0.36528178923202065,-2.5694364215359586,9.465281789232021
12.302405391394505,-0.37407185867527953,-2.551856282649441,9.474071858675279
12.310404354587869,-0.3828619281185365,-2.534276143762927,9.482861928118536
12.318403317781232,-0.3916519975617934,-2.516696004876413,9.491651997561794
12.326402280974596,-0.4,-2.4865906341801396,9.5
12.334401244167962,-0.39840767708186153,-2.5984076770818616,9.40159232291814
12.342400207361326,-0.38931794618031157,-2.5893179461803117,9.41068205381969
12.35039917055469,-0.3802282152787616,-2.5802282152787614,9.419771784721238
12.358398133748056,-0.3711384843772096,-2.57113848437721,9.42886151562279
12.36639709694142,-0.3620487534756596,-2.5620487534756595,9.43795124652434
12.374396060134783,-0.35295902257410966,-2.5529590225741097,9.44704097742589
12.382395023328149,-0.34386929167255764,-2.5438692916725576,9.456130708327443
12.390393986521513,-0.3347795607710077,-2.5347795607710077,9.465220439228993
12.398392949714877,-0.3256898298694577,-2.525689829869458,9.474310170130542
12.40639191290824,-0.3166000989679077,-2.5166000989679076,9.483399901032092
12.414390876101606,-0.3075103680663557,-2.5075103680663555,9.492489631933644
12.42238983929497,-0.32779678589941447,-2.5,9.5
12.430388802488334,-0.3,-2.5,9.5
12.4383877656817,-0.3,-2.5,9.5
12.446386728875064,-0.3,-2.5,9.5
12.454385692068428,-0.3,-2.5,9.5
12.462384655261793,-0.3,-2.5,9.5
12.470383618455157,-0.3,-2.5,9.5
12.478382581648521,-0.3,-2.5,9.5
12.486381544841885,-0.3,-2.5,9.5
12.49438050803525,-0.3,-2.5,9.5
12.502379471228615,-0.3,-2.5,9.5
12.510378434421979,-0.3,-2.5,9.5
12.518377397615344,-0.3,-2.5,9.5
12.526376360808708,-0.4,-2.5,9.5
12.534375324002072,-0.4,-2.5,9.5
12.542374287195438,-0.4,-2.5,9.5
12.550373250388802,-0.4,-2.5,9.5
12.558372213582166,-0.4,-2.5,9.5
12.56637117677553,-0.4,-2.5,9.5
12.574370139968895,-0.4,-2.5,9.5
12.582369103162259,-0.4,-2.5,9.5
12.590368066355623,-0.4,-2.5,9.5
12.598367029548989,-0.4,-2.5,9.5
12.606365992742353,-0.4,-2.5,9.5
12.614364955935716,-0.4,-2.5,9.5
12.622363919129082,-0.4,-2.5,9.5
12.630362882322446,-0.31819019641726143,-2.5,9.5
12.63836184551581,-0.4,-2.5,9.5
12.646360808709174,-0.4,-2.5,9.5
12.65435977190254,-0.4,-2.5,9.5
12.662358735095903,-0.4,-2.5,9.5
12.670357698289267,-0.4,-2.5,9.5
12.678356661482633,-0.4,-2.5,9.5
12.686355624675997,-0.4,-2.5,9.5
12.69435458786936,-0.4,-2.5,9.5
12.702353551062727,-0.4,-2.5,9.5
12.71035251425609,-0.4,-2.5,9.5
12.718351477449454,-0.4,-2.5,9.5
12.726350440642818,-0.30073776977435246,-2.699262230225648,9.5
12.734349403836184,-0.31757769228670146,-2.6824223077132987,9.5
12.742348367029548,-0.33441761479904675,-2.6655823852009535,9.5
12.750347330222912,-0.351257537311392,-2.6487424626886082,9.5
12.758346293416277,-0.368097459823741,-2.631902540176259,9.5
12.766345256609641,-0.38493738233608626,-2.615062617663914,9.5
12.774344219803005,-0.40177730484843155,-2.5982226951515686,9.5
12.782343182996371,-0.41861722736078055,-2.5813827726392193,9.5
12.790342146189735,-0.4354571498731258,-2.564542850126874,9.5
12.798341109383099,-0.45229707238547107,-2.547702927614529,9.5
12.806340072576463,-0.46913699489781635,-2.5308630051021836,9.5
12.814339035769828,-0.48597691741016535,-2.5140230825898344,9.5
12.822337998963192,-0.31689994815964867,-2.5,9.566200103680702
12.830336962156556,-0.40667048648058557,-2.5,9.406670486480586
12.838335925349922,-0.4150904477367599,-2.5,9.41509044773676
12.846334888543286,-0.4235104089929324,-2.5,9.423510408992932
12.85433385173665,-0.43193037024910486,-2.5,9.431930370249106
12.862332814930015,-0.4403503315052792,-2.5,9.440350331505279
12.87033177812338,-0.4487702927614517,-2.5,9.448770292761452
12.878330741316743,-0.45719025401762414,-2.5,9.457190254017624
12.886329704510107,-0.46561021527379665,-2.5,9.465610215273797
12.894328667703473,-0.474030176529971,-2.5,9.474030176529972
12.902327630896837,-0.48245013778614343,-2.5,9.482450137786143
12.9103265940902,-0.49087009904231593,-2.5,9.490870099042317
12.918325557283566,-0.49929006029849027,-2.5,9.49929006029849
12.92632452047693,-0.5996547654500745,-2.0003452345499255,9.498964296350223
12.934323483670294,-0.5911452301379851,-2.008854769862015,9.473435690413956
12.94232244686366,-0.582635694825894,-2.017364305174106,9.447907084477682
12.950321410057024,-0.5741261595138046,-2.0258738404861956,9.422378478541415
12.958320373250388,-0.5656166242017153,-2.0343833757982845,9.396849872605145
12.966319336443751,-0.557107088889626,-2.042892911110374,9.371321266668877
12.974318299637117,-0.5485975535775348,-2.051402446422465,9.345792660732604
12.982317262830481,-0.5400880182654455,-2.0599119817345546,9.320264054796336
12.990316226023845,-0.5315784829533562,-2.068421517046644,9.294735448860068
12.99831518921721,-0.523068947641265,-2.076931052358735,9.269206842923793
13.006314152410575,-0.5145594123291757,-2.085440587670824,9.243678236987526
13.014313115603938,-0.5060498770170864,-2.0939501229829136,9.218149631051258
13.022312078797302,-0.4537584240539435,-2.192483151892113,9.292483151892112
13.030311041990668,-0.29521473860509734,-2.488036846512743,9.597607369302548
13.038310005184032,-0.17215376639949787,-2.1803844159987444,9.53607688319975
13.046308968377396,0.07537100397444926,-1.6876855019872246,9.909235873509582
13.054307931570762,-0.009951270088118816,-1.6450243649559406,9.941231726283045
13.062306894764125,-0.09527354415066794,-1.602363227924666,9.9732275790565
13.07030585795749,-0.1805958182132171,-1.5597020908933914,10.005223431829956
13.078304821150855,-0.2659180922757852,-1.5170409538621075,10.037219284603419
13.086303784344219,-0.35124036633833433,-1.4743798168308329,10.069215137376876
13.094302747537583,-0.43656264040088344,-1.4317186797995582,10.101210990150332
13.102301710730947,-0.5218849144634327,-1.3890575427682836,10.133206842923787
13.110300673924312,-0.6072071885260006,-1.3463964057369997,10.16520269569725
13.118299637117676,-0.6925294625885499,-1.303735268705725,10.197198548470706
13.12629860031104,-0.20224752922288766,-1.699036773190191,9.90096322680981
13.134297563504406,-0.2624547790654251,-1.6732336661148177,9.926766333885183
13.14229652669777,-0.3226620289079491,-1.6474305590394502,9.95256944096055
13.150295489891134,-0.38286927875047316,-1.621627451964083,9.978372548035917
13.1582944530845,-0.44307652859301055,-1.5958243448887097,10.00417565511129
13.166293416277863,-0.5032837784355346,-1.5700212378133422,10.029978762186657
13.174292379471227,-0.5634910282780586,-1.5442181307379748,10.055781869262026
13.182291342664591,-0.6236982781205826,-1.5184150236626073,10.081584976337393
13.190290305857957,-0.6839055279631201,-1.4926119165872342,10.107388083412765
13.19828926905132,-0.7441127778056442,-1.4668088095118668,10.133191190488132
13.206288232244685,-0.8043200276481681,-1.4410057024364993,10.1589942975635
13.21428719543805,-0.8645272774907056,-1.415202595361126,10.184797404638873
13.222286158631414,-0.5918240391024373,-1.1959120195512187,9.12861586314147
13.230285121824778,-0.5285121824778863,-1.2285121824778864,10.014186970796478
13.238284085018144,-0.7072230862277521,-1.4072230862277522,10.256661482633488
13.246283048211508,-0.7164172967948369,-1.416417296794837,10.201496219230979
13.254282011404872,-0.7256115073619217,-1.4256115073619218,10.14633095582847
13.262280974598236,-0.7348057179290065,-1.4348057179290064,10.09116569242596
13.270279937791601,-0.7439999284960933,-1.4439999284960934,10.03600042902344
13.278278900984965,-0.7531941390631781,-1.4531941390631782,9.980835165620931
13.286277864178329,-0.7623883496302629,-1.462388349630263,9.925669902218422
13.294276827371695,-0.7715825601973497,-1.4715825601973498,9.870504638815902
13.302275790565059,-0.7807767707644345,-1.4807767707644346,9.815339375413393
13.310274753758423,-0.7899709813315193,-1.4899709813315194,9.760174112010883
13.318273716951788,-0.7991651918986062,-1.4991651918986062,9.705008848608362
13.326272680145152,-0.4363659927424295,-1.2818195956454577,9.045458786936374
13.334271643338516,-1.900631728694224,-0.5003158643471121,10.697788949570215
13.34227060653188,-1.9192339686787911,-0.5096169843393956,10.63268110962423
13.350269569725246,-1.9378362086633625,-0.5189181043316813,10.567573269678231
13.35826853291861,-1.9564384486479296,-0.5282192243239648,10.502465429732245
13.366267496111973,-1.975040688632497,-0.5375203443162484,10.437357589786261
13.374266459305339,-1.993642928617068,-0.5468214643085341,10.372249749840261
13.382265422498703,-2.0122451686016354,-0.5561225843008176,10.307141909894277
13.390264385692067,-2.0308474085862027,-0.5654237042931012,10.242034069948291
13.398263348885433,-2.0494496485707736,-0.5747248242853868,10.176926230002291
13.406262312078796,-2.068051888555341,-0.5840259442776704,10.111818390056307
13.41426127527216,-2.0866541285399083,-0.593327064269954,10.04671055011032
13.422260238465524,-2.005823397269822,-0.769517884914321,9.96232935890793
13.43025920165889,-1.672533264212931,-1.3694401244167245,9.829013305685173
13.438258164852254,-1.0844849292749839,-0.9806061615937297,9.592242464637492
13.446257128045618,-1.0463946283542032,-0.932993285442754,9.5731973141771
13.454256091238983,-1.008304327433414,-0.8853804092917675,9.554152163716706
13.462255054432347,-0.9702140265126333,-0.8377675331407917,9.535107013256317
13.470254017625711,-0.9321237255918526,-0.7901546569898158,9.516061862795926
13.478252980819077,-0.8940334246710635,-0.7425417808388295,9.497016712335531
13.48625194401244,-0.8559431237502829,-0.6949289046878535,9.477971561875142
13.494250907205805,-0.8178528228295021,-0.6473160285368778,9.458926411414751
13.502249870399169,-0.7797625219087215,-0.5997031523859019,9.43988126095436
13.510248833592534,-0.7416722209879324,-0.5520902762349155,9.420836110493967
13.518247796785898,-0.7035819200671517,-0.5044774000839396,9.401790960033576
13.526246759979262,-0.7740279937786888,-0.9123379989631148,9.086365992741804
13.534245723172628,-1.6144740562703244,-1.6565778311890271,10.290350629153117
13.542244686365992,-1.6417432489749737,-1.574770253075079,10.272171167350018
13.550243649559356,-1.669012441679623,-1.4929626749611309,10.253991705546918
13.558242612752721,-1.6962816343842786,-1.4111550968471644,10.235812243743815
13.566241575946085,-1.723550827088928,-1.3293475187332164,10.217632781940715
13.57424053913945,-1.7508200197935773,-1.2475399406192682,10.199453320137616
13.582239502332813,-1.7780892124982266,-1.1657323625053202,10.181273858334515
13.590238465526179,-1.805358405202882,-1.0839247843913538,10.163094396531411
13.598237428719543,-1.8326275979075315,-1.0021172062774055,10.144914934728313
13.606236391912907,-1.8598967906121808,-0.9203096281634575,10.126735472925212
13.614235355106272,-1.8871659833168362,-0.8385020500494912,10.10855601112211
13.622234318299636,-0.7990772420944652,-1.900922757905535,9.676568170036333
13.630233281493,-1.8944730230888898,-1.9778920923555594,9.49447302308889
13.638232244686366,-1.880799581732709,-1.9231983269308364,9.48079958173271
13.64623120787973,-1.8671261403765314,-1.8685045615061255,9.467126140376532
13.654230171073094,-1.8534526990203537,-1.8138107960814147,9.453452699020353
13.662229134266457,-1.8397792576641758,-1.7591170306567039,9.439779257664176
13.670228097459823,-1.826105816307995,-1.7044232652319808,9.426105816307995
13.678227060653187,-1.8124323749518174,-1.6497294998072698,9.412432374951818
13.686226023846551,-1.7987589335956398,-1.595035734382559,9.39875893359564
13.694224987039917,-1.785085492239459,-1.540341968957836,9.38508549223946
13.70222395023328,-1.7714120508832811,-1.485648203533125,9.371412050883281
13.710222913426644,-1.7577386095271035,-1.4309544381084143,9.357738609527104
13.718221876620008,-1.7440651681709258,-1.3762606726837032,9.344065168170927
13.726220839813374,-1.730391726814745,-1.3215669072589802,9.330391726814746
13.734219803006738,-1.7167182854585672,-1.2668731418342694,9.316718285458569
13.742218766200102,-1.7030448441023895,-1.2121793764095585,9.30304484410239
13.750217729393468,-2.6987733555297604,-1.003066611175599,9.4030666111756
13.758216692586831,-2.653708774158696,-1.1157280646032601,9.51572806460326
13.766215655780195,-2.6086441927876316,-1.2283895180309212,9.628389518030922
13.774214618973561,-2.563579611416557,-1.3410509714586074,9.741050971458607
13.782213582166925,-2.5185150300454926,-1.4537124248862685,9.853712424886268
13.790212545360289,-2.473450448674428,-1.5663738783139296,9.966373878313929
13.798211508553653,-2.428385867303364,-1.6790353317415905,10.079035331741592
13.806210471747018,-2.3833212859322894,-1.7916967851692767,10.191696785169277
13.814209434940382,-2.338256704561225,-1.9043582385969378,10.304358238596938
13.822208398133746,-2.1132475611482833,-1.824232998727796,10.290145624204873
13.830207361327112,-0.8770441585373367,-0.6607474433292579,9.562967152080788
13.838206324520476,-1.8412649040951554,0.29821150855352485,10.020632452047577
13.84620528771384,-1.2295831278685894,-1.2489018700451637,9.521515002086247
13.854204250907205,-1.3368862926576401,-1.063560039954985,9.599553667387374
13.86220321410057,-1.4441894574466672,-0.8782182098648474,9.677592332688485
13.870202177293933,-1.5514926222356942,-0.6928763797747098,9.755630997989597
13.878201140487297,-1.6587957870247212,-0.5075345496845722,9.833669663290706
13.886200103680663,-1.7660989518137722,-0.32219271959439344,9.911708328591835
13.894199066874027,-1.873402116602799,-0.13685088950425572,9.989746993892945
13.90219803006739,-1.9807052813918262,0.04849094058588177,10.067785659194056
13.910196993260756,-2.088008446180877,0.23383277067606056,10.145824324495184
13.91819595645412,-2.1953116109699042,0.4191746007661983,10.223862989796295
13.926194919647484,-2.2805080352516094,0.6097459823741953,10.095334370141899
13.93419388284085,-2.140850763916794,-0.3809105259172303,8.72255229175038
13.942192846034214,-2.203763957572465,-0.6595260978209156,8.911291872717394
13.950191809227578,-2.266677151228136,-0.9381416697246008,9.100031453684407
13.958190772420942,-2.3295903448838065,-1.2167572416282861,9.28877103465142
13.966189735614307,-2.3925035385394913,-1.4953728135320332,9.477510615618474
13.974188698807671,-2.4554167321951623,-1.7739883854357186,9.666250196585487
13.982187662001035,-2.518329925850833,-2.0526039573394037,9.854989777552499
13.9901866251944,-2.581243119506518,-2.331219529243151,10.043729358519553
13.998185588387765,-2.644156313162189,-2.6098351011468366,10.232468939486566
14.006184551581129,-2.7070695068178594,-2.8884506730505217,10.421208520453579
14.014183514774494,-2.7699827004735447,-3.1670662449542686,10.609948101420633
14.022182477967858,-1.7109383100023012,0.5627786417846459,8.201451529287523
14.030181441161222,-2.544285578911595,2.210856926258552,10.221999810476234
14.038180404354586,-2.458275221993704,2.0732403551899257,10.101585310791185
14.046179367547952,-2.372264865075793,1.9356237841212687,9.98117081110611
14.054178330741316,-2.2862545081579015,1.7980072130526423,9.860756311421063
14.06217729393468,-2.20024415124001,1.660390641984016,9.740341811736014
14.070176257128045,-2.1142337943220997,1.522774070915359,9.61992731205094
14.078175220321409,-2.028223437404208,1.3851574998467326,9.499512812365891
14.086174183514773,-1.9422130804863165,1.2475409287781063,9.379098312680844
14.094173146708139,-1.856202723568406,1.1099243577094493,9.258683812995768
14.102172109901502,-1.7701923666505146,0.972307786640823,9.13826931331072
14.110171073094866,-1.684182009732623,0.8346912155721966,9.017854813625672
14.11817003628823,-1.6765163297034995,0.7127527216172499,8.9935199585265
14.126168999481596,-2.369716606186263,1.0570502851219048,8.495766372904704
14.13416796267496,-2.717420098904361,-0.4361263040173444,10.158066996347868
14.142166925868324,-2.7443828961853627,-0.33726271398700447,10.24794298728454
14.15016588906169,-2.7713456934663703,-0.2383991239566426,10.337818978221234
14.158164852255053,-2.798308490747372,-0.13953553392630258,10.427694969157907
14.166163815448417,-2.825271288028374,-0.040671943895962626,10.517570960094579
14.174162778641783,-2.8522340853093815,0.05819164613439931,10.607446951031271
14.182161741835147,-2.8791968825903833,0.15705523616473926,10.697322941967943
14.19016070502851,-2.906159679871385,0.2559188261950792,10.787198932904618
14.198159668221875,-2.933122477152387,0.3547824162254192,10.87707492384129
14.20615863141524,-2.960085274433395,0.4536460062557811,10.966950914777982
14.214157594608604,-2.987048071714397,0.5525095962861211,11.056826905714654
14.222156557801968,-2.2782789009842346,0.8904095386220721,8.428771384133784
14.230155520995334,-2.4857877736571377,1.8810503648761838,10.27631295609523
14.238154484188698,-2.433047356997596,1.8107298093301283,10.188412261662661
14.246153447382062,-2.3803069403380546,1.7404092537840727,10.100511567230091
14.254152410575427,-2.3275665236785015,1.6700886982380017,10.012610872797502
14.262151373768791,-2.2748261070189595,1.5997681426919463,9.924710178364933
14.270150336962155,-2.222085690359418,1.5294475871458908,9.836809483932365
14.278149300155519,-2.1693452736998764,1.4591270315998353,9.748908789499795
14.286148263348885,-2.1166048570403233,1.3888064760537642,9.661008095067206
14.294147226542249,-2.0638644403807813,1.3184859205077086,9.573107400634637
14.302146189735613,-2.0111240237212398,1.2481653649616533,9.485206706202067
14.310145152928978,-1.9583836070616867,1.1778448094155822,9.397306011769478
14.318144116122342,-1.905643190402145,1.1075242538695267,9.309405317336909
14.326143079315706,-2.388233007044195,0.11344799194949132,9.116809989936863
14.334142042509072,-2.305890738877197,0.2075534412832033,9.234441801604003
14.342141005702436,-2.2235484707102176,0.3016588906168944,9.352073613271118
14.3501399688958,-2.1412062025432377,0.39576433995058546,9.469705424938232
