accel_time_list,vertical_Accel_x,vertical_Accel_y,vertical_Accel_z
0.0,-0.243,-9.371,0.614
0.008,0.011196721311475408,-9.663098360655738,0.42665573770491805
0.016,-0.020016393442622956,-9.659491803278689,0.43327868852459017
0.024,-0.05122950819672133,-9.655885245901638,0.4399016393442623
0.032,-0.08244262295081968,-9.65227868852459,0.4465245901639344
0.04,-0.11365573770491806,-9.64867213114754,0.45314754098360654
0.048,-0.14486885245901643,-9.645065573770491,0.45977049180327867
0.056,-0.17608196721311478,-9.641459016393442,0.4663934426229508
0.064,-0.20729508196721316,-9.637852459016393,0.473016393442623
0.07200000000000001,-0.23850819672131154,-9.634245901639344,0.4796393442622951
0.08,-0.26972131147540984,-9.630639344262296,0.4862622950819672
0.088,-0.30093442622950817,-9.627032786885247,0.49288524590163935
0.096,-0.33214754098360655,-9.623426229508196,0.49950819672131147
0.10400000000000001,-0.36336065573770493,-9.619819672131147,0.5061311475409837
0.112,-0.3945737704918033,-9.616213114754098,0.5127540983606558
0.12,-0.42578688524590164,-9.612606557377049,0.5193770491803279
0.128,-0.457,-9.609,0.526
0.136,-0.20401408450704228,-9.611591549295774,0.16152112676056338
0.14400000000000002,-0.21471830985915497,-9.589169014084506,0.1655774647887324
0.152,-0.2254225352112676,-9.566746478873238,0.1696338028169014
0.16,-0.23612676056338028,-9.54432394366197,0.17369014084507042
0.168,-0.24683098591549296,-9.521901408450704,0.17774647887323944
0.176,-0.2575352112676056,-9.499478873239436,0.18180281690140845
0.184,-0.2682394366197183,-9.477056338028168,0.18585915492957747
0.192,-0.27894366197183096,-9.4546338028169,0.18991549295774648
0.2,-0.2896478873239437,-9.432211267605632,0.19397183098591553
0.20800000000000002,-0.11199999999999756,-8.597499999999997,0.7095000000000069
0.216,-0.03727586206896553,-8.513258620689655,1.0232672413793105
0.224,-0.05244827586206899,-8.55698275862069,1.0967155172413794
0.232,-0.06762068965517246,-8.600706896551724,1.1701637931034483
0.24,-0.08279310344827585,-8.644431034482759,1.2436120689655172
0.248,-0.09796551724137931,-8.688155172413794,1.3170603448275862
0.256,-0.11313793103448277,-8.731879310344828,1.3905086206896553
0.264,-0.12831034482758624,-8.775603448275861,1.4639568965517242
0.272,-0.1434827586206897,-8.819327586206896,1.5374051724137932
0.28,-0.15865517241379315,-8.86305172413793,1.6108534482758623
0.28800000000000003,-0.17382758620689662,-8.906775862068965,1.6843017241379312
0.296,-0.18899999999999997,-8.9505,1.7577499999999997
0.304,-0.2041724137931034,-8.994224137931035,1.8311982758620688
0.312,-0.21934482758620688,-9.03794827586207,1.9046465517241378
0.32,-0.23451724137931035,-9.081672413793104,1.9780948275862067
0.328,-0.58,-8.3,0.56
0.336,-0.7832399999999999,-7.74252,-0.6050400000000001
0.34400000000000003,-0.7275599999999999,-7.7138800000000005,-0.7517600000000002
0.352,-0.6718800000000003,-7.68524,-0.8984799999999994
0.36,-0.6162000000000001,-7.6566,-1.0451999999999995
0.368,-0.5605200000000001,-7.62796,-1.1919199999999996
0.376,-0.50484,-7.59932,-1.3386399999999998
0.384,-0.44915999999999995,-7.57068,-1.48536
0.392,-0.3934799999999999,-7.54204,-1.6320800000000002
0.4,-0.3377999999999998,-7.5134,-1.7788000000000004
0.40800000000000003,-0.2821199999999998,-7.48476,-1.9255200000000006
0.41600000000000004,-0.22643999999999975,-7.456119999999999,-2.0722400000000007
0.424,-0.17076000000000002,-7.42748,-2.2189599999999996
0.432,-0.7,-7.65,-3.5500000000000003
0.44,-1.1445760869565218,-8.00691304347826,-4.950423913043478
0.448,-1.0030978260869565,-7.965173913043477,-5.083902173913043
0.456,-0.8616195652173911,-7.9234347826086955,-5.2173804347826085
0.464,-0.7201413043478259,-7.881695652173913,-5.350858695652175
0.47200000000000003,-0.5786630434782605,-7.83995652173913,-5.48433695652174
0.48,-0.4371847826086962,-7.798217391304347,-5.617815217391304
0.488,-0.2957065217391308,-7.7564782608695655,-5.75129347826087
0.496,-0.15422826086956554,-7.714739130434783,-5.884771739130435
0.504,-0.012750000000000261,-7.673,-6.01825
0.512,0.12872826086956501,-7.631260869565217,-6.151728260869565
0.52,0.2702065217391305,-7.589521739130435,-6.285206521739131
0.528,0.10999999999999999,-7.945,-6.563
0.536,-0.10835714285714286,-8.543357142857143,-6.695714285714286
0.544,-0.11950000000000001,-8.7345,-6.6899999999999995
0.552,-0.13064285714285714,-8.925642857142858,-6.684285714285714
0.56,-0.16444117647058829,-9.027911764705884,-6.738823529411764
0.5680000000000001,-0.2662058823529414,-8.863558823529413,-6.974117647058824
0.5760000000000001,-0.3679705882352945,-8.699205882352942,-7.209411764705883
0.584,-0.4697352941176462,-8.534852941176473,-7.444705882352939
0.592,-0.5714999999999992,-8.370500000000002,-7.679999999999998
0.6,-0.6732647058823524,-8.20614705882353,-7.915294117647058
0.608,-0.7750294117647055,-8.04179411764706,-8.150588235294116
0.616,-0.8767941176470586,-7.8774411764705885,-8.385882352941175
0.624,-0.9785588235294117,-7.7130882352941175,-8.621176470588235
0.632,-1.470673469387755,-7.823948979591837,-9.13023469387755
0.64,-1.2680612244897955,-7.791540816326531,-9.212112244897959
0.648,-1.0654489795918363,-7.759132653061225,-9.293989795918367
0.656,-0.8628367346938768,-7.726724489795918,-9.375867346938776
0.664,-0.6602244897959174,-7.694316326530612,-9.457744897959182
0.672,-0.45761224489795804,-7.6619081632653065,-9.53962244897959
0.68,-0.25499999999999856,-7.6295,-9.6215
0.6880000000000001,-0.05238775510203908,-7.597091836734694,-9.703377551020408
0.6960000000000001,0.1502244897959204,-7.564683673469387,-9.785255102040816
0.704,0.352836734693877,-7.532275510204082,-9.867132653061223
0.712,0.5554489795918363,-7.4998673469387755,-9.949010204081631
0.72,0.7580612244897957,-7.467459183673469,-10.03088775510204
0.728,0.9606734693877552,-7.435051020408164,-10.112765306122448
0.736,0.9152,-6.9984,-10.0248
0.744,0.9374823529411764,-6.886988235294117,-9.736776470588234
0.752,0.9354117647058823,-6.690941176470588,-9.755882352941176
0.76,0.9333411764705882,-6.494894117647058,-9.774988235294117
0.768,0.9312705882352941,-6.298847058823529,-9.794094117647058
0.776,0.9292,-6.1027999999999984,-9.8132
0.784,0.9271294117647059,-5.906752941176469,-9.83230588235294
0.792,0.9250588235294117,-5.710705882352939,-9.851411764705883
0.8,0.9229882352941177,-5.51465882352941,-9.870517647058824
0.808,0.9209176470588235,-5.31861176470588,-9.889623529411764
0.8160000000000001,0.9188470588235295,-5.1225647058823505,-9.908729411764707
0.8240000000000001,0.9167764705882353,-4.926517647058821,-9.927835294117648
0.8320000000000001,0.7041285714285703,-4.828971428571425,-8.664185714285717
0.84,0.6251571428571429,-4.492742857142858,-8.83367142857143
0.848,0.5461857142857143,-4.156514285714286,-9.003157142857143
0.856,0.4672142857142857,-3.8202857142857143,-9.172642857142858
0.864,0.38824285714285717,-3.484057142857143,-9.342128571428571
0.872,0.3092714285714286,-3.1478285714285716,-9.511614285714286
0.88,0.23030000000000006,-2.8116000000000003,-9.6811
0.888,0.15132857142857148,-2.4753714285714286,-9.850585714285714
0.896,0.0723571428571429,-2.1391428571428572,-10.020071428571429
0.904,0.17,-2.150333333333333,-10.060333333333332
0.912,-0.16072173913043478,-1.6398521739130434,-9.820965217391304
0.92,-0.13560869565217387,-1.5312608695652172,-9.772826086956522
0.928,-0.11049565217391294,-1.4226695652173909,-9.724686956521738
0.936,-0.08538260869565203,-1.3140782608695645,-9.676547826086956
0.9440000000000001,-0.060269565217391116,-1.2054869565217383,-9.628408695652174
0.9520000000000001,-0.0351565217391302,-1.0968956521739122,-9.58026956521739
0.96,-0.010043478260869626,-0.9883043478260872,-9.532130434782609
0.968,0.015069565217391306,-0.879713043478261,-9.483991304347827
0.976,0.04018260869565221,-0.7711217391304347,-9.435852173913043
0.984,0.06529565217391312,-0.6625304347826084,-9.38771304347826
0.992,0.09040869565217405,-0.553939130434782,-9.339573913043479
1.0,0.11552173913043498,-0.44534782608695567,-9.291434782608695
1.008,0.14063478260869586,-0.3367565217391295,-9.243295652173913
1.016,0.1657478260869568,-0.22816521739130313,-9.19515652173913
1.024,0.19086086956521772,-0.11957391304347698,-9.147017391304347
1.032,0.31712,-0.12223999999999985,-8.72612
1.04,0.33760000000000007,0.14080000000000076,-8.7586
1.048,0.35808000000000006,0.40384000000000136,-8.791080000000001
1.056,0.3785600000000001,0.6668800000000019,-8.82356
1.064,0.3990400000000002,0.9299200000000025,-8.85604
1.072,0.4195200000000002,1.1929600000000031,-8.88852
1.08,0.4400000000000003,1.4560000000000037,-8.921000000000001
1.088,0.4604800000000003,1.7190400000000043,-8.95348
1.096,0.48096000000000033,1.982080000000005,-8.98596
1.104,0.5014400000000003,2.2451200000000053,-9.018440000000002
1.112,0.5219200000000004,2.508160000000006,-9.050920000000001
1.12,0.5424000000000004,2.7712000000000065,-9.083400000000001
1.1280000000000001,0.5628800000000005,3.034240000000007,-9.11588
1.1360000000000001,0.5936000000000012,2.619999999999996,-9.131466666666666
1.1440000000000001,0.6448000000000009,2.4599999999999973,-9.1464
1.1520000000000001,0.5686753246753248,2.896103896103896,-9.877714285714287
1.16,0.581142857142857,2.8857142857142857,-9.946285714285715
1.168,0.5936103896103895,2.8753246753246753,-10.014857142857142
1.176,0.606077922077922,2.864935064935065,-10.083428571428572
1.184,0.6185454545454544,2.8545454545454545,-10.152
1.192,0.6310129870129869,2.844155844155844,-10.220571428571429
1.2,0.6434805194805194,2.8337662337662337,-10.289142857142858
1.208,0.655948051948052,2.8233766233766233,-10.357714285714286
1.216,0.6684155844155845,2.812987012987013,-10.426285714285715
1.224,0.680883116883117,2.8025974025974025,-10.494857142857143
1.232,0.1984000000000006,3.0105263157894724,-10.391199999999998
1.24,0.15360000000000054,3.094736842105262,-10.544799999999999
1.248,0.10880000000000048,3.178947368421052,-10.698399999999998
1.256,0.06400000000000042,3.263157894736841,-10.851999999999999
1.264,0.019200000000000356,3.347368421052631,-11.005599999999998
1.272,-0.02559999999999968,3.43157894736842,-11.159199999999998
1.28,-0.07039999999999977,3.51578947368421,-11.3128
1.288,-0.11519999999999983,3.5999999999999996,-11.466399999999998
1.296,-0.1599999999999999,3.684210526315789,-11.62
1.304,-0.2047999999999999,3.7684210526315787,-11.773599999999998
1.312,-0.24959999999999996,3.852631578947368,-11.9272
1.32,-0.2944,3.9368421052631577,-12.0808
1.328,-0.484,4.2,-13.088
1.336,-0.48496874999999984,3.4886979166666623,-12.010354166666666
1.344,-0.47371874999999986,3.1506145833333288,-11.956520833333332
1.352,-0.4624687499999998,2.8125312499999953,-11.902687499999999
1.36,-0.45121874999999984,2.474447916666662,-11.848854166666666
1.368,-0.43996874999999985,2.1363645833333287,-11.795020833333332
1.3760000000000001,-0.4287187499999998,1.7982812499999952,-11.741187499999999
1.3840000000000001,-0.41746874999999983,1.4601979166666617,-11.687354166666665
1.3920000000000001,-0.40621874999999985,1.1221145833333286,-11.633520833333332
1.4000000000000001,-0.3949687499999998,0.7840312499999951,-11.579687499999999
1.408,-0.3837187500000001,0.4459479166666709,-11.525854166666667
1.416,-0.3724687500000001,0.10786458333333782,-11.472020833333334
1.424,-0.36121875000000014,-0.2302187499999957,-11.4181875
1.432,-0.09519230769230887,0.6888750000000005,-9.939528846153847
1.44,-0.008730769230770208,0.6478750000000004,-9.927759615384616
1.448,0.07773076923076845,0.6068750000000004,-9.915990384615386
1.456,0.16419230769230714,0.5658750000000002,-9.904221153846155
1.464,0.2506538461538458,0.5248750000000002,-9.892451923076925
1.472,0.33711538461538443,0.4838750000000001,-9.880682692307692
1.48,0.4235769230769231,0.442875,-9.868913461538462
1.488,0.5100384615384618,0.401875,-9.857144230769231
1.496,0.5965000000000004,0.3608749999999999,-9.845375
1.504,0.6829615384615391,0.3198749999999998,-9.83360576923077
1.512,0.7694230769230778,0.2788749999999997,-9.82183653846154
1.52,0.8558846153846164,0.23787499999999961,-9.810067307692307
1.528,0.9423461538461549,0.19687499999999958,-9.798298076923077
1.536,0.9738888888888846,0.10533333333332784,-9.916222222222235
1.544,0.621,-0.33999999999999997,-10.942
1.552,0.24553571428571339,-1.6458392857142898,-12.424660714285713
1.56,0.18239285714285625,-1.9399821428571469,-12.198517857142855
1.568,0.1192499999999991,-2.234125000000004,-11.972374999999998
1.576,0.05610714285714197,-2.528267857142861,-11.74623214285714
1.584,-0.0070357142857151445,-2.822410714285718,-11.520089285714283
1.592,-0.07017857142857231,-3.1165535714285753,-11.293946428571425
1.6,-0.13332142857142942,-3.4106964285714327,-11.067803571428568
1.608,-0.1,-2.7,-9.0
1.616,-0.11062500000000003,-2.7075,-8.9396875
1.624,-0.12125000000000004,-2.7150000000000003,-8.879375
1.6320000000000001,-0.13187500000000008,-2.7225,-8.8190625
1.6400000000000001,-0.14250000000000007,-2.73,-8.75875
1.6480000000000001,-0.1531250000000001,-2.7375000000000003,-8.698437499999999
1.6560000000000001,-0.16375000000000012,-2.745,-8.638124999999999
1.6640000000000001,-0.1743750000000001,-2.7525,-8.577812499999999
1.672,-0.18499999999999986,-2.76,-8.5175
1.68,-0.19562499999999988,-2.7675,-8.457187500000002
1.688,-0.20624999999999988,-2.775,-8.396875000000001
1.696,-0.21687499999999993,-2.7824999999999998,-8.336562500000001
1.704,-0.22749999999999992,-2.79,-8.276250000000001
1.712,-0.23812499999999995,-2.7975,-8.2159375
1.72,-0.24874999999999997,-2.8049999999999997,-8.155625
1.728,-0.259375,-2.8125,-8.0953125
1.736,-0.27,-2.82,-8.035
1.744,-0.6839999999999999,-2.732695652173913,-8.281521739130435
1.752,-0.6739999999999999,-2.7160869565217394,-8.252565217391304
1.76,-0.6639999999999999,-2.699478260869565,-8.223608695652173
1.768,-0.6539999999999999,-2.6828695652173913,-8.194652173913044
1.776,-0.6439999999999999,-2.6662608695652175,-8.165695652173913
1.784,-0.6339999999999999,-2.6496521739130436,-8.136739130434782
1.792,-0.6239999999999999,-2.6330434782608694,-8.107782608695652
1.8,-0.614,-2.6164347826086956,-8.078826086956521
1.808,-0.604,-2.5998260869565217,-8.04986956521739
1.816,-0.594,-2.583217391304348,-8.020913043478261
1.824,-0.584,-2.5666086956521736,-7.99195652173913
1.832,-0.574,-2.55,-7.963
1.84,-0.641,-2.64,-7.769
1.848,-0.3506170212765954,-2.6024468085106385,-8.022351063829788
1.856,-0.32559574468085073,-2.6276382978723407,-8.047287234042553
1.864,-0.300574468085106,-2.652829787234043,-8.07222340425532
1.872,-0.27555319148936136,-2.6780212765957447,-8.097159574468085
1.8800000000000001,-0.2505319148936167,-2.703212765957447,-8.12209574468085
1.8880000000000001,-0.225510638297872,-2.728404255319149,-8.147031914893617
1.8960000000000001,-0.2004893617021273,-2.7535957446808514,-8.171968085106382
1.9040000000000001,-0.17546808510638265,-2.7787872340425532,-8.196904255319149
1.9120000000000001,-0.15044680851063796,-2.8039787234042555,-8.221840425531914
1.92,-0.12542553191489397,-2.829170212765957,-8.246776595744679
1.928,-0.10040425531914932,-2.854361702127659,-8.271712765957446
1.936,-0.0753829787234046,-2.8795531914893613,-8.296648936170211
1.944,-0.24100000000000002,-3.94,-9.569
1.952,-0.8379259259259261,-4.486555555555556,-11.060370370370372
1.96,-0.6511604938271609,-4.3606296296296305,-11.15153086419753
1.968,-0.46439506172839573,-4.234703703703705,-11.242691358024691
1.976,-0.27762962962963056,-4.108777777777779,-11.333851851851852
1.984,-0.09086419753086539,-3.9828518518518528,-11.425012345679011
1.992,0.09590123456789978,-3.856925925925927,-11.516172839506172
2.0,0.28266666666666507,-3.731000000000001,-11.607333333333333
2.008,0.46943209876543013,-3.6050740740740754,-11.698493827160492
2.016,0.6561975308641954,-3.4791481481481497,-11.789654320987653
2.024,0.8429629629629605,-3.353222222222224,-11.880814814814812
2.032,1.998,-3.149,-9.581
2.04,1.8189166666666667,-3.0104166666666665,-9.609
2.048,1.6398333333333333,-2.8718333333333335,-9.637
2.056,1.46075,-2.73325,-9.665
2.064,1.2816666666666667,-2.594666666666667,-9.693
2.072,1.1025833333333335,-2.4560833333333334,-9.721
2.08,0.9235,-2.3175,-9.748999999999999
2.088,0.7444166666666667,-2.178916666666667,-9.777
2.096,0.5653333333333332,-2.0403333333333333,-9.805
2.104,0.38625,-1.90175,-9.833
2.112,0.20716666666666672,-1.7631666666666668,-9.861
2.12,0.02808333333333346,-1.6245833333333335,-9.889
2.128,-0.15100000000000002,-1.4860000000000002,-9.917
2.136,-0.261,-2.924,-12.565
2.144,0.14261702127659678,-2.5699361702127557,-12.26002127659574
2.152,0.18210638297872433,-2.173851063829778,-12.1093829787234
2.16,0.2215957446808519,-1.7777659574468,-11.95874468085106
2.168,0.2610851063829795,-1.3816808510638223,-11.80810638297872
2.176,0.300574468085107,-0.9855957446808445,-11.65746808510638
2.184,0.3400638297872346,-0.5895106382978668,-11.50682978723404
2.192,0.3795531914893622,-0.19342553191488898,-11.3561914893617
2.2,0.41904255319148975,0.2026595744680888,-11.20555319148936
2.208,0.4585319148936173,0.5987446808510666,-11.05491489361702
2.216,0.49802127659574486,0.9948297872340444,-10.90427659574468
2.224,0.5375106382978725,1.3909148936170217,-10.753638297872339
2.232,0.5770000000000001,1.787,-10.603
2.24,0.95,1.958,-8.633
2.248,0.8645376344086018,2.4291397849462393,-7.87632258064516
2.2560000000000002,0.8365806451612898,2.593870967741938,-7.8275483870967735
2.2640000000000002,0.808623655913978,2.7586021505376372,-7.778774193548386
2.2720000000000002,0.7806666666666662,2.9233333333333364,-7.729999999999999
2.2800000000000002,0.7527096774193542,3.0880645161290357,-7.681225806451612
2.2880000000000003,0.7247526881720424,3.252795698924735,-7.632451612903225
2.2960000000000003,0.6967956989247306,3.417526881720434,-7.583677419354838
2.3040000000000003,0.6688387096774187,3.5822580645161333,-7.534903225806451
2.312,0.6408817204301084,3.7469892473118227,-7.4861290322580665
2.32,0.6129247311827966,3.911720430107522,-7.437354838709679
2.328,0.5849677419354846,4.076451612903221,-7.388580645161292
2.336,0.52,4.1,-7.86
2.344,0.5160000000000001,4.0055555555555555,-7.893555555555555
2.352,0.5096,4.014444444444444,-7.947244444444444
2.36,0.5032000000000001,4.023333333333333,-8.000933333333334
2.368,0.4968,4.032222222222222,-8.054622222222223
2.376,0.49040000000000006,4.041111111111111,-8.108311111111112
2.384,0.484,4.05,-8.162
2.392,0.4776,4.058888888888888,-8.21568888888889
2.4,0.47119999999999995,4.067777777777778,-8.269377777777779
2.408,0.4648,4.076666666666666,-8.323066666666668
2.416,0.4583999999999999,4.085555555555556,-8.376755555555556
2.424,0.45199999999999996,4.094444444444444,-8.430444444444445
2.432,0.015999999999999986,4.6,-9.588000000000001
2.44,-0.1478297872340429,4.829787234042554,-10.123106382978724
2.448,-0.17506382978723428,4.863829787234042,-10.18608510638298
2.456,-0.20229787234042573,4.897872340425532,-10.249063829787234
2.464,-0.22953191489361713,4.931914893617021,-10.312042553191489
2.472,-0.2567659574468086,4.965957446808511,-10.375021276595744
2.48,-0.28400000000000003,5.0,-10.437999999999999
2.488,-0.3112340425531914,5.034042553191489,-10.500978723404256
2.496,-0.3384680851063828,5.068085106382979,-10.56395744680851
2.504,-0.36570212765957427,5.102127659574468,-10.626936170212765
2.512,-0.3929361702127657,5.136170212765958,-10.68991489361702
2.52,-0.4201702127659571,5.170212765957446,-10.752893617021275
2.528,-0.53399999999999,5.249999999999995,-10.937999999999985
2.536,-1.38,5.7,-13.66
2.544,-0.9808089887640449,4.991011235955056,-12.243191011235956
2.552,-0.9664269662921348,4.973033707865168,-12.097573033707866
2.56,-0.9520449438202246,4.955056179775281,-11.951955056179775
2.568,-0.9376629213483145,4.937078651685393,-11.806337078651685
2.576,-0.9232808988764044,4.919101123595506,-11.660719101123595
2.584,-0.9088988764044943,4.901123595505617,-11.515101123595505
2.592,-0.8945168539325841,4.88314606741573,-11.369483146067415
2.6,-0.880134831460674,4.865168539325842,-11.223865168539325
2.608,-0.8657528089887638,4.847191011235955,-11.078247191011235
2.616,-0.8513707865168537,4.829213483146067,-10.932629213483144
2.624,-0.8369887640449436,4.811235955056179,-10.787011235955054
2.632,-0.736,4.9,-8.952
2.64,-1.0589090909091006,5.045454545454549,-9.539636363636381
2.648,-1.182684210526316,4.8566842105263,-9.972210526315804
2.656,-1.1869789473684211,4.467378947368405,-10.311747368421067
2.664,-1.1912736842105265,4.078073684210511,-10.65128421052633
2.672,-1.1955684210526318,3.688768421052617,-10.990821052631592
2.68,-1.199863157894737,3.2994631578947224,-11.330357894736855
2.688,-1.2041578947368423,2.9101578947368285,-11.669894736842117
2.696,-1.2084526315789474,2.520852631578934,-12.00943157894738
2.704,-1.2127473684210528,2.13154736842104,-12.348968421052643
2.712,-1.2170421052631581,1.7422421052631458,-12.688505263157905
2.72,-1.2213368421052633,1.3529368421052514,-13.028042105263168
2.728,-1.2256315789473686,0.9636315789473571,-13.36757894736843
2.736,-1.229926315789474,0.5743263157894631,-13.707115789473693
2.744,-0.6663333333333223,-0.3999999999999954,-12.533333333333294
2.7520000000000002,-0.4887926829268273,-0.5516829268292717,-12.087146341463411
2.7600000000000002,-0.37084146341463187,-0.7604634146341502,-11.870170731707313
2.7680000000000002,-0.2528902439024364,-0.9692439024390288,-11.653195121951214
2.7760000000000002,-0.13493902439024102,-1.1780243902439074,-11.436219512195116
2.7840000000000003,-0.01698780487804552,-1.386804878048786,-11.219243902439018
2.7920000000000003,0.10096341463414993,-1.5955853658536645,-11.00226829268292
2.8000000000000003,0.21891463414634538,-1.8043658536585432,-10.785292682926823
2.8080000000000003,0.3368658536585407,-2.013146341463422,-10.568317073170725
2.816,0.4548170731707296,-2.2219268292682886,-10.351341463414638
2.824,0.5727682926829251,-2.4307073170731677,-10.13436585365854
2.832,0.5695000000000029,-2.1098333333333565,-9.372166666666708
2.84,-0.10806249999999445,-2.8781249999999985,-8.049781250000004
2.848,-0.24689583333332843,-2.9211249999999986,-7.958531250000003
2.856,-0.3857291666666624,-2.964124999999999,-7.867281250000002
2.864,-0.5245624999999964,-3.007124999999999,-7.776031250000002
2.872,-0.6633958333333304,-3.050124999999999,-7.684781250000001
2.88,-0.8022291666666644,-3.0931249999999992,-7.593531250000002
2.888,-0.9410624999999984,-3.136125,-7.502281250000001
2.896,-1.0798958333333324,-3.179125,-7.411031250000001
2.904,-1.2187291666666664,-3.222125,-7.31978125
2.912,-1.3575625000000002,-3.2651250000000003,-7.22853125
2.92,-1.4963958333333343,-3.3081250000000004,-7.137281249999999
2.928,-1.6352291666666683,-3.3511250000000006,-7.046031249999999
2.936,-1.5855000000000001,-3.1645,-6.53
2.944,-1.6234374999999999,-2.949187500000001,-6.467968749999997
2.952,-1.6306874999999998,-2.905437500000001,-6.618593749999998
2.96,-1.6379375,-2.8616875000000004,-6.7692187499999985
2.968,-1.6451875,-2.8179375,-6.91984375
2.976,-1.6524375,-2.7741875,-7.070468750000001
2.984,-1.6596875,-2.7304375,-7.221093750000001
2.992,-1.6669375000000002,-2.6866874999999992,-7.371718750000003
3.0,-1.6741875000000002,-2.642937499999999,-7.522343750000004
3.008,-1.788,-2.716,-7.58
3.016,-1.6250909090909107,-2.5938181818181834,-7.550909090909092
3.024,-1.4071067961165094,-2.8370097087378707,-7.710388349514566
3.032,-1.5635339805825286,-3.0810485436893265,-7.831941747572818
3.04,-1.7199611650485478,-3.3250873786407826,-7.953495145631071
3.048,-1.876388349514567,-3.569126213592239,-8.075048543689324
3.056,-2.0328155339805862,-3.813165048543695,-8.196601941747575
3.064,-2.1892427184466055,-4.057203883495151,-8.318155339805827
3.072,-2.3456699029126247,-4.301242718446607,-8.43970873786408
3.08,-2.502097087378644,-4.5452815533980635,-8.561262135922332
3.088,-2.658524271844663,-4.78932038834952,-8.682815533980584
3.096,-2.8149514563106823,-5.033359223300975,-8.804368932038837
3.104,-2.971378640776702,-5.277398058252432,-8.92592233009709
3.112,-3.127805825242721,-5.521436893203887,-9.04747572815534
3.12,-3.2842330097087404,-5.7654757281553435,-9.169029126213593
3.128,-4.198499999999997,-6.188754901960784,-10.022088235294115
3.136,-4.114499999999996,-6.170794117647058,-9.982794117647057
3.144,-4.030499999999996,-6.152833333333333,-9.943499999999998
3.152,-3.946499999999997,-6.134872549019607,-9.904205882352938
3.16,-3.862499999999997,-6.116911764705882,-9.86491176470588
3.168,-3.778499999999997,-6.098950980392156,-9.825617647058822
3.176,-3.6944999999999975,-6.080990196078431,-9.786323529411764
3.184,-3.6104999999999974,-6.063029411764705,-9.747029411764704
3.192,-3.5264999999999977,-6.04506862745098,-9.707735294117645
3.2,-3.442499999999998,-6.027107843137254,-9.668441176470587
3.208,-3.3584999999999985,-6.009147058823529,-9.629147058823529
3.216,-3.2744999999999984,-5.991186274509803,-9.589852941176469
3.224,-3.190499999999999,-5.973225490196078,-9.55055882352941
3.232,-1.2009999999999967,-6.273999999999995,-8.608249999999888
3.24,-0.5201818181818164,-4.949954545454543,-10.609772727272732
3.248,-0.45690909090908916,-4.845772727272724,-10.816863636363642
3.2560000000000002,-0.3936363636363619,-4.741590909090906,-11.02395454545455
3.2640000000000002,-0.33036363636363464,-4.637409090909088,-11.23104545454546
3.2720000000000002,-0.2670909090909073,-4.53322727272727,-11.438136363636369
3.2800000000000002,-0.20381818181818007,-4.429045454545451,-11.64522727272728
3.2880000000000003,-0.14054545454545275,-4.3248636363636335,-11.852318181818188
3.2960000000000003,-0.0772727272727255,-4.2206818181818155,-12.059409090909096
3.3040000000000003,-0.013999999999998236,-4.116499999999997,-12.266500000000006
3.3120000000000003,0.04927272727272902,-4.012318181818179,-12.473590909090916
3.3200000000000003,0.11254545454545639,-3.908136363636361,-12.680681818181824
3.3280000000000003,1.0360000000000649,-4.468000000000047,-12.791999999999996
3.336,1.629478260869569,-2.9927391304347926,-10.186434782608698
3.344,1.5320869565217425,-2.752043478260878,-10.16626086956522
3.352,1.4346956521739158,-2.511347826086964,-10.14608695652174
3.36,1.3373043478260893,-2.27065217391305,-10.125913043478262
3.368,1.2399130434782628,-2.0299565217391358,-10.105739130434783
3.376,1.1425217391304363,-1.7892608695652212,-10.085565217391306
3.384,1.0451304347826098,-1.5485652173913071,-10.065391304347827
3.392,0.9477391304347832,-1.3078695652173928,-10.045217391304348
3.4,0.8503478260869566,-1.0671739130434785,-10.02504347826087
3.408,0.7529565217391301,-0.8264782608695644,-10.00486956521739
3.416,0.6555652173913036,-0.5857826086956504,-9.984695652173913
3.424,0.5581739130434771,-0.3450869565217358,-9.964521739130435
3.432,0.9539999999999963,0.4400000000000046,-9.663
3.44,0.6873333333333296,0.7733333333333379,-9.729666666666667
3.448,0.654,1.1261111111111046,-9.815777777777775
3.456,0.6298421052631586,1.482236842105255,-9.784789473684212
3.464,0.597631578947369,1.838552631578941,-9.713842105263158
3.472,0.5654210526315794,2.1948684210526275,-9.642894736842106
3.48,0.5332105263157897,2.551184210526314,-9.571947368421052
3.488,0.501,2.9075,-9.501
3.496,0.4687894736842103,3.2638157894736866,-9.430052631578947
3.504,0.4365789473684207,3.6201315789473725,-9.359105263157893
3.512,0.40436842105263104,3.9764473684210593,-9.288157894736841
3.52,0.37215789473684135,4.332763157894745,-9.217210526315787
3.528,0.41700000000000764,4.6,-9.105999999999993
3.536,0.364,4.8,-8.752
3.544,-0.20129545454545628,5.256863636363638,-9.214886363636364
3.552,-0.3262045454545472,5.436136363636366,-9.181613636363636
3.56,-0.4511136363636381,5.615409090909093,-9.148340909090908
3.568,-0.576022727272729,5.794681818181821,-9.115068181818181
3.576,-0.7009318181818198,5.973954545454548,-9.081795454545453
3.584,-0.8258409090909108,6.153227272727275,-9.048522727272728
3.592,-0.9507500000000016,6.332500000000002,-9.01525
3.6,-1.0756590909090926,6.51177272727273,-8.981977272727272
3.608,-1.2005681818181835,6.691045454545457,-8.948704545454545
3.616,-1.3254772727272746,6.870318181818185,-8.915431818181817
3.624,-1.4503863636363654,7.049590909090911,-8.88215909090909
3.632,-2.3656666666666775,8.250333333333344,-8.634666666666691
3.64,-2.7401874999999998,8.5549375,-9.5374375
3.648,-2.8945624999999997,8.6188125,-10.0483125
3.656,-3.0489375,8.6826875,-10.5591875
3.664,-3.2033125,8.7465625,-11.0700625
3.672,-3.3576875,8.8104375,-11.5809375
3.68,-3.5120625,8.8743125,-12.0918125
3.688,-3.6664375000000002,8.9381875,-12.6026875
3.696,-3.8208125,9.002062500000001,-13.1135625
3.704,-1.5699999999999998,7.005,-8.54
3.712,-1.1871034482758613,6.703896551724137,-9.681034482758623
3.72,-1.1680689655172407,6.682931034482757,-9.754689655172417
3.728,-1.1490344827586199,6.661965517241378,-9.828344827586209
3.736,-1.1299999999999992,6.640999999999999,-9.902000000000003
3.744,-1.1109655172413786,6.620034482758619,-9.975655172413795
3.7520000000000002,-1.091931034482758,6.59906896551724,-10.049310344827589
3.7600000000000002,-1.0728965517241371,6.578103448275861,-10.122965517241383
3.7680000000000002,-1.0538620689655165,6.5571379310344815,-10.196620689655175
3.7760000000000002,-1.0348275862068959,6.5361724137931025,-10.270275862068969
3.7840000000000003,-1.0157931034482752,6.515206896551724,-10.343931034482761
3.7920000000000003,-0.9967586206896545,6.494241379310344,-10.417586206896555
3.8000000000000003,-0.9777241379310337,6.473275862068965,-10.491241379310347
3.8080000000000003,-0.9586896551724131,6.452310344827586,-10.564896551724141
3.8160000000000003,-0.9396551724137924,6.431344827586206,-10.638551724137933
3.8240000000000003,-0.8528461538461299,6.420846153846156,-10.650384615384597
3.8320000000000003,-0.29161538461535597,6.483615384615388,-10.229461538461516
3.84,0.4546590909090865,6.630477272727275,-9.949772727272723
3.848,0.6132954545454501,6.544386363636366,-10.068863636363632
3.856,0.7719318181818138,6.458295454545457,-10.187954545454541
3.864,0.9305681818181775,6.372204545454548,-10.30704545454545
3.872,1.0892045454545412,6.2861136363636385,-10.42613636363636
3.88,1.2478409090909048,6.20002272727273,-10.545227272727269
3.888,1.4064772727272683,6.113931818181821,-10.664318181818178
3.896,1.5651136363636322,6.027840909090911,-10.783409090909087
3.904,1.7237499999999957,5.9417500000000025,-10.902499999999996
3.912,1.8823863636363594,5.855659090909093,-11.021590909090905
3.92,2.041022727272723,5.769568181818184,-11.140681818181815
3.928,1.908,7.099,-12.294
3.936,1.964296703296701,8.376648351648361,-13.45978021978022
3.944,2.150670329670328,7.733835164835171,-13.578021978021978
3.952,2.337043956043955,7.091021978021982,-13.696263736263736
3.96,2.523417582417582,6.448208791208793,-13.814505494505495
3.968,2.7097912087912093,5.805395604395604,-13.932747252747253
3.976,2.896164835164836,5.162582417582414,-14.050989010989012
3.984,3.082538461538463,4.519769230769225,-14.16923076923077
3.992,3.2689120879120903,3.876956043956036,-14.287472527472529
4.0,3.4552857142857176,3.2341428571428468,-14.405714285714287
4.008,3.6416593406593445,2.5913296703296576,-14.523956043956046
4.016,3.8280329670329714,1.9485164835164683,-14.642197802197805
4.024,4.014406593406599,1.3057032967032782,-14.760439560439563
4.032,-0.5260000000000001,0.307,-8.857
4.04,-0.4968695652173912,0.19560869565217337,-8.797260869565216
4.048,-0.4677391304347823,0.08421739130434674,-8.737521739130434
4.056,-0.43860869565217353,-0.02717391304347988,-8.67778260869565
4.064,-0.4094782608695647,-0.1385652173913065,-8.618043478260867
4.072,-0.38034782608695583,-0.24995652173913313,-8.558304347826086
4.08,-0.351217391304347,-0.36134782608695976,-8.498565217391302
4.088,-0.32208695652173813,-0.4727391304347864,-8.438826086956519
4.096,-0.29295652173912934,-0.5841304347826131,-8.379086956521736
4.104,-0.2638260869565205,-0.6955217391304396,-8.319347826086954
4.112,-0.23469565217391164,-0.8069130434782663,-8.25960869565217
4.12,-0.2055652173913028,-0.9183043478260928,-8.199869565217387
4.128,0.857,-3.042,-5.719
4.136,0.11446808510638383,-2.893776595744681,-1.7686489361702156
4.144,0.025617021276595958,-2.8438191489361704,-1.467287234042554
4.152,-0.0632340425531919,-2.7938617021276593,-1.1659255319148922
4.16,-0.15208510638297976,-2.743904255319148,-0.8645638297872305
4.168,-0.24093617021276767,-2.6939468085106375,-0.5632021276595687
4.176,-0.3297872340425555,-2.6439893617021264,-0.2618404255319069
4.184,-0.4186382978723434,-2.5940319148936153,0.039521276595754884
4.192,-0.5074893617021312,-2.544074468085104,0.34088297872341644
4.2,-0.5963404255319191,-2.4941170212765935,0.6422446808510782
4.208,-0.6851914893617069,-2.4441595744680824,0.94360638297874
4.216,-0.7740425531914948,-2.3942021276595717,1.2449680851064018
4.224,-0.8628936170212828,-2.3442446808510606,1.5463297872340636
4.232,0.42354545454554426,-1.5660909090908557,2.4551818181818783
4.24,-0.45499999999999996,-0.382,2.418
4.248,-0.5234235294117648,-0.268870588235294,2.4978117647058826
4.256,-0.5918470588235296,-0.15574117647058797,2.577623529411765
4.264,-0.6602705882352944,-0.04261176470588196,2.6574352941176476
4.272,-0.7286941176470592,0.07051764705882407,2.73724705882353
4.28,-0.7971176470588239,0.18364705882353005,2.8170588235294125
4.288,-0.8655411764705887,0.2967764705882361,2.896870588235295
4.296,-0.9339647058823535,0.4099058823529421,2.976682352941177
4.304,-1.0023882352941182,0.5230352941176482,3.05649411764706
4.312,-1.070811764705883,0.6361647058823542,3.136305882352942
4.32,-1.1392352941176478,0.7492941176470601,3.2161176470588244
4.328,0.06600000000000006,2.951,2.424
4.336,-0.49,2.906,4.512
4.344,-0.49974999999999997,2.8973750000000003,4.51375
4.352,-0.5095,2.88875,4.515499999999999
4.36,-0.51925,2.880125,4.51725
4.368,-0.5289999999999999,2.8715,4.519
4.376,-0.53875,2.8628750000000003,4.52075
4.384,-0.5485,2.8542500000000004,4.5225
4.392,-0.5582499999999999,2.845625,4.524249999999999
4.4,-0.568,2.837,4.526
4.408,-0.26690909090906967,1.171545454545337,2.779818181818058
4.416,-7.2969357798165,-1.9678073394495597,-3.4576422018348922
4.424,-7.132678899082555,-2.187036697247725,-3.812211009174342
4.432,-6.96842201834861,-2.4062660550458905,-4.166779816513792
4.44,-6.804165137614665,-2.6254954128440557,-4.521348623853242
4.448,-6.6399082568807195,-2.8447247706422214,-4.875917431192692
4.456,-6.475651376146774,-3.0639541284403866,-5.230486238532142
4.464,-6.311394495412829,-3.283183486238552,-5.5850550458715915
4.472,-6.1471376146788845,-3.5024128440367175,-5.9396238532110415
4.48,-5.982880733944939,-3.7216422018348827,-6.294192660550491
4.488,-5.818623853210994,-3.940871559633048,-6.6487614678899405
4.496,-5.654366972477049,-4.160100917431214,-7.003330275229391
4.5040000000000004,-5.490110091743103,-4.379330275229378,-7.35789908256884
4.5120000000000005,-5.325853211009159,-4.598559633027544,-7.712467889908291
4.5200000000000005,-5.161596330275213,-4.81778899082571,-8.06703669724774
4.5280000000000005,-14.785439999999985,-1.2209400000000505,-11.981140000000114
4.5360000000000005,-14.595199999999986,-1.8367000000000477,-13.373700000000108
4.5440000000000005,-14.404959999999987,-2.4524600000000447,-14.766260000000102
4.5520000000000005,-14.214719999999987,-3.068220000000042,-16.158820000000095
4.5600000000000005,-14.024479999999988,-3.683980000000039,-17.551380000000087
4.5680000000000005,-13.834239999999989,-4.299740000000036,-18.943940000000083
4.5760000000000005,-13.64399999999999,-4.915500000000034,-20.33650000000008
4.5840000000000005,-13.45375999999999,-5.531260000000032,-21.72906000000007
4.5920000000000005,-13.26351999999999,-6.147020000000029,-23.121620000000064
4.6000000000000005,-13.073279999999992,-6.762780000000026,-24.51418000000006
4.6080000000000005,-12.883039999999992,-7.378540000000023,-25.906740000000053
4.616,-12.692800000000016,-7.994299999999952,-27.299299999999892
4.624,-12.502560000000017,-8.61005999999995,-28.691859999999885
4.632,1.8519090909104463,-35.07999999999961,-9.036727272728605
4.64,-13.257333333335986,-32.472000000004876,-7.053999999989772
4.648,4.4154137931034265,-17.023241379310477,-42.79387356321868
4.656,4.824241379310324,-14.537724137931157,-37.411620689655436
4.664,5.233068965517223,-12.052206896551837,-32.029367816092204
4.672,5.641896551724121,-9.566689655172517,-26.64711494252896
4.68,6.050724137931018,-7.0811724137931975,-21.264862068965723
4.688,6.459551724137917,-4.595655172413878,-15.882609195402484
4.696,6.868379310344816,-2.110137931034558,-10.500356321839249
4.704,7.2772068965517125,0.375379310344762,-5.11810344827601
4.712,7.686034482758611,2.860896551724082,0.2641494252872292
4.72,8.09486206896551,5.346413793103402,5.646402298850468
4.728,8.503689655172408,7.8319310344827215,11.028655172413707
4.736,-6.22499999999895,-3.2382499999975813,-2.767249999997805
4.744,4.857047058823493,-24.48274117647064,-18.247635294117647
4.752,5.513141176470553,-23.542223529411814,-18.24490588235294
4.76,6.1692352941176125,-22.60170588235299,-18.242176470588234
4.768,6.825329411764672,-21.661188235294166,-18.23944705882353
4.776,7.481423529411732,-20.72067058823534,-18.23671764705882
4.784,8.137517647058791,-19.780152941176517,-18.233988235294117
4.792,8.793611764705851,-18.83963529411769,-18.231258823529412
4.8,9.44970588235291,-17.899117647058866,-18.228529411764704
4.808,10.10579999999997,-16.958600000000043,-18.2258
4.816,10.761894117647032,-16.018082352941217,-18.22307058823529
4.824,11.41798823529409,-15.077564705882393,-18.220341176470587
4.832,-8.904870967741989,-4.490225806451529,1.0534408602150906
4.84,-8.143838709677471,-5.692032258064434,0.5209677419355201
4.848,-7.382806451612954,-6.893838709677339,-0.011505376344050466
4.856,-6.621774193548437,-8.095645161290243,-0.543978494623621
4.864,-5.8607419354839205,-9.29745161290315,-1.0764516129031918
4.872,-5.099709677419403,-10.499258064516052,-1.6089247311827624
4.88,-4.3386774193548865,-11.701064516128959,-2.141397849462333
4.888,-3.577645161290369,-12.902870967741862,-2.6738709677419035
4.896,-2.8166129032258524,-14.104677419354767,-3.206344086021474
4.904,-2.055580645161335,-15.306483870967671,-3.7388172043010446
4.912,-1.2945483870968184,-16.508290322580578,-4.271290322580615
4.92,-0.5335161290323018,-17.71009677419348,-4.803763440860186
4.928,-6.506,-18.621,-4.04
4.936,-1.9588315789473614,-14.058821052631565,-0.3451578947368394
4.944,-1.6652736842105211,-13.475915789473675,-0.22936842105262953
4.952,-1.3717157894736807,-12.893010526315782,-0.11357894736841967
4.96,-1.0781578947368402,-12.310105263157892,0.0022105263157901622
4.968,-0.7845999999999997,-11.7272,0.11800000000000005
4.976,-0.4910421052631595,-11.14429473684211,0.23378947368420994
4.984,-0.19748421052631904,-10.561389473684217,0.3495789473684197
4.992,0.0960736842105212,-9.978484210526325,0.4653684210526296
5.0,0.38963157894736167,-9.395578947368435,0.5811578947368394
5.008,0.6831894736842021,-8.812673684210543,0.6969473684210494
5.016,0.9767473684210426,-8.22976842105265,0.8127368421052592
5.024,1.270305263157883,-7.64686315789476,0.928526315789469
5.032,-2.9314000000001883,-1.3217999999998242,-0.42960000000022536
5.04,-5.295465909090904,-1.4781022727272786,-5.984965909090915
5.048,-4.891374999999995,-1.902375000000006,-6.424875000000006
5.056,-4.487284090909085,-2.326647727272733,-6.864784090909097
5.064,-4.083193181818176,-2.75092045454546,-7.304693181818188
5.072,-3.679102272727267,-3.1751931818181873,-7.744602272727279
5.08,-3.275011363636358,-3.599465909090915,-8.18451136363637
5.088,-2.8709204545454488,-4.0237386363636425,-8.624420454545461
5.096,-2.4668295454545395,-4.448011363636369,-9.064329545454552
5.104,-2.06273863636363,-4.872284090909096,-9.504238636363644
5.112,-1.6586477272727214,-5.2965568181818234,-9.944147727272734
5.12,-1.254556818181812,-5.720829545454551,-10.384056818181826
5.128,1.588333333333374,-7.781999999999654,-10.084666666666298
5.136,1.5375652173913126,-4.358086956521743,-4.928304347826086
5.144,1.6906956521739205,-4.426260869565221,-4.900913043478259
5.152,1.8438260869565284,-4.494434782608699,-4.8735217391304335
5.16,1.9969565217391363,-4.562608695652177,-4.846130434782608
5.168,2.1500869565217444,-4.630782608695654,-4.818739130434782
5.176,2.303217391304352,-4.698956521739132,-4.791347826086955
5.184,2.4563478260869602,-4.76713043478261,-4.7639565217391295
5.192,2.609478260869568,-4.835304347826088,-4.736565217391304
5.2,2.762608695652176,-4.903478260869566,-4.709173913043478
5.208,2.915739130434784,-4.971652173913044,-4.681782608695652
5.216,3.0688695652173923,-5.039826086956522,-4.6543913043478256
5.224,3.222,-5.108,-4.627
5.232,2.2964285714284562,-7.951142857143342,-19.125142857143523
5.24,0.0446923076922999,-4.562901098901087,-10.721263736263724
5.248,-0.24638461538462286,-4.13476923076922,-10.305615384615374
5.256,-0.5374615384615455,-3.7066373626373528,-9.889967032967022
5.264,-0.8285384615384682,-3.278505494505485,-9.474318681318671
5.272,-1.1196153846153911,-2.8503736263736172,-9.05867032967032
5.28,-1.410692307692314,-2.4222417582417495,-8.64302197802197
5.288,-1.7017692307692367,-1.9941098901098822,-8.227373626373618
5.296,-1.9928461538461595,-1.5659780219780144,-7.8117252747252675
5.304,-2.283923076923082,-1.1378461538461466,-7.396076923076915
5.312,-2.5750000000000046,-0.7097142857142789,-6.980428571428565
5.32,-2.8660769230769274,-0.28158241758241154,-6.564780219780213
5.328,-0.707999999999917,-0.024500000000156397,-4.933999999999888
5.336,0.6166315789473722,-2.909842105263172,-4.017473684210537
5.344,0.940842105263175,-4.144789473684275,-4.960631578947418
5.352,1.2546486486486714,-5.164162162162192,-5.741621621621646
5.36,1.5372432432432634,-5.536810810810837,-6.036108108108129
5.368,1.8198378378378557,-5.909459459459483,-6.330594594594613
5.376,2.1024324324324475,-6.282108108108128,-6.625081081081097
5.384,2.3850270270270397,-6.654756756756774,-6.919567567567581
5.392,2.667621621621632,-7.027405405405419,-7.214054054054064
5.4,2.9502162162162238,-7.400054054054065,-7.508540540540548
5.408,3.2328108108108156,-7.77270270270271,-7.803027027027031
5.416,3.5154054054054082,-8.145351351351355,-8.097513513513515
5.424,3.798,-8.518,-8.392
5.432,-1.0815106382978703,-5.268808510638291,-8.627095744680844
5.44,-1.029595744680849,-5.099276595744675,-8.451861702127651
5.448,-0.977680851063828,-4.929744680851058,-8.27662765957446
5.456,-0.9257659574468068,-4.760212765957441,-8.10139361702127
5.464,-0.8738510638297856,-4.590680851063825,-7.926159574468079
5.472,-0.8219361702127645,-4.421148936170208,-7.750925531914888
5.48,-0.7700212765957433,-4.251617021276591,-7.575691489361697
5.488,-0.7181063829787222,-4.082085106382975,-7.400457446808506
5.496,-0.6661914893617009,-3.912553191489358,-7.225223404255315
5.5040000000000004,-0.6142765957446799,-3.7430212765957416,-7.049989361702124
5.5120000000000005,-0.5623617021276587,-3.5734893617021246,-6.8747553191489335
5.5200000000000005,-0.5104468085106375,-3.403957446808508,-6.699521276595742
5.5280000000000005,-0.15566666666666568,-3.635666666666786,-6.310000000000281
5.5360000000000005,0.048250000000007315,-4.763500000000012,-8.543750000000014
5.5440000000000005,0.12112087912087945,-4.905747252747255,-8.659175824175824
5.5520000000000005,0.13061538461538502,-4.952076923076925,-8.662076923076922
5.5600000000000005,0.1401098901098906,-4.998406593406596,-8.664978021978023
5.5680000000000005,0.14960439560439617,-5.044736263736267,-8.667879120879121
5.5760000000000005,0.15909890109890176,-5.091065934065937,-8.67078021978022
5.5840000000000005,0.16859340659340732,-5.137395604395608,-8.673681318681318
5.5920000000000005,0.17808791208791291,-5.183725274725279,-8.676582417582418
5.6000000000000005,0.18758241758241848,-5.230054945054949,-8.679483516483517
5.6080000000000005,0.19707692307692404,-5.27638461538462,-8.682384615384615
5.6160000000000005,0.20657142857142963,-5.322714285714291,-8.685285714285714
5.6240000000000006,0.21606593406593522,-5.369043956043962,-8.688186813186814
5.632,0.7101999999999996,-5.768199999999989,-8.760400000000015
5.64,0.727,-6.261,-8.106
5.648,0.8078795180722902,-6.4543012048192745,-8.38290361445783
5.656,0.7943855421686755,-6.480036144578311,-8.396108433734938
5.664,0.780891566265061,-6.505771084337348,-8.409313253012046
5.672,0.7673975903614464,-6.531506024096384,-8.422518072289156
5.68,0.7539036144578318,-6.5572409638554205,-8.435722891566265
5.688,0.7404096385542173,-6.582975903614457,-8.448927710843373
5.696,0.7269156626506027,-6.608710843373493,-8.462132530120481
5.704,0.7134216867469881,-6.63444578313253,-8.47533734939759
5.712,0.6999277108433736,-6.660180722891566,-8.488542168674698
5.72,0.6864337349397589,-6.685915662650602,-8.501746987951806
5.728,0.6312000000000055,-6.460800000000028,-8.144000000000043
5.736,0.3108750000000321,-6.128625000000019,-7.71775000000002
5.744,-0.07462499999996797,-5.900125000000019,-7.47475000000002
5.752,-0.4145789473684214,-5.655157894736843,-7.745999999999999
5.76,-0.40773684210526345,-5.6354736842105275,-7.783999999999998
5.768,-0.4008947368421055,-5.615789473684211,-7.821999999999998
5.776,-0.3940526315789476,-5.596105263157895,-7.8599999999999985
5.784,-0.38721052631578967,-5.57642105263158,-7.897999999999999
5.792,-0.38036842105263174,-5.556736842105264,-7.935999999999999
5.8,-0.3735263157894738,-5.5370526315789474,-7.973999999999999
5.808,-0.36668421052631583,-5.517368421052631,-8.011999999999999
5.816,-0.3598421052631579,-5.497684210526316,-8.049999999999999
5.824,-0.353,-5.478,-8.088
5.832,-0.527000000000002,-5.062599999999989,-8.251999999999995
5.84,-0.5370000000000009,-4.7085842696629205,-7.716
5.848,-0.5210000000000008,-4.717752808988763,-7.708
5.856,-0.5050000000000007,-4.726921348314606,-7.7
5.864,-0.48900000000000055,-4.736089887640449,-7.692
5.872,-0.4730000000000005,-4.745258426966291,-7.684
5.88,-0.45700000000000035,-4.754426966292135,-7.676
5.888,-0.4410000000000003,-4.763595505617977,-7.668
5.896,-0.42500000000000016,-4.77276404494382,-7.66
5.904,-0.40900000000000003,-4.781932584269663,-7.652
5.912,-0.39299999999999996,-4.791101123595506,-7.644
5.92,-0.37699999999999984,-4.800269662921348,-7.636
5.928,-0.19475000000001302,-5.3539999999999734,-7.8704999999999865
5.936,0.27407865168539364,-6.53829213483146,-8.191573033707865
5.944,0.2827078651685397,-6.532629213483146,-8.172157303370787
5.952,0.2913370786516857,-6.526966292134831,-8.152741573033708
5.96,0.2999662921348317,-6.521303370786517,-8.13332584269663
5.968,0.30859550561797777,-6.515640449438202,-8.11391011235955
5.976,0.3172247191011238,-6.5099775280898875,-8.094494382022472
5.984,0.3258539325842698,-6.5043146067415725,-8.075078651685393
5.992,0.33448314606741586,-6.498651685393258,-8.055662921348315
6.0,0.3431123595505619,-6.492988764044943,-8.036247191011237
6.008,0.3517415730337079,-6.487325842696629,-8.016831460674156
6.016,0.36037078651685395,-6.481662921348314,-7.997415730337078
6.024,0.369,-6.476,-7.978
6.032,0.19732978723404235,-5.715553191489361,-7.891436170212766
6.04,0.19196808510638277,-5.695978723404255,-7.886925531914894
6.048,0.18660638297872323,-5.676404255319149,-7.882414893617021
6.056,0.18124468085106366,-5.656829787234042,-7.877904255319149
6.064,0.17588297872340408,-5.637255319148935,-7.873393617021277
6.072,0.17052127659574454,-5.617680851063829,-7.868882978723405
6.08,0.16515957446808496,-5.598106382978723,-7.864372340425533
6.088,0.15979787234042542,-5.578531914893617,-7.8598617021276596
6.096,0.15443617021276584,-5.558957446808511,-7.855351063829787
6.104,0.14907446808510627,-5.539382978723404,-7.850840425531915
6.112,0.14371276595744673,-5.519808510638298,-7.846329787234043
6.12,0.13835106382978718,-5.500234042553192,-7.84181914893617
6.128,0.068071428571427,-5.333571428571427,-8.009857142857147
6.136,0.028642857142856207,-5.290142857142857,-8.136714285714287
6.144,-0.11223170731707326,-5.31080487804878,-8.15010975609756
6.152,-0.11408536585365862,-5.317243902439024,-8.142987804878048
6.16,-0.11593902439024399,-5.323682926829268,-8.135865853658537
6.168,-0.11779268292682936,-5.330121951219512,-8.128743902439023
6.176,-0.11964634146341474,-5.336560975609756,-8.121621951219511
6.184,-0.12150000000000011,-5.343,-8.1145
6.192,-0.12335365853658548,-5.349439024390244,-8.107378048780486
6.2,-0.12520731707317084,-5.355878048780489,-8.100256097560974
6.208,-0.1270609756097562,-5.362317073170733,-8.093134146341463
6.216,-0.12891463414634158,-5.3687560975609765,-8.08601219512195
6.224,-0.13076829268292697,-5.37519512195122,-8.078890243902437
6.232,0.08371276595744671,-5.848478723404257,-8.034936170212767
6.24,0.08141489361702119,-5.860308510638299,-8.034425531914893
6.248,0.07911702127659567,-5.8721382978723415,-8.033914893617021
6.256,0.07681914893617015,-5.883968085106384,-8.03340425531915
6.264,0.07452127659574462,-5.8957978723404265,-8.032893617021276
6.272,0.07222340425531909,-5.907627659574469,-8.032382978723405
6.28,0.06992553191489356,-5.9194574468085115,-8.031872340425531
6.288,0.06762765957446804,-5.9312872340425535,-8.03136170212766
6.296,0.06532978723404251,-5.943117021276596,-8.030851063829788
6.304,0.06303191489361698,-5.9549468085106385,-8.030340425531914
6.312,0.06073404255319145,-5.9667765957446806,-8.029829787234043
6.32,0.058436170212765925,-5.9786063829787235,-8.02931914893617
6.328,0.18766666666667634,-6.010000000000002,-8.017333333333333
6.336,0.16951612903225766,-5.931860215053763,-8.0885376344086
6.344,0.16254838709677377,-5.91758064516129,-8.077612903225805
6.352,0.15558064516128992,-5.903301075268816,-8.06668817204301
6.36,0.14861290322580603,-5.889021505376343,-8.055763440860213
6.368,0.14164516129032215,-5.87474193548387,-8.044838709677418
6.376,0.13467741935483826,-5.860462365591397,-8.033913978494622
6.384,0.1277096774193544,-5.846182795698923,-8.022989247311827
6.392,0.12074193548387052,-5.8319032258064505,-8.012064516129032
6.4,0.11377419354838664,-5.817623655913978,-8.001139784946236
6.408,0.10680645161290275,-5.803344086021504,-7.99021505376344
6.416,0.09983870967741888,-5.789064516129031,-7.979290322580644
6.424,0.092870967741935,-5.774784946236558,-7.968365591397848
6.432,-0.013250000000004175,-5.519249999999993,-7.972000000000003
6.44,-0.058565217391304276,-5.528978260869565,-8.059358695652174
6.448,-0.05786956521739124,-5.522543478260869,-8.053532608695653
6.456,-0.0571739130434782,-5.516108695652173,-8.04770652173913
6.464,-0.05647826086956516,-5.5096739130434775,-8.041880434782609
6.472,-0.05578260869565212,-5.503239130434782,-8.036054347826086
6.48,-0.055086956521739075,-5.496804347826086,-8.030228260869565
6.488,-0.05439130434782604,-5.4903695652173905,-8.024402173913044
6.496,-0.053695652173913,-5.483934782608695,-8.018576086956521
6.5040000000000004,-0.05299999999999996,-5.477499999999999,-8.01275
6.5120000000000005,-0.05230434782608692,-5.4710652173913035,-8.006923913043478
6.5200000000000005,-0.05160869565217388,-5.464630434782608,-8.001097826086957
6.5280000000000005,-0.050636363636363514,-5.455681818181817,-7.992954545454545
6.5360000000000005,-0.04772727272727264,-5.4291363636363625,-7.968590909090909
6.5440000000000005,-0.04481818181818176,-5.402590909090908,-7.9442272727272725
6.5520000000000005,0.1099999999999999,-5.708000000000001,-8.041
6.5600000000000005,0.10912328767123278,-5.716109589041097,-8.048342465753425
6.5680000000000005,0.10824657534246566,-5.724219178082193,-8.05568493150685
6.5760000000000005,0.10736986301369854,-5.732328767123288,-8.063027397260274
6.5840000000000005,0.10649315068493143,-5.740438356164384,-8.070369863013699
6.5920000000000005,0.1056164383561643,-5.74854794520548,-8.077712328767124
6.6000000000000005,0.10473972602739719,-5.7566575342465764,-8.085054794520548
6.6080000000000005,0.10386301369863006,-5.764767123287672,-8.092397260273973
6.6160000000000005,0.10298630136986295,-5.772876712328768,-8.099739726027398
6.6240000000000006,0.10210958904109582,-5.780986301369864,-8.107082191780822
6.632000000000001,0.173,-5.939,-8.094
6.640000000000001,0.173,-5.939,-8.094
6.648000000000001,0.173,-5.939,-8.094
6.656000000000001,0.173,-5.939,-8.094
6.664,0.173,-5.939,-8.094
6.672,0.173,-5.939,-8.094
6.68,0.173,-5.939,-8.094
6.688,0.173,-5.939,-8.094
6.696,0.173,-5.939,-8.094
6.704,0.173,-5.939,-8.094
6.712,0.173,-5.939,-8.094
6.72,0.173,-5.939,-8.094
6.728,0.173,-5.939,-8.094
6.736,-0.02559999999999755,-5.651600000000003,-7.997199999999992
6.744,-0.06726506024096383,-5.605807228915663,-8.127602409638556
6.752,-0.06832530120481925,-5.605036144578313,-8.114012048192771
6.76,-0.06938554216867467,-5.604265060240964,-8.100421686746989
6.768,-0.07044578313253008,-5.603493975903614,-8.086831325301205
6.776,-0.07150602409638551,-5.602722891566265,-8.073240963855422
6.784,-0.07256626506024093,-5.601951807228915,-8.05965060240964
6.792,-0.07362650602409634,-5.601180722891566,-8.046060240963856
6.8,-0.07468674698795177,-5.600409638554217,-8.032469879518073
6.808,-0.07574698795180719,-5.599638554216868,-8.01887951807229
6.816,-0.0768072289156626,-5.598867469879518,-8.005289156626507
6.824,-0.07786746987951802,-5.598096385542169,-7.9916987951807235
6.832,0.012957446808510114,-5.690978723404255,-8.049627659574467
6.84,0.020617021276595274,-5.6988085106382975,-8.054648936170212
6.848,0.028276595744680433,-5.70663829787234,-8.059670212765957
6.856,0.0359361702127656,-5.7144680851063825,-8.064691489361701
6.864,0.043595744680850756,-5.722297872340426,-8.069712765957446
6.872,0.05125531914893591,-5.730127659574468,-8.07473404255319
6.88,0.05891489361702108,-5.737957446808511,-8.079755319148935
6.888,0.06657446808510624,-5.745787234042553,-8.084776595744682
6.896,0.0742340425531914,-5.753617021276596,-8.089797872340426
6.904,0.08189361702127655,-5.761446808510638,-8.094819148936171
6.912,0.08955319148936172,-5.769276595744681,-8.099840425531916
6.92,0.09721276595744688,-5.777106382978723,-8.10486170212766
6.928,0.122,-5.80275,-8.08775
6.936,0.17533333333333134,-5.858083333333331,-8.033750000000001
6.944,0.182,-5.865,-8.027
6.952,0.182,-5.865,-8.027
6.96,0.182,-5.865,-8.027
6.968,0.182,-5.865,-8.027
6.976,0.182,-5.865,-8.027
6.984,0.182,-5.865,-8.027
6.992,0.182,-5.865,-8.027
7.0,0.182,-5.865,-8.027
7.008,0.182,-5.865,-8.027
7.016,0.182,-5.865,-8.027
7.024,0.182,-5.865,-8.027
7.032,0.02,-5.616,-7.982
7.04,0.02,-5.616,-7.982
7.048,0.02,-5.616,-7.982
7.056,0.02,-5.616,-7.982
7.064,0.02,-5.616,-7.982
7.072,0.02,-5.616,-7.982
7.08,0.02,-5.616,-7.982
7.088,0.02,-5.616,-7.982
7.096,0.02,-5.616,-7.982
7.104,0.02,-5.616,-7.982
7.112,0.02,-5.616,-7.982
7.12,0.02,-5.616,-7.982
7.128,0.02,-5.616,-7.982
7.136,0.10921739130434774,-5.710826086956522,-8.037782608695652
7.144,0.10765217391304341,-5.7164782608695655,-8.031347826086957
7.152,0.10608695652173906,-5.722130434782609,-8.02491304347826
7.16,0.10452173913043472,-5.7277826086956525,-8.018478260869566
7.168,0.10295652173913038,-5.733434782608696,-8.01204347826087
7.176,0.10139130434782605,-5.7390869565217395,-8.005608695652175
7.184,0.0998260869565217,-5.744739130434783,-7.999173913043478
7.192,0.09826086956521736,-5.750391304347826,-7.992739130434782
7.2,0.09669565217391302,-5.756043478260869,-7.986304347826087
7.208,0.09513043478260869,-5.761695652173913,-7.979869565217391
7.216,0.09356521739130434,-5.767347826086956,-7.973434782608695
7.224,0.092,-5.773,-7.967
7.232,0.13399999999999823,-5.781142857142856,-7.963571428571428
7.24,0.09296774193548385,-5.769505376344086,-7.9709784946236555
7.248,0.09451612903225805,-5.763913978494624,-7.977344086021505
7.256,0.09606451612903225,-5.758322580645161,-7.9837096774193546
7.264,0.09761290322580643,-5.752731182795698,-7.990075268817204
7.272,0.09916129032258063,-5.747139784946237,-7.996440860215054
7.28,0.10070967741935483,-5.741548387096774,-8.002806451612903
7.288,0.10225806451612902,-5.7359569892473115,-8.009172043010754
7.296,0.10380645161290322,-5.73036559139785,-8.015537634408602
7.304,0.1053548387096774,-5.724774193548387,-8.02190322580645
7.312,0.1069032258064516,-5.7191827956989245,-8.028268817204301
7.32,0.1084516129032258,-5.713591397849463,-8.034634408602152
7.328,0.11,-5.708,-8.041
7.336,0.02,-5.616,-7.982
7.344,0.02,-5.616,-7.982
7.352,0.02,-5.616,-7.982
7.36,0.02,-5.616,-7.982
7.368,0.02,-5.616,-7.982
7.376,0.02,-5.616,-7.982
7.384,0.02,-5.616,-7.982
7.392,0.02,-5.616,-7.982
7.4,0.02,-5.616,-7.982
7.408,0.02,-5.616,-7.982
7.416,0.02,-5.616,-7.982
7.424,0.02,-5.616,-7.982
7.432,0.026666666666676338,-5.761000000000002,-7.972999999999999
7.44,0.09147252747252745,-5.7778791208791205,-7.9714835164835165
7.448,0.09076923076923075,-5.7843846153846155,-7.977461538461538
7.456,0.09006593406593405,-5.7908901098901095,-7.98343956043956
7.464,0.08936263736263735,-5.7973956043956045,-7.989417582417582
7.472,0.08865934065934064,-5.803901098901099,-7.995395604395604
7.48,0.08795604395604395,-5.810406593406594,-8.001373626373626
7.488,0.08725274725274725,-5.816912087912089,-8.007351648351648
7.496,0.08654945054945054,-5.823417582417583,-8.01332967032967
7.5040000000000004,0.08584615384615384,-5.829923076923078,-8.019307692307692
7.5120000000000005,0.08514285714285713,-5.836428571428572,-8.025285714285715
7.5200000000000005,0.08443956043956044,-5.842934065934067,-8.031263736263737
7.5280000000000005,0.09200000000000577,-5.7729999999999695,-7.9670000000000005
7.5360000000000005,0.1137391304347821,-5.634173913043478,-7.973391304347826
7.5440000000000005,0.10521739130434729,-5.632521739130435,-7.974173913043479
7.5520000000000005,0.09669565217391246,-5.630869565217391,-7.974956521739131
7.5600000000000005,0.08817391304347764,-5.629217391304348,-7.975739130434783
7.5680000000000005,0.07965217391304283,-5.627565217391304,-7.976521739130435
7.5760000000000005,0.071130434782608,-5.625913043478261,-7.977304347826087
7.5840000000000005,0.06260869565217317,-5.624260869565217,-7.978086956521739
7.5920000000000005,0.05408695652173835,-5.622608695652174,-7.9788695652173915
7.6000000000000005,0.04556521739130352,-5.62095652173913,-7.979652173913044
7.6080000000000005,0.037043478260868706,-5.619304347826087,-7.980434782608696
7.6160000000000005,0.028521739130433876,-5.617652173913043,-7.981217391304348
7.6240000000000006,0.02,-5.616,-7.982
7.632000000000001,0.014666666666666982,-5.66533333333333,-8.026666666666664
7.640000000000001,0.01893333333333349,-5.625866666666665,-7.9909333333333326
7.648000000000001,0.02,-5.616,-7.982
7.656000000000001,0.02,-5.616,-7.982
7.664000000000001,0.02,-5.616,-7.982
7.672000000000001,0.02,-5.616,-7.982
7.68,0.02,-5.616,-7.982
7.688,0.02,-5.616,-7.982
7.696,0.02,-5.616,-7.982
7.704,0.02,-5.616,-7.982
7.712,0.02,-5.616,-7.982
7.72,0.02,-5.616,-7.982
7.728,0.02,-5.616,-7.982
7.736,0.02,-5.616,-7.982
7.744,0.09457142857142956,-5.763714285714282,-7.977571428571433
7.752,0.092,-5.773,-7.967
7.76,0.092,-5.773,-7.967
7.768,0.092,-5.773,-7.967
7.776,0.092,-5.773,-7.967
7.784,0.092,-5.773,-7.967
7.792,0.092,-5.773,-7.967
7.8,0.092,-5.773,-7.967
7.808,0.092,-5.773,-7.967
7.816,0.092,-5.773,-7.967
7.824,0.092,-5.773,-7.967
7.832,0.09914893617021324,-5.699106382978724,-7.900872340425532
7.84,0.09234042553191532,-5.6919574468085115,-7.907851063829787
7.848,0.08553191489361739,-5.684808510638298,-7.9148297872340425
7.856,0.07872340425531947,-5.677659574468086,-7.921808510638298
7.864,0.07191489361702155,-5.6705106382978725,-7.928787234042553
7.872,0.06510638297872363,-5.66336170212766,-7.935765957446809
7.88,0.05829787234042571,-5.656212765957447,-7.942744680851064
7.888,0.05148936170212779,-5.649063829787234,-7.9497234042553195
7.896,0.04468085106382987,-5.641914893617021,-7.956702127659574
7.904,0.03787234042553195,-5.634765957446809,-7.96368085106383
7.912,0.03106382978723403,-5.6276170212765955,-7.970659574468085
7.92,0.02425531914893611,-5.620468085106382,-7.977638297872341
7.928,0.020000000000000004,-5.616,-7.982
7.936,0.0229670329670331,-5.619032967032967,-7.983945054945055
7.944,0.03087912087912108,-5.627120879120879,-7.989131868131868
7.952,0.038791208791209064,-5.635208791208791,-7.994318681318682
7.96,0.04670329670329704,-5.643296703296704,-7.999505494505495
7.968,0.054615384615385024,-5.6513846153846155,-8.004692307692308
7.976,0.062527472527473,-5.659472527472528,-8.009879120879122
7.984,0.07043956043956097,-5.66756043956044,-8.015065934065936
7.992,0.07835164835164896,-5.675648351648352,-8.020252747252748
8.0,0.08626373626373694,-5.6837362637362645,-8.025439560439562
8.008000000000001,0.09417582417582579,-5.691824175824178,-8.030626373626376
8.016,0.1020879120879129,-5.699912087912089,-8.035813186813188
8.024000000000001,0.11,-5.708,-8.041
8.032,0.092,-5.773,-7.967
8.040000000000001,0.092,-5.773,-7.967
8.048,0.092,-5.773,-7.967
8.056000000000001,0.092,-5.773,-7.967
8.064,0.092,-5.773,-7.967
8.072000000000001,0.092,-5.773,-7.967
8.08,0.092,-5.773,-7.967
8.088000000000001,0.092,-5.773,-7.967
8.096,0.092,-5.773,-7.967
8.104000000000001,0.092,-5.773,-7.967
8.112,0.092,-5.773,-7.967
8.120000000000001,0.092,-5.773,-7.967
8.128,0.11791752577319592,-5.635752577319587,-7.973701030927835
8.136000000000001,0.11725773195876285,-5.641773195876289,-7.979309278350516
8.144,0.11659793814432994,-5.64779381443299,-7.984917525773196
8.152000000000001,0.11593814432989687,-5.653814432989691,-7.990525773195877
8.16,0.11527835051546394,-5.659835051546391,-7.996134020618556
8.168000000000001,0.11461855670103088,-5.6658556701030935,-8.001742268041237
8.176,0.11395876288659795,-5.671876288659794,-8.007350515463918
8.184000000000001,0.11329896907216488,-5.677896907216495,-8.012958762886598
8.192,0.11263917525773197,-5.683917525773196,-8.018567010309278
8.2,0.11197938144329905,-5.689938144329896,-8.024175257731958
8.208,0.11131958762886598,-5.695958762886598,-8.02978350515464
8.216,0.11065979381443307,-5.701979381443299,-8.035391752577318
8.224,0.11,-5.708,-8.041
8.232,0.11775257731958762,-5.637257731958763,-7.975103092783505
8.24,0.11709278350515456,-5.643278350515464,-7.980711340206186
8.248,0.11643298969072166,-5.649298969072165,-7.9863195876288655
8.256,0.1157731958762886,-5.655319587628866,-7.991927835051547
8.264,0.11511340206185569,-5.661340206185566,-7.997536082474227
8.272,0.11445360824742264,-5.667360824742269,-8.003144329896907
8.28,0.11379381443298973,-5.673381443298969,-8.008752577319587
8.288,0.11313402061855668,-5.67940206185567,-8.014360824742269
8.296,0.11247422680412376,-5.685422680412371,-8.019969072164947
8.304,0.11181443298969071,-5.691443298969072,-8.02557731958763
8.312,0.11115463917525781,-5.697463917525773,-8.03118556701031
8.32,0.11049484536082475,-5.703484536082474,-8.03679381443299
8.328,0.092,-5.773,-7.967
8.336,0.10903225806451598,-5.7114946236559145,-8.037021505376345
8.344,0.10748387096774195,-5.717086021505376,-8.030655913978494
8.352,0.10593548387096759,-5.72267741935484,-8.024290322580645
8.36,0.10438709677419357,-5.7282688172043015,-8.017924731182795
8.368,0.10283870967741919,-5.733860215053764,-8.011559139784946
8.376,0.10129032258064517,-5.739451612903226,-8.005193548387096
8.384,0.09974193548387081,-5.745043010752688,-7.998827956989246
8.392,0.09819354838709678,-5.75063440860215,-7.992462365591398
8.4,0.09664516129032241,-5.756225806451614,-7.986096774193547
8.408,0.0950967741935484,-5.761817204301075,-7.979731182795699
8.416,0.09354838709677402,-5.767408602150538,-7.973365591397848
8.424,0.092,-5.773,-7.967
8.432,0.002,-5.682,-7.908
8.44,0.002,-5.682,-7.908
8.448,0.003694117647058996,-5.675788235294117,-7.914964705882354
8.456,0.0053882352941176164,-5.669576470588235,-7.921929411764706
8.464,0.007082352941176612,-5.663364705882352,-7.92889411764706
8.472,0.008776470588235233,-5.657152941176471,-7.935858823529411
8.48,0.010470588235294228,-5.650941176470588,-7.942823529411766
8.488,0.012164705882352848,-5.644729411764706,-7.949788235294117
8.496,0.013858823529411845,-5.638517647058823,-7.956752941176471
8.504,0.015552941176470466,-5.6323058823529415,-7.963717647058823
8.512,0.017247058823529463,-5.6260941176470585,-7.970682352941177
8.52,0.01894117647058808,-5.619882352941176,-7.977647058823529
8.528,0.092,-5.773,-7.967
8.536,0.1551999999999944,-5.840199999999994,-7.902200000000006
8.544,0.1662972972972971,-5.85645945945946,-7.894054054054054
8.552,0.16002702702702745,-5.855738738738739,-7.904792792792792
8.56,0.1537567567567564,-5.8550180180180185,-7.915531531531532
8.568,0.14748648648648677,-5.854297297297298,-7.92627027027027
8.576,0.14121621621621572,-5.853576576576577,-7.93700900900901
8.584,0.13494594594594608,-5.852855855855856,-7.947747747747748
8.592,0.12867567567567506,-5.852135135135136,-7.958486486486487
8.6,0.1224054054054054,-5.851414414414415,-7.969225225225226
8.608,0.11613513513513438,-5.850693693693694,-7.979963963963965
8.616,0.10986486486486471,-5.8499729729729735,-7.990702702702703
8.624,0.10359459459459369,-5.849252252252253,-8.001441441441443
8.632,0.09732432432432404,-5.848531531531532,-8.01218018018018
8.64,0.09105405405405301,-5.847810810810811,-8.02291891891892
8.648,0.08478378378378336,-5.847090090090091,-8.033657657657658
8.656,0.092,-5.773,-7.967
8.664,0.092,-5.773,-7.967
8.672,0.092,-5.773,-7.967
8.68,0.092,-5.773,-7.967
8.688,0.092,-5.773,-7.967
8.696,0.092,-5.773,-7.967
8.704,0.092,-5.773,-7.967
8.712,0.092,-5.773,-7.967
8.72,0.092,-5.773,-7.967
8.728,0.092,-5.773,-7.967
8.736,0.1,-5.7,-7.9
8.744,0.092,-5.773,-7.967
8.752,0.092,-5.773,-7.967
8.76,0.092,-5.773,-7.967
8.768,0.092,-5.773,-7.967
8.776,0.092,-5.773,-7.967
8.784,0.092,-5.773,-7.967
8.792,0.092,-5.773,-7.967
8.8,0.092,-5.773,-7.967
8.808,0.092,-5.773,-7.967
8.816,0.092,-5.773,-7.967
8.824,0.07745454545454193,-5.757909090909087,-7.981909090909094
8.832,0.01927272727272257,-5.69754545454545,-8.041545454545458
8.84,0.016545454545453683,-5.694715909090909,-8.04434090909091
8.848,0.023818181818181836,-5.702261363636364,-8.036886363636363
8.856,0.031090909090908378,-5.709806818181818,-8.029431818181818
8.864,0.03836363636363653,-5.717352272727273,-8.021977272727272
8.872,0.04563636363636307,-5.724897727272727,-8.014522727272727
8.88,0.052909090909091225,-5.732443181818182,-8.00706818181818
8.888,0.06018181818181777,-5.739988636363636,-7.9996136363636365
8.896,0.06745454545454592,-5.747534090909092,-7.99215909090909
8.904,0.07472727272727245,-5.755079545454545,-7.984704545454545
8.912,0.0820000000000006,-5.762625000000001,-7.977249999999999
8.92,0.08927272727272714,-5.770170454545454,-7.969795454545454
8.928,0.261,-5.949,-7.945
8.936,0.2624166666666665,-5.936750000000001,-7.933750000000002
8.944,0.2638333333333334,-5.924499999999999,-7.922499999999999
8.952,0.26524999999999993,-5.91225,-7.911250000000001
8.96,0.2666666666666668,-5.899999999999999,-7.8999999999999995
8.968,0.26808333333333334,-5.88775,-7.88875
8.976,0.2695000000000002,-5.875499999999998,-7.877499999999999
8.984,0.2709166666666667,-5.86325,-7.86625
8.992,0.27233333333333354,-5.850999999999998,-7.854999999999998
9.0,0.2737500000000001,-5.838749999999999,-7.843749999999999
9.008000000000001,0.27516666666666695,-5.826499999999998,-7.832499999999998
9.016,0.2765833333333335,-5.814249999999999,-7.821249999999998
9.024000000000001,0.277999999999905,-5.8020000000000485,-7.810000000000067
9.032,0.19,-5.792,-7.959
9.040000000000001,0.19,-5.792,-7.959
9.048,0.19,-5.792,-7.959
9.056000000000001,0.19,-5.792,-7.959
9.064,0.19,-5.792,-7.959
9.072000000000001,0.19,-5.792,-7.959
9.08,0.19,-5.792,-7.959
9.088000000000001,0.19,-5.792,-7.959
9.096,0.19,-5.792,-7.959
9.104000000000001,0.19,-5.792,-7.959
9.112,0.19,-5.792,-7.959
9.120000000000001,0.19,-5.792,-7.959
9.128,0.198,-5.718,-7.892
9.136000000000001,0.19,-5.792,-7.959
9.144,0.19,-5.792,-7.959
9.152000000000001,0.19,-5.792,-7.959
9.16,0.19,-5.792,-7.959
9.168000000000001,0.19,-5.792,-7.959
9.176,0.19,-5.792,-7.959
9.184000000000001,0.19,-5.792,-7.959
9.192,0.19,-5.792,-7.959
9.200000000000001,0.19,-5.792,-7.959
9.208,0.19,-5.792,-7.959
9.216000000000001,0.19,-5.792,-7.959
9.224,0.19,-5.792,-7.959
9.232,0.19,-5.792,-7.959
9.24,0.14799999999999644,-5.783857142857142,-7.962428571428571
9.248,0.09729999999999941,-5.77025,-7.96325
9.256,0.10790000000000059,-5.764749999999999,-7.955749999999999
9.264,0.11849999999999941,-5.75925,-7.94825
9.272,0.1291000000000006,-5.753749999999999,-7.9407499999999995
9.28,0.13969999999999944,-5.7482500000000005,-7.93325
9.288,0.1503000000000006,-5.742749999999999,-7.92575
9.296,0.16089999999999943,-5.73725,-7.9182500000000005
9.304,0.1715000000000006,-5.73175,-7.91075
9.312,0.18209999999999943,-5.72625,-7.903250000000001
9.32,0.1927000000000006,-5.72075,-7.89575
9.328,0.276,-5.72,-7.602
9.336,0.16794736842105285,-5.85582105263158,-7.766536842105264
9.344,0.17721052631578862,-5.864915789473684,-7.795252631578945
9.352,0.18647368421052643,-5.874010526315789,-7.823968421052632
9.36,0.19573684210526218,-5.883105263157894,-7.852684210526313
9.368,0.20500000000000002,-5.8922,-7.8814
9.376,0.21426315789473577,-5.901294736842104,-7.910115789473681
9.384,0.22352631578947357,-5.91038947368421,-7.938831578947369
9.392,0.23278947368420932,-5.919484210526314,-7.967547368421049
9.4,0.24205263157894716,-5.928578947368421,-7.996263157894736
9.408,0.25131578947368294,-5.937673684210525,-8.024978947368417
9.416,0.26057894736842074,-5.9467684210526315,-8.053694736842104
9.424,0.2698421052631565,-5.955863157894735,-8.082410526315785
9.432,0.5789999999999967,-5.723333333333313,-7.9823333333333695
9.44,0.5588636363636362,-5.610181818181816,-8.250045454545452
9.448,0.5625909090909094,-5.658545454545458,-8.292136363636367
9.456,0.5663181818181817,-5.70690909090909,-8.33422727272727
9.464,0.570045454545455,-5.755272727272732,-8.376318181818185
9.472,0.5737727272727272,-5.803636363636364,-8.41840909090909
9.48,0.5775000000000005,-5.852000000000006,-8.460500000000005
9.488,0.5812272727272728,-5.900363636363637,-8.502590909090909
9.496,0.584954545454546,-5.94872727272728,-8.544681818181823
9.504,0.5886818181818183,-5.997090909090911,-8.586772727272729
9.512,0.5924090909090914,-6.045454545454553,-8.628863636363644
9.52,0.5961363636363638,-6.093818181818184,-8.670954545454547
9.528,0.631,-5.824,-8.422
9.536,0.7917894736842152,-6.37422105263158,-8.96343157894737
9.544,0.693263157894731,-6.342473684210525,-8.910210526315787
9.552,0.594736842105269,-6.310726315789475,-8.856989473684214
9.56,0.4962105263157849,-6.27897894736842,-8.803768421052629
9.568,0.39768421052632275,-6.247231578947371,-8.750547368421056
9.576,0.2991578947368386,-6.215484210526315,-8.697326315789471
9.584,0.2006315789473765,-6.183736842105266,-8.644105263157899
9.592,0.10210526315789248,-6.1519894736842105,-8.590884210526315
9.6,0.0035789473684303408,-6.120242105263161,-8.537663157894741
9.608,-0.09494736842105378,-6.088494736842105,-8.484442105263158
9.616,-0.19347368421051592,-6.056747368421056,-8.431221052631585
9.624,-0.2919999999999999,-6.025,-8.378
9.632,0.13639393939393796,-6.837727272727273,-10.03921212121212
9.64,0.030777777777764748,-6.874333333333338,-9.970444444444436
9.648,-0.07483838383838498,-6.910939393939394,-9.901676767676767
9.656,-0.1804545454545582,-6.947545454545459,-9.832909090909082
9.664,-0.286070707070708,-6.984151515151515,-9.764141414141413
9.672,-0.39168686868688124,-7.02075757575758,-9.695373737373728
9.68,-0.49730303030303097,-7.057363636363637,-9.62660606060606
9.688,-0.6029191919192041,-7.093969696969701,-9.557838383838376
9.696,-0.708535353535354,-7.130575757575758,-9.489070707070708
9.704,-0.8141515151515271,-7.167181818181822,-9.420303030303023
9.712,-0.919767676767677,-7.203787878787879,-9.351535353535354
9.72,-1.02538383838385,-7.240393939393944,-9.28276767676767
9.728,-1.131,-7.277,-9.214
9.736,-0.033,-5.733,-6.767
9.744,-0.1650459770114801,-5.755988505747124,-6.589344827586226
9.752,-0.2970919540229895,-5.778977011494253,-6.411689655172413
9.76,-0.4291379310344696,-5.801965517241377,-6.234034482758639
9.768,-0.5611839080459791,-5.824954022988506,-6.056379310344825
9.776,-0.6932298850574592,-5.84794252873563,-5.8787241379310515
9.784,-0.8252758620689686,-5.8709310344827585,-5.701068965517237
9.792,-0.9573218390804487,-5.8939195402298825,-5.5234137931034635
9.8,-1.089367816091958,-5.916908045977012,-5.34575862068965
9.808,-1.2214137931034381,-5.939896551724136,-5.168103448275875
9.816,-1.3534597701149476,-5.962885057471265,-4.990448275862063
9.824,-0.629,-6.3795,-3.9645
9.832,1.7621666666667577,-6.9933333333332675,-2.969000000000043
9.84,1.944301075268816,-6.9755591397849415,-2.9951827956989265
9.848,1.9766451612903249,-7.082483870967749,-2.9416774193548347
9.856,2.0089892473118267,-7.189408602150533,-2.8881720430107545
9.864,2.0413333333333354,-7.296333333333341,-2.8346666666666627
9.872,2.0736774193548375,-7.403258064516125,-2.7811612903225824
9.88,2.1060215053763462,-7.510182795698933,-2.7276559139784906
9.888,2.1383655913978483,-7.617107526881717,-2.6741505376344104
9.896,2.170709677419357,-7.724032258064525,-2.620645161290318
9.904,2.203053763440859,-7.8309569892473085,-2.5671397849462383
9.912,2.235397849462368,-7.937881720430116,-2.513634408602146
9.92,2.26774193548387,-8.0448064516129,-2.460129032258066
9.928,2.638,-8.705,-2.604
9.936,2.54713829787231,-10.501734042553194,-2.4555957446808514
9.944,2.208159574468021,-10.517308510638301,-2.4581489361702134
9.952,1.8691808510638075,-10.532882978723405,-2.460702127659575
9.96,1.5302021276595186,-10.548457446808515,-2.463255319148937
9.968,1.191223404255305,-10.564031914893619,-2.465808510638298
9.976,0.852244680851016,-10.579606382978726,-2.46836170212766
9.984,0.5132659574468024,-10.59518085106383,-2.4709148936170213
9.992,0.17428723404251345,-10.61075531914894,-2.4734680851063833
10.0,-0.16469148936169997,-10.626329787234043,-2.476021276595745
10.008000000000001,-0.5036702127659889,-10.641904255319151,-2.4785744680851067
10.016,-0.8426489361702028,-10.657478723404255,-2.4811276595744682
10.024000000000001,-1.1816276595744917,-10.673053191489364,-2.4836808510638297
10.032,-0.6257142857143059,-10.032714285714297,-1.9771428571428766
10.040000000000001,-0.25246391752575154,-9.902134020618558,-1.6416907216494676
10.048,-0.03720618556701133,-9.911948453608248,-1.4731958762886608
10.056000000000001,0.17805154639177667,-9.92176288659794,-1.3047010309278162
10.064,0.3933092783505169,-9.93157731958763,-1.1362061855670094
10.072000000000001,0.6085670103093049,-9.94139175257732,-0.9677113402061648
10.08,0.8238247422680451,-9.951206185567012,-0.7992164948453578
10.088000000000001,1.0390824742268332,-9.961020618556702,-0.6307216494845134
10.096,1.2543402061855733,-9.970835051546393,-0.4622268041237063
10.104000000000001,1.4695979381443613,-9.980649484536084,-0.29373195876286196
10.112,1.6848556701031017,-9.990463917525775,-0.1252371134020549
10.120000000000001,1.9001134020618897,-10.000278350515465,0.04325773195878946
10.128,2.11537113402063,-10.010092783505156,0.2117525773195965
10.136000000000001,1.9920000000002416,-8.827999999999806,1.367999999999604
10.144,2.1440681818181813,-8.726715909090908,1.146431818181818
10.152000000000001,2.16243181818182,-8.735534090909091,1.148068181818182
10.16,2.1807954545454544,-8.744352272727273,1.1497045454545454
10.168000000000001,2.199159090909093,-8.753170454545455,1.1513409090909092
10.176,2.2175227272727276,-8.761988636363636,1.1529772727272727
10.184000000000001,2.235886363636366,-8.77080681818182,1.1546136363636366
10.192,2.2542500000000008,-8.779625000000001,1.15625
10.200000000000001,2.2726136363636393,-8.788443181818183,1.1578863636363639
10.208,2.2909772727272735,-8.797261363636364,1.1595227272727273
10.216000000000001,2.3093409090909125,-8.806079545454548,1.1611590909090912
10.224,2.3277045454545466,-8.81489772727273,1.1627954545454546
10.232000000000001,4.6450208333333185,-8.227708333333325,2.501520833333337
10.24,4.469104166666671,-8.146541666666668,2.5476041666666656
10.248,4.293187500000024,-8.06537500000001,2.593687499999994
10.256,4.117270833333338,-7.984208333333335,2.639770833333332
10.264,3.941354166666691,-7.903041666666677,2.6858541666666604
10.272,3.765437500000005,-7.821875000000002,2.731937499999999
10.28,3.5895208333333577,-7.740708333333345,2.778020833333327
10.288,3.413604166666672,-7.6595416666666685,2.8241041666666655
10.296,3.2376875000000247,-7.578375000000011,2.870187499999994
10.304,3.0617708333333384,-7.497208333333336,2.916270833333332
10.312,2.8858541666666913,-7.416041666666677,2.9623541666666604
10.32,2.709937500000005,-7.334875000000002,3.008437499999999
10.328,4.209,-7.13,4.483
10.336,5.028176470588232,-7.660999999999999,4.831470588235296
10.344,5.259235294117626,-7.7409999999999926,4.698294117647071
10.352,5.344925925925927,-7.7841111111111125,4.5387777777777725
10.36,5.382160493827158,-7.814925925925924,4.370481481481494
10.368,5.419395061728397,-7.845740740740743,4.2021851851851775
10.376,5.456629629629628,-7.876555555555554,4.033888888888899
10.384,5.493864197530867,-7.907370370370373,3.8655925925925825
10.392,5.531098765432097,-7.938185185185184,3.6972962962963036
10.4,5.568333333333336,-7.969000000000003,3.5289999999999875
10.408,5.605567901234567,-7.9998148148148145,3.3607037037037086
10.416,5.642802469135805,-8.030629629629633,3.1924074074073925
10.424,5.680037037037036,-8.061444444444444,3.0241111111111136
10.432,7.259,-7.09,3.008
10.44,7.2584042553191495,-6.909744680851082,2.92127659574469
10.448,7.257808510638298,-6.729489361702125,2.8345531914893605
10.456,7.257212765957447,-6.549234042553207,2.7478297872340502
10.464,7.256617021276596,-6.3689787234042505,2.661106382978721
10.472,7.256021276595745,-6.188723404255333,2.5743829787234107
10.48,7.255425531914893,-6.008468085106376,2.4876595744680814
10.488,7.254829787234042,-5.828212765957458,2.4009361702127716
10.496,7.2542340425531915,-5.6479574468085,2.314212765957442
10.504,7.253638297872341,-5.467702127659583,2.2274893617021316
10.512,7.253042553191489,-5.287446808510626,2.1407659574468023
10.52,7.252446808510638,-5.107191489361709,2.0540425531914925
10.528,7.674,-4.874,1.942
10.536,8.303648936170212,-4.719499999999988,1.6821170212766225
10.544,8.314287234042554,-4.8195,1.4599042553191495
10.552,8.324925531914893,-4.9194999999999895,1.2376914893617257
10.56,8.335563829787235,-5.019500000000001,1.0154787234042528
10.568,8.346202127659573,-5.119499999999991,0.793265957446829
10.576,8.356840425531916,-5.219500000000003,0.571053191489356
10.584,8.367478723404256,-5.319499999999993,0.3488404255319322
10.592,8.378117021276596,-5.419500000000004,0.12662765957445932
10.6,8.388755319148936,-5.519499999999994,-0.09558510638296447
10.608,8.399393617021278,-5.619500000000006,-0.31779787234043755
10.616,8.410031914893617,-5.719499999999995,-0.5400106382978611
10.624,8.420670212765959,-5.819500000000007,-0.7622234042553344
10.632,7.408100000000023,-5.55434,-0.4750999999999823
10.64,7.236500000000003,-5.5557,-0.6034999999999971
10.648,7.064900000000022,-5.55706,-0.7318999999999835
10.656,6.893300000000002,-5.55842,-0.8602999999999983
10.664,6.721700000000021,-5.55978,-0.9886999999999846
10.672,6.5501000000000005,-5.56114,-1.1170999999999995
10.68,6.3785000000000185,-5.5625,-1.2454999999999858
10.688,6.206899999999999,-5.56386,-1.3739000000000006
10.696,6.035300000000017,-5.56522,-1.502299999999987
10.704,5.863699999999998,-5.56658,-1.6307000000000018
10.712,5.692100000000016,-5.56794,-1.7590999999999881
10.72,5.520499999999997,-5.5693,-1.887500000000003
10.728,5.348900000000015,-5.570659999999999,-2.015899999999989
10.736,5.099916666666692,-4.549000000000018,-2.7066666666666936
10.744,6.1505,-5.106,-3.2625
10.752,6.782424999999977,-5.487300000000007,-3.612737500000023
10.76,6.652624999999991,-5.526500000000003,-3.7404375000000085
10.768,6.522824999999976,-5.565700000000008,-3.8681375000000227
10.776,6.393024999999991,-5.604900000000002,-3.995837500000009
10.784,6.263224999999976,-5.644100000000007,-4.1235375000000225
10.792,6.133424999999991,-5.683300000000003,-4.251237500000008
10.8,6.0036249999999765,-5.722500000000007,-4.378937500000022
10.808,5.873824999999991,-5.761700000000003,-4.506637500000009
10.816,5.744024999999977,-5.800900000000007,-4.634337500000022
10.824,5.6142249999999905,-5.840100000000002,-4.762037500000009
10.832,6.716645833333328,-7.01508333333333,-4.073729166666667
10.84,6.659229166666668,-6.967416666666668,-4.084645833333333
10.848,6.601812499999995,-6.919749999999996,-4.095562500000001
10.856,6.5443958333333345,-6.872083333333335,-4.1064791666666665
10.864,6.486979166666662,-6.824416666666663,-4.117395833333334
10.872,6.429562500000001,-6.776750000000002,-4.1283125
10.88,6.372145833333328,-6.729083333333329,-4.139229166666667
10.888,6.314729166666668,-6.681416666666668,-4.150145833333333
10.896,6.257312499999995,-6.6337499999999965,-4.161062500000001
10.904,6.1998958333333345,-6.586083333333335,-4.171979166666667
10.912,6.142479166666662,-6.538416666666663,-4.182895833333334
10.92,6.085062500000001,-6.490750000000001,-4.1938125
10.928,5.919500000000217,-5.622499999999988,-4.7295000000002085
10.936,6.227648936170217,-5.5716382978723376,-5.052542553191489
10.944,6.278287234042563,-5.540659574468079,-5.047010638297872
10.952,6.328925531914897,-5.509680851063828,-5.041478723404255
10.96,6.379563829787243,-5.478702127659569,-5.035946808510637
10.968,6.430202127659577,-5.447723404255318,-5.030414893617021
10.976,6.480840425531922,-5.4167446808510595,-5.0248829787234035
10.984,6.531478723404256,-5.385765957446808,-5.019351063829787
10.992,6.582117021276602,-5.35478723404255,-5.013819148936169
11.0,6.632755319148936,-5.323808510638298,-5.008287234042553
11.008000000000001,6.683393617021282,-5.29282978723404,-5.002755319148935
11.016,6.734031914893616,-5.261851063829789,-4.997223404255319
11.024000000000001,6.7846702127659615,-5.23087234042553,-4.991691489361702
11.032,6.121285714285751,-5.72928571428569,-5.12842857142858
11.040000000000001,5.810373626373625,-6.117186813186813,-5.2168351648351665
11.048,5.796571428571428,-6.122285714285714,-5.232571428571428
11.056000000000001,5.782769230769229,-6.127384615384615,-5.248307692307694
11.064,5.768967032967033,-6.132483516483516,-5.264043956043956
11.072000000000001,5.755164835164833,-6.1375824175824185,-5.279780219780222
11.08,5.741362637362637,-6.142681318681318,-5.295516483516484
11.088000000000001,5.727560439560437,-6.147780219780221,-5.31125274725275
11.096,5.713758241758241,-6.1528791208791205,-5.326989010989012
11.104000000000001,5.699956043956042,-6.157978021978023,-5.342725274725278
11.112,5.686153846153845,-6.163076923076924,-5.3584615384615395
11.120000000000001,5.672351648351646,-6.168175824175825,-5.374197802197806
11.128,5.649999999999997,-6.196300000000006,-5.373099999999996
11.136000000000001,5.601999999999995,-6.2935000000000105,-5.321499999999994
11.144,5.554000000000003,-6.390699999999994,-5.269900000000003
11.152000000000001,4.808746666666678,-6.659186666666661,-4.825799999999996
11.16,4.939733333333331,-6.587933333333334,-4.7730000000000015
11.168000000000001,5.070720000000014,-6.516679999999992,-4.720199999999995
11.176,5.201706666666667,-6.445426666666666,-4.6674
11.184000000000001,5.332693333333349,-6.374173333333324,-4.614599999999994
11.192,5.463680000000003,-6.3029199999999985,-4.561799999999999
11.200000000000001,5.5946666666666856,-6.231666666666657,-4.508999999999992
11.208,5.725653333333339,-6.16041333333333,-4.456199999999998
11.216000000000001,5.856640000000022,-6.089159999999988,-4.4033999999999915
11.224,5.987626666666675,-6.017906666666662,-4.3505999999999965
11.232000000000001,5.920000000000155,-5.800000000000091,-4.439999999999996
11.24,6.439818181818181,-6.101977272727271,-4.421636363636363
11.248000000000001,6.423090909090906,-6.073886363636358,-4.412181818181817
11.256,6.406363636363635,-6.045795454545453,-4.402727272727272
11.264,6.389636363636365,-6.0177045454545475,-4.393272727272728
11.272,6.37290909090909,-5.989613636363635,-4.383818181818182
11.28,6.3561818181818195,-5.96152272727273,-4.374363636363637
11.288,6.339454545454545,-5.933431818181817,-4.364909090909091
11.296,6.322727272727274,-5.905340909090912,-4.355454545454546
11.304,6.306,-5.87725,-4.346
11.312,6.289272727272729,-5.849159090909094,-4.336545454545456
11.32,6.272545454545455,-5.821068181818182,-4.327090909090909
11.328,6.466500000000167,-6.09050000000004,-4.196500000000141
11.336,6.310276595744682,-5.61676595744681,-3.966234042553195
11.344,6.32031914893617,-5.629191489361702,-4.001808510638297
11.352,6.330361702127661,-5.641617021276597,-4.037382978723406
11.36,6.340404255319148,-5.654042553191489,-4.072957446808509
11.368,6.350446808510639,-5.666468085106383,-4.108531914893619
11.376,6.360489361702127,-5.678893617021275,-4.144106382978721
11.384,6.3705319148936175,-5.69131914893617,-4.17968085106383
11.392,6.380574468085105,-5.703744680851062,-4.215255319148932
11.4,6.390617021276595,-5.716170212765958,-4.250829787234043
11.408,6.400659574468084,-5.72859574468085,-4.286404255319145
11.416,6.410702127659574,-5.7410212765957445,-4.321978723404254
11.424,6.420744680851062,-5.7534468085106365,-4.357553191489356
11.432,5.835825396825397,-5.63888888888889,-4.118682539682541
11.44,5.839126984126984,-5.650444444444444,-4.133412698412698
11.448,5.842428571428572,-5.662000000000001,-4.148142857142859
11.456,5.845730158730158,-5.673555555555556,-4.162873015873016
11.464,5.849031746031746,-5.685111111111112,-4.177603174603177
11.472,5.852333333333333,-5.696666666666666,-4.192333333333334
11.48,5.8556349206349205,-5.708222222222224,-4.207063492063494
11.488,5.858936507936508,-5.719777777777778,-4.221793650793651
11.496,5.862238095238095,-5.7313333333333345,-4.236523809523812
11.504,5.865539682539683,-5.742888888888889,-4.251253968253969
11.512,5.86884126984127,-5.754444444444446,-4.265984126984129
11.52,5.872142857142857,-5.766,-4.280714285714287
11.528,5.875444444444445,-5.777555555555557,-4.295444444444447
11.536,5.878746031746031,-5.7891111111111115,-4.310174603174604
11.544,5.882047619047619,-5.800666666666668,-4.324904761904764
11.552,5.885349206349206,-5.812222222222222,-4.339634920634921
11.56,6.912000000000086,-6.096666666666695,-4.111999999999933
11.568,7.0355263157894745,-6.169831578947367,-3.9711052631578965
11.576,7.009842105263156,-6.1982105263157905,-3.94036842105263
11.584,6.9841578947368435,-6.226589473684209,-3.9096315789473706
11.592,6.958473684210525,-6.254968421052633,-3.878894736842104
11.6,6.932789473684212,-6.28334736842105,-3.848157894736844
11.608,6.907105263157894,-6.311726315789475,-3.817421052631578
11.616,6.881421052631581,-6.340105263157892,-3.7866842105263183
11.624,6.855736842105262,-6.368484210526317,-3.755947368421052
11.632,6.830052631578949,-6.396863157894734,-3.7252105263157924
11.64,6.804368421052631,-6.425242105263158,-3.694473684210526
11.648,6.778684210526318,-6.4536210526315765,-3.6637368421052665
11.656,6.753,-6.482,-3.633
11.664,5.74,-5.1,-3.18
11.672,6.214554054054054,-6.8163918918918975,-4.851851351351351
11.68,6.21704054054054,-6.871418918918918,-4.850013513513513
11.688,6.219527027027027,-6.926445945945952,-4.848175675675676
11.696,6.222013513513513,-6.981472972972973,-4.8463378378378374
11.704,6.2245,-7.036500000000006,-4.8445
11.712,6.226986486486487,-7.091527027027027,-4.842662162162163
11.72,6.229472972972973,-7.146554054054061,-4.840824324324324
11.728,6.23195945945946,-7.201581081081082,-4.838986486486487
11.736,6.2344459459459465,-7.256608108108115,-4.837148648648649
11.744,6.489285714285735,-6.7882857142856725,-4.232142857142806
11.752,6.4885999999999395,-6.1107999999999985,-3.2005999999999597
11.76,6.483500000000001,-6.067794117647056,-3.4417647058823526
11.768,6.521500000000006,-5.976852941176457,-3.424117647058821
11.776,6.559500000000002,-5.885911764705878,-3.4064705882352935
11.784,6.597500000000006,-5.794970588235279,-3.388823529411762
11.792,6.635500000000002,-5.704029411764701,-3.3711764705882343
11.8,6.673500000000006,-5.613088235294102,-3.3535294117647028
11.808,6.711500000000003,-5.522147058823523,-3.335882352941175
11.816,6.7495000000000065,-5.431205882352924,-3.318235294117644
11.824,7.2120000000001285,-5.533666666666718,-3.5470000000000717
11.832,6.417671232876702,-6.560712328767127,-3.2331095890410926
11.84,6.309945205479455,-6.60345205479452,-3.19968493150685
11.848,6.202219178082183,-6.646191780821922,-3.1662602739726
11.856,6.094493150684935,-6.688931506849314,-3.1328356164383573
11.864,5.986767123287663,-6.731671232876716,-3.099410958904107
11.872,5.879041095890416,-6.774410958904108,-3.0659863013698643
11.88,5.771315068493143,-6.8171506849315096,-3.032561643835614
11.888,5.663589041095896,-6.8598904109589025,-2.9991369863013713
11.896,5.555863013698624,-6.902630136986304,-2.965712328767121
11.904,6.935333333333324,-6.66949999999983,-3.407833333333319
11.912,6.804666666666647,-4.367499999999659,-3.207166666666637
11.92,6.939249999999988,-4.7287499999999305,-3.3962499999999824
11.928,8.793721649484455,-3.650680412371144,-2.60767010309279
11.936,8.28716494845359,-3.7120412371134046,-2.647010309278352
11.944,7.780608247422612,-3.7734020618556783,-2.686350515463923
11.952,7.274051546391747,-3.834762886597939,-2.7256907216494852
11.96,6.767494845360769,-3.8961237113402127,-2.7650309278350558
11.968,6.260938144329904,-3.9574845360824735,-2.804371134020618
11.976,5.754381443298927,-4.018845360824748,-2.843711340206189
11.984,5.247824742268061,-4.0802061855670075,-2.883051546391751
11.992,4.741268041237083,-4.141567010309282,-2.922391752577322
12.0,4.234711340206218,-4.202927835051542,-2.961731958762884
12.008000000000001,3.72815463917524,-4.2642886597938165,-3.001072164948455
12.016,3.2215979381443747,-4.325649484536077,-3.040412371134017
12.024000000000001,5.230000000000344,-4.8890000000000775,-3.965000000000133
12.032,6.2167500000000135,-5.723750000000042,-4.791750000000033
12.040000000000001,6.249510869565218,-5.816630434782608,-4.874076086956523
12.048,6.252380434782609,-5.815065217391304,-4.882163043478261
12.056000000000001,6.25525,-5.8134999999999994,-4.890250000000002
12.064,6.258119565217392,-5.811934782608695,-4.89833695652174
12.072000000000001,6.260989130434783,-5.810369565217391,-4.906423913043479
12.08,6.263858695652174,-5.8088043478260865,-4.914510869565218
12.088000000000001,6.266728260869566,-5.807239130434782,-4.922597826086958
12.096,6.269597826086957,-5.805673913043478,-4.9306847826086955
12.104000000000001,6.272467391304349,-5.8041086956521735,-4.938771739130436
12.112,6.275336956521739,-5.802543478260869,-4.946858695652174
12.120000000000001,6.278206521739131,-5.800978260869565,-4.954945652173914
12.128,6.198333333333401,-5.879000000000061,-4.644999999999945
12.136000000000001,6.244322580645161,-5.852548387096767,-4.443032258064515
12.144,6.242516129032258,-5.822010752688169,-4.437784946236559
12.152000000000001,6.240709677419354,-5.791473118279564,-4.432537634408601
12.16,6.238903225806451,-5.760935483870965,-4.427290322580645
12.168000000000001,6.237096774193549,-5.730397849462361,-4.422043010752688
12.176,6.235290322580645,-5.6998602150537625,-4.416795698924731
12.184000000000001,6.233483870967742,-5.669322580645158,-4.411548387096774
12.192,6.231677419354839,-5.63878494623656,-4.406301075268818
12.200000000000001,6.2298709677419355,-5.608247311827954,-4.40105376344086
12.208,6.228064516129033,-5.577709677419357,-4.395806451612904
12.216000000000001,6.226258064516129,-5.547172043010751,-4.390559139784946
12.224,6.224451612903226,-5.516634408602153,-4.38531182795699
12.232000000000001,7.71800000000022,-6.095500000000087,-4.618000000000034
12.24,6.561806818181817,-5.704670454545454,-4.403625
12.248000000000001,6.502624999999991,-5.693124999999998,-4.402625
12.256,6.443443181818179,-5.681579545454545,-4.401625
12.264000000000001,6.384261363636354,-5.6700340909090885,-4.400625
12.272,6.325079545454542,-5.658488636363636,-4.3996249999999995
12.280000000000001,6.2658977272727165,-5.6469431818181794,-4.398625
12.288,6.206715909090904,-5.635397727272726,-4.397625
12.296,6.147534090909092,-5.623852272727273,-4.396625
12.304,6.088352272727267,-5.612306818181817,-4.395625
12.312,6.029170454545454,-5.600761363636363,-4.394625
12.32,5.969988636363629,-5.589215909090908,-4.393625
12.328,6.104,-6.109,-4.544
12.336,6.424,-5.909,-4.284
12.344,6.406208955223883,-5.888343283582092,-4.273373134328359
12.352,6.388417910447761,-5.867686567164179,-4.262746268656716
12.36,6.370626865671644,-5.847029850746271,-4.252119402985076
12.368,6.352835820895523,-5.8263731343283585,-4.241492537313433
12.376,6.335044776119405,-5.80571641791045,-4.2308656716417925
12.384,6.317253731343284,-5.785059701492537,-4.220238805970149
12.392,6.299462686567167,-5.7644029850746294,-4.209611940298509
12.4,6.281671641791045,-5.743746268656716,-4.198985074626866
12.408,6.791111111110989,-6.220999999999885,-3.3888888888890802
12.416,6.013,-5.282,-4.953
