accel_time_list,accel_x_list,accel_y_list,accel_z_list
0.0,0.9,2.7,9.7
0.007996466431095407,2.569581551050772,2.88426631950902,10.593706527803608
0.015992932862190813,2.325478891575228,2.758006323228566,10.543202529291426
0.02398939929328622,2.081376232099684,2.6317463269481123,10.492698530779245
0.031985865724381626,1.8372735726241398,2.5054863306676585,10.442194532267063
0.03998233215547703,1.5931709131485958,2.3792263343872047,10.39169053375488
0.04797879858657244,1.3490682536730518,2.252966338106751,10.3411865352427
0.05597526501766785,1.1049655941975076,2.126706341826297,10.290682536730518
0.06397173144876325,0.8608629347219636,2.000446345545843,10.240178538218338
0.07196819787985866,0.6167602752464201,1.8741863492653894,10.189674539706155
0.07996466431095406,0.37265761577087586,1.7479263529849358,10.139170541193975
0.08796113074204948,0.12855495629533165,1.6216663567044818,10.088666542681793
0.09595759717314488,-0.11554770318021212,1.495406360424028,10.03816254416961
0.10395406360424028,0.8293286219081292,1.6879858657243876,8.647703180212014
0.1119505300353357,0.47802120141342785,2.4439575971731444,9.821978798586573
0.1199469964664311,0.6060699343146394,2.2091049014719593,9.681790197056081
0.1279434628975265,0.6158815495675172,2.223822324351276,9.652355351297448
0.13593992932862192,0.6256931648203949,2.238539747230593,9.622920505538815
0.1439363957597173,0.6355047800732727,2.2532571701099093,9.593485659780182
0.15193286219081273,0.6453163953261506,2.267974592989226,9.564050814021547
0.15992932862190812,0.6551280105790284,2.282692015868543,9.534615968262914
0.16792579505300353,0.6649396258319061,2.2974094387478594,9.50518112250428
0.17592226148409895,0.674751241084784,2.312126861627176,9.475746276745648
0.18391872791519434,0.6845628563376618,2.3268442845064925,9.446311430987015
0.19191519434628976,0.6943744715905396,2.3415617073858095,9.416876585228382
0.19991166077738518,0.7041860868434173,2.356279130265126,9.387441739469747
0.20790812720848056,0.7139977020962952,2.3709965531444426,9.358006893711114
0.21590459363957598,0.723809317349173,2.3857139760237596,9.32857204795248
0.2239010600706714,0.7336209326020509,2.400431398903076,9.299137202193847
0.2318975265017668,0.7434325478549286,2.4151488217823927,9.269702356435214
0.2398939929328622,0.7532441631078064,2.4298662446617096,9.240267510676581
0.2478904593639576,0.7630557783606842,2.444583667541026,9.210832664917946
0.255886925795053,0.7728673936135619,2.459301090420343,9.181397819159313
0.2638833922261484,0.7826790088664398,2.4740185132996597,9.15196297340068
0.27187985865724384,0.7924906241193176,2.4887359361789763,9.122528127642047
0.2798763250883392,0.8,2.593816254416959,9.00618374558304
0.2878727915194346,0.8357854159974301,2.49264375200771,9.07157083199486
0.29586925795053004,0.8721329906842274,2.3836010279473174,9.144265981368454
0.30386572438162546,0.9,2.57985865724382,9.106713780918726
0.3118621908127209,0.8990729131046012,2.600927086895399,8.997218739313803
0.31985865724381624,0.8904745621034235,2.609525437896577,8.97142368631027
0.32785512367491165,0.8818762111022456,2.6181237888977544,8.945628633306736
0.33585159010600707,0.8732778601010677,2.6267221398989324,8.919833580303203
0.3438480565371025,0.8646795090998899,2.6353204909001104,8.894038527299669
0.3518445229681979,0.856081158098712,2.643918841901288,8.868243474296136
0.3598409893992933,0.8474828070975341,2.652517192902466,8.842448421292602
0.3678374558303887,0.8388844560963563,2.661115543903644,8.816653368289069
0.3758339222614841,0.8302861050951784,2.6697138949048216,8.790858315285535
0.3838303886925795,0.8216877540940006,2.6783122459059996,8.765063262282002
0.39182685512367493,0.8130894030928227,2.6869105969071776,8.739268209278467
0.39982332155477035,0.8044910520916448,2.695508947908355,8.713473156274933
0.4078197879858657,0.8869257950530083,2.636042402826852,8.74593639575972
0.41581625441696113,1.2492406585970979,2.4217540034583864,9.201518682805805
0.42381272084805655,1.1896925043229831,2.447274641004436,9.320614991354034
0.43180918727915196,1.1301443500488682,2.472795278550485,9.439711299902264
0.4398056537102474,1.0705961957747534,2.498315916096534,9.558807608450493
0.4478021201413428,1.0110480415006387,2.5238365536425835,9.677903916998723
0.45579858657243816,0.9514998872265243,2.5493571911886326,9.79700022554695
0.4637950530035336,0.8919517329524095,2.5748778287346816,9.91609653409518
0.471791519434629,0.8324035786782947,2.600398466280731,10.035192842643411
0.4797879858657244,0.7728554244041799,2.62591910382678,10.15428915119164
0.4877844522968198,0.7133072701300651,2.6514397413728292,10.27338545973987
0.4957809187279152,0.6537591158559507,2.6769603789188783,10.392481768288098
0.5037773851590106,0.28904593639575954,2.66113074204947,10.42226148409894
0.511773851590106,1.6539121655729432,2.394009759380784,10.188019518761568
0.5197703180212014,1.7681474003028779,2.3813169555219025,10.162633911043804
0.5277667844522969,1.8823826350328123,2.368624151663021,10.137248303326041
0.5357632508833923,1.996617869762747,2.3559313478041393,10.111862695608279
0.5437597173144877,2.1108531044926817,2.3432385439452577,10.086477087890515
0.5517561837455831,2.225088339222616,2.330545740086376,10.061091480172752
0.5597526501766784,2.3393235739525493,2.3178529362274944,10.035705872454988
0.5677491166077738,2.4535588086824838,2.305160132368613,10.010320264737226
0.5757455830388692,1.350883392226142,2.225441696113071,9.038162544169607
0.5837420494699647,1.316472445680776,2.2082362228403882,9.032944891361552
0.5917385159010601,1.3334862040448088,2.2167431020224044,9.066972408089617
0.5997349823321555,1.3504999624088416,2.2252499812044206,9.100999924817684
0.6077314487632509,1.3675137207728743,2.2337568603864373,9.135027441545748
0.6157279151943463,1.384527479136907,2.2422637395684535,9.169054958273815
0.6237243816254417,1.40154123750094,2.25077061875047,9.20308247500188
0.6317208480565372,1.4185549958649728,2.2592774979324863,9.237109991729946
0.6397173144876325,1.4355687542290052,2.2677843771145025,9.271137508458011
0.6477137809187279,1.452582512593038,2.2762912562965187,9.305165025186076
0.6557102473498233,1.469596270957071,2.2847981354785354,9.339192541914143
0.6637067137809187,1.4866100293211035,2.2933050146605516,9.373220058642207
0.6717031802120141,1.585159010600705,2.385159010600705,9.4
0.6796996466431096,1.1526287611093267,2.527069279366099,9.120301959524573
0.687696113074205,1.0960880893743086,2.559378234643252,9.144533675982439
0.6956925795053004,1.0395474176392905,2.5916871899204055,9.168765392440305
0.7036890459363958,0.9830067459042723,2.623996145197559,9.192997108898169
0.7116855123674912,0.9264660741692542,2.656305100474712,9.217228825356035
0.7196819787985866,0.869925402434236,2.688614055751865,9.241460541813899
0.727678445229682,0.8133847306992188,2.7209230110290177,9.265692258271763
0.7356749116607774,0.7568440589642007,2.753231966306171,9.289923974729628
0.7436713780918728,0.7003033872291825,2.7855409215833244,9.314155691187493
0.7516678445229682,0.6437627154941644,2.8178498768604774,9.338387407645358
0.7596643109540636,0.5872220437591463,2.8501588321376308,9.362619124103222
0.767660777385159,0.5306813720241282,2.8824677874147837,9.386850840561088
0.7756572438162544,-1.3286219081272133,4.637190812720853,9.217137809187278
0.7836537102473499,3.083657243816254,2.39108576935432,9.09331432701574
0.7916501766784453,2.8837455830388685,2.2820430452939284,9.011532283970446
0.7996466431095407,2.683833922261483,2.1730003212335363,8.929750240925152
0.8076431095406361,2.4839222614840977,2.063957597173144,8.847968197879858
0.8156395759717314,2.284010600706715,1.9549148731127535,8.766186154834564
0.8236360424028268,2.0840989399293295,1.8458721490523615,8.68440411178927
0.8316325088339223,1.8841872791519438,1.7368294249919694,8.602622068743976
0.8396289752650177,1.6842756183745584,1.6277867009315772,8.520840025698682
0.8476254416961131,1.4843639575971728,1.5187439768711852,8.439057982653388
0.8556219081272085,1.2844522968197873,1.409701252810793,8.357275939608094
0.8636183745583039,1.084540636042402,1.300658528750401,8.2754938965628
0.8716148409893993,1.2074204946996725,1.5484098939929622,8.486925795053027
0.8796113074204948,2.3305653710247376,2.777738515901049,9.6
0.8876077738515902,2.382762329082808,2.4770164387770777,9.577016438777077
0.8956042402826856,2.361901981871255,2.4492026424950066,9.549202642495006
0.9036007067137809,2.341041634659702,2.421388846212936,9.521388846212936
0.9115971731448763,2.3201812874481487,2.393575049930865,9.493575049930865
0.9195936395759717,2.2993209402365955,2.365761253648794,9.465761253648793
0.9275901060070671,2.2784605930250423,2.337947457366723,9.437947457366722
0.9355865724381626,2.2576002458134887,2.310133661084652,9.410133661084652
0.943583038869258,2.2367398986019356,2.282319864802581,9.38231986480258
0.9515795053003534,2.2158795513903824,2.25450606852051,9.354506068520509
0.9595759717314488,2.1950192041788292,2.226692272238439,9.326692272238438
0.9675724381625442,2.174158856967276,2.1988784759563678,9.298878475956368
0.9755689045936397,2.153298509755723,2.1710646796742967,9.271064679674296
0.983565371024735,2.1324381625441697,2.143250883392226,9.243250883392225
0.9915618374558304,2.1115778153326166,2.1154370871101555,9.215437087110155
0.9995583038869258,2.188957597173145,1.7441696113074208,8.66625441696113
1.0075547703180212,3.275772498308397,2.1757724983083975,8.975772498308396
1.0155512367491166,3.233238102398315,2.1332381023983156,8.933238102398315
1.023547703180212,3.1907037064882333,2.0907037064882337,8.890703706488233
1.0315441696113075,3.148169310578151,2.0481693105781513,8.848169310578152
1.0395406360424029,3.105634914668069,2.0056349146680694,8.805634914668069
1.0475371024734983,3.063100518757987,1.9631005187579875,8.763100518757987
1.0555335689045937,3.0205661228479053,1.9205661228479056,8.720566122847906
1.0635300353356891,2.9780317269378234,1.8780317269378235,8.678031726937823
1.0715265017667845,2.9354973310277415,1.8354973310277416,8.635497331027741
1.07952296819788,2.8929629351176596,1.7929629351176595,8.59296293511766
1.0875194346289754,2.850428539207577,1.7504285392075776,8.550428539207578
1.0955159010600708,2.8078941432974953,1.7078941432974957,8.507894143297495
1.1035123674911662,2.604628975265013,2.7419787985865973,8.304628975265013
1.1115088339222614,2.7301766784452264,4.2502944640753775,7.989941107184925
1.1195053003533568,2.8901060070671356,4.5168433451118934,7.9366313309776215
1.1275017667844522,2.996654888103652,4.8899646643109556,7.591971731448764
1.1354982332155477,2.943345111896349,4.730035335689047,7.464028268551237
1.143494699646643,2.890035335689046,4.570106007067139,7.3360848056537105
1.1514911660777385,2.836725559481743,4.4101766784452305,7.208141342756184
1.159487632508834,2.7834157832744406,4.250247349823321,7.080197879858657
1.1674840989399293,2.7301060070671377,4.090318021201413,6.9522544169611304
1.1754805653710247,2.6767962308598348,3.9303886925795046,6.824310954063604
1.1834770318021202,2.6234864546525323,3.7704593639575963,6.696367491166077
1.1914734982332156,2.5701766784452293,3.610530035335688,6.56842402826855
1.199469964664311,2.5168669022379264,3.450600706713779,6.440480565371024
1.2074664310954064,2.601392331628079,4.597215336743842,6.603480829070196
1.2154628975265018,2.6252623806761246,4.549475238647751,6.663155951690311
1.2234593639575972,2.6491324297241707,4.501735140551658,6.7228310743104265
1.2314558303886927,2.673002478772217,4.453995042455566,6.782506196930542
1.239452296819788,2.6968725278202625,4.406254944359475,6.842181319550656
1.2474487632508835,2.7207425768683087,4.3585148462633825,6.9018564421707715
1.255445229681979,2.744612625916355,4.31077474816729,6.961531564790887
1.2634416961130743,2.768482674964401,4.263034650071198,7.021206687411002
1.2714381625441697,2.7923527240124466,4.215294551975107,7.080881810031117
1.279434628975265,0.6977711334601793,4.305200688592914,8.793313400380539
1.2874310954063604,0.6567636133007156,4.40088490229833,8.670290839902147
1.2954275618374558,0.6157560931412519,4.496569116003745,8.547268279423756
1.3034240282685512,0.5747485729817883,4.592253329709161,8.424245718945365
1.3114204946996466,0.5337410528223245,4.687937543414575,8.301223158466975
1.319416961130742,0.4927335326628609,4.783621757119991,8.178200597988583
1.3274134275618374,0.4517260125033972,4.879305970825406,8.055178037510192
1.3354098939929329,0.41071849234393354,4.974990184530822,7.9321554770318015
1.3434063604240283,0.36971097218446985,5.070674398236237,7.80913291655341
1.3514028268551237,0.32870345202500617,5.166358611941652,7.6861103560750195
1.3593992932862191,0.2876959318655425,5.262042825647067,7.563087795596628
1.3673957597173145,0.2466884117060788,5.357727039352483,7.440065235118237
1.37539222614841,0.20568089154661512,5.453411253057898,7.317042674639845
1.3833886925795054,0.16467337138715143,5.549095466763314,7.194020114161455
1.3913851590106008,0.1236658512276878,5.644779680468728,7.070997553683063
1.3993816254416962,-1.214487632508886,1.9729681978796416,2.449293286218899
1.4073780918727916,-1.392547381946675,1.192547381946675,1.7776421458400253
1.415374558303887,-1.3844701431273867,1.1844701431273867,1.7534104293821604
1.4233710247349824,-1.3763929043080985,1.1763929043080985,1.7291787129242955
1.4313674911660779,-1.3683156654888102,1.1683156654888103,1.7049469964664308
1.4393639575971733,-1.360238426669522,1.160238426669522,1.6807152800085658
1.4473604240282687,-1.3521611878502335,1.1521611878502336,1.656483563550701
1.455356890459364,-1.3440839490309455,1.1440839490309456,1.6322518470928369
1.4633533568904593,-1.3360067102116573,1.1360067102116573,1.608020130634972
1.4713498233215547,-1.327929471392369,1.127929471392369,1.583788414177107
1.4793462897526501,-1.3198522325730808,1.1198522325730809,1.559556697719242
1.4873427561837456,-1.3117749937537924,1.1117749937537926,1.5353249812613774
1.495339222614841,-1.3036977549345041,1.1036977549345042,1.5110932648035125
1.5033356890459364,-1.3619384149419478,1.595507319535583,1.6858152448258437
1.5113321554770318,-1.9816896884034754,1.3183103115965247,1.6545775778991312
1.5193286219081272,-5.395759717314492,-2.5279151943462947,0.602120141342754
1.5273250883392226,-6.247111413853293,-3.767746604793734,0.14114266252288266
1.535321554770318,-6.516871727191452,-4.278364340755249,-0.03227468176593373
1.5433180212014135,-6.786632040529612,-4.7889820767167635,-0.20569202605475007
1.551314487632509,-7.05639235386777,-5.299599812678279,-0.37910937034356645
1.5593109540636043,-7.326152667205929,-5.810217548639793,-0.5525267146323827
1.5673074204946997,-7.595912980544088,-6.3208352846013085,-0.7259440589211992
1.5753038869257951,-7.865673293882247,-6.831453020562822,-0.8993614032100155
1.5833003533568906,-8.135433607220406,-7.342070756524338,-1.0727787474988317
1.591296819787986,-8.405193920558563,-7.852688492485853,-1.2461960917876482
1.5992932862190814,-8.674954233896724,-8.363306228447367,-1.4196134360764645
1.6072897526501768,-10.43010600706716,-7.742049469964652,-0.7278445229681871
1.6152862190812722,-16.275329919953844,-20.04515035696257,-7.3652700656234185
1.6232826855123674,-15.728632725174887,-19.42501622557151,-6.794093891973761
1.6312791519434628,-15.181935530395913,-18.80488209418044,-6.222917718324087
1.6392756183745583,-14.63523833561694,-18.184747962789366,-5.6517415446744135
1.6472720848056537,-14.088541140837966,-17.56461383139829,-5.08056537102474
1.655268551236749,-13.541843946058993,-16.944479700007218,-4.509389197375067
1.6632650176678445,-12.99514675128002,-16.324345568616142,-3.9382130237253934
1.67126148409894,-12.448449556501046,-15.70421143722507,-3.3670368500757197
1.6792579505300353,-11.901752361722075,-15.084077305833993,-2.795860676426046
1.6872544169611308,-11.355055166943101,-14.463943174442921,-2.2246845027763733
1.6952508833922262,-10.808357972164128,-13.843809043051845,-1.6535083291266996
1.7032473498233216,-10.261660777385154,-13.223674911660773,-1.082332155477026
1.711243816254417,-10.484098939929378,-9.77703180211993,-0.040282685512327276
1.7192402826855124,-13.154209820884612,-7.926489582064094,-0.6180699402948705
1.7272367491166079,-13.236931887413185,-8.11950773729743,-0.6456439624710616
1.7352332155477033,-13.319653953941758,-8.312525892530768,-0.6732179846472527
1.7432296819787987,-13.402376020470331,-8.505544047764106,-0.7007920068234438
1.751226148409894,-13.485098086998903,-8.698562202997444,-0.7283660289996349
1.7592226148409895,-13.567820153527476,-8.891580358230781,-0.7559400511758259
1.767219081272085,-13.65054222005605,-9.084598513464119,-0.783514073352017
1.7752155477031804,-13.338250883392213,-9.481360424028278,-1.121554770318033
1.7832120141342758,-11.533392226148342,-10.178798586572427,-3.50600706713787
1.7912084805653712,-9.887499703559655,-7.999995256954482,-3.724998221357931
1.7992049469964664,-9.871399435577585,-7.742390969241348,-3.6283966134655055
1.8072014134275618,-9.855299167595513,-7.484786681528208,-3.531795005573078
1.8151978798586572,-9.839198899613441,-7.227182393815067,-3.43519339768065
1.8231943462897526,-9.823098631631371,-6.969578106101926,-3.338591789788222
1.831190812720848,-9.8069983636493,-6.711973818388785,-3.2419901818957944
1.8391872791519435,-9.790898095667227,-6.454369530675644,-3.1453885740033662
1.8471837455830389,-9.774797827685157,-6.196765242962503,-3.0487869661109386
1.8551802120141343,-9.758697559703085,-5.9391609552493625,-2.952185358218511
1.8631766784452297,-9.742597291721014,-5.6815566675362215,-2.8555837503260832
1.8711731448763251,-9.726497023738942,-5.42395237982308,-2.758982142433655
1.8791696113074206,-9.710396755756872,-5.16634809210994,-2.662380534541227
1.887166077738516,-9.6942964877748,-4.908743804396799,-2.5657789266487994
1.8951625441696114,-9.678196219792728,-4.651139516683658,-2.4691773187563717
1.9031590106007068,-9.662095951810658,-4.393535228970517,-2.372575710863944
1.9111554770318022,-9.645995683828586,-4.135930941257376,-2.275974102971516
1.9191519434628976,-9.629895415846514,-3.878326653544235,-2.179372495079088
1.927148409893993,-9.613795147864444,-3.620722365831095,-2.08277088718666
1.9351448763250885,-9.676325088339233,-3.5144876325088483,-1.8091872791519192
1.9431413427561839,-9.688807181740042,-4.060825136090153,-1.0440359087002185
1.9511378091872793,-9.66719511030465,-3.985182886066277,-0.9359755515232532
1.9591342756183747,-9.645583038869256,-3.909540636042401,-0.8279151943462879
1.96713074204947,-9.623970967433864,-3.8338983860185274,-0.7198548371693255
1.9751272084805653,-9.602358895998472,-3.758256135994652,-0.6117944799923603
1.9831236749116607,-9.580746824563079,-3.682613885970776,-0.5037341228153949
1.9911201413427562,-9.559134753127685,-3.6069716359469006,-0.3956737656384295
1.9991166077738516,-9.537522681692293,-3.5313293859230246,-0.2876134084614642
2.007113074204947,-9.515910610256899,-3.455687135899149,-0.17955305128449883
2.0151095406360424,-9.183568904593622,-4.085600706713818,-0.3636925795053144
2.023106007067138,-9.110054609701255,-4.8755816621540955,-0.5913817631132101
2.0311024734982333,-9.182749759074849,-4.699036299389652,-0.5290716350787007
2.0390989399293287,-9.255444908448442,-4.522490936625209,-0.4667615070441913
2.047095406360424,-9.328140057822038,-4.3459455738607655,-0.40445137900968187
2.0550918727915195,-9.400835207195632,-4.169400211096322,-0.34214125097517245
2.063088339222615,-9.473530356569226,-3.992854848331879,-0.27983112294066304
2.0710848056537103,-9.546225505942822,-3.8163094855674355,-0.21752099490615362
2.0790812720848058,-9.618920655316415,-3.639764122802992,-0.1552108668716442
2.087077738515901,-9.69161580469001,-3.463218760038549,-0.09290073883713479
2.0950742049469966,-9.764310954063605,-3.2866733972741056,-0.030590610802625373
2.103070671378092,-9.846466431095395,-2.6821554770317984,-0.5
2.1110671378091874,-9.110327140088911,-2.3965576199703627,-0.29483642995554415
2.119063604240283,-9.187712299099513,-2.370762566966829,-0.2561438504502439
2.1270600706713783,-9.265097458110112,-2.344967513963296,-0.21745127094494368
2.1350565371024737,-9.342482617120712,-2.3191724609597624,-0.17875869143964346
2.143053003533569,-9.419867776131312,-2.293377407956229,-0.14006611193434323
2.1510494699646645,-9.497252935141914,-2.2675823549526952,-0.10137353242904301
2.15904593639576,-9.574638094152514,-2.241787301949162,-0.06268095292374276
2.1670424028268553,-9.652023253163115,-2.2159922489456285,-0.023988373418442566
2.1750388692579508,-8.972720848056557,-0.5727208480565561,-0.2727208480565561
2.183035335689046,-9.532473498233221,-1.1324734982332223,-0.8324734982332223
2.1910318021201416,-9.8,-3.3256665595888166,-1.2828461291358808
2.199028268551237,-9.8,-3.207536941856725,-1.2555854481207829
2.2070247349823324,-9.8,-3.0894073241246343,-1.2283247671056847
2.215021201413428,-9.8,-2.971277706392543,-1.2010640860905868
2.223017667844523,-9.8,-2.853148088660458,-1.1738034050754904
2.2310141342756182,-9.8,-2.7350184709283667,-1.1465427240603923
2.2390106007067136,-9.8,-2.6168888531962757,-1.1192820430452943
2.247007067137809,-9.8,-2.4987592354641843,-1.0920213620301964
2.2550035335689045,-9.8,-2.380629617732093,-1.0647606810150985
2.263,-9.8,-2.262500000000002,-1.0375000000000003
2.2709964664310953,-9.8,-2.1443703822679105,-1.0102393189849024
2.2789929328621907,-10.0,-2.4020059249741226,-0.9989970375129387
2.286989399293286,-10.0,-2.418160402612699,-0.9909197986936503
2.2949858657243816,-10.0,-2.434314880251276,-0.9828425598743621
2.302982332155477,-10.0,-2.4504693578898524,-0.9747653210550737
2.3109787985865724,-10.0,-2.4666238355284293,-0.9666880822357854
2.318975265017668,-10.0,-2.482778313167006,-0.958610843416497
2.3269717314487632,-10.0,-2.4989327908055823,-0.9505336045972088
2.3349681978798587,-10.0,-2.515087268444159,-0.9424563657779205
2.342964664310954,-10.0,-2.5312417460827357,-0.9343791269586321
2.3509611307420495,-10.0,-2.5473962237213126,-0.9263018881393438
2.358957597173145,-10.0,-2.563550701359889,-0.9182246493200554
2.3669540636042403,-10.0,-2.579705178998466,-0.9101474105007672
2.3749505300353357,-10.0,-2.5958596566370424,-0.9020701716814788
2.382946996466431,-9.802650176678442,-1.6893992932862307,-0.2
2.3909434628975266,-9.781946675232895,-1.7722132990684232,-0.21805332476710582
2.398939929328622,-9.763772887889496,-1.844908448442018,-0.23622711211050448
2.4069363957597174,-9.745599100546098,-1.9176035978156125,-0.25440089945390315
2.414932862190813,-9.727425313202698,-1.990298747189207,-0.2725746867973018
2.4229293286219082,-9.7092515258593,-2.062993896562802,-0.2907484741407005
2.4309257950530037,-9.6910777385159,-2.135689045936396,-0.3089222614840991
2.438922261484099,-9.672903951172502,-2.208384195309991,-0.32709604882749777
2.4469187279151945,-9.654730163829104,-2.2810793446835858,-0.34526983617089646
2.45491519434629,-9.636556376485705,-2.3537744940571805,-0.3634436235142951
2.4629116607773853,-9.618382589142305,-2.426469643430775,-0.38161741085769374
2.4709081272084807,-9.600208801798907,-2.4991647928043697,-0.39979119820109243
2.478904593639576,-9.3,-2.8603062426384076,-0.9433843737730679
2.4869010600706716,-9.306593318342436,-3.209889977513653,-0.9967033408287823
2.494897526501767,-9.324767105685835,-3.2371506585287513,-0.987616447157083
2.5028939929328624,-9.342940893029233,-3.2644113395438494,-0.9785295534853836
2.510890459363958,-9.361114680372632,-3.291672020558947,-0.9694426598136843
2.5188869257950532,-9.37928846771603,-3.3189327015740453,-0.960355766141985
2.5268833922261487,-9.397462255059429,-3.346193382589143,-0.9512688724702857
2.534879858657244,-9.415636042402827,-3.373454063604241,-0.9421819787985863
2.5428763250883395,-9.433809829746226,-3.4007147446193393,-0.933095085126887
2.550872791519435,-9.451983617089624,-3.427975425634437,-0.9240081914551876
2.55886925795053,-9.470157404433023,-3.4552361066495334,-0.9149212977834889
2.5668657243816253,-9.488331191776421,-3.4824967876646316,-0.9058344041117895
2.5748621908127207,-9.567667844522967,-3.246113074204945,-0.7137809187279126
2.582858657243816,-9.25706713780919,-2.714134275618381,0.04293286219080947
2.5908551236749116,-9.194239391869822,-2.6,0.1
2.598851590106007,-9.187519672179825,-2.6,0.1
2.6068480565371024,-9.18079995248983,-2.6,0.1
2.614844522968198,-9.174080232799833,-2.6,0.1
2.622840989399293,-9.167360513109838,-2.6,0.1
2.6308374558303886,-9.16064079341984,-2.6,0.1
2.638833922261484,-9.153921073729844,-2.6,0.1
2.6468303886925795,-9.147201354039849,-2.6,0.1
2.654826855123675,-9.140481634349852,-2.6,0.1
2.6628233215547703,-9.133761914659857,-2.6,0.1
2.6708197879858657,-9.12704219496986,-2.6,0.1
2.678816254416961,-9.120322475279863,-2.6,0.1
2.6868127208480566,-9.113602755589868,-2.6,0.1
2.694809187279152,-9.106883035899871,-2.6,0.1
2.7028056537102474,-9.100163316209876,-2.6,0.1
2.710802120141343,-9.034982332155476,-2.730035335689049,0.03498233215547539
2.7187985865724382,-9.2,-2.8798586572438163,-0.2798586572438164
2.7267950530035336,-9.2,-3.0,-0.4
2.734791519434629,-9.2,-3.0,-0.4
2.7427879858657245,-9.2,-3.0,-0.4
2.75078445229682,-9.2,-3.0,-0.4
2.7587809187279153,-9.2,-3.0,-0.4
2.7667773851590107,-9.2,-3.0,-0.4
2.774773851590106,-9.2,-3.0,-0.4
2.7827703180212016,-9.2,-3.0,-0.4
2.790766784452297,-9.2,-3.0,-0.4
2.7987632508833924,-9.464487632508865,-3.088162544169622,-0.5763250883392437
2.806759717314488,-9.062014134275607,-3.3379858657243924,-0.7
2.8147561837455832,-9.406693236913469,-3.4066932369134686,-0.9
2.8227526501766786,-9.415991453693813,-3.4159914536938123,-0.9
2.830749116607774,-9.425289670474156,-3.4252896704741556,-0.9
2.8387455830388695,-9.4345878872545,-3.4345878872544993,-0.9
2.846742049469965,-9.443886104034844,-3.4438861040348425,-0.9
2.8547385159010603,-9.453184320815186,-3.4531843208151862,-0.9
2.8627349823321557,-9.46248253759553,-3.46248253759553,-0.9
2.870731448763251,-9.471780754375873,-3.471780754375873,-0.9
2.8787279151943466,-9.481078971156217,-3.481078971156217,-0.9
2.886724381625442,-9.490377187936561,-3.4903771879365606,-0.9
2.8947208480565374,-9.499675404716903,-3.499675404716904,-0.9
2.9027173144876324,-9.49922869409932,-3.5,-0.6992286940993201
2.910713780918728,-9.490630343098143,-3.5,-0.6906303430981423
2.918710247349823,-9.482031992096964,-3.5,-0.6820319920969644
2.9267067137809186,-9.473433641095786,-3.5,-0.6734336410957865
2.934703180212014,-9.464835290094609,-3.5,-0.6648352900946086
2.9426996466431095,-9.456236939093431,-3.5,-0.6562369390934308
2.950696113074205,-9.447638588092254,-3.5,-0.6476385880922529
2.9586925795053003,-9.439040237091076,-3.5,-0.639040237091075
2.9666890459363957,-9.430441886089897,-3.5,-0.6304418860898972
2.974685512367491,-9.421843535088719,-3.5,-0.6218435350887193
2.9826819787985865,-9.413245184087542,-3.5,-0.6132451840875415
2.990678445229682,-9.404646833086364,-3.5,-0.6046468330863636
2.9986749116607774,-9.308127208480569,-3.3162544169611365,-0.41625441696113674
3.006671378091873,-9.3,-3.2,-0.4
3.014667844522968,-9.3,-3.1947552308730693,-0.4
3.0226643109540636,-9.3,-3.1857704371302655,-0.4
3.030660777385159,-9.3,-3.1767856433874617,-0.4
3.0386572438162545,-9.3,-3.167800849644658,-0.4
3.04665371024735,-9.3,-3.158816055901854,-0.4
3.0546501766784453,-9.3,-3.1498312621590503,-0.4
3.0626466431095407,-9.3,-3.1408464684162465,-0.4
3.070643109540636,-9.3,-3.1318616746734427,-0.4
3.0786395759717315,-9.3,-3.122876880930639,-0.4
3.086636042402827,-9.3,-3.113892087187835,-0.4
3.0946325088339224,-9.3,-3.1049072934450312,-0.4
3.102628975265018,-9.431448763250893,-3.0,-0.4314487632508929
3.110625441696113,-9.39480287449875,-3.0,-0.4
3.1186219081272086,-9.385818080755946,-3.0,-0.4
3.126618374558304,-9.376833287013142,-3.0,-0.4
3.1346148409893995,-9.367848493270339,-3.0,-0.4
3.142611307420495,-9.358863699527534,-3.0,-0.4
3.1506077738515903,-9.349878905784731,-3.0,-0.4
3.1586042402826857,-9.340894112041926,-3.0,-0.4
3.166600706713781,-9.331909318299124,-3.0,-0.4
3.1745971731448765,-9.322924524556319,-3.0,-0.4
3.182593639575972,-9.313939730813516,-3.0,-0.4
3.1905901060070674,-9.304954937070711,-3.0,-0.4
3.198586572438163,-9.3,-3.0,-0.4
3.206583038869258,-9.3,-3.0045376622467903,-0.4
3.2145795053003536,-9.3,-3.0124549557429243,-0.4
3.222575971731449,-9.3,-3.0203722492390583,-0.4
3.2305724381625445,-9.3,-3.028289542735193,-0.4
3.23856890459364,-9.3,-3.036206836231327,-0.4
3.246565371024735,-9.3,-3.0441241297274604,-0.4
3.2545618374558303,-9.3,-3.0520414232235944,-0.4
3.2625583038869257,-9.3,-3.0599587167197284,-0.4
3.270554770318021,-9.3,-3.0678760102158624,-0.4
3.2785512367491165,-9.3,-3.075793303711997,-0.4
3.286547703180212,-9.3,-3.083710597208131,-0.4
3.2945441696113074,-9.3,-3.091627890704265,-0.4
3.3025406360424028,-9.3,-3.099545184200399,-0.4
3.310537102473498,-9.561484098939923,-3.2,-0.4307420494699613
3.3185335689045936,-9.683808682483594,-3.2,-0.4919043412417972
3.326530035335689,-9.655249873801111,-3.2,-0.4776249369005554
3.3345265017667844,-9.626691065118626,-3.2,-0.46334553255931366
3.34252296819788,-9.598132256436143,-3.2,-0.44906612821807185
3.3505194346289753,-9.56957344775366,-3.2,-0.43478672387683004
3.3585159010600707,-9.541014639071177,-3.2,-0.42050731953558823
3.366512367491166,-9.512455830388692,-3.2,-0.4062279151943464
3.3745088339222615,-9.4,-3.1966077738515906,-0.30339222614840955
3.382505300353357,-9.4,-3.1432979976442867,-0.3567020023557135
3.3905017667844524,-9.249823321554759,-3.02491166077738,-0.4
3.398498233215548,-9.190262034785002,-3.0194759304299943,-0.4097379652149971
3.406494699646643,-9.179877013445918,-3.0402459731081644,-0.4201229865540821
3.4144911660777386,-9.169491992106833,-3.061016015786334,-0.43050800789316707
3.422487632508834,-9.159106970767747,-3.081786058464504,-0.440893029232252
3.4304840989399294,-9.148721949428662,-3.102556101142674,-0.45127805057133696
3.438480565371025,-9.138336928089577,-3.1233261438208437,-0.46166307191042194
3.4464770318021203,-9.127951906750493,-3.144096186499014,-0.4720480932495069
3.4544734982332157,-9.117566885411408,-3.164866229177184,-0.48243311458859184
3.462469964664311,-9.107181864072324,-3.185636271855354,-0.4928181359276768
3.4704664310954065,-9.205704189803136,-3.235234729934379,-0.5
3.478462897526502,-9.500503149485327,-3.098993701029344,-0.6
3.4864593639575974,-9.509194960823475,-3.08161007835305,-0.6
3.494455830388693,-9.517886772161622,-3.064226455676755,-0.6
3.502452296819788,-9.52657858349977,-3.046842833000461,-0.6
3.5104487632508836,-9.535270394837918,-3.029459210324166,-0.6
3.518445229681979,-9.543962206176063,-3.012075587647872,-0.6
3.5264416961130745,-9.552654017514211,-2.9946919649715773,-0.6
3.53443816254417,-9.561345828852359,-2.9773083422952826,-0.6
3.5424346289752653,-9.570037640190506,-2.9599247196189884,-0.6
3.5504310954063607,-9.578729451528654,-2.9425410969426937,-0.6
3.558427561837456,-9.5874212628668,-2.9251574742663995,-0.6
3.5664240282685515,-9.596113074204947,-2.907773851590105,-0.6
3.574420494699647,-9.357950530035321,-2.8806831566548934,-0.4386336866902134
3.5824169611307424,-9.1,-2.790818709947894,-0.2954093549739471
3.5904134275618373,-9.1,-2.7772653770138347,-0.2886326885069174
3.5984098939929328,-9.1,-2.763712044079775,-0.2818560220398874
3.606406360424028,-9.1,-2.7501587111457146,-0.2750793555728574
3.6144028268551236,-9.1,-2.736605378211655,-0.2683026891058274
3.622399293286219,-9.1,-2.7230520452775946,-0.2615260226387974
3.6303957597173144,-9.1,-2.709498712343535,-0.25474935617176736
3.63839222614841,-9.1,-2.6959453794094745,-0.24797268970473735
3.6463886925795053,-9.1,-2.6823920464754147,-0.2411960232377073
3.6543851590106007,-9.1,-2.6688387135413545,-0.2344193567706773
3.662381625441696,-9.1,-2.6552853806072947,-0.22764269030364725
3.6703780918727915,-9.1,-2.6417320476732344,-0.22086602383661724
3.678374558303887,-9.1,-2.6281787147391746,-0.21408935736958723
3.6863710247349823,-9.1,-2.6146253818051144,-0.20731269090255722
3.6943674911660778,-9.1,-2.6010720488710546,-0.2005360244355272
3.702363957597173,-8.903032979976444,-1.8007582449941109,-0.2992417550058891
3.7103604240282686,-8.969670200235573,-1.817417550058893,-0.282582449941107
3.718356890459364,-9.036307420494701,-1.834076855123675,-0.2659231448763249
3.7263533568904594,-9.10294464075383,-1.8507361601884573,-0.2492638398115428
3.734349823321555,-9.169581861012958,-1.8673954652532394,-0.23260453474676068
3.7423462897526503,-9.236219081272086,-1.8840547703180215,-0.2159452296819786
3.7503427561837457,-9.302856301531214,-1.9007140753828036,-0.1992859246171965
3.758339222614841,-9.369493521790343,-1.9173733804475857,-0.18262661955241438
3.7663356890459365,-9.436130742049471,-1.9340326855123677,-0.16596731448763227
3.774332155477032,-9.5027679623086,-1.9506919905771498,-0.1493080094228502
3.7823286219081274,-9.569405182567728,-1.967351295641932,-0.13264870435806808
3.7903250883392228,-9.636042402826856,-1.984010600706714,-0.11598939929328597
3.798321554770318,-9.876855123674998,-2.016077738515909,-0.13215547703181796
3.8063180212014136,-10.957950530035344,-2.047349823321552,-0.5632508833922407
3.814314487632509,-10.868551236749084,-2.13225643614338,-0.73387178192831
3.8223109540636044,-9.892913761818356,-3.0070862381816448,0.005314678636233513
3.8303074204947,-9.84968961894757,-3.050310381052431,0.037732785789323105
3.8383038869257953,-9.806465476076783,-3.093534523923217,0.0701508929424127
3.8463003533568907,-9.763241333205997,-3.136758666794003,0.1025690000955023
3.854296819787986,-9.720017190335211,-3.1799828096647893,0.1349871072485919
3.8622932862190815,-9.676793047464425,-3.223206952535575,0.1674052144016815
3.870289752650177,-9.63356890459364,-3.2664310954063613,0.1998233215547711
3.8782862190812724,-9.590344761722852,-3.3096552382771476,0.2322414287078607
3.8862826855123678,-9.547120618852066,-3.352879381147934,0.26465953586095026
3.894279151943463,-9.50389647598128,-3.3961035240187196,0.2970776430140399
3.9022756183745586,-7.6173144876324494,-3.4,-0.15512367491170065
3.910272084805654,-7.717573616018847,-3.511715744012565,-0.05899489595602288
3.9182685512367494,-7.744228504122499,-3.529485669414999,0.003199842952496812
3.9262650176678444,-7.770883392226149,-3.5472555948174325,0.06539458186101307
3.93426148409894,-7.7975382803298,-3.5650255202198666,0.12758932076953275
3.9422579505300352,-7.824193168433451,-3.582795445622301,0.18978405967805242
3.9502544169611307,-7.850848056537102,-3.600565371024735,0.25197879858657213
3.958250883392226,-7.877502944640754,-3.618335296427169,0.3141735374950918
3.9662473498233215,-7.904157832744405,-3.6361052218296033,0.3763682764036116
3.974243816254417,-7.930812720848056,-3.6538751472320374,0.43856301531213127
3.9822402826855123,-7.957467608951708,-3.671645072634472,0.5007577542206509
3.9902367491166078,-7.984122497055359,-3.689414998036906,0.5629524931291706
3.998233215547703,-8.369510348308939,-3.238112064613827,0.6923775870772346
4.006229681978799,-9.5,-3.1027025977556026,0.2
4.014226148409894,-9.5,-3.1202772492525144,0.2
4.02222261484099,-9.5,-3.1378519007494283,0.2
4.030219081272085,-9.5,-3.1554265522463405,0.2
4.038215547703181,-9.5,-3.1730012037432545,0.2
4.046212014134276,-9.5,-3.190575855240166,0.2
4.0542084805653715,-9.5,-3.20815050673708,0.2
4.0622049469964665,-9.5,-3.2257251582339923,0.2
4.070201413427562,-9.5,-3.2432998097309063,0.2
4.078197879858657,-9.5,-3.260874461227818,0.2
4.086194346289753,-9.5,-3.278449112724732,0.2
4.094190812720848,-9.5,-3.296023764221644,0.2
4.102187279151943,-10.106242638398093,-4.006242638398094,0.19375736160190585
4.110183745583039,-10.194240282685511,-4.094240282685512,0.09424028268551268
4.118180212014134,-10.185355319984295,-4.085355319984296,0.08535531998429603
4.12617667844523,-10.176470357283078,-4.076470357283078,0.0764703572830784
4.134173144876325,-10.167585394581861,-4.067585394581862,0.06758539458186175
4.142169611307421,-10.158700431880643,-4.058700431880644,0.05870043188064411
4.150166077738516,-10.149815469179426,-4.0498154691794275,0.04981546917942745
4.1581625441696115,-10.14093050647821,-4.04093050647821,0.04093050647820982
4.1661590106007065,-10.132045543776993,-4.032045543776993,0.032045543776993174
4.174155477031802,-10.123160581075775,-4.023160581075776,0.023160581075775524
4.182151943462897,-10.114275618374558,-4.014275618374559,0.014275618374558874
4.190148409893993,-10.105390655673341,-4.005390655673342,0.005390655673341238
4.198144876325088,-10.042820430452949,-3.9142306456794227,0.028589784773525726
4.206141342756184,-10.048409893992801,-3.7070671378091813,0.1
4.214137809187279,-13.007507794637291,-3.9,-0.3
4.222134275618375,-12.828763250883384,-3.9,-0.3
4.23013074204947,-12.650018707129497,-3.9,-0.3
4.238127208480566,-12.47127416337559,-3.9,-0.3
4.246123674911661,-12.292529619621702,-3.9,-0.3
4.2541201413427565,-12.113785075867794,-3.9,-0.3
4.2621166077738515,-11.935040532113906,-3.9,-0.3
4.270113074204947,-11.756295988359998,-3.9,-0.3
4.278109540636042,-11.577551444606112,-3.9,-0.3
4.286106007067138,-11.398806900852204,-3.9,-0.3
4.294102473498233,-11.220062357098316,-3.9,-0.3
4.302098939929329,-11.09740157761357,-3.5996002427097804,-0.6
4.310095406360424,-10.887393368312088,-3.567291287432629,-0.6
4.31809187279152,-10.67738515901058,-3.534982332155474,-0.6
4.326088339222615,-10.467376949709097,-3.5026733768783225,-0.6
4.334084805653711,-10.257368740407589,-3.4703644216011678,-0.6
4.342081272084806,-10.047360531106106,-3.438055466324016,-0.6
4.3500777385159015,-9.837352321804598,-3.4057465110468614,-0.6
4.3580742049469965,-9.627344112503115,-3.3734375557697103,-0.6
4.366070671378092,-9.417335903201607,-3.341128600492555,-0.6
4.374067137809187,-9.207327693900124,-3.308819645215404,-0.6
4.382063604240283,-8.997319484598616,-3.276510689938249,-0.6
4.390060070671378,-8.787311275297133,-3.2442017346610976,-0.6
4.398056537102474,-8.577303065995626,-3.211892779383943,-0.6
4.406053003533569,-8.015901060070783,-2.597349823321536,-0.8079505300353917
4.414049469964665,-8.560971161518292,-2.5195144192408536,-1.1
4.42204593639576,-8.509381055511229,-2.545309472244386,-1.1
4.430042402826856,-8.457790949504158,-2.571104525247921,-1.1
4.438038869257951,-8.406200843497093,-2.5968995782514535,-1.1
4.446035335689046,-8.354610737490027,-2.622694631254986,-1.1
4.4540318021201415,-8.303020631482957,-2.6484896842585215,-1.1
4.4620282685512365,-8.251430525475891,-2.6742847372620537,-1.1
4.470024734982332,-8.196289752650115,-2.7049469964665134,-1.1012367491166284
4.478021201413427,-8.801110001536335,-3.7,-1.9011100015363336
4.486017667844523,-8.809801812874483,-3.7,-1.9098018128744814
4.494014134275618,-8.818493624212628,-3.7,-1.918493624212628
4.502010600706714,-8.827185435550776,-3.7,-1.9271854355507758
4.510007067137809,-8.835877246888924,-3.7,-1.9358772468889225
4.518003533568905,-8.844569058227071,-3.7,-1.9445690582270703
4.526,-8.853260869565217,-3.7,-1.953260869565217
4.533996466431096,-8.861952680903364,-3.7,-1.9619526809033647
4.541992932862191,-8.870644492241512,-3.7,-1.9706444922415114
4.5499893992932865,-8.87933630357966,-3.7,-1.9793363035796592
4.5579858657243815,-8.888028114917807,-3.7,-1.9880281149178058
4.565982332155477,-8.896719926255955,-3.7,-1.9967199262559536
4.573978798586572,-8.98297997644287,-3.7,-2.0829799764428696
4.581975265017668,-9.1,-3.6512367491166104,-2.2
4.589971731448763,-9.1,-3.251413427561847,-2.2
4.597968197879859,-9.1,-3.106452205038778,-2.1870955899224445
4.605964664310954,-9.1,-3.1168372263778625,-2.1663255472442753
4.61396113074205,-9.1,-3.127222247716948,-2.1455555045661043
4.621957597173145,-9.1,-3.1376072690560326,-2.1247854618879356
4.629954063604241,-9.1,-3.147992290395118,-2.1040154192097646
4.637950530035336,-9.1,-3.158377311734202,-2.083245376531596
4.6459469964664315,-9.1,-3.1687623330732877,-2.0624753338534245
4.6539434628975265,-9.1,-3.1791473544123723,-2.041705291175256
4.661939929328622,-9.1,-3.1895323757514578,-2.020935248497085
4.669936395759717,-9.1,-3.1999173970905423,-2.000165205818916
4.677932862190813,-9.331095406360452,-3.3,-1.351236749116392
4.685929328621908,-9.465881429132317,-3.286823714173537,-0.8
4.693925795053004,-9.554731056144492,-3.2690537887711013,-0.8
4.701922261484099,-9.643580683156658,-3.251283863368668,-0.8
4.709918727915195,-9.732430310168835,-3.233513937966233,-0.8
4.71791519434629,-9.821279937181002,-3.2157440125637997,-0.8
4.725911660777386,-9.910129564193179,-3.197974087161364,-0.8
4.733908127208481,-9.998979191205345,-3.180204161758931,-0.8
4.7419045936395765,-10.08782881821752,-3.162434236356496,-0.8
4.7499010600706715,-10.176678445229689,-3.1446643109540626,-0.8
4.757897526501767,-10.265528072241864,-3.126894385551627,-0.8
4.765893992932862,-10.35437769925403,-3.109124460149194,-0.8
4.773890459363958,-10.853886925795152,-2.970318021201385,-0.8
4.781886925795053,-10.252767962308543,-2.8,0.1660777385159361
4.789883392226148,-10.148586572438164,-2.774293286219082,0.18286219081272148
4.797879858657244,-10.096435704409277,-2.7482178522046388,0.16547856813642606
4.805876325088339,-10.044284836380397,-2.7221424181901988,0.14809494546013258
4.813872791519435,-9.99213396835151,-2.6960669841757556,0.13071132278383715
4.82186925795053,-9.93998310032263,-2.669991550161315,0.11332770010754367
4.829865724381626,-9.887832232293745,-2.6439161161468725,0.09594407743124825
4.837862190812721,-9.835681364264865,-2.617840682132432,0.07856045475495475
4.8458586572438165,-9.783530496235977,-2.591765248117989,0.06117683207865934
4.8538551236749115,-9.731379628207097,-2.565689814103549,0.043793209402365835
4.861851590106007,-9.67922876017821,-2.539614380089106,0.02640958672607044
4.869848056537102,-9.62707789214933,-2.5135389460746653,0.00902596404977693
4.877844522968198,-11.223321554770296,-3.245583038869306,-0.023321554770297293
4.885840989399293,-7.690203484830024,-3.6032655050566587,0.9967344949433412
4.893837455830389,-7.662629462653832,-3.6124568457820563,0.9875431542179437
4.901833922261484,-7.635055440477641,-3.621648186507453,0.9783518134925471
4.90983038869258,-7.6074814183014485,-3.6308395272328506,0.9691604727671496
4.917826855123675,-7.579907396125259,-3.640030867958247,0.959969132041753
4.925823321554771,-7.552333373949066,-3.6492222086836446,0.9507777913163554
4.933819787985866,-7.524759351772877,-3.6584135494090413,0.9415864505909589
4.9418162544169615,-7.497185329596684,-3.667604890134439,0.9323951098655614
4.9498127208480565,-7.469611307420495,-3.676796230859835,0.9232037691401648
4.957809187279152,-7.442037285244302,-3.685987571585233,0.9140124284147673
4.965805653710247,-7.414463263068113,-3.6951789123106296,0.9048210876893706
4.973802120141343,-7.4,-3.6415058439793317,0.9292470780103341
4.981798586572438,-7.4,-3.5184832835009465,0.9907583582495266
4.989795053003534,-9.7,-3.0950922654102833,-0.30196309383588665
4.997791519434629,-9.7,-3.0457313615146355,-0.32170745539414575
5.005787985865725,-9.7,-2.9963704576189825,-0.34145181695240706
5.01378445229682,-9.7,-2.9470095537233347,-0.36119617851066615
5.021780918727916,-9.7,-2.8976486498276817,-0.3809405400689274
5.029777385159011,-9.7,-2.848287745932034,-0.4006849016271865
5.0377738515901065,-9.7,-2.7989268420363804,-0.4204292631854478
5.0457703180212015,-9.7,-2.7495659381407327,-0.4401736247437069
5.053766784452297,-9.7,-2.7002050342450796,-0.45991798630196823
5.061763250883392,-9.7,-2.650844130349432,-0.4796623478602273
5.069759717314488,-9.7,-2.601483226453779,-0.4994067094184886
5.077756183745583,-8.94876325088337,-2.8024734982332573,0.32520612485277145
5.085752650176679,-8.48082449941107,-3.751134668237146,0.36804083235178375
5.093749116607774,-8.454169611307421,-3.8222143698468796,0.3236160188457005
5.10174558303887,-8.427514723203767,-3.8932940714566207,0.2791912053396123
5.109742049469965,-8.400859835100118,-3.9643737730663537,0.23476639183352907
5.11773851590106,-8.374204946996468,-4.035453474676087,0.1903415783274458
5.125734982332156,-8.347550058892814,-4.106533176285828,0.14591676482135763
5.133731448763251,-8.320895170789164,-4.1776128778955615,0.10149195131527439
5.1417279151943465,-8.29424028268551,-4.2486925795053025,0.05706713780918621
5.149724381625441,-8.267585394581861,-4.319772281115036,0.012642324303102914
5.157720848056537,-8.240930506478207,-4.390851982724777,-0.031782489202985265
5.165717314487632,-8.214275618374558,-4.46193168433451,-0.0762073027090685
5.173713780918728,-7.982155477031796,-4.453533568904613,-0.12862190812718308
5.181710247349823,-7.910021802871965,-4.705010901435982,0.17995639425607027
5.189706713780919,-7.927035561235999,-4.713517780617999,0.14592887752800288
5.197703180212014,-7.944049319600031,-4.722024659800015,0.11190136079993927
5.20569964664311,-7.961063077964064,-4.730531538982032,0.07787384407187188
5.213696113074205,-7.978076836328096,-4.739038418164048,0.04384632734380828
5.221692579505301,-7.99509059469213,-4.747545297346065,0.009818810615740886
5.229689045936396,-8.012104353056161,-4.7560521765280805,-0.024208706112322703
5.2376855123674915,-8.029118111420194,-4.764559055710097,-0.058236222840390095
5.245681978798586,-8.046131869784226,-4.773065934892113,-0.09226373956845368
5.253678445229682,-8.063145628148261,-4.7815728140741305,-0.1262912562965211
5.261674911660777,-8.080159386512292,-4.790079693256146,-0.1603187730245847
5.269671378091873,-8.097173144876326,-4.798586572438163,-0.1943462897526521
5.277667844522968,-8.033480565371006,-5.700088339222604,-0.9000883392226037
5.285664310954064,-8.223180212014135,-5.8,-1.011590106007068
5.293660777385159,-8.250994008296205,-5.8,-1.0254970041481026
5.301657243816255,-8.278807804578276,-5.8,-1.0394039022891388
5.30965371024735,-8.306621600860346,-5.8,-1.0533108004301737
5.317650176678446,-8.33443539714242,-5.8,-1.0672176985712098
5.325646643109541,-8.36224919342449,-5.8,-1.0811245967122445
5.3336431095406365,-8.39006298970656,-5.8,-1.0950314948532807
5.3416395759717314,-8.41787678598863,-5.8,-1.1089383929943155
5.349636042402827,-8.445690582270704,-5.8,-1.1228452911353517
5.357632508833922,-8.473504378552773,-5.8,-1.1367521892763865
5.365628975265018,-8.501318174834845,-5.8,-1.1506590874174227
5.373625441696113,-8.529131971116914,-5.8,-1.1645659855584574
5.381621908127209,-8.556945767398988,-5.8,-1.1784728836994938
5.389618374558304,-8.584759563681056,-5.8,-1.1923797818405284
5.3976148409894,-10.51113074205006,-5.619257950529995,-1.8229681978800159
5.405611307420495,-14.785843407104338,-6.101286962990515,-2.196782592523713
5.413607773851591,-14.600662079226328,-6.118121629161243,-2.154695927096893
5.421604240282686,-14.415480751348339,-6.134956295331969,-2.112609261670077
5.4296007067137815,-14.230299423470328,-6.151790961502697,-2.0705225962432565
5.4375971731448765,-14.04511809559234,-6.168625627673423,-2.028435930816441
5.445593639575972,-13.859936767714329,-6.185460293844152,-1.9863492653896202
5.453590106007067,-13.67475543983634,-6.202294960014878,-1.9442625999628045
5.461586572438162,-13.48957411195835,-6.219129626185604,-1.9021759345359888
5.469583038869258,-13.30439278408034,-6.235964292356332,-1.8600892691091682
5.477579505300353,-13.11921145620235,-6.252798958527059,-1.8180026036823524
5.485575971731449,-12.934030128324341,-6.269633624697787,-1.775915938255532
5.493572438162544,-12.748848800446352,-6.286468290868513,-1.7338292728287161
5.50156890459364,-10.638869257950052,-5.90777385159001,-1.2293286219080124
5.509565371024735,-7.388457008244827,-3.6376914016489654,-1.1471142520612068
5.517561837455831,-9.2,-4.009728496667712,-1.603242832222571
5.525558303886926,-9.2,-4.04009482488706,-1.61336494162902
5.5335547703180215,-9.2,-4.070461153106411,-1.6234870510354704
5.541551236749116,-9.2,-4.100827481325759,-1.6336091604419196
5.549547703180212,-9.2,-4.13119380954511,-1.6437312698483701
5.557544169611307,-9.2,-4.161560137764458,-1.6538533792548193
5.565540636042403,-9.2,-4.1919264659838085,-1.6639754886612697
5.573537102473498,-9.2,-4.222292794203157,-1.6740975980677189
5.581533568904594,-9.2,-4.252659122422508,-1.6842197074741694
5.589530035335689,-9.2,-4.283025450641856,-1.6943418168806186
5.597526501766785,-8.80176678445231,-3.742049469964606,-1.449116607773845
5.60552296819788,-8.8,-2.6756829666780657,-1.1902731866712262
5.613519434628976,-8.8,-2.632691211672174,-1.1730764846688695
5.621515901060071,-8.8,-2.589699456666287,-1.1558797826665148
5.6295123674911665,-8.8,-2.546707701660395,-1.1386830806641581
5.637508833922261,-8.8,-2.5037159466545083,-1.1214863786618032
5.645505300353357,-8.8,-2.460724191648617,-1.1042896766594466
5.653501766784452,-8.8,-2.41773243664273,-1.0870929746570919
5.661498233215548,-8.8,-2.374740681636838,-1.0698962726547352
5.669494699646643,-8.8,-2.3317489266309512,-1.0526995706523803
5.677491166077739,-8.8,-2.2887571716250594,-1.0355028686500236
5.685487632508834,-8.8,-2.2457654166191725,-1.018306166647669
5.69348409893993,-8.8,-2.2027736616132807,-1.001109464645312
5.701480565371025,-8.893507067137811,-2.0129858657243798,-0.9064929328621899
5.709477031802121,-8.628107934468343,-2.2718920655316577,-0.9679730163829144
5.717473498233216,-8.934441114639712,-2.803131010421792,-0.9062620208435842
5.7254699646643115,-9.045784318110668,-2.8132531198282424,-0.9265062396564852
5.733466431095406,-9.15712752158161,-2.8233752292346916,-0.9467504584693839
5.741462897526502,-9.268470725052566,-2.833497338641142,-0.9669946772822849
5.749459363957597,-9.379813928523511,-2.843619448047592,-0.9872388960951837
5.757455830388693,-9.491157131994466,-2.8537415574540423,-1.0074831149080847
5.765452296819788,-9.602500335465407,-2.8638636668604915,-1.0277273337209833
5.773448763250884,-9.713843538936363,-2.873985776266942,-1.0479715525338844
5.781445229681979,-9.825186742407308,-2.8841078856733913,-1.068215771346783
5.789441696113075,-9.936529945878263,-2.894229995079842,-1.088459990159684
5.79743816254417,-11.225996971226648,-2.858909641595155,-1.5616355376072675
5.805434628975265,-12.60154261180136,-2.8984573881986404,-1.6969147763972807
5.813431095406361,-12.610140962802538,-2.889859037197462,-1.679718074394924
5.821427561837456,-12.618739313803715,-2.8812606861962844,-1.6625213723925691
5.829424028268551,-12.627337664804893,-2.872662335195106,-1.6453246703902125
5.837420494699646,-12.63593601580607,-2.864063984193929,-1.6281279683878578
5.845416961130742,-12.64453436680725,-2.8554656331927504,-1.610931266385501
5.853413427561837,-12.653132717808427,-2.846867282191573,-1.5937345643831462
5.861409893992933,-12.661731068809605,-2.838268931190395,-1.5765378623807895
5.869406360424028,-12.670329419810782,-2.8296705801892172,-1.5593411603784348
5.877402826855124,-12.67892777081196,-2.821072229188039,-1.542144458376078
5.885399293286219,-12.687526121813137,-2.8124738781868617,-1.5249477563737233
5.893395759717315,-12.696124472814317,-2.8038755271856832,-1.5077510543713666
5.90139222614841,-10.50388692579516,-2.639222614840968,0.02650176678435634
5.909388692579506,-7.954171147641711,-3.2791673068059586,1.6208326931940413
5.917385159010601,-7.771643109540631,-3.2530918727915186,1.6469081272084813
5.925381625441696,-7.589115071439531,-3.227016438777076,1.6729835612229242
5.933378091872791,-7.406587033338451,-3.200941004762636,1.699058995237364
5.941374558303887,-7.224058995237351,-3.1748655707481928,1.725134429251807
5.949371024734982,-7.041530957136271,-3.1487901367337527,1.751209863266247
5.957367491166078,-6.859002919035171,-3.12271470271931,1.7772852972806898
5.965363957597173,-6.676474880934091,-3.09663926870487,1.8033607312951299
5.973360424028269,-6.493946842832991,-3.0705638346904274,1.8294361653095725
5.981356890459364,-6.311418804731911,-3.0444884006759874,1.8555115993240126
5.98935335689046,-6.1288907666308114,-3.0184129666615442,1.8815870333384555
5.997349823321555,-6.548586572437875,-2.3987632508834156,1.2287985865725237
6.005346289752651,-8.82441235212782,-1.9,1.1881855891842088
6.013342756183746,-8.685343370717474,-1.9,1.3504327341629474
6.0213392226148414,-8.546274389307111,-1.9,1.512679879141704
6.029335689045936,-8.407205407896763,-1.9,1.6749270241204428
6.037332155477032,-8.2681364264864,-1.9,1.8371741690991994
6.045328621908127,-8.129067445076053,-1.9,1.9994213140779382
6.053325088339223,-7.989998463665691,-1.9,2.1616684590566946
6.061321554770318,-7.850929482255343,-1.9,2.3239156040354336
6.069318021201414,-7.711860500844979,-1.9,2.4861627490141904
6.077314487632509,-7.491264232430306,-1.1895170789163676,2.4912642324303063
6.085310954063605,-7.269140164899864,-0.922968197879836,2.2691401648998633
6.0933074204947,-7.047016097369445,-0.6564193168433339,2.047016097369445
6.101303886925796,-7.0,-0.6245605984121917,2.0163737322747943
6.109300353356891,-7.0,-0.6557156624294448,2.037143774952963
6.1172968197879865,-7.0,-0.6868707264467014,2.0579138176311345
6.125293286219081,-7.0,-0.7180257904639546,2.078683860309303
6.133289752650177,-7.0,-0.7491808544812113,2.099453902987474
6.141286219081272,-7.0,-0.7803359184984644,2.120223945665643
6.149282685512367,-7.0,-0.8114909825157176,2.140993988343812
6.157279151943463,-7.0,-0.8426460465329741,2.161764031021983
6.165275618374558,-7.0,-0.8738011105502274,2.1825340737001517
6.173272084805654,-7.636042402826896,-1.7904593639576543,1.8183745583038626
6.181268551236749,-9.384321276849168,-2.9071266923412873,0.3327827847699225
6.189265017667845,-9.285488545678321,-2.952050661055309,0.5394330408544215
6.19726148409894,-9.186655814507484,-2.9969746297693254,0.7460832969388973
6.205257950530036,-9.087823083336637,-3.041898598483347,0.9527335530233962
6.213254416961131,-8.988990352165802,-3.0868225671973635,1.159383809107872
6.221250883392226,-8.890157620994954,-3.1317465359113847,1.366034065192371
6.229247349823321,-8.791324889824118,-3.1766705046254016,1.5726843212768469
6.237243816254417,-8.69249215865327,-3.221594473339423,1.7793345773613458
6.245240282685512,-8.593659427482434,-3.266518442053439,1.9859848334458217
6.253236749116608,-8.494826696311586,-3.311442410767461,2.1926350895303206
6.261233215547703,-8.39599396514075,-3.3563663794814773,2.3992853456147962
6.269229681978799,-8.28468786808008,-3.426796230859859,2.6191401648998993
6.277226148409894,-7.106537102473559,-5.135689045936542,2.5613074204947117
6.28522261484099,-7.461886194711848,-5.83660289996347,2.5252832947483776
6.293219081272085,-7.64111733885708,-6.098556110637269,2.4425612282198097
6.301215547703181,-7.820348483002331,-6.360509321311098,2.359839161691232
6.309212014134276,-7.999579627147562,-6.622462531984898,2.2771170951626636
6.317208480565371,-8.178810771292813,-6.884415742658727,2.1943950286340863
6.325204946996466,-8.358041915438044,-7.1463689533325265,2.111672962105518
6.333201413427562,-8.537273059583296,-7.408322164006355,2.0289508955769406
6.341197879858657,-8.716504203728528,-7.6702753746801555,1.9462288290483722
6.349194346289753,-8.895735347873778,-7.932228585353984,1.8635067625197945
6.357190812720848,-9.07496649201901,-8.194181796027783,1.7807846959912264
6.365187279151944,-9.25419763616426,-8.456135006701611,1.6980626294626489
6.373183745583039,-9.433428780309493,-8.718088217375412,1.6153405629340805
6.381180212014135,-9.612659924454743,-8.98004142804924,1.5326184964055032
6.38917667844523,-9.791891068599975,-9.24199463872304,1.4498964298769348
6.397173144876326,-3.254593639575057,-12.907773851590454,1.289575971732102
6.405169611307421,3.3097614840989467,-15.132133392226148,4.763758833922257
6.413166077738516,4.359297703180278,-15.173781654888106,3.939123233215496
6.421162544169611,5.408833922261492,-15.21542991755006,3.114487632508828
6.429159010600707,6.458370141342822,-15.257078180212016,2.289852031802068
6.437155477031802,7.5079063604240375,-15.298726442873969,1.4652164310953997
6.445151943462898,8.557442579505368,-15.340374705535927,0.6405808303886396
6.453148409893993,9.606978798586582,-15.38202296819788,-0.18405477031802864
6.461144876325089,10.656515017667914,-15.423671230859837,-1.0086903710247892
6.469141342756184,11.706051236749127,-15.46531949352179,-1.8333259717314574
6.47713780918728,12.755587455830458,-15.506967756183748,-2.657961572438218
6.485134275618375,13.805123674911673,-15.548616018845701,-3.4825971731448853
6.49313074204947,14.854659893992887,-15.590264281507654,-4.307232773851554
6.501127208480566,14.780918727915134,-14.312720848056577,-2.4041696113074957
6.5091236749116606,13.233097762074616,-14.906242638398954,-3.8340400471145375
6.517120141342756,4.593850728259921,-10.05033181073856,-2.10643368094456
6.525116607773851,4.42807032663966,-9.504231664224761,-1.8041282426958503
6.533113074204947,4.262289925019381,-8.958131517710903,-1.5018228044471071
6.541109540636042,4.0965095233991216,-8.412031371197106,-1.1995173661983975
6.549106007067138,3.930729121778843,-7.865931224683246,-0.8972119279496542
6.557102473498233,3.7649487201585825,-7.3198310781694484,-0.5949064897009446
6.565098939929329,3.599168318538304,-6.773730931655589,-0.2926010514522015
6.573095406360424,3.433387916918044,-6.227630785141791,0.009704386796507869
6.58109187279152,3.2676075152977653,-5.681530638627932,0.31200982504525143
6.589088339222615,3.1018271136775053,-5.135430492114134,0.6143152632939608
6.597084805653711,-0.9437809187281522,2.650883392226312,5.6806713780918425
6.6050812720848056,-7.900706713780926,7.448763250883398,4.801060070671377
6.613077738515901,-5.5815021776646425,3.722853151450426,10.757325992275451
6.621074204946996,-7.506233051195636,4.159869340126545,10.673642041252364
6.629070671378092,-9.430963924726843,4.596885528802713,10.589958090229269
6.637067137809187,-11.355694798257835,5.033901717478832,10.506274139206182
6.645063604240283,-13.280425671789041,5.470917906154999,10.422590188183086
6.653060070671378,-15.205156545320035,5.907934094831118,10.33890623716
6.661056537102474,-17.12988741885124,6.344950283507286,10.255222286136902
6.669053003533569,-19.054618292382234,6.781966472183405,10.171538335113816
6.677049469964665,-20.97934916591344,7.218982660859572,10.08785438409072
6.68504593639576,-22.90408003944443,7.655998849535692,10.004170433067634
6.693042402826856,-24.82881091297564,8.09301503821186,9.920486482044538
6.701038869257951,-24.093437657748748,9.048258455325616,-8.078142352347127
6.709035335689046,-35.50227761560916,7.838016592410534,13.909429251805175
6.717031802120141,-35.77172376709171,10.045736672299807,12.353595022276908
6.725028268551237,-36.04116991857428,12.253456752189324,10.797760792748468
6.733024734982332,-36.31061607005684,14.461176832078596,9.2419265632202
6.741021201413428,-36.580062221539414,16.668896911968115,7.686092333691761
6.749017667844523,-36.84950837302196,18.87661699185739,6.130258104163493
6.757014134275619,-37.118954524504545,21.08433707174691,4.574423874635054
6.765010600706714,-37.38840067598709,23.29205715163618,3.018589645106786
6.77300706713781,-37.65784682746967,25.499777231525698,1.4627554155783464
6.781003533568905,-37.927292978952224,27.70749731141497,-0.09307881394992101
6.789000000000001,-38.1967391304348,29.915217391304488,-1.648913043478359
6.796996466431096,-38.46618528191735,32.122937471193765,-3.204747273006628
6.804992932862191,-23.35644876325265,-4.630123674911172,21.42305653710266
6.812989399293286,-24.38855516293676,-3.9582449941107196,19.836160188456976
6.820985865724382,-22.544925402434103,-4.0248822143698515,17.70376914016475
6.828982332155477,-20.701295641931655,-4.091519434628976,15.571378091872758
6.836978798586572,-18.857665881429202,-4.158156654888101,13.438987043580767
6.844975265017668,-17.014036120926548,-4.224793875147233,11.30659599528854
6.852971731448763,-15.170406360424098,-4.291431095406358,9.174204946996548
6.860968197879859,-13.326776599921443,-4.35806831566549,7.041813898704321
6.868964664310954,-11.48314683941899,-4.424705535924614,4.90942285041233
6.87696113074205,-9.639517078916334,-4.491342756183747,2.777031802120103
6.884957597173145,2.4814351726008574,-6.5872791519433935,-6.277276433813244
6.892954063604241,6.677267373379835,-10.419199057715161,-3.152650176677369
6.9009505300353355,-8.439103170258287,6.2656895436222175,4.650077141292982
6.908946996466431,-8.720668889663072,4.981749863136399,4.751440800278705
6.916943462897526,-9.002234609067825,3.6978101826507217,4.852804459264417
6.924939929328622,-9.28380032847261,2.413870502164902,4.954168118250139
6.932936395759717,-9.565366047877363,1.1299308216792259,5.05553177723585
6.940932862190813,-9.846931767282149,-0.15400885880659398,5.156895436221573
6.948929328621908,-10.128497486686902,-1.43794853929227,5.2582590952072845
6.956925795053004,-10.410063206091687,-2.7218882197780907,5.359622754193007
6.964922261484099,-10.69162892549644,-4.005827900263766,5.460986413178718
6.972918727915195,-5.207624084431237,1.1135937097793136,5.584751831137526
6.98091519434629,-5.23939812323029,0.7534879367233805,5.52120375353942
6.988911660777386,-5.271172162029346,0.3933821636674075,5.457655675941307
6.9969081272084805,-5.3029462008284,0.03327639061147458,5.394107598343201
7.004904593639576,-5.334720239627456,-0.32682938244449833,5.330559520745088
7.012901060070671,-5.366494278426509,-0.6869351555004315,5.267011443146982
7.020897526501767,-5.398268317225565,-1.0470409285564044,5.20346336554887
7.028893992932862,-5.430042356024618,-1.4071467016123373,5.139915287950764
7.036890459363958,-5.461816394823675,-1.7672524746683103,5.076367210352651
7.044886925795053,-5.493590433622727,-2.127358247724244,5.0128191327545455
7.052883392226149,-5.525364472421784,-2.4874640207802168,4.949271055156433
7.060879858657244,-5.5571385112208365,-2.847569793836149,4.885722977558327
7.06887632508834,-5.588912550019893,-3.2076755668921226,4.822174899960213
7.076872791519435,-5.620686588818946,-3.5677813399480556,4.758626822362108
7.084869257950531,-5.6524606276180025,-3.9278871130040285,4.695078744763995
7.0928657243816255,-5.684234666417056,-4.287992886059961,4.631530667165889
7.100862190812721,-5.716008705216112,-4.648098659115934,4.567982589567777
7.108858657243816,-5.747782744015165,-5.008204432171867,4.504434511969671
7.116855123674912,-5.779556782814221,-5.36831020522784,4.440886434371558
7.124851590106007,-8.39222614841017,0.6703180212014529,8.598586572439231
7.132848056537103,-12.257749976124515,-5.6756804507687,2.9686944895425844
7.140844522968198,-12.063241333205987,-4.822003629070722,3.3360997039442464
7.148840989399294,-11.86873269028744,-3.9683268073726485,3.7035049183459487
7.156837455830389,-11.674224047368913,-3.11464998567467,4.07091013274761
7.164833922261485,-11.479715404450364,-2.2609731639765966,4.438315347149313
7.17283038869258,-11.285206761531837,-1.4072963422786176,4.805720561550975
7.180826855123675,-11.090698118613311,-0.5536195205806393,5.173125775952636
7.1888233215547706,-10.896189475694761,0.3000573011174348,5.5405309903543385
7.1968197879858655,-10.701680832776235,1.153734122815413,5.907936204756
7.204816254416961,-15.227561837455806,7.032508833922588,2.030742049469671
7.212812720848056,-3.748859620944429,12.082653389013824,4.867121747510437
7.220809187279152,-3.6034693221972316,11.464744619338237,5.057946514616133
7.228805653710247,-3.4580790234500505,10.846835849662716,5.248771281721808
7.236802120141343,-3.3126887247028534,10.228927079987127,5.439596048827505
7.244798586572438,-3.1672984259556722,9.611018310311607,5.630420815933181
7.252795053003534,-3.0219081272084747,8.993109540636018,5.821245583038877
7.260791519434629,-2.8765178284612936,8.375200770960499,6.012070350144552
7.268787985865725,-2.7311275297140964,7.75729200128491,6.2028951172502484
7.27678445229682,-2.585737230966915,7.139383231609389,6.393719884355924
7.2847809187279156,-2.4403469322197178,6.521474461933801,6.584544651461621
7.2927773851590105,-2.2949566334725366,5.90356569225828,6.775369418567296
7.300773851590106,-2.0890459363957437,4.778798586572335,6.234275618374463
7.308770318021201,-2.865547703180181,-0.9932862190810869,3.8727326266196176
7.316766784452297,-2.4162587793918973,2.888356672337842,2.5325524582297314
7.324763250883392,-2.663063298870136,3.0759281071413036,2.6016577236836382
7.332759717314488,-2.909867818348402,3.263499541944786,2.6707629891375526
7.340756183745583,-3.156672337826641,3.4510709767482473,2.7398682545914594
7.348752650176679,-3.403476857304907,3.6386424115517295,2.808973520045374
7.356749116607774,-3.6502813767831457,3.826213846355191,2.878078785499281
7.36474558303887,-3.8970858962614114,4.013785281158674,2.9471840509531955
7.372742049469965,-4.143890415739651,4.201356715962135,3.0162893164071023
7.380738515901061,-4.390694935217916,4.388928150765617,3.0853945818610167
7.3887349823321555,-4.6374994546961545,4.576499585569078,3.1544998473149235
7.396731448763251,-6.024558303886482,3.975441696113518,3.687985865723904
7.404727915194346,-5.046294527743275,11.534619425078771,-1.7396953490593177
7.412724381625442,-4.797755706236245,11.232050424983255,-1.9233979562601666
7.420720848056537,-4.549216884729241,10.929481424887772,-2.107100563460995
7.428717314487633,-4.30067806322221,10.626912424792256,-2.290803170661844
7.436713780918728,-4.0521392417152065,10.324343424696774,-2.4745057778626727
7.444710247349824,-3.8036004202081757,10.021774424601258,-2.658208385063522
7.452706713780919,-3.5550615987011724,9.719205424505775,-2.8419109922643506
7.460703180212015,-3.3065227771941412,9.41663642441026,-3.0256135994651996
7.46869964664311,-3.057983955687138,9.114067424314777,-3.2093162066660286
7.476696113074206,-2.8094451341801068,8.81149842421926,-3.3930188138668775
7.4846925795053005,0.2703685007571899,2.120747097425555,-5.912216052498726
7.492689045936396,-0.5235865724382677,2.0240282685513327,-7.519125441696161
7.500685512367491,-2.102888692579523,3.463392226148427,-8.248803003533578
7.508681978798586,-3.6821908127207785,4.90275618374552,-8.978480565370994
7.516678445229682,-5.26149293286221,6.342120141342774,-9.70815812720849
7.524674911660777,-6.840795053003466,7.781484098939869,-10.437835689045905
7.532671378091873,-8.420097173144896,9.220848056537122,-11.167513250883403
7.540667844522968,-9.999399293286151,10.660212014134217,-11.897190812720819
7.548664310954064,-11.578701413427583,12.09957597173147,-12.626868374558315
7.556660777385159,-13.158003533568838,13.538939929328563,-13.35654593639573
7.564657243816255,-14.73730565371027,14.978303886925818,-14.086223498233228
7.57265371024735,2.9922553734158894,6.348122957570614,-14.649881771566717
7.5806501766784455,2.667586811551847,6.191801057413852,-14.800191290948218
7.5886466431095405,2.3429182496878402,6.035479157257108,-14.950500810329704
7.596643109540636,2.018249687823798,5.879157257100347,-15.100810329711205
7.604639575971731,1.6935811259597915,5.7228353569436035,-15.251119849092689
7.612636042402827,1.3689125640957491,5.566513456786843,-15.40142936847419
7.620632508833922,1.0442440022317427,5.410191556630099,-15.551738887855675
7.628628975265018,0.7195754403676999,5.253869656473337,-15.702048407237177
7.636625441696113,0.39490687850369355,5.097547756316594,-15.85235792661866
7.644621908127209,0.07023831663965119,4.941225856159832,-16.002667446000164
7.652618374558304,-0.2544302452243552,4.784903956003088,-16.152976965381647
7.6606148409894,-0.5790988070883976,4.628582055846327,-16.30328648476315
7.668611307420495,-0.9037673689524044,4.472260155689583,-16.453596004144632
7.6766077738515905,-1.2284359308164468,4.3159382555328225,-16.603905523526134
7.6846042402826855,-1.5531044926804527,4.1596163553760785,-16.754215042907617
7.692600706713781,-1.877773054544496,4.003294455219317,-16.90452456228912
7.700597173144876,-2.202441616408502,3.8469725550625733,-17.054834081670606
7.708593639575972,1.8144876325090706,2.54487632508813,-9.30848056537066
7.716590106007067,3.825465253239108,0.6068315665488846,-6.183851590106004
7.724586572438163,3.7188457008244953,0.4735571260306194,-6.303798586572443
7.732583038869258,3.612226148409895,0.34028268551236895,-6.423745583038867
7.740579505300354,3.505606595995283,0.20700824499410375,-6.543692579505306
7.748575971731449,3.3989870435806826,0.07373380447585332,-6.6636395759717315
7.756572438162545,3.2923674911660705,-0.05954063604241189,-6.78358657243817
7.76456890459364,3.1857479387514704,-0.19281507656066232,-6.903533568904596
7.7725653710247355,-0.7893992932868947,-0.6434628975264631,-7.506713780919211
7.7805618374558305,0.4719099118392414,-2.659549559196207,-10.123596387907337
7.788558303886926,0.43152371774279735,-2.4576185887139865,-10.301295641931691
7.796554770318021,0.39113752364635784,-2.255687618231789,-10.478994895956026
7.804551236749117,0.35075132954991384,-2.053756647749569,-10.656694149980378
7.812547703180212,0.3103651354534743,-1.8518256772673714,-10.834393404004713
7.820544169611308,0.26997894135703027,-1.649894706785151,-11.012092658029067
7.828540636042403,0.2295927472605907,-1.4479637363029534,-11.189791912053401
7.836537102473499,0.1892065531641467,-1.2460327658207333,-11.367491166077754
7.844533568904594,0.14882035906770713,-1.0441017953385356,-11.545190420102088
7.852530035335689,0.10843416497126762,-0.842170824856338,-11.722889674126423
7.860526501766785,0.06804797087482356,-0.6402398543741179,-11.900588928150775
7.86852296819788,0.02766177677838405,-0.43830888389192024,-12.07828818217511
7.8765194346289755,-4.275265017668122,-0.6844522968196174,-10.296113074204904
7.8845159010600705,-3.7285305227245047,2.633142439381022,-6.638040696966006
7.892512367491166,-3.7698915559887936,2.8261605946143695,-6.693188741318391
7.900508833922261,-3.8112525892530775,3.0191787498476956,-6.74833678567077
7.908505300353357,-3.8526136225173664,3.212196905081043,-6.803484830023155
7.916501766784452,-3.8939746557816504,3.4052150603143687,-6.858632874375534
7.924498233215548,-3.9353356890459392,3.598233215547716,-6.913780918727919
7.932494699646643,-3.9766967223102236,3.7912513707810422,-6.968928963080298
7.940491166077739,-4.018057755574512,3.9842695260143897,-7.024077007432683
7.948487632508834,-4.059418788838796,4.177287681247716,-7.079225051785062
7.95648409893993,-4.100779822103085,4.370305836481063,-7.1343730961374465
7.964480565371025,-4.142140855367369,4.563323991714389,-7.189521140489826
7.9724770318021205,-4.183501888631658,4.756342146947737,-7.244669184842211
7.9804734982332155,-4.224862921895942,4.949360302181063,-7.2998172291945895
7.988469964664311,-4.266223955160231,5.14237845741441,-7.354965273546974
7.996466431095406,-1.2938162544169,4.273498233215527,-9.379681978798626
8.004462897526501,0.055211103420635003,5.627605551710317,-8.73558704600926
8.012459363957598,0.15413646133111072,5.677068230665555,-8.620174128447038
8.020455830388693,0.25306181924156446,5.726530909620782,-8.504761210884842
8.028452296819788,0.3519871771520182,5.775993588576009,-8.389348293322646
8.036448763250883,0.450912535062472,5.825456267531236,-8.27393537576045
8.04444522968198,0.5498378929729477,5.874918946486474,-8.158522458198227
8.052441696113075,0.6487632508834015,5.9243816254417005,-8.043109540636031
8.06043816254417,0.7476886087938551,5.973844304396928,-7.927696623073836
8.068434628975265,0.8466139667043089,6.023306983352154,-7.81228370551164
8.076431095406361,0.9455393246147846,6.072769662307392,-7.696870787949418
8.084427561837456,1.0444646825252384,6.122232341262619,-7.581457870387222
8.092424028268551,1.143390040435692,6.171695020217847,-7.466044952825026
8.100420494699646,1.4,5.857950530035436,-7.65512367491141
8.108416961130743,1.811254792872706,6.15221411923915,-8.034132771972036
8.116413427561838,1.7006653635064983,6.092665964965038,-8.076667167882116
8.124409893992933,1.5900759341402906,6.033117810690926,-8.119201563792195
8.132406360424028,1.4794865047740828,5.973569656416814,-8.161735959702275
8.140402826855125,1.3688970754078504,5.914021502142689,-8.204270355612366
8.14839929328622,1.2583076460416427,5.854473347868577,-8.246804751522445
8.156395759717315,1.1477182166754352,5.794925193594465,-8.289339147432525
8.16439222614841,1.0371287873092272,5.735377039320353,-8.331873543342605
8.172388692579506,0.9265393579429949,5.675828885046228,-8.374407939252695
8.180385159010601,0.8159499285767873,5.616280730772116,-8.416942335162775
8.188381625441696,0.7053604992105795,5.556732576498004,-8.459476731072854
8.196378091872791,0.5747938751472286,5.4243816254416855,-8.56301531213193
8.204374558303886,0.20277688546239775,4.195834671806404,-8.9013884427312
8.212371024734983,0.21893136310097702,4.1716029553485345,-8.909465681550488
8.220367491166078,0.2350858407395527,4.147371238890671,-8.917542920369776
8.228363957597173,0.2512403183781284,4.123139522432807,-8.925620159189064
8.236360424028268,0.267394796016704,4.098907805974944,-8.933697398008352
8.244356890459365,0.28354927365528326,4.074676089517075,-8.941774636827642
8.25235335689046,0.29970375129385896,4.050444373059212,-8.94985187564693
8.260349823321555,0.31585822893243465,4.0262126566013485,-8.957929114466218
8.26834628975265,0.33201270657101034,4.0019809401434845,-8.966006353285506
8.276342756183746,0.3481671842095896,3.9777492236856156,-8.974083592104796
8.284339222614841,0.3643216618481653,3.953517507227752,-8.982160830924082
8.292335689045936,0.3804761394867409,3.929285790769889,-8.99023806974337
8.300332155477031,0.39663061712531655,3.9050540743120252,-8.998315308562658
8.308328621908128,0.46643109540641975,3.8,-9.2
8.316325088339223,0.5,3.817235501974644,-9.174146747038034
8.324321554770318,0.5,3.8360507171066316,-9.145923924340051
8.332318021201413,0.5,3.85486593223862,-9.11770110164207
8.34031448763251,0.5,3.873681147370612,-9.089478278944082
8.348310954063605,0.5,3.8924963625026,-9.0612554562461
8.3563074204947,0.5,3.9113115776345877,-9.033032633548117
8.364303886925795,0.5,3.930126792766576,-9.004809810850135
8.372300353356891,0.5,3.948942007898568,-8.976586988152148
8.380296819787986,0.5,3.967757223030556,-8.948364165454166
8.388293286219081,0.5,3.9865724381625443,-8.920141342756184
8.396289752650176,0.614487632508783,4.0,-8.8
8.404286219081273,0.642852553806611,4.114294892386778,-8.85714744619339
8.412282685512368,0.6036474283470747,4.2145897133883,-8.903647428347075
8.420279151943463,0.6125323910482914,4.250129564193166,-8.912532391048291
8.428275618374558,0.6214173537495081,4.285669414998033,-8.921417353749508
8.436272084805655,0.6303023164507267,4.321209265802907,-8.930302316450726
8.44426855123675,0.6391872791519434,4.356749116607774,-8.939187279151943
8.452265017667845,0.64807224185316,4.39228896741264,-8.94807224185316
8.46026148409894,0.6569572045543767,4.427828818217507,-8.956957204554376
8.468257950530036,0.6658421672555953,4.4633686690223815,-8.965842167255595
8.476254416961131,0.6747271299568119,4.498908519827248,-8.974727129956811
8.484250883392226,0.6836120926580286,4.534448370632115,-8.983612092658028
8.492247349823321,0.6924970553592452,4.569988221436981,-8.992497055359244
8.500243816254418,0.6378091872790908,4.53780918727909,-8.875618374558181
8.508240282685513,0.5,4.190471274864015,-8.714293087703977
8.516236749116608,0.5,4.172501687378408,-8.741247468932388
8.524233215547703,0.5,4.154532099892801,-8.768201850160796
8.532229681978798,0.5,4.136562512407195,-8.795156231389207
8.540226148409895,0.5,4.118592924921584,-8.822110612617623
8.54822261484099,0.5,4.1006233374359775,-8.849064993846033
8.556219081272085,0.5,4.082653749950371,-8.876019375074444
8.56421554770318,0.5,4.064684162464765,-8.902973756302853
8.572212014134276,0.5,4.046714574979154,-8.929928137531268
8.580208480565371,0.5,4.028744987493547,-8.956882518759679
8.588204946996466,0.5,4.010775400007941,-8.98383689998809
8.596201413427561,0.6028773346794457,3.9,-8.997122665320555
8.604197879858658,0.7,3.902632702986062,-8.9
8.612194346289753,0.7,3.9202073544829736,-8.9
8.620190812720848,0.7,3.937782005979886,-8.9
8.628187279151943,0.7,3.9553566574767975,-8.9
8.63618374558304,0.7,3.9729313089737133,-8.9
8.644180212014135,0.7,3.990505960470625,-8.9
8.65217667844523,0.7,4.008080611967537,-8.9
8.660173144876325,0.7,4.025655263464449,-8.9
8.668169611307421,0.7,4.043229914961364,-8.9
8.676166077738516,0.7,4.060804566458276,-8.9
8.684162544169611,0.7,4.078379217955188,-8.9
8.692159010600706,0.7,4.095953869452099,-8.9
8.700155477031803,0.5977547114252055,4.402245288574795,-8.795509422850412
8.708151943462898,0.5894250588928149,4.4105749411071855,-8.77885011778563
8.716148409893993,0.5810954063604244,4.418904593639576,-8.76219081272085
8.724144876325088,0.5727657538280339,4.427234246171967,-8.745531507656068
8.732141342756185,0.5644361012956414,4.435563898704359,-8.728872202591283
8.74013780918728,0.5561064487632508,4.44389355123675,-8.712212897526502
8.748134275618375,0.5477767962308602,4.45222320376914,-8.69555359246172
8.75613074204947,0.5394471436984696,4.460552856301531,-8.67889428739694
8.764127208480566,0.5311174911660772,4.468882508833923,-8.662234982332155
8.772123674911661,0.5227878386336866,4.477212161366314,-8.645575677267374
8.780120141342756,0.514458186101296,4.485541813898704,-8.628916372202593
8.788116607773851,0.5061285335689054,4.493871466431095,-8.612257067137811
8.796113074204948,0.5,4.5,-8.701130742049486
8.804109540636043,0.5,4.5,-8.78109540636044
8.812106007067138,0.5,4.379806522620632,-8.793268840873544
8.820102473498233,0.5,4.34047963853328,-8.780159879511094
8.82809893992933,0.5,4.301152754445918,-8.76705091814864
8.836095406360425,0.5,4.2618258703585665,-8.75394195678619
8.84409187279152,0.5,4.222498986271214,-8.740832995423737
8.852088339222615,0.5,4.183172102183861,-8.727724034061287
8.860084805653711,0.5,4.1438452180965,-8.714615072698834
8.868081272084806,0.5,4.104518334009148,-8.701506111336382
8.876077738515901,0.7022341274364524,4.0977658725635475,-8.997765872563548
8.884074204946996,0.7108324784376298,4.08916752156237,-8.98916752156237
8.892070671378091,0.7194308294388072,4.080569170561192,-8.980569170561193
8.900067137809188,0.7280291804399865,4.071970819560013,-8.971970819560013
8.908063604240283,0.7366275314411639,4.0633724685588355,-8.963372468558836
8.916060070671378,0.7452258824423413,4.054774117557659,-8.954774117557658
8.924056537102473,0.7538242334435187,4.046175766556481,-8.94617576655648
8.93205300353357,0.762422584444698,4.037577415555302,-8.937577415555301
8.940049469964665,0.7710209354458755,4.028979064554124,-8.928979064554126
8.94804593639576,0.7796192864470528,4.020380713552947,-8.920380713552948
8.956042402826855,0.7882176374482303,4.01178236255177,-8.91178236255177
8.964038869257951,0.7968159884494095,4.003184011550591,-8.903184011550591
8.972035335689046,0.7,4.002076873152087,-8.902076873152089
8.980031802120141,0.7,4.010236532775654,-8.910236532775654
8.988028268551236,0.7,4.01839619239922,-8.91839619239922
8.996024734982333,0.7,4.026555852022788,-8.926555852022789
9.004021201413428,0.7,4.034715511646355,-8.934715511646354
9.012017667844523,0.7,4.042875171269921,-8.942875171269922
9.020014134275618,0.7,4.051034830893488,-8.951034830893487
9.028010600706715,0.7,4.059194490517055,-8.959194490517056
9.03600706713781,0.7,4.067354150140622,-8.967354150140622
9.044003533568905,0.7,4.075513809764188,-8.97551380976419
9.052,0.7,4.0836734693877546,-8.983673469387755
9.059996466431096,0.7,4.091833129011323,-8.991833129011324
9.067992932862191,0.7,4.099992788634889,-8.99999278863489
9.075989399293286,0.6001325088339277,4.1998674911660725,-8.900132508833927
9.083985865724381,0.6,4.3,-8.8
9.091982332155478,0.6,4.3,-8.8
9.099978798586573,0.6,4.3,-8.8
9.107975265017668,0.6,4.3,-8.8
9.115971731448763,0.6,4.3,-8.8
9.12396819787986,0.6,4.3,-8.8
9.131964664310955,0.6,4.3,-8.8
9.13996113074205,0.6,4.3,-8.8
9.147957597173145,0.6,4.3,-8.8
9.155954063604241,0.6,4.3,-8.8
9.163950530035336,0.6,4.3,-8.8
9.171946996466431,0.6,4.3,-8.8
9.179943462897526,0.6,4.3,-8.8
9.187939929328623,0.6,4.3,-8.8
9.195936395759718,0.664546525323941,4.3,-8.8
9.203932862190813,0.7,4.271113074204943,-8.8
9.211929328621908,0.7,4.237794464075383,-8.8
9.219925795053003,0.7,4.204475853945821,-8.8
9.2279222614841,0.7,4.2,-8.806651704708242
9.235918727915195,0.7,4.2,-8.817457740425938
9.24391519434629,0.7,4.2,-8.828263776143634
9.251911660777385,0.7,4.2,-8.83906981186133
9.259908127208481,0.7,4.2,-8.849875847579028
9.267904593639576,0.7,4.2,-8.860681883296724
9.275901060070671,0.7,4.2,-8.87148791901442
9.283897526501766,0.7,4.2,-8.882293954732116
9.291893992932863,0.7,4.2,-8.893099990449814
9.299890459363958,0.6036513545347577,4.103651354534757,-8.80365135453476
9.307886925795053,0.6,3.2809653244282204,-9.40634489185726
9.315883392226148,0.6,3.2282413699374852,-9.423919543354172
9.323879858657245,0.6,3.175517415446738,-9.441494194851087
9.33187632508834,0.6,3.1227934609560024,-9.459068846348
9.339872791519435,0.6,3.070069506465267,-9.476643497844911
9.34786925795053,0.6,3.0173455519745316,-9.494218149341823
9.355865724381626,0.6,2.9646215974837844,-9.51179280083874
9.363862190812721,0.6,2.911897642993049,-9.52936745233565
9.371858657243816,0.6,2.8591736885023136,-9.546942103832562
9.379855123674911,0.6,2.8064497340115784,-9.564516755329473
9.387851590106008,0.6,2.753725779520831,-9.58209140682639
9.395848056537103,0.6,2.7010018250300956,-9.5996660583233
9.403844522968198,0.7,2.203346497609645,-9.410039492828934
9.411840989399293,0.7,2.2127541051756388,-9.438262315526917
9.41983745583039,0.7,2.222161712741635,-9.466485138224904
9.427833922261485,0.7,2.231569320307629,-9.494707960922886
9.43583038869258,0.7,2.240976927873623,-9.522930783620868
9.443826855123675,0.7,2.250384535439617,-9.55115360631885
9.451823321554771,0.7,2.259792143005613,-9.579376429016838
9.459819787985866,0.7,2.269199750571607,-9.60759925171482
9.467816254416961,0.7,2.278607358137601,-9.635822074412802
9.475812720848056,0.7,2.288014965703595,-9.664044897110784
9.483809187279153,0.7,2.297422573269591,-9.692267719808772
9.491805653710248,0.7,2.4,-9.559919232710753
9.499802120141343,0.6983909641595146,2.5048271075214563,-9.5
9.507798586572438,0.6912512619888941,2.5262462140333177,-9.5
9.515795053003535,0.684111559818272,2.547665320545184,-9.5
9.52379151943463,0.6769718576476514,2.5690844270570454,-9.5
9.531787985865725,0.669832155477031,2.590503533568907,-9.5
9.53978445229682,0.6626924533064105,2.6119226400807682,-9.5
9.547780918727916,0.6555527511357884,2.6333417465926345,-9.5
9.555777385159011,0.6484130489651678,2.654760853104496,-9.5
9.563773851590106,0.6412733467945474,2.676179959616358,-9.5
9.571770318021201,0.6341336446239269,2.697599066128219,-9.5
9.579766784452296,0.6269939424533064,2.7190181726400806,-9.5
9.587763250883393,0.6198542402826843,2.740437279151947,-9.5
9.595759717314488,0.6127145381120638,2.7618563856638083,-9.5
9.603756183745583,0.6055748359414432,2.7832754921756697,-9.5
9.611752650176678,0.6,2.9376325088338833,-9.424734982332234
9.619749116607775,0.6,3.0082306300094817,-9.3
9.62774558303887,0.6,3.017982418340085,-9.3
9.635742049469965,0.6,3.0277342066706887,-9.3
9.64373851590106,0.6,3.0374859950012922,-9.3
9.651734982332156,0.6,3.047237783331898,-9.3
9.659731448763251,0.6,3.0569895716625015,-9.3
9.667727915194346,0.6,3.066741359993105,-9.3
9.675724381625441,0.6,3.0764931483237086,-9.3
9.683720848056538,0.6,3.0862449366543143,-9.3
9.691717314487633,0.6,3.095996724984918,-9.3
9.699713780918728,0.6,3.1673397274103983,-9.367339727410398
9.707710247349823,0.502672261484099,3.1,-9.3026722614841
9.71570671378092,0.5151667402826877,3.1,-9.315166740282688
9.723703180212015,0.5276612190812736,3.1,-9.327661219081275
9.73169964664311,0.5401556978798595,3.1,-9.34015569787986
9.739696113074205,0.5526501766784453,3.1,-9.352650176678447
9.747692579505301,0.565144655477034,3.1,-9.365144655477035
9.755689045936396,0.5776391342756199,3.1,-9.37763913427562
9.763685512367491,0.5901336130742058,3.1,-9.390133613074207
9.771681978798586,0.6,3.1,-9.4
9.779678445229683,0.6,3.1,-9.3
9.787674911660778,0.6,3.106673836226764,-9.3
9.795671378091873,0.6,3.1136272852972815,-9.3
9.803667844522968,0.6,3.120580734367799,-9.3
9.811664310954065,0.6,3.1275341834383177,-9.3
9.81966077738516,0.6,3.134487632508835,-9.3
9.827657243816255,0.6,3.1414410815793525,-9.3
9.83565371024735,0.6,3.14839453064987,-9.3
9.843650176678446,0.6,3.1553479797203887,-9.3
9.851646643109541,0.6,3.162301428790906,-9.3
9.859643109540636,0.6,3.1692548778614236,-9.3
9.867639575971731,0.6,3.176208326931941,-9.3
9.875636042402828,0.6,3.1831617760024598,-9.3
9.883632508833923,0.6,3.190115225072977,-9.3
9.891628975265018,0.6,3.1970686741434946,-9.3
9.899625441696113,0.6,3.2,-9.3
9.907621908127208,0.6,3.2,-9.3
9.915618374558305,0.6,3.2,-9.3
9.9236148409894,0.6,3.2,-9.3
9.931611307420495,0.6,3.2,-9.3
9.93960777385159,0.6,3.2,-9.3
9.947604240282686,0.6,3.2,-9.3
9.955600706713781,0.6,3.2,-9.3
9.963597173144876,0.6,3.2,-9.3
9.971593639575971,0.6,3.206640164899878,-9.3
9.979590106007068,0.6,3.2399587750294487,-9.3
9.987586572438163,0.6,3.273277385159012,-9.3
9.995583038869258,0.6,3.3,-9.3
10.003579505300353,0.6,3.3,-9.3
10.01157597173145,0.6,3.2,-9.3
10.019572438162545,0.6,3.2,-9.3
10.02756890459364,0.6,3.2,-9.3
10.035565371024735,0.6,3.2,-9.3
10.043561837455831,0.6,3.2,-9.3
10.051558303886926,0.6,3.2,-9.3
10.059554770318021,0.6,3.2,-9.3
10.067551236749116,0.6,3.2,-9.3
10.075547703180213,0.6,3.2,-9.3
10.083544169611308,0.6,3.2,-9.3
10.091540636042403,0.6,3.2,-9.3
10.099537102473498,0.6,3.2,-9.3
10.107533568904595,0.6,3.2,-9.3
10.11553003533569,0.6,3.2,-9.3
10.123526501766785,0.6,3.2,-9.3
10.13152296819788,0.6,3.2,-9.3
10.139519434628976,0.6,3.2,-9.3
10.147515901060071,0.6,3.2,-9.3
10.155512367491166,0.6,3.2,-9.3
10.163508833922261,0.6,3.2,-9.3
10.171505300353358,0.6,3.2,-9.3
10.179501766784453,0.6,3.3,-9.398349706830272
10.187498233215548,0.6,3.3,-9.389562381081817
10.195494699646643,0.6,3.3,-9.38077505533336
10.20349116607774,0.6,3.3,-9.371987729584903
10.211487632508835,0.6,3.3,-9.363200403836446
10.21948409893993,0.6,3.3,-9.35441307808799
10.227480565371025,0.6,3.3,-9.345625752339535
10.23547703180212,0.6,3.3,-9.336838426591079
10.243473498233216,0.6,3.3,-9.32805110084262
10.251469964664311,0.6,3.3,-9.319263775094164
10.259466431095406,0.6,3.3,-9.310476449345709
10.267462897526501,0.6,3.3,-9.301689123597253
10.275459363957598,0.6,3.2,-9.3
10.283455830388693,0.6,3.208104163465971,-9.3
10.291452296819788,0.6,3.2167959748041177,-9.3
10.299448763250883,0.6,3.225487786142264,-9.3
10.30744522968198,0.6,3.234179597480413,-9.3
10.315441696113075,0.6,3.2428714088185595,-9.3
10.32343816254417,0.6,3.251563220156706,-9.3
10.331434628975265,0.6,3.2602550314948524,-9.3
10.339431095406361,0.6,3.2689468428330013,-9.3
10.347427561837456,0.6,3.277638654171148,-9.3
10.355424028268551,0.6,3.2863304655092946,-9.3
10.363420494699646,0.6,3.295022276847441,-9.3
10.371416961130743,0.6,3.231660777385134,-9.231660777385134
10.379413427561838,0.6,3.3,-9.3
10.387409893992933,0.6,3.3,-9.3
10.395406360424028,0.6,3.3,-9.3
10.403402826855125,0.6,3.3,-9.3
10.41139929328622,0.6,3.3,-9.3
10.419395759717315,0.6,3.3,-9.3
10.42739222614841,0.6,3.3,-9.3
10.435388692579506,0.6,3.3,-9.3
10.443385159010601,0.6,3.3,-9.3
10.451381625441696,0.6,3.3,-9.3
10.459378091872791,0.6,3.3,-9.3
10.467374558303888,0.6,3.3,-9.3
10.475371024734983,0.6,3.3,-9.3
10.483367491166078,0.6,3.3,-9.3
10.491363957597173,0.6,3.3,-9.3
10.49936042402827,0.6,3.3,-9.3
10.507356890459365,0.6,3.3,-9.3
10.51535335689046,0.6,3.3,-9.3
10.523349823321555,0.6,3.3,-9.3
10.531346289752651,0.6,3.3,-9.3
10.539342756183746,0.6,3.3,-9.3
10.547339222614841,0.6,3.3,-9.3
10.555335689045936,0.6,3.3,-9.3
10.563332155477033,0.6,3.3,-9.3
10.571328621908128,0.6,3.3,-9.3
10.579325088339223,0.6,3.3,-9.3
10.587321554770318,0.6,3.3,-9.3
10.595318021201413,0.6,3.3,-9.3
10.60331448763251,0.6,3.3,-9.3
10.611310954063605,0.6,3.3,-9.3
10.6193074204947,0.6,3.3,-9.3
10.627303886925795,0.6,3.3,-9.3
10.635300353356891,0.6,3.3,-9.3
10.643296819787986,0.6,3.3,-9.3
10.651293286219081,0.6,3.3,-9.3
10.659289752650176,0.6,3.3,-9.3
10.667286219081273,0.6,3.3,-9.3
10.675282685512368,0.5997624491492712,3.3002375508507287,-9.2
10.683279151943463,0.5930427294592755,3.306957270540724,-9.2
10.691275618374558,0.5863230097692796,3.31367699023072,-9.2
10.699272084805655,0.5796032900792824,3.3203967099207174,-9.2
10.70726855123675,0.5728835703892866,3.3271164296107134,-9.2
10.715265017667845,0.5661638506992908,3.333836149300709,-9.2
10.72326148409894,0.559444131009295,3.340555868990705,-9.2
10.731257950530036,0.5527244113192977,3.347275588680702,-9.2
10.739254416961131,0.546004691629302,3.3539953083706977,-9.2
10.747250883392226,0.5392849719393061,3.3607150280606937,-9.2
10.755247349823321,0.5325652522493104,3.3674347477506896,-9.2
10.763243816254418,0.5258455325593131,3.374154467440687,-9.2
10.771240282685513,0.5191258128693172,3.3808741871306824,-9.2
10.779236749116608,0.5124060931793215,3.3875939068206784,-9.2
10.787233215547703,0.5056863734893258,3.3943136265106744,-9.2
10.7952296819788,0.5614840989399908,3.338515901060009,-9.261484098939992
10.803226148409895,0.6,3.4,-9.2
10.81122261484099,0.6,3.4,-9.2
10.819219081272085,0.6,3.4,-9.2
10.827215547703181,0.6,3.4,-9.2
10.835212014134276,0.6,3.4,-9.2
10.843208480565371,0.6,3.4,-9.2
10.851204946996466,0.6,3.4,-9.2
10.859201413427563,0.6,3.4,-9.2
10.867197879858658,0.6,3.4,-9.2
10.875194346289753,0.6,3.4,-9.2
10.883190812720848,0.6,3.4,-9.2
10.891187279151945,0.6,3.4,-9.2
10.89918374558304,0.6,3.5,-9.2
10.907180212014135,0.590989399293276,3.6,-9.190989399293276
10.91517667844523,0.5068629760502543,3.6068629760502544,-9.106862976050254
10.923173144876325,0.515747938751471,3.615747938751471,-9.11574793875147
10.931169611307421,0.5246329014526896,3.6246329014526895,-9.124632901452689
10.939166077738516,0.5335178641539062,3.6335178641539065,-9.133517864153905
10.947162544169611,0.5424028268551229,3.642402826855123,-9.142402826855122
10.955159010600706,0.5512877895563395,3.65128778955634,-9.151287789556338
10.963155477031803,0.5601727522575581,3.6601727522575582,-9.160172752257557
10.971151943462898,0.5690577149587748,3.669057714958775,-9.169057714958774
10.979148409893993,0.5779426776599914,3.6779426776599915,-9.17794267765999
10.987144876325088,0.586827640361208,3.686827640361208,-9.186827640361207
10.995141342756185,0.5957126030624267,3.695712603062427,-9.195712603062425
11.00313780918728,0.6,3.9,-9.0
11.011134275618375,0.5927936609915404,3.9072063390084595,-9.0
11.01913074204947,0.5847164221722526,3.9152835778277475,-9.0
11.027127208480566,0.5766391833529629,3.923360816647037,-9.0
11.035123674911661,0.5685619445336751,3.931438055466325,-9.0
11.043120141342756,0.5604847057143872,3.939515294285613,-9.0
11.051116607773851,0.5524074668950995,3.9475925331049004,-9.0
11.059113074204948,0.5443302280758098,3.9556697719241902,-9.0
11.067109540636043,0.536252989256522,3.963747010743478,-9.0
11.075106007067138,0.5281757504372342,3.971824249562766,-9.0
11.083102473498233,0.5200985116179463,3.979901488382054,-9.0
11.09109893992933,0.5120212727986567,3.987978727201343,-9.0
11.099095406360425,0.5039440339793688,3.996055966020631,-9.0
11.10709187279152,0.5,3.9685240554498473,-9.0
11.115088339222615,0.5,3.9070127752106547,-9.0
11.123084805653711,0.5,3.9,-9.0
11.131081272084806,0.5,3.9,-9.0
11.139077738515901,0.5,3.9,-9.0
11.147074204946996,0.5,3.9,-9.0
11.155070671378093,0.5,3.9,-9.0
11.163067137809188,0.5,3.9,-9.0
11.171063604240283,0.5,3.9,-9.0
11.179060070671378,0.5,3.9,-9.0
11.187056537102475,0.5,3.9,-9.0
11.19505300353357,0.5,3.9,-9.0
11.203049469964665,0.5262367491166178,3.873763250883382,-9.026236749116618
11.21104593639576,0.6,3.9,-9.0
11.219042402826856,0.6,3.9,-9.0
11.227038869257951,0.6,3.9,-9.0
11.235035335689046,0.6,3.9,-9.0
11.243031802120141,0.6,3.9,-9.0
11.251028268551238,0.6,3.9,-9.0
11.259024734982333,0.6,3.9,-9.0
11.267021201413428,0.6,3.9,-9.0
11.275017667844523,0.6,3.9,-9.0
11.283014134275618,0.6,3.9,-9.0
11.291010600706715,0.6,3.9,-9.0
11.29900706713781,0.5,4.1,-8.949646643109542
11.307003533568905,0.5,4.115061362513772,-8.892469318743114
11.315,0.5,4.132258064516126,-8.883870967741938
11.322996466431096,0.5,4.149454766518485,-8.875272616740759
11.330992932862191,0.5,4.16665146852084,-8.866674265739581
11.338989399293286,0.5,4.183848170523194,-8.858075914738404
11.346985865724381,0.5,4.201044872525549,-8.849477563737226
11.354982332155478,0.5,4.218241574527908,-8.840879212736047
11.362978798586573,0.5,4.235438276530263,-8.83228086173487
11.370975265017668,0.5,4.252634978532617,-8.823682510733692
11.378971731448763,0.5,4.269831680534972,-8.815084159732514
11.38696819787986,0.5,4.287028382537331,-8.806485808731335
11.394964664310955,0.5654888103651268,4.3,-8.865488810365127
11.40296113074205,0.5,4.570873296315001,-8.629126703684998
11.410957597173145,0.5,4.6,-8.6
11.418954063604241,0.5,4.6,-8.6
11.426950530035336,0.5,4.6,-8.6
11.434946996466431,0.5,4.6,-8.6
11.442943462897526,0.5,4.6,-8.6
11.450939929328623,0.5,4.6,-8.6
11.458936395759718,0.5,4.6,-8.6
11.466932862190813,0.5,4.6,-8.6
11.474929328621908,0.5,4.6,-8.6
11.482925795053005,0.5,4.6,-8.6
11.4909222614841,0.5,4.6,-8.6
11.498918727915195,0.5,4.645528676270725,-8.6
11.50691519434629,0.5,4.7,-8.645759717314489
11.514911660777386,0.5,4.7,-8.6
11.522908127208481,0.5,4.7,-8.6
11.530904593639576,0.5,4.7,-8.6
11.538901060070671,0.5,4.7,-8.6
11.546897526501768,0.5,4.7,-8.6
11.554893992932863,0.5,4.7,-8.6
11.562890459363958,0.5,4.7,-8.6
11.570886925795053,0.5,4.7,-8.6
11.57888339222615,0.5,4.7,-8.6
11.586879858657245,0.5,4.7,-8.6
11.59487632508834,0.5,4.7,-8.6
11.602872791519435,0.5,4.7,-8.6
11.61086925795053,0.5,4.7,-8.6
11.618865724381626,0.5,4.7,-8.6
11.626862190812721,0.5,4.7,-8.6
11.634858657243816,0.5,4.7,-8.6
11.642855123674911,0.5,4.7,-8.6
11.650851590106008,0.5,4.7,-8.6
11.658848056537103,0.5,4.7,-8.6
11.666844522968198,0.5,4.7,-8.6
11.674840989399293,0.5,4.7,-8.6
11.68283745583039,0.5,4.7,-8.6
11.690833922261485,0.5,4.7,-8.6
11.69883038869258,0.38303886925795805,5.075441696113063,-8.6
11.706826855123674,0.49296200502713905,4.907037994972861,-8.59296200502714
11.714823321554771,0.48471822520126623,4.915281774798734,-8.584718225201266
11.722819787985866,0.47647444537539524,4.923525554624605,-8.576474445375394
11.730816254416961,0.46823066554952425,4.931769334450476,-8.568230665549525
11.738812720848056,0.45998688572365326,4.940013114276347,-8.559986885723653
11.746809187279153,0.45174310589778044,4.94825689410222,-8.55174310589778
11.754805653710248,0.44349932607190945,4.95650067392809,-8.54349932607191
11.762802120141343,0.43525554624603846,4.964744453753962,-8.535255546246038
11.770798586572438,0.42701176642016747,4.972988233579833,-8.527011766420168
11.778795053003535,0.41876798659429465,4.981232013405705,-8.518767986594295
11.78679151943463,0.4105242067684236,4.989475793231576,-8.510524206768423
11.794787985865725,0.4022804269425526,4.997719573057448,-8.502280426942553
11.80278445229682,0.4784452296818743,5.756890459363748,-8.567667844522811
11.810780918727916,0.45890352286111463,5.951370596423607,-7.986984687868065
11.818777385159011,0.4104400899453868,6.011949887568267,-7.853710247349813
11.826773851590106,0.36197665702965887,6.0725291787129265,-7.720435806831562
11.834770318021201,0.313513224113931,6.133108469857587,-7.58716136631331
11.842766784452298,0.2650497911981924,6.19368776100226,-7.453886925795029
11.850763250883393,0.21658635828246448,6.25426705214692,-7.3206124852767775
11.858759717314488,0.16812292536673656,6.314846343291579,-7.187338044758525
11.866756183745583,0.11965949245100871,6.375425634436239,-7.054063604240274
11.87475265017668,0.026882304974147717,6.802147322642188,-7.073117695025853
11.882749116607775,-0.09614025550423744,7.478771405273306,-7.196140255504238
11.89074558303887,0.053701628889070735,9.426381108334015,-9.252085667499795
11.898742049469964,-0.02431267775575756,9.133827458415908,-9.339851762475227
11.906738515901061,-0.10232698440060317,8.841273808497737,-9.427617857450677
11.914734982332156,-0.18034129104543148,8.54872015857963,-9.51538395242611
11.922731448763251,-0.25835559769025973,8.256166508661526,-9.603150047401542
11.930727915194346,-0.33636990433508807,7.963612858743419,-9.690916142376974
11.938724381625443,-0.4143842109799337,7.671059208825248,-9.778682237352426
11.946720848056538,-0.49239851762476194,7.3785055589071415,-9.866448332327856
11.954717314487633,-0.5704128242695903,7.085951908989036,-9.954214427303288
11.962713780918728,-0.6484271309144186,6.79339825907093,-10.04198052227872
11.970710247349823,-1.445318021201362,7.209805653710205,-2.98560070671427
11.97870671378092,-2.5695248747998027,6.377880875511615,2.079683249866535
11.986703180212015,-2.5177491928718494,6.510196507105274,2.045166128581233
11.99469964664311,-2.465973510943896,6.642512138698932,2.010649007295931
12.002696113074204,-2.4141978290159427,6.774827770292591,1.9761318860106285
12.010692579505301,-2.362422147087978,6.9071434018862785,1.9416147647253186
12.018689045936396,-2.3106464651600245,7.039459033479937,1.9070976434400164
12.026685512367491,-2.258870783232071,7.171774665073595,1.8725805221547143
12.034681978798586,-2.207095101304118,7.304090296667254,1.838063400869412
12.042678445229683,-2.155319419376153,7.436405928260942,1.8035462795841022
12.050674911660778,-2.1035437374482,7.5687215598546,1.7690291582988
12.058671378091873,-2.0517680555202467,7.7010371914482585,1.7345120370134977
12.066667844522968,-1.9999923735922933,7.833352823041917,1.6999949157281955
12.074664310954065,-1.9482166916643284,7.965668454635605,1.6654777944428856
12.08266077738516,-1.896441009736375,8.097984086229264,1.6309606731575834
12.090657243816255,-1.8446653278084217,8.230299717822922,1.596443551872281
12.09865371024735,-1.7928896458804684,8.362615349416581,1.561926430586979
12.106650176678446,-1.7411139639525035,8.494930981010269,1.5274093093016692
12.114646643109541,-1.5353356890458405,9.53309776207357,3.4210836277985264
12.122643109540636,-6.028574157196075,5.971425842803925,7.950004775093131
12.130639575971731,-6.11502244293764,5.88497755706236,8.10128927514087
12.138636042402828,-6.201470728679224,5.798529271320776,8.252573775188644
12.146632508833923,-6.2879190144207895,5.7120809855792105,8.403858275236383
12.154628975265018,-6.374367300162355,5.625632699837645,8.555142775284123
12.162625441696113,-6.46081558590392,5.53918441409608,8.706427275331862
12.17062190812721,-6.547263871645505,5.452736128354495,8.857711775379634
12.178618374558305,-6.6337121573870705,5.3662878426129295,9.008996275427375
12.1866148409894,-6.720160443128636,5.279839556871364,9.160280775475114
12.194611307420494,-6.7388692579506015,4.986042402827105,9.177738515901204
12.202607773851591,-9.534134275618202,0.377243816254532,9.22664310954088
12.210604240282686,-9.147077697900151,7.004739856220275,9.62954388530107
12.218600706713781,-9.055164290646186,6.839295723163137,8.98615003452331
12.226597173144876,-8.963250883392222,6.673851590105999,8.342756183745553
12.234593639575973,-8.871337476138235,6.508407457048825,7.699362332967652
12.242590106007068,-8.77942406888427,6.342963323991687,7.055968482189893
12.250586572438163,-8.687510661630304,6.177519190934549,6.412574631412135
12.258583038869258,-8.595597254376338,6.012075057877411,5.769180780634377
12.266579505300355,-8.503683847122353,5.846630924820237,5.125786929856475
12.27457597173145,-8.411770439868388,5.681186791763099,4.482393079078717
12.282572438162545,-8.319857032614422,5.51574265870596,3.838999228300959
12.29056890459364,-8.227943625360457,5.350298525648823,3.1956053775232
12.298565371024734,-0.935689045934915,2.016961130742753,3.6346289752652687
12.306561837455831,-3.6863061402161414,1.0958979874021073,3.572612280432283
12.314558303886926,-3.8833205305474645,1.408803195575385,3.966641061094929
12.322554770318021,-4.080334920878788,1.7217084037486627,4.360669841757575
12.330551236749116,-4.277349311210111,2.0346136119219405,4.7546986224202215
12.338547703180213,-4.474363701541478,2.3475188200952877,5.148727403082955
12.346544169611308,-4.671378091872801,2.660424028268565,5.542756183745601
12.354540636042403,-4.868392482204124,2.9733292364418435,5.936784964408247
12.362537102473498,-5.065406872535447,3.286234444615121,6.330813745070893
12.370533568904595,-8.240282685513398,4.703445229682387,6.6
12.37853003533569,-14.191566159507,7.5787693835236505,-5.7419706217328494
12.386526501766784,-13.266355167479485,7.757202931986099,-4.704412580673423
12.39452296819788,-12.341144175451971,7.935636480448548,-3.6668545396139964
12.402519434628976,-11.41593318342425,8.114070028911037,-2.6292964985543392
12.410515901060071,-10.490722191396737,8.292503577373486,-1.5917384574949125
12.418512367491166,-9.565511199369222,8.470937125835935,-0.5541804164354858
12.426508833922261,-8.64030020734171,8.649370674298385,0.48337762462394096
12.434505300353358,-7.715089215313989,8.827804222760873,1.5209356656835977
12.442501766784453,-6.7898782232864745,9.006237771223322,2.5584937067430245
12.450498233215548,-5.864667231258961,9.184671319685771,3.596051747802451
12.458494699646643,-4.939456239231447,9.36310486814822,4.633609788861878
12.46649116607774,-4.014245247203727,9.54153841661071,5.671167829921534
12.474487632508835,-3.0890342551762124,9.719971965073158,6.7087258709809605
12.48248409893993,-2.163823263148698,9.898405513535607,7.746283912040387
12.490480565371024,-1.238612271121184,10.076839061998056,8.783841953099813
12.498477031802121,-0.5504593639575746,2.9670671378058913,9.698162544169701
12.506473498233216,-0.3003782997297443,-3.897726044481292,10.003030554978197
12.514469964664311,-0.008742465183930515,-3.163932654333761,10.1535522760341
12.522466431095406,0.28289336936188325,-2.4301392641862294,10.304073997090004
12.530462897526503,0.5745292039077619,-1.6963458740385349,10.454595718145942
12.538459363957598,0.8661650384535755,-0.9625524838910038,10.605117439201846
12.546455830388693,1.1578008729993894,-0.2287590937434718,10.755639160257749
12.554452296819788,1.449436707545203,0.5050342964040588,10.906160881313653
12.562448763250885,1.7410725420910818,1.2388276865517538,11.056682602369591
12.57044522968198,2.0327083766368954,1.9726210766992853,11.207204323425493
12.578441696113074,2.324344211182709,2.706414466846817,11.357726044481398
12.58643816254417,3.081978798586073,2.129328621909444,10.36077738516019
12.594434628975266,-8.544169611307805,-2.5978798586566243,3.916607773852269
12.602431095406361,-7.1254378965766385,-1.3815532505034354,3.818059196778013
12.610427561837456,-7.41778183061667,-1.3385614954975484,4.09320642881569
12.618424028268551,-7.710125764656701,-1.2955697404916615,4.368353660853366
12.626420494699646,-8.002469698696732,-1.2525779854857746,4.643500892891042
12.634416961130743,-8.29481363273683,-1.2095862304798781,4.91864812492878
12.642413427561838,-8.58715756677686,-1.1665944754739912,5.193795356966457
12.650409893992933,-8.879501500816891,-1.123602720468104,5.468942589004134
12.658406360424028,-9.171845434856923,-1.0806109654622171,5.74408982104181
12.666402826855125,-9.46418936889702,-1.0376192104563207,6.019237053079548
12.67439929328622,-9.75653330293705,-0.9946274554504337,6.294384285117225
12.682395759717314,-10.048877236977082,-0.9516357004445468,6.569531517154902
12.69039222614841,-10.341221171017114,-0.9086439454386598,6.844678749192578
12.698388692579506,-11.860051571005709,0.27318785216320635,6.415012892751427
12.706385159010601,-12.20584471397197,0.6946232451533376,6.501461178492993
12.714381625441696,-12.551637856938232,1.1160586381434687,6.587909464234558
12.722378091872791,-12.897430999904493,1.5374940311335998,6.6743577499761235
12.730374558303888,-13.243224142870831,1.9589294241238246,6.760806035717708
12.738371024734983,-13.589017285837093,2.380364817113956,6.847254321459273
12.746367491166078,-13.934810428803354,2.801800210104087,6.933702607200839
12.754363957597173,-14.280603571769616,3.2232356030942184,7.020150892942404
12.76236042402827,-14.626396714735954,3.6446709960844434,7.106599178683989
12.770356890459365,-14.972189857702215,4.066106389074574,7.193047464425554
12.77835335689046,-6.94318021201388,1.27759717314484,12.157738515901126
12.786349823321554,-3.4966671029097425,1.791667757274356,6.998333551454871
12.794346289752651,-3.4769227413514785,1.742306853378697,6.988461370675739
12.802342756183746,-3.4571783797932194,1.6929459494830486,6.97858918989661
12.810339222614841,-3.43743401823496,1.6435850455874004,6.96871700911748
12.818335689045936,-3.4176896566767008,1.594224141691752,6.958844828338351
12.826332155477033,-3.3979452951184372,1.544863237796093,6.948972647559219
12.834328621908128,-3.3782009335601777,1.4955023339004445,6.939100466780089
12.842325088339223,-3.358456572001918,1.4461414300047961,6.929228286000959
12.850321554770318,-3.338712210443659,1.396780526109148,6.91935610522183
12.858318021201415,-3.3189678488853955,1.3474196222134887,6.909483924442698
12.86631448763251,-3.3,1.3314487632509748,7.010070671378411
12.874310954063604,-4.510346731448762,2.444835836277971,8.010346731448763
12.8823074204947,-4.535335689045934,2.553121319199049,8.035335689045935
12.890303886925796,-4.560324646643112,2.6614068021201507,8.060324646643112
12.898300353356891,-4.585313604240284,2.7696922850412284,8.085313604240284
12.906296819787986,-4.610302561837456,2.877977767962306,8.110302561837456
12.914293286219081,-4.635291519434627,2.9862632508833835,8.135291519434627
12.922289752650178,-4.6602804770318045,3.0945487338044853,8.160280477031804
12.930286219081273,-4.685269434628976,3.202834216725563,8.185269434628976
12.938282685512368,-4.710258392226148,3.3111196996466408,8.210258392226148
12.946279151943463,-4.73524734982332,3.4194051825677185,8.23524734982332
12.95427561837456,-4.760236307420497,3.5276906654888203,8.260236307420497
12.962272084805655,-4.785225265017669,3.635976148409898,8.285225265017669
12.97026855123675,-4.676981322564384,3.33094396769315,8.426855123674887
12.978265017667844,-4.093049353473384,1.5569059915349792,9.088878965557413
12.98626148409894,-4.049112724731103,1.2844988933328407,9.018580359569764
12.994257950530036,-4.005176095988813,1.0120917951306416,8.948281753582101
13.002254416961131,-3.9612394672465325,0.7396846969285031,8.877983147594453
13.010250883392226,-3.917302838504252,0.46727759872636465,8.807684541606804
13.018247349823321,-3.8733662097619717,0.19487050052422616,8.737385935619155
13.026243816254418,-3.8294295810196815,-0.07753659767797294,8.66708732963149
13.034240282685513,-3.7854929522774015,-0.3499436958801114,8.596788723643842
13.042236749116608,-3.741556323535121,-0.6223507940822501,8.526490117656193
13.050233215547703,-3.6976196947928406,-0.8947578922843884,8.456191511668546
13.0582296819788,-3.6536830660505504,-1.1671649904865875,8.385892905680882
13.066226148409894,-3.60974643730827,-1.4395720886887262,8.315594299693233
13.07422261484099,-2.9008816429346123,0.2002204107336531,9.600220410733654
13.082219081272084,-2.9325508169191465,0.20813770422978667,9.608137704229787
13.090215547703181,-2.964219990903688,0.216054997725922,9.616054997725922
13.098212014134276,-2.995889164888222,0.22397229122205556,9.623972291222055
13.106208480565371,-3.0275583388727565,0.23188958471818913,9.631889584718188
13.114204946996466,-3.0592275128572908,0.2398068782143227,9.639806878214323
13.122201413427563,-3.090896686841832,0.24772417171045802,9.647724171710458
13.130197879858658,-3.1225658608263664,0.2556414652065916,9.65564146520659
13.138194346289753,-3.1542350348109007,0.26355875870272516,9.663558758702724
13.146190812720848,-3.1859042087954346,0.27147605219885873,9.671476052198859
13.154187279151945,-3.217573382779976,0.2793933456949941,9.679393345694994
13.16218374558304,-3.2492425567645102,0.28731063919112765,9.687310639191127
13.170180212014134,-3.2809117307490445,0.29522793268726116,9.69522793268726
13.17817667844523,-3.485291519434629,0.5588339222614854,9.755874558303887
13.186173144876326,-3.4,0.9469257950530371,9.312296819787852
13.194169611307421,-3.405345655522335,1.1053456555223355,8.71069131104467
13.202166077738516,-3.4155975355622004,1.1155975355622005,8.7311950711244
13.210162544169611,-3.4258494156020656,1.1258494156020658,8.75169883120413
13.218159010600708,-3.436101295641933,1.1361012956419332,8.772202591283866
13.226155477031803,-3.446353175681798,1.1463531756817984,8.792706351363597
13.234151943462898,-3.4566050557216634,1.1566050557216636,8.813210111443327
13.242148409893993,-3.4668569357615286,1.1668569357615288,8.833713871523058
13.25014487632509,-3.477108815801396,1.1771088158013963,8.854217631602793
13.258141342756184,-3.4873606958412613,1.1873606958412615,8.874721391682524
13.26613780918728,-3.4976125758811265,1.1976125758811267,8.895225151762254
13.274134275618374,-3.100714232012635,0.7990000751823115,8.8
13.282130742049471,-3.1432486279227234,0.7394519209081876,8.8
13.290127208480566,-3.185783023832802,0.6799037666340768,8.8
13.298123674911661,-3.2283174197428814,0.6203556123599661,8.8
13.306120141342756,-3.2708518156529607,0.5608074580858553,8.8
13.314116607773851,-3.3133862115630395,0.5012593038117445,8.8
13.322113074204948,-3.355920607473128,0.44171114953762064,8.8
13.330109540636043,-3.3984550033832073,0.3821629952635099,8.8
13.338106007067138,-3.4409893992932865,0.32261484098939913,8.8
13.346102473498233,-3.4835237952033653,0.26306668671528843,8.8
13.35409893992933,-3.526058191113454,0.20351853244116436,8.8
13.362095406360424,-3.568592587023533,0.14397037816705371,8.8
13.37009187279152,-4.517314487631893,0.6908127208479881,9.264310954064083
13.378088339222614,-3.638362267629443,0.6,9.807543401444164
13.386084805653711,-3.5688277769242527,0.6,9.703241665386379
13.394081272084806,-3.499293286219078,0.6,9.598939929328617
13.402077738515901,-3.4297587955139033,0.6,9.494638193270855
13.410074204946996,-3.3602243048087286,0.6,9.390336457213094
13.418070671378093,-3.297538686487142,0.5963080297307137,9.293846716217857
13.426067137809188,-3.279156005036349,0.5687340075545241,9.247890012590874
13.434063604240283,-3.260773323585556,0.5411599853783344,9.201933308963891
13.442060070671378,-3.242390642134763,0.5135859632021448,9.155976605336908
13.450056537102475,-3.224007960683966,0.48601194102594897,9.110019901709915
13.45805300353357,-3.205625279233173,0.4584379188497594,9.064063198082932
13.466049469964664,-3.18724259778238,0.4308638966735697,9.01810649445595
13.47404593639576,-3.168859916331587,0.4032898744973801,8.972149790828967
13.482042402826856,-3.1504772348807895,0.3757158523211843,8.926193087201975
13.490038869257951,-3.1320945534299964,0.34814183014499467,8.880236383574992
13.498035335689046,-3.1137118719792034,0.320567807968805,8.83427967994801
13.506031802120141,-3.104770318021133,1.0095406360422654,8.398409893992957
13.514028268551238,-3.414893124022485,1.1751781266291916,9.1
13.522024734982333,-3.454220008109837,1.1096333198169377,9.1
13.530021201413428,-3.4935468921971897,1.0440885130046837,9.1
13.538017667844523,-3.532873776284542,0.9785437061924298,9.1
13.54601413427562,-3.5722006603719034,0.9129988993801613,9.1
13.554010600706714,-3.6115275444592556,0.8474540925679074,9.1
13.56200706713781,-3.650854428546608,0.7819092857556534,9.1
13.570003533568904,-3.6901813126339604,0.7163644789433995,9.1
13.578,-3.6,0.7,9.0
