gyro_time_list,gyro_x_list,gyro_y_list,gyro_z_list
0.0,0.5,0.2,0.2
0.007995571955719557,0.10507724060291451,-0.2949227593970855,0.10253862030145726
0.015991143911439114,0.11862905747701545,-0.28137094252298456,0.10931452873850774
0.02398671586715867,0.1321808743511164,-0.2678191256488836,0.1160904371755582
0.03198228782287823,0.14573269122521734,-0.25426730877478265,0.12286634561260867
0.03997785977859779,0.1592845080993183,-0.2407154919006817,0.12964225404965915
0.04797343173431734,0.17283632497341922,-0.22716367502658075,0.13641816248670963
0.0559690036900369,0.18638814184752017,-0.21361185815247982,0.1431940709237601
0.06396457564575646,0.19993995872162112,-0.20006004127837887,0.14996997936081058
0.07196014760147601,0.21349177559572205,-0.18650822440427794,0.15674588779786103
0.07995571955719558,0.227043592469823,-0.172956407530177,0.16352179623491153
0.08795129151291513,0.24059540934392393,-0.15940459065607607,0.17029770467196198
0.09594686346863468,0.2541472262180249,-0.14585277378197511,0.17707361310901243
0.10394243542435425,0.26769904309212583,-0.13230095690787416,0.18384952154606293
0.1119380073800738,0.2812508599662268,-0.11874914003377324,0.19062542998311338
0.11993357933579336,0.29480267684032774,-0.10519732315967226,0.19740133842016389
0.12792915129151292,0.1,0.0,0.00354243542435434
0.13592472324723248,0.10784626064082424,0.0,0.015692521281648473
0.14392029520295202,0.11576266851777428,0.0,0.03152533703554855
0.15191586715867159,0.12367907639472435,0.0,0.04735815278944868
0.15991143911439115,0.13159548427167442,0.0,0.06319096854334881
0.1679070110701107,0.13951189214862444,0.0,0.07902378429724889
0.17590258302583026,0.1474283000255745,0.0,0.09485660005114901
0.18389815498154982,0.15534470790252458,0.0,0.11068941580504915
0.19189372693726936,0.1632611157794746,0.0,0.12652223155894923
0.19988929889298893,0.1711775236564247,0.0,0.14235504731284934
0.2078848708487085,0.17909393153337475,0.0,0.15818786306674948
0.21588044280442806,0.1870103394103248,0.0,0.17402067882064962
0.2238760147601476,0.19492674728727485,0.0,0.1898534945745497
0.23187158671586716,0.04357933579335751,0.0,0.1
0.23986715867158673,0.005696270554938558,0.09430372944506145,0.005696270554938558
0.24786273062730627,0.01345896177408374,0.08654103822591627,0.01345896177408374
0.25585830258302583,0.02122165299322895,0.07877834700677105,0.02122165299322895
0.26385387453874537,0.028984344212374134,0.07101565578762586,0.028984344212374134
0.27184944649446496,0.036747035431519366,0.06325296456848065,0.036747035431519366
0.2798450184501845,0.04450972665066455,0.055490273349335456,0.04450972665066455
0.28784059040590404,0.05227241786980973,0.04772758213019027,0.05227241786980973
0.29583616236162363,0.06003510908895497,0.039964890911045034,0.06003510908895497
0.30383173431734317,0.06779780030810015,0.03220219969189986,0.06779780030810015
0.3118273062730627,0.07556049152724534,0.024439508472754667,0.07556049152724534
0.3198228782287823,0.08332318274639057,0.016676817253609436,0.08332318274639057
0.32781845018450184,0.09108587396553576,0.008914126034464245,0.09108587396553576
0.3358140221402214,0.09884856518468094,0.001151434815319069,0.09884856518468094
0.343809594095941,0.06488007380073793,-0.03511992619926207,0.06488007380073793
0.3518051660516605,0.003187688695068789,-0.1,-0.003187688695068789
0.35980073800738005,0.012273565917477355,-0.1,-0.012273565917477355
0.36779630996309964,0.021359443139885984,-0.1,-0.021359443139885984
0.3757918819188192,0.030445320362294546,-0.1,-0.030445320362294546
0.3837874538745387,0.03953119758470311,-0.1,-0.03953119758470311
0.3917830258302583,0.04861707480711174,-0.1,-0.04861707480711174
0.39977859778597785,0.057702952029520305,-0.1,-0.057702952029520305
0.40777416974169745,0.06678882925192893,-0.1,-0.06678882925192893
0.415769741697417,0.0758747064743375,-0.1,-0.0758747064743375
0.4237653136531365,0.08496058369674607,-0.1,-0.08496058369674607
0.4317608856088561,0.0940464609191547,-0.1,-0.0940464609191547
0.43975645756457565,0.1,-0.1,-0.044870848708486975
0.4477520295202952,-0.12038540385403843,-0.1,0.1847109471094712
0.4557476014760148,-0.17961186278529467,-0.1,0.140291102911029
0.4637431734317343,-0.23883832171655053,-0.1,0.09587125871258712
0.47173874538745386,-0.2980647806478064,-0.1,0.05145141451414523
0.47973431734317346,-0.3572912395790626,-0.1,0.007031570315703006
0.487729889298893,-0.4165176985103185,-0.1,-0.03738827388273888
0.49572546125461253,-0.4757441574415744,-0.1,-0.08180811808118077
0.5037210332103321,-0.1860516605166061,-0.2,-0.5442066420664244
0.5117166051660517,-0.21224857962865343,-0.21837286944298015,-0.6367457388859603
0.5197121771217712,-0.22493996368535113,-0.2374099455280267,-0.6748198910560533
0.5277077490774907,-0.2376313477420488,-0.2564470216130732,-0.7128940432261464
0.5357033210332104,-0.25032273179874664,-0.27548409769812,-0.7509681953962399
0.5436988929889299,-0.2630141158554443,-0.2945211737831665,-0.789042347566333
0.5516944649446495,-0.275705499912142,-0.313558249868213,-0.827116499736426
0.559690036900369,-0.28839688396883967,-0.3325953259532595,-0.865190651906519
0.5676856088560885,-0.3010882680255374,-0.35163240203830604,-0.903264804076612
0.5756811808118081,-0.31377965208223507,-0.3706694781233526,-0.9413389562467052
0.5836767527675277,-0.3264710361389329,-0.3897065542083994,-0.9794131084167987
0.5916723247232473,-0.3391624201956306,-0.40874363029344585,-1.0174872605868917
0.5996678966789668,-0.35185380425232826,-0.4277807063784924,-1.0555614127569848
0.6076634686346863,-0.36454518830902594,-0.4468177824635389,-1.093635564927078
0.6156590405904059,-0.3772365723657236,-0.46585485854858544,-1.1317097170971708
0.6236546125461254,-0.3899279564224213,-0.48489193463363195,-1.1697838692672637
0.6316501845018451,-1.2600738007380252,-0.40247232472324057,-1.5
0.6396457564575646,-3.514078049871408,0.4,-0.7563121994856314
0.6476413284132841,-3.538307055797831,0.4,-0.8532282231913229
0.6556369003690037,-3.5625360617242534,0.4,-0.9501442468970143
0.6636324723247232,-3.5867650676506764,0.4,-1.0470602706027057
0.6716280442804428,-3.6109940735770993,0.4,-1.143976294308397
0.6796236162361624,-3.6352230795035223,0.4,-1.2408923180140898
0.687619188191882,-3.6594520854299453,0.4,-1.3378083417197812
0.6956147601476015,-3.6836810913563682,0.4,-1.4347243654254727
0.703610332103321,-3.7079100972827908,0.4,-1.5316403891311638
0.7116059040590406,-3.7321391032092137,0.4,-1.6285564128368553
0.7196014760147601,-3.7563681091356367,0.4,-1.7254724365425467
0.7275970479704797,-3.7805971150620596,0.4,-1.8223884602482394
0.7355926199261993,-4.038892988929895,0.479630996309965,-2.2185239852398597
0.7435881918819188,-4.237967125125797,0.5689835625628985,-2.437967125125797
0.7515837638376384,-4.208324723247232,0.6,-2.5916752767527673
0.7595793357933579,-4.096315234580917,0.5889457037427519,-2.7110542962572484
0.7675749077490774,-4.084892988929889,0.5546789667896681,-2.745321033210332
0.7755704797047971,-4.073470743278861,0.5204122298365839,-2.7795877701634164
0.7835660516605166,-4.062048497627833,0.4861454928835001,-2.8138545071165
0.7915616236162362,-4.050626251976805,0.4518787559304164,-2.8481212440695836
0.7995571955719557,-4.039204006325777,0.4176120189773326,-2.8823879810226676
0.8075527675276752,-4.02778176067475,0.38334528202424883,-2.916654717975751
0.8155483394833949,-4.016359515023722,0.3490785450711646,-2.9509214549288356
0.8235439114391144,-4.004937269372694,0.31481180811808085,-2.985188191881919
0.831539483394834,-5.731586715867204,0.14605166051659946,-3.1
0.8395350553505535,-6.189124310597944,0.12430663016307593,-3.075693369836924
0.847530627306273,-6.283695591794627,0.1500987977621712,-3.049901202237829
0.8555261992619926,-6.37826687299131,0.17589096536126647,-3.0241090346387334
0.8635217712177122,-6.472838154187994,0.20168313296036208,-2.998316867039638
0.8715173431734318,-6.567409435384676,0.22747530055945736,-2.9725246994405428
0.8795129151291513,-6.661980716581359,0.2532674681585526,-2.9467325318414472
0.8875084870848708,-6.756551997778042,0.2790596357576479,-2.920940364242352
0.8955040590405904,-6.8511232789747245,0.3048518033567431,-2.8951481966432566
0.9034996309963099,-6.9456945601714075,0.3306439709558384,-2.8693560290441615
0.9114952029520296,-7.040265841368091,0.35643613855493406,-2.843563861445066
0.9194907749077491,-7.1348371225647735,0.38222830615402925,-2.8177716938459705
0.9274863468634686,-5.96501845018454,0.0,-2.8
0.9354819188191882,-2.8179268701777964,-0.1498356256289831,-2.883388124790339
0.9434774907749077,-2.260659733870071,-0.22252264340825167,-2.859159118863916
0.9514730627306273,-1.703392597562345,-0.29520966118752023,-2.834930112937493
0.9594686346863469,-1.1461254612546115,-0.3678966789667898,-2.81070110701107
0.9674642066420664,-0.5888583249468855,-0.44058369674605846,-2.786472101084647
0.975459778597786,-0.031591188639159995,-0.513270714525327,-2.762243095158224
0.9834553505535055,0.525675947668566,-0.5859577323045956,-2.7380140892318017
0.9914509225092251,1.082943083976292,-0.6586447500838641,-2.7137850833053787
0.9994464944649446,-0.15627306273061933,-0.7776752767527687,-2.077675276752769
1.0074420664206643,-0.7105607646240398,-0.6841588530639401,-1.9683177061278803
1.0154376383763837,-0.723668259633416,-0.6644976105498759,-1.9289952210997519
1.0234332103321033,-0.7367757546427924,-0.6448363680358112,-1.8896727360716226
1.031428782287823,-0.7498832496521689,-0.6251751255217466,-1.850350251043493
1.0394243542435424,-0.762990744661545,-0.6055138830076824,-1.8110277660153649
1.047419926199262,-0.7760982396709215,-0.5858526404936177,-1.7717052809872353
1.0554154981549815,-0.7892057346802976,-0.5661913979795535,-1.7323827959591072
1.0634110701107011,-0.8023132296896741,-0.5465301554654889,-1.6930603109309779
1.0714066420664208,-0.8154207246990506,-0.5268689129514241,-1.6537378259028483
1.0794022140221402,-0.8285282197084266,-0.50720767043736,-1.6144153408747202
1.0873977859778599,-0.8416357147178031,-0.4875464279232954,-1.5750928558465906
1.0953933579335793,-0.8547432097271792,-0.4678851854092312,-1.5357703708184625
1.103388929889299,-0.8678507047365557,-0.44822394289516654,-1.496447885790333
1.1113845018450184,-0.8809581997459318,-0.4285627003811024,-1.4571254007622048
1.119380073800738,-0.8940656947553083,-0.4089014578670377,-1.4178029157340752
1.1273756457564577,-0.2602561319730783,-0.18602561319730784,-1.1720512263946157
1.135371217712177,0.21007163012806718,-0.13899283698719328,-1.0779856739743865
1.1433667896678967,0.609647927067507,-0.1,-0.996784024310831
1.1513623616236162,0.666087258519644,-0.1,-0.9779709138267854
1.1593579335793358,0.7225265899717825,-0.1,-0.9591578033427391
1.1673535055350555,0.7789659214239212,-0.1,-0.9403446928586929
1.1753490774907749,0.8354052528760582,-0.1,-0.9215315823746473
1.1833446494464945,0.8918445843281968,-0.1,-0.9027184718906011
1.191340221402214,0.9482839157803338,-0.1,-0.8839053614065554
1.1993357933579336,1.0047232472324723,-0.1,-0.8650922509225092
1.207331365313653,1.0611625786846093,-0.1,-0.8462791404384635
1.2153269372693727,1.1176019101367478,-0.1,-0.8274660299544174
1.2233225092250923,1.1740412415888866,-0.1,-0.8086529194703712
1.2313180811808118,1.0560639606396092,0.043936039360390755,-0.6080852808528123
1.2393136531365314,0.052952029520303374,0.5,-0.4156826568265656
1.2473092250922508,-0.2467350006833388,0.5,-0.5233675003416695
1.2553047970479705,-0.30596145961459553,0.5,-0.5529807298072977
1.2633003690036901,-0.3651879185458522,0.5,-0.5825939592729261
1.2712959409594096,-0.4244143774771073,0.5,-0.6122071887385536
1.2792915129151292,-0.48364083640836397,0.5,-0.641820418204182
1.2872870848708486,-0.542867295339619,0.5,-0.6714336476698095
1.2952826568265683,-0.6020937542708757,0.5,-0.7010468771354379
1.303278228782288,-0.6613202132021324,0.5,-0.7306601066010662
1.3112738007380074,-0.7205466721333875,0.5,-0.7602733360666938
1.319269372693727,-0.7797731310646441,0.5,-0.7898865655323221
1.3272649446494464,-2.600529889298893,0.8,-1.301059778597786
1.335260516605166,-2.6165210332103324,0.8,-1.3330420664206646
1.3432560885608855,-2.632512177121771,0.8,-1.3650243542435423
1.3512516605166052,-2.6485033210332105,0.8,-1.3970066420664207
1.3592472324723248,-2.66449446494465,0.8,-1.4289889298892993
1.3672428044280442,-2.6804856088560887,0.8,-1.460971217712177
1.375238376383764,-2.696476752767528,0.8,-1.4929535055350556
1.3832339483394833,-2.7124678966789664,0.8,-1.5249357933579333
1.391229520295203,-2.7284590405904057,0.8,-1.5569180811808119
1.3992250922509226,-2.744450184501845,0.8,-1.5889003690036905
1.407220664206642,-2.760441328413284,0.8,-1.6208826568265682
1.4152162361623617,-2.776432472324723,0.8,-1.6528649446494466
1.4232118081180811,-2.792423616236162,0.8,-1.6848472324723243
1.4312073800738008,-2.5585239852398334,1.0,-1.9
1.4392029520295202,-2.316889015043997,0.9861481691739995,-1.8861481691739994
1.4471985239852398,-2.2246324155549244,0.970772069259154,-1.870772069259154
1.4551940959409595,-2.1323758160658515,0.9553959693443086,-1.8553959693443085
1.463189667896679,-2.040119216576781,0.9400198694294636,-1.8400198694294634
1.4711852398523986,-1.9478626170877085,0.9246437695146181,-1.824643769514618
1.479180811808118,-1.8556060175986382,0.909267669599773,-1.809267669599773
1.4871763837638377,-1.7633494181095655,0.8938915696849276,-1.7938915696849276
1.4951719557195573,-1.6710928186204925,0.8785154697700821,-1.778515469770082
1.5031675276752767,-1.5788362191314222,0.8631393698552371,-1.763139369855237
1.5111630996309964,-1.4865796196423495,0.8477632699403916,-1.7477632699403916
1.5191586715867158,-1.3943230201532792,0.8323871700255466,-1.7323871700255464
1.5271542435424355,-1.3020664206642065,0.8170110701107012,-1.717011070110701
1.5351498154981549,-1.2098098211751362,0.8016349701958561,-1.701634970195856
1.5431453874538745,-0.6998228782287857,0.5856383763837653,-1.4856383763837653
1.5511409594095942,0.31112186706282724,0.2972195332342932,-0.9916585997028795
1.5591365313653136,0.35265730579383725,0.28683567355154066,-0.960507020654622
1.5671321033210333,0.3941927445248484,0.27645181386878787,-0.9293554416063636
1.5751276752767527,0.4357281832558585,0.26606795418603535,-0.8982038625581061
1.5831232472324723,0.47726362198686967,0.25568409450328256,-0.8670522835098478
1.591118819188192,0.5187990607178808,0.2453002348205298,-0.8359007044615894
1.5991143911439114,0.5603344994488909,0.23491637513777727,-0.8047491254133318
1.607109963099631,0.6018699381799021,0.22453251545502448,-0.7735975463650734
1.6151055350553505,0.643405376910912,0.214148655772272,-0.7424459673168158
1.6231011070110701,0.6849408156419232,0.2037647960895192,-0.7112943882685574
1.6310966789667898,0.9,0.2,-0.5650553505535038
1.6390922509225092,0.8818122181221814,0.19545305453054534,-0.49545305453054533
1.6470878228782289,0.8462763427634274,0.18656908569085687,-0.48656908569085683
1.6550833948339483,0.8107404674046744,0.1776851168511686,-0.4776851168511686
1.663078966789668,0.7752045920459204,0.1688011480114801,-0.4688011480114801
1.6710745387453874,0.7396687166871675,0.15991717917179188,-0.45991717917179187
1.679070110701107,0.7041328413284135,0.15103321033210337,-0.4510332103321034
1.6870656826568267,0.6685969659696596,0.1421492414924149,-0.4421492414924149
1.695061254612546,0.6330610906109065,0.13326527265272664,-0.43326527265272663
1.7030568265682657,0.5975252152521526,0.12438130381303815,-0.4243813038130382
1.7110523985239852,0.5619893398933996,0.11549733497334991,-0.41549733497334995
1.7190479704797048,0.5264534645346457,0.10661336613366142,-0.40661336613366145
1.7270435424354245,0.37738745387453504,0.1,-0.4
1.7350391143911439,-0.7,0.0,-0.4045822795306602
1.7430346863468635,-0.7,0.0,-0.42254985695924374
1.751030258302583,-0.7,0.0,-0.4405174343878267
1.7590258302583026,-0.7,0.0,-0.45848501181641016
1.767021402214022,-0.7,0.0,-0.4764525892449932
1.7750169741697417,-0.7,0.0,-0.49442016667357663
1.7830125461254613,-0.7,0.0,-0.5123877441021601
1.7910081180811808,-0.7,0.0,-0.530355321530743
1.7990036900369004,-0.7,0.0,-0.5483228989593266
1.8069992619926198,-0.7,0.0,-0.5662904763879095
1.8149948339483395,-0.7,0.0,-0.5842580538164931
1.8229904059040591,-0.7123800738007384,0.012380073800738457,-0.6123800738007384
1.8309859778597786,-0.8,0.1,-0.7
1.8389815498154982,-0.37650212351180123,-0.004699575297639764,-0.6906008494047204
1.8469771217712176,-0.3387871614565208,-0.012242567708695837,-0.6755148645826083
1.8549726937269373,-0.3010721994012394,-0.01978556011975212,-0.6604288797604957
1.862968265682657,-0.26335723734595806,-0.027328552530808403,-0.6453428949383831
1.8709638376383764,-0.22564227529067765,-0.03487154494186447,-0.630256910116271
1.878959409594096,-0.18792731323539624,-0.04241453735292076,-0.6151709252941585
1.8869549815498154,-0.1502123511801159,-0.049957529763976834,-0.6000849404720463
1.894950553505535,-0.11249738912483448,-0.05750052217503311,-0.5849989556499338
1.9029461254612545,-0.07478242706955412,-0.06504351458608919,-0.5699129708278217
1.9109416974169742,-0.037067465014272716,-0.07258650699714547,-0.5548269860057091
1.9189372693726938,0.0006474970410086933,-0.08012949940820176,-0.5397410011835965
1.9269328413284132,0.03836245909628905,-0.08767249181925782,-0.5246550163614844
1.934928413284133,0.07607742115157046,-0.0952154842303141,-0.5095690315393718
1.9429239852398523,0.2624436244362411,-0.13248872488724822,-0.5
1.950919557195572,0.9839114391143955,-0.07202952029520152,-0.43601476014760077
1.9589151291512916,1.2079934177720155,0.3840131644559688,0.06394734217612486
1.966910701107011,1.218798244739204,0.362403510521592,0.1503859579136321
1.9749062730627307,1.2296030717063926,0.3407938565872146,0.23682457365114173
1.9829018450184501,1.2404078986735811,0.31918420265283776,0.323263189388649
1.9908974169741698,1.25121272564077,0.29757454871846034,0.4097018051261586
1.9988929889298892,1.2620175526079582,0.27596489478408354,0.4961404208636659
2.006888560885609,1.2728223795751472,0.2543552408497055,0.5825790366011779
2.0148841328413285,1.2836272065423358,0.23274558691532873,0.6690176523386852
2.022879704797048,1.294432033509524,0.2111359329809519,0.7554562680761925
2.0308752767527674,1.9812915129150848,0.19376383763836155,1.4812915129150848
2.0388708487084872,1.8626584309321348,0.3298732552542921,1.707468313813573
2.0468664206642067,1.8192042355206162,0.364636611583507,1.7161591528958766
2.054861992619926,1.7757500401090975,0.39939996791272186,1.7248499919781803
2.062857564575646,1.7322958446975765,0.4341633242419387,1.7335408310604847
2.0708531365313654,1.688841649286058,0.46892668057115355,1.7422316701427885
2.078848708487085,1.6453874538745394,0.5036900369003684,1.7509225092250922
2.0868442804428042,1.6019332584630208,0.5384533932295833,1.759613348307396
2.094839852398524,1.5584790630514997,0.5732167495588001,1.7683041873897
2.1028354243542435,1.5150248676399811,0.607980105888015,1.7769950264720038
2.110830996309963,1.4715706722284627,0.6427434622172299,1.7856858655543075
2.118826568265683,1.4281164768169416,0.6775068185464466,1.7943767046366117
2.1268221402214023,0.8533579335792626,0.7,2.0644280442804916
2.1348177121771217,0.5,0.7891257716315483,2.3108742283684514
2.1428132841328416,0.5,0.7741807773217916,2.3258192226782084
2.150808856088561,0.5,0.7592357830120356,2.340764216987964
2.1588044280442804,0.5,0.7442907887022797,2.3557092112977203
2.1668,0.5,0.7293457943925238,2.370654205607476
2.1747955719557197,0.5,0.7144008000827671,2.385599199917233
2.182791143911439,0.5,0.6994558057730111,2.4005441942269887
2.1907867158671586,0.5,0.6845108114632552,2.415489188536745
2.1987822878228784,0.5,0.6695658171534985,2.4304341828465015
2.206777859778598,0.5,0.6546208228437426,2.445379177156257
2.2147734317343173,0.5,0.6396758285339867,2.4603241714660133
2.2227690036900367,0.5,0.6247308342242308,2.475269165775769
2.2307645756457566,0.5,0.609785839914474,2.490214160085526
2.238760147601476,0.4,0.6,2.423985239852389
2.2467557195571954,0.7142116532276428,0.6,2.1715766935447145
2.2547512915129153,0.7339538062047289,0.6,2.1320923875905424
2.2627468634686347,0.7536959591818139,0.6,2.092608081636372
2.270742435424354,0.7734381121588989,0.6,2.0531237756822023
2.2787380073800736,0.7931802651359839,0.6,2.013639469728032
2.2867335793357935,0.8129224181130701,0.6,1.97415516377386
2.294729151291513,0.8326645710901551,0.6,1.9346708578196898
2.3027247232472323,0.8524067240672402,0.6,1.8951865518655198
2.310720295202952,0.8721488770443262,0.6,1.8557022459113477
2.3187158671586716,0.8918910300214112,0.6,1.8162179399571776
2.326711439114391,0.6173136531365351,0.6,1.4230848708487134
2.334707011070111,-0.3384245801641702,0.666378492356351,0.5471662022742659
2.3427025830258303,-0.4036945553129003,0.6092672641012122,0.457419986444762
2.3506981549815498,-0.46896453046163045,0.5521560358460733,0.3676737706152581
2.358693726937269,-0.5342345056103606,0.4950448075909345,0.2779275547857542
2.366689298892989,-0.5995044807590942,0.43793357933579247,0.18818133895624534
2.3746848708487085,-0.6647744559078244,0.38082235108065365,0.09843512312674141
2.382680442804428,-0.7300444310565545,0.3237111228255148,0.00868890729723748
2.390676014760148,-0.7953144062052881,0.2665998945703728,-0.08105730853227133
2.398671586715867,-0.8605843813540184,0.20948866631523394,-0.17080352436177526
2.4066671586715866,-0.9258543565027484,0.15237743806009507,-0.2605497401912792
2.414662730627306,-0.9911243316514784,0.09526620980495626,-0.3502959560207831
2.422658302583026,-1.0563943068002122,0.038154981549814226,-0.44004217185029193
2.4306538745387454,-1.798081180811793,0.3653874538745286,-0.8980811808117929
2.438649446494465,-1.436523073095899,0.2682615365479496,-1.40634769269041
2.4466450184501847,-1.3466851859529791,0.22334259297648962,-1.415331481404702
2.454640590405904,-1.2568472988100643,0.17842364940503214,-1.4243152701189934
2.4626361623616235,-1.1670094116671494,0.13350470583357466,-1.433299058833285
2.4706317343173434,-1.0771715245242295,0.0885857622621147,-1.442282847547577
2.478627306273063,-0.9873336373813144,0.043666818690657194,-1.4512666362618685
2.4866228782287823,-0.8974957502383996,-0.0012521248808002317,-1.46025042497616
2.4946184501845017,-0.8076578630954846,-0.04617106845225771,-1.4692342136904515
2.5026140221402216,-0.7178199759525646,-0.09109001202371769,-1.4782180024047435
2.510609594095941,-0.6279820888096497,-0.13600895559517517,-1.487201791119035
2.5186051660516604,-0.5381442016667347,-0.18092789916663266,-1.4961855798333266
2.5266007380073803,-0.21330873308732173,-0.05665436654366087,-1.5
2.5345963099630997,0.06508436929029542,0.006983126141940918,-1.4930168738580591
2.542591881918819,-0.012542542901155515,0.022508508580231106,-1.477491491419769
2.5505874538745386,-0.09016945509260643,0.038033891018521296,-1.4619661089814788
2.5585830258302584,-0.1677963672840617,0.05355927345681234,-1.4464407265431878
2.566578597785978,-0.2454232794755126,0.06908465589510253,-1.4309153441048974
2.5745741697416973,-0.3230501916669636,0.08461003833339271,-1.4153899616666072
2.582569741697417,-0.4006771038584188,0.10013542077168376,-1.3998645792283162
2.5905653136531366,-0.4783040160498697,0.11566080320997395,-1.384339196790026
2.598560885608856,-0.5559309282413206,0.13118618564826415,-1.3688138143517359
2.606556457564576,-0.6335578404327759,0.1467115680865552,-1.3532884319134448
2.6145520295202953,-0.7111847526242269,0.16223695052484538,-1.3377630494751547
2.6225476014760147,-0.7888116648156778,0.17776233296313557,-1.3222376670368645
2.630543173431734,-0.8664385770071287,0.19328771540142575,-1.3067122845985744
2.638538745387454,-2.368388683886846,0.6085485854858558,-0.765805658056577
2.6465343173431735,-2.72374743747438,0.6529684296842975,-0.5881262812628099
2.654529889298893,-3.0791061910619146,0.6973882738827393,-0.4104469044690428
2.6625254612546128,-3.1786242220631205,0.7449281268932115,-0.28767968276697115
2.670521033210332,-3.262160048466159,0.792662884837805,-0.16834278790548748
2.6785166051660516,-3.345695874869197,0.8403976427823985,-0.04900589304400382
2.686512177121771,-3.429231701272236,0.888132400726992,0.07033100181747987
2.694507749077491,-3.5127675276752792,0.9358671586715881,0.18966789667897022
2.7025033210332103,-3.5963033540783176,0.9836019166161816,0.3090047915404539
2.7104988929889298,-3.6798391804813564,1.031336674560775,0.4283416864019375
2.7184944649446496,-3.763375006884399,1.0790714325053712,0.5476785812634278
2.726490036900369,-2.4113948339483455,0.9905977859778623,1.179202952029517
2.7344856088560885,-1.8243998507400812,0.9949599900493388,1.2697599402960327
2.742481180811808,-1.6896430200257089,0.9859762013350473,1.2158572080102836
2.750476752767528,-1.554886189311329,0.9769924126207553,1.1619544757245317
2.758472324723247,-1.4201293585969565,0.9680086239064638,1.1080517434387827
2.7664678966789666,-1.285372527882584,0.9590248351921723,1.0541490111530336
2.7744634686346865,-1.1506156971682042,0.9500410464778803,1.0002462788672817
2.782459040590406,-1.015858866453832,0.9410572577635888,0.9463435465815327
2.7904546125461254,-0.8811020357394594,0.9320734690492973,0.8924408142957838
2.7984501845018452,-0.7463452050250796,0.9230896803350053,0.8385380820100319
2.8064457564575647,-0.6115883743107071,0.9141058916207139,0.7846353497242828
2.814441328413284,-0.4768315435963346,0.9051221029064224,0.7307326174385339
2.8224369003690035,0.5239483394833899,0.03236162361627018,0.87184501845017
2.8304324723247234,0.5852366781732325,-0.4667825258897732,1.1073816609133837
2.838428044280443,0.5508471213744393,-0.3894060230924884,1.1245764393127804
2.8464236162361622,0.5164575645756461,-0.3120295202952036,1.141771217712177
2.854419188191882,0.4820680077768509,-0.23465301749791445,1.1589659961115746
2.8624147601476015,0.44767845097805764,-0.15727651470062964,1.1761607745109712
2.870410332103321,0.4132888941792644,-0.07990001190334484,1.1933555529103679
2.8784059040590404,0.37889933738047116,-0.002523509106060029,1.2105503313097645
2.8864014760147603,0.34450978058167603,0.07485299369122911,1.227745109709162
2.8943970479704797,0.3101202237828828,0.15222949648851392,1.2449398881085587
2.902392619926199,0.27573066698408955,0.22960599928579872,1.2621346665079554
2.910388191881919,0.24134111018529436,0.30698250208308775,1.279329444907353
2.9183837638376384,0.20695155338650112,0.38435900488037256,1.2965242233067495
2.926379335793358,2.8207011070110433,-1.906900369003681,2.4241328413284253
2.9343749077490777,3.1496388021572534,-2.0425475447062174,2.2503611978427465
2.942370479704797,3.2034551518592114,-2.0886758444507523,2.1965448481407885
2.9503660516605166,3.257271501561169,-2.1348041441952876,2.142728498438831
2.958361623616236,3.3110878512631263,-2.1809324439398226,2.0889121487368736
2.966357195571956,3.364904200965087,-2.22706074368436,2.035095799034913
2.9743527675276753,3.418720550667045,-2.2731890434288955,1.9812794493329553
2.9823483394833947,3.4725369003690023,-2.319317343173431,1.9274630996309976
2.9903439114391146,3.526353250070963,-2.3654456429179684,1.873646749929037
2.998339483394834,3.5801695997729204,-2.4115739426625034,1.8198304002270795
3.0063350553505535,3.6339859494748783,-2.4577022424070387,1.7660140505251218
3.014330627306273,3.6878022991768358,-2.5038305421515736,1.7121977008231641
3.0223261992619928,3.7416186488787964,-2.549958841896111,1.6583813511212036
3.030321771217712,3.795434998580754,-2.5960871416406466,1.604565001419246
3.0383173431734316,10.564501845018503,-4.313357933579359,-4.930479704797051
3.0463129151291515,6.795587094332476,-2.6947847478474727,-4.691174188664953
3.054308487084871,6.68282902829028,-2.561525215252149,-4.46565805658056
3.0623040590405903,6.570070962248083,-2.428265682656826,-4.240141924496167
3.0702996309963098,6.457312896205886,-2.2950061500615027,-4.014625792411774
3.0782952029520296,6.344554830163684,-2.161746617466172,-3.7891096603273677
3.086290774907749,6.231796764121487,-2.0284870848708487,-3.5635935282429747
3.0942863468634685,6.119038698079291,-1.8952275522755253,-3.3380773961585812
3.1022819188191884,6.006280632037088,-1.7619680196801946,-3.1125612640741753
3.110277490774908,5.893522565994891,-1.6287084870848711,-2.8870451319897823
3.118273062730627,5.780764499952695,-1.495448954489548,-2.661528999905389
3.126268634686347,5.170651906518982,-2.2318327183273143,-2.5
3.1342642066420665,-3.100871010907912,0.3973869672762643,0.7023226957544317
3.142259778597786,-3.1272300393333605,0.3183098819999185,0.7726134382222947
3.1502553505535054,-3.153589067758809,0.23923279672357267,0.8429041806901576
3.1582509225092252,-3.179948096184259,0.1601557114472225,0.9131949231580244
3.1662464944649447,-3.2063071246097077,0.08107862617087663,0.9834856656258875
3.174242066420664,-3.2326661530351566,0.002001540894530862,1.0537764080937504
3.182237638376384,-3.2590251814606064,-0.07707554438181935,1.124067150561617
3.1902332103321034,-3.285384209886055,-0.15615262965816523,1.1943578930294803
3.198228782287823,-3.3117432383115037,-0.23522971493451095,1.264648635497343
3.2062243542435422,-3.338102266736952,-0.3143068002108568,1.3349393779652061
3.214219926199262,-3.3644612951624024,-0.39338388548720704,1.4052301204330728
3.2222154981549815,-3.390820323587851,-0.47246097076355287,1.4755208629009358
3.230211070110701,-2.184083640836418,0.8027675276752664,4.713493234932324
3.238206642066421,-2.9328842358190963,2.4650948253668377,3.07695443233501
3.2462022140221403,-2.7655350553505507,1.879372693726928,2.77014760147601
3.2541977859778597,-2.598185874882005,1.2936505620870182,2.46334077061701
3.2621933579335796,-2.4308366944134505,0.7079284304470763,2.1565339397579923
3.270188929889299,-2.263487513944905,0.12220629880716682,1.8497271088989922
3.2781845018450184,-2.0961383334763593,-0.4635158328327429,1.5429202780399918
3.286180073800738,-1.9287891530078136,-1.0492379644726526,1.2361134471809916
3.2941756457564577,-1.7614399725392589,-1.6349600961125947,0.9293066163219743
3.302171217712177,-1.5940907920707132,-2.220682227752504,0.6224997854629741
3.3101667896678966,-1.4267416116021676,-2.806404359392414,0.31569295460397395
3.3181623616236164,-1.2593924311336129,-3.3921264910323563,0.008886123744956453
3.326157933579336,-0.19479704797051767,0.315830258302609,-0.9578597785977638
3.3341535055350553,-1.5743221354291463,1.2371610677145732,-0.34864427085829286
3.3421490774907747,-1.6573930128911665,1.2786965064455833,-0.514786025782333
3.3501446494464946,-1.740463890353191,1.3202319451765956,-0.6809277807063824
3.358140221402214,-1.8235347678152112,1.3617673839076057,-0.8470695356304225
3.3661357933579334,-1.906605645277231,1.4033028226386157,-1.0132112905544628
3.3741313653136533,-1.9896765227392559,1.444838261369628,-1.1793530454785122
3.3821269372693727,-2.072747400201276,1.486373700100638,-1.3454948004025522
3.390122509225092,-2.155818277663296,1.5279091388316481,-1.5116365553265922
3.398118081180812,-2.2388891551253205,1.5694445775626604,-1.6777783102506418
3.4061136531365315,-2.0622140221402,2.0491512915129553,-1.905682656826578
3.414109225092251,-1.2945387453874535,3.468738007380074,-2.031261992619926
3.4221047970479703,-0.9628782287821109,4.183837638376147,-1.3423616236163982
3.43010036900369,-2.0872908979089786,5.801672816728171,-0.12842712177121146
3.4380959409594096,-2.0706334563345634,5.9349323493234944,0.0964483394833972
3.446091512915129,-2.053976014760148,6.0681918819188185,0.32132380073800587
3.454087084870849,-2.0373185731857313,6.20145141451415,0.546199261992627
3.4620826568265683,-2.020661131611316,6.334710947109473,0.7710747232472357
3.4700782287822878,-2.0040036900369005,6.467970479704797,0.9959501845018444
3.478073800738007,-1.9873462484624849,6.60123001230012,1.220825645756453
3.486069372693727,-1.9706888068880686,6.734489544895451,1.4457011070110741
3.4940649446494465,-1.9540313653136532,6.867749077490775,1.6705765682656828
3.502060516605166,-1.9373739237392376,7.001008610086099,1.8954520295202915
3.510056088560886,-1.9207164821648213,7.13426814268143,2.120327490774913
3.5180516605166052,-1.9040590405904056,7.267527675276753,2.3452029520295214
3.5260472324723247,2.2781107011070167,1.66394095940964,5.668664206642099
3.534042804428044,2.182734844491303,1.1668965032507406,5.033103496749259
3.542038376383764,2.159890353189246,1.3877265858372896,4.812273414162711
3.5500339483394834,2.1370458618871906,1.6085566684238262,4.5914433315761745
3.558029520295203,2.114201370585135,1.8293867510103627,4.370613248989637
3.5660250922509227,2.091356879283078,2.0502168335969113,4.149783166403088
3.574020664206642,2.0685123879810225,2.2710469161834483,3.928953083816552
3.5820162361623615,2.045667896678967,2.4918769987699845,3.7081230012300153
3.5900118081180814,2.0228234053769105,2.712707081356534,3.4872929186434662
3.598007380073801,1.9999789140748547,2.93353716394307,3.2664628360569297
3.6060029520295203,1.9771344227727994,3.1543672465296066,3.045632753470393
3.6139985239852397,1.9542899314707438,3.3751973291161432,2.8248026708838565
3.6219940959409596,1.931445440168687,3.5960274117026922,2.6039725882973075
3.629989667896679,1.9086009488666313,3.816857494289229,2.383142505710771
3.6379852398523984,-2.2109119662625023,-3.738060094886712,0.959884027411717
3.6459808118081183,0.7160344403444825,-0.5192324723247386,1.4391045510455283
3.6539763837638377,2.3684526445264837,-0.839055350553513,1.8122312423124318
3.661971955719557,3.1231234376859898,-1.1153148434710154,1.7949958338293057
3.6699675276752766,2.968370432091421,-1.3474443518628687,1.3823211522437888
3.6779630996309964,2.8136174264968434,-1.579573860254735,0.9696464706582488
3.685958671586716,2.6588644209022747,-1.8117033686465882,0.5569717890727319
3.6939542435424353,2.5041114153077055,-2.0438328770384415,0.14429710748721503
3.701949815498155,2.3493584097131284,-2.275962385430308,-0.26837757409832497
3.7099453874538746,2.194605404118559,-2.508091893822161,-0.6810522556838419
3.717940959409594,2.0398523985239905,-2.740221402214014,-1.0937269372693588
3.725936531365314,-1.816924969249624,0.14259532595328944,-0.5552890528905076
3.7339321033210333,1.904012350327585,0.4160494013103402,0.10802470065517009
3.7419276752767527,1.9121710972211763,0.44868438888470524,0.1243421944423526
3.749923247232472,1.9203298441147676,0.4813193764590703,0.14065968822953512
3.757918819188192,1.9284885910083591,0.5139543640334372,0.15697718201671856
3.7659143911439115,1.9366473379019504,0.5465893516078022,0.1732946758039011
3.773909963099631,1.9448060847955417,0.5792243391821672,0.18961216959108362
3.7819055350553508,1.9529648316891335,0.6118593267565341,0.20592966337826707
3.78990110701107,1.9611235785827248,0.6444943143308992,0.22224715716544957
3.7978966789667896,1.969282325476316,0.6771293019052642,0.2385646509526321
3.805892250922509,1.9774410723699072,0.7097642894796292,0.25488214473981463
3.813887822878229,1.985599819263499,0.7423992770539961,0.271199638526998
3.8218833948339483,1.9937585661570902,0.7750342646283612,0.2875171323141806
3.8298789667896678,1.4875545119087537,1.022059711506207,0.3170815162697082
3.8378745387453876,-0.6930560214693693,1.9669909426367267,0.389768534048979
3.845870110701107,-1.3355872248377656,0.9733095813716759,0.3733095813716759
3.8538656826568265,-1.4091097255800134,0.91816770581499,0.31816770581499
3.8618612546125464,-1.4826322263222653,0.863025830258301,0.26302583025830106
3.869856826568266,-1.556154727064513,0.8078839547016152,0.20788395470161522
3.8778523985239852,-1.629677227806761,0.7527420791449293,0.15274207914492935
3.8858479704797046,-1.7031997285490088,0.6976002035882435,0.09760020358824345
3.8938435424354245,-1.7767222292912608,0.6424583280315546,0.042458328031554526
3.901839114391144,-1.8502447300335085,0.5873164524748686,-0.012683547525131345
3.9098346863468634,-1.9237672307757565,0.5321745769181828,-0.06782542308181722
3.9178302583025832,-1.9972897315180083,0.4770327013614939,-0.1229672986385062
3.9258258302583027,-2.070812232260256,0.4218908258048081,-0.178109174195192
3.933821402214022,1.2285608856088717,0.941070110701109,0.6053505535055448
3.9418169741697415,0.9546637725200784,0.8603308009550686,0.8773318862600392
3.9498125461254614,0.8794113305838918,0.7944849142609053,0.8397056652919459
3.957808118081181,0.8041588886477092,0.7286390275667456,0.8020794443238546
3.9658036900369003,0.7289064467115267,0.662793140872586,0.7644532233557634
3.97379926199262,0.6536540047753401,0.5969472541784226,0.7268270023876701
3.9817948339483396,0.5784015628391576,0.531101367484263,0.6892007814195789
3.989790405904059,0.503149120902975,0.46525548079010326,0.6515745604514875
3.9977859778597784,0.4278966789667926,0.39940959409594357,0.6139483394833963
4.005781549815498,0.3526442370306101,0.333563707401784,0.5763221185153051
4.013777121771218,0.27739179509441925,0.26771782070761696,0.5386958975472096
4.021772693726938,0.20213935315823672,0.20187193401345727,0.5010696765791184
4.029768265682657,0.10384405583186394,-0.5884678325044082,-0.39807797208406803
4.037763837638376,0.1212257339964713,-0.5363227980105861,-0.38938713300176436
4.045759409594096,0.13860741216107864,-0.48417776351676406,-0.3806962939194607
4.053754981549815,0.155989090325686,-0.432032729022942,-0.372005454837157
4.061750553505535,0.17337076849029334,-0.37988769452911997,-0.36331461575485335
4.069746125461255,0.19075244665490262,-0.3277426600352921,-0.3546237766725487
4.0777416974169745,0.20813412481951,-0.27559762554147005,-0.345932937590245
4.085737269372694,0.22551580298411733,-0.22345259104764803,-0.33724209850794135
4.093732841328413,0.24289748114872467,-0.17130755655382596,-0.3285512594256377
4.101728413284133,0.260279159313332,-0.11916252206000394,-0.31986042034333395
4.109723985239852,0.27766083747793935,-0.06701748756618187,-0.3111695812610303
4.117719557195572,0.2950425156425467,-0.014872453072359848,-0.3024787421787266
4.125715129151292,0.20860516605166968,0.0,-0.24569741697416517
4.133710701107011,0.40350066142170893,0.0,-0.1
4.141706273062731,0.411043653832765,0.0,-0.1
4.14970184501845,0.4185866462438211,0.0,-0.1
4.15769741697417,0.42612963865487713,0.0,-0.1
4.165692988929889,0.43367263106593323,0.0,-0.1
4.1736885608856085,0.4412156234769893,0.0,-0.1
4.181684132841329,0.4487586158880462,0.0,-0.1
4.189679704797048,0.45630160829910227,0.0,-0.1
4.197675276752768,0.4638446007101583,0.0,-0.1
4.205670848708487,0.4713875931212144,0.0,-0.1
4.2136664206642065,0.47893058553227047,0.0,-0.1
4.221661992619926,0.4864735779433266,0.0,-0.1
4.229657564575645,0.4940165703543826,0.0,-0.1
4.237653136531366,0.5174014371722725,0.0,-0.10870071858613624
4.245648708487085,0.6015653524956343,0.0,-0.15078267624781716
4.2536442804428045,0.6857292678189961,0.0,-0.19286463390949807
4.261639852398524,0.7876256918819207,0.2,0.004124769372693123
4.269635424354243,0.7501464483394858,0.2,0.016617850553504718
4.277630996309963,0.7126672047970511,0.2,0.029110931734316312
4.285626568265683,0.6751879612546121,0.2,0.041604012915129295
4.2936221402214025,0.6377087177121774,0.2,0.054097094095940886
4.301617712177122,0.6002294741697426,0.2,0.06659017527675248
4.309613284132841,0.5627502306273078,0.2,0.07908325645756407
4.317608856088561,0.5252709870848731,0.2,0.09157633763837567
4.32560442804428,-0.020885608856104354,0.3736285362853682,0.3604428044280522
4.3336,-0.3,0.08826086956521864,0.1921739130434791
4.34159557195572,-0.3,0.06218835231830447,0.17479223487886966
4.349591143911439,-0.3,0.03611583507139318,0.15741055671426213
4.357586715867159,-0.3,0.01004331782448191,0.14002887854965462
4.365582287822878,-0.3,-0.016029199422429377,0.12264720038504709
4.373577859778598,-0.3,-0.04210171666934065,0.10526552222043957
4.381573431734317,-0.3,-0.06817423391625194,0.08788384405583205
4.3895690036900366,-0.3,-0.09424675116316322,0.07050216589122452
4.397564575645757,-0.3,-0.1203192684100774,0.05312048772661507
4.405560147601476,-0.3,-0.14639178565698868,0.03573880956200756
4.413555719557196,-0.3,-0.17246430290389994,0.01835713139740003
4.421551291512915,-0.3,-0.19853682015081123,0.0009754532327925225
4.429546863468635,-0.2948023194517654,-0.0948023194517654,0.0
4.437542435424354,-0.278484825664583,-0.07848482566458302,0.0
4.445538007380073,-0.26216733187740066,-0.062167331877400644,0.0
4.453533579335794,-0.24584983809021643,-0.04584983809021645,0.0
4.461529151291513,-0.22953234430303407,-0.029532344303034072,0.0
4.469524723247233,-0.2132148505158517,-0.013214850515851695,0.0
4.477520295202952,-0.19689735672866931,0.003102643271330696,0.0
4.4855158671586715,-0.18057986294148692,0.019420137058513073,0.0
4.493511439114391,-0.16426236915430456,0.03573763084569545,0.0
4.50150701107011,-0.14794487536712217,0.05205512463287784,0.0
4.509502583025831,-0.131627381579938,0.06837261842006204,0.0
4.51749815498155,-0.11530988779275561,0.0846901122072444,0.0
4.5254937269372695,-0.050627306273060314,0.1,0.0
4.533489298892989,0.3,-0.1,-0.1
4.541484870848708,0.3,-0.1,-0.1
4.549480442804428,0.3,-0.1,-0.1
4.557476014760147,0.3,-0.1,-0.1
4.5654715867158675,0.3,-0.1,-0.1
4.573467158671587,0.3,-0.1,-0.1
4.581462730627306,0.3,-0.1,-0.1
4.589458302583026,0.3,-0.1,-0.1
4.597453874538745,0.3,-0.1,-0.1
4.605449446494465,0.3,-0.1,-0.1
4.613445018450185,0.3,-0.1,-0.1
4.621440590405904,0.3,-0.1,-0.1
4.629436162361624,0.3,-0.1,-0.1
4.637431734317343,0.3,-0.1,-0.1
4.645427306273063,0.3,-0.1,-0.1
4.653422878228782,0.3038443475343864,-0.1,-0.1
4.6614184501845015,0.37653136531365317,-0.1,-0.1
4.669414022140222,0.2992332923329218,0.0007667076670782122,0.0
4.677409594095941,0.2844266776001081,0.015573322399891893,0.0
4.685405166051661,0.26962006286729445,0.030379937132705575,0.0
4.69340073800738,0.25481344813448076,0.04518655186551926,0.0
4.7013963099630995,0.24000683340166706,0.05999316659833294,0.0
4.709391881918819,0.2252002186688534,0.07479978133114662,0.0
4.717387453874538,0.21039360393603973,0.0896063960639603,0.0
4.725383025830259,-0.11276752767530168,0.0,0.1
4.733378597785978,-0.1,0.10086044951358747,0.2
4.741374169741698,-0.1,0.11903220395840433,0.2
4.749369741697417,-0.1,0.1372039584032212,0.2
4.757365313653136,-0.1,0.15537571284803806,0.2
4.765360885608856,-0.1,0.17354746729285492,0.2
4.773356457564575,-0.1,0.1917192217376718,0.2
4.781352029520296,-0.1,0.20989097618249067,0.2
4.789347601476015,-0.1,0.22806273062730753,0.2
4.797343173431734,-0.1,0.2462344850721244,0.2
4.805338745387454,-0.1,0.26440623951694125,0.2
4.813334317343173,-0.1,0.2825779939617581,0.2
4.821329889298893,-0.1,0.3,0.2
4.829325461254612,0.2,0.2,0.1
4.8373210332103325,0.2,0.2,0.1
4.845316605166052,0.2,0.2,0.1
4.853312177121771,0.2,0.2,0.1
4.861307749077491,0.2,0.2,0.1
4.86930332103321,0.2,0.2,0.1
4.87729889298893,0.2,0.2,0.1
4.88529446494465,0.2,0.2,0.1
4.893290036900369,0.2,0.2,0.1
4.901285608856089,0.2,0.2,0.1
4.909281180811808,0.2,0.2,0.1
4.917276752767528,0.2,0.2,0.1
4.925272324723247,0.2,0.2,0.1
4.9332678966789665,0.240184501845002,0.213394833948334,0.113394833948334
4.941263468634687,0.6138812479034021,0.24305937604829894,0.2
4.949259040590406,0.39894983544429846,0.0996499451480995,0.0996499451480995
4.957254612546126,0.36653535454273317,0.08884511818091105,0.08884511818091105
4.965250184501845,0.3341208736411678,0.07804029121372262,0.07804029121372262
4.9732457564575645,0.30170639273960254,0.06723546424653418,0.06723546424653418
4.981241328413284,0.26929191183803725,0.05643063727934574,0.05643063727934574
4.989236900369003,0.2368774309364719,0.0456258103121573,0.0456258103121573
4.997232472324724,0.20446295003490297,0.034820983344967665,0.034820983344967665
5.005228044280443,0.17204846913333766,0.02401615637777922,0.02401615637777922
5.0132236162361625,0.1396339882317723,0.013211329410590791,0.013211329410590791
5.021219188191882,0.10721950733020702,0.0024065024434023474,0.0024065024434023474
5.029214760147601,-0.06073800738006977,-0.1,-0.1
5.037210332103321,-0.09198851988519938,-0.1,-0.1
5.04520590405904,-0.08310455104551111,-0.1,-0.1
5.0532014760147606,-0.07422058220582185,-0.1,-0.1
5.06119704797048,-0.06533661336613358,-0.1,-0.1
5.069192619926199,-0.056452644526445314,-0.1,-0.1
5.077188191881919,-0.047568675686757045,-0.1,-0.1
5.085183763837638,-0.03868470684706878,-0.1,-0.1
5.093179335793358,-0.02980073800738052,-0.1,-0.1
5.101174907749077,-0.02091676916769225,-0.1,-0.1
5.109170479704797,-0.012032800328002996,-0.1,-0.1
5.117166051660517,-0.0031488314883147267,-0.1,-0.1
5.125161623616236,-0.08383763837636984,0.0,0.0
5.133157195571956,0.1,0.0,0.0
5.141152767527675,0.1,0.0,0.0
5.149148339483395,0.1,0.0,0.0
5.157143911439114,0.1,0.0,0.0
5.165139483394834,0.1,0.0,0.0
5.173135055350554,0.1,0.0,0.0
5.181130627306273,0.1,0.0,0.0
5.189126199261993,0.1,0.0,0.0
5.197121771217712,0.1,0.0,0.0
5.205117343173431,0.1,0.0,0.0
5.213112915129152,0.1,0.0,0.0
5.221108487084871,0.1,0.0,0.0
5.229104059040591,0.04479704797047571,-0.05520295202952429,0.0
5.23709963099631,-0.003068941580505005,-0.003068941580505005,0.0
5.2450952029520295,-0.010985349457454935,-0.010985349457454935,0.0
5.253090774907749,-0.018901757334404863,-0.018901757334404863,0.0
5.261086346863468,-0.026818165211354793,-0.026818165211354793,0.0
5.269081918819189,-0.034734573088305604,-0.034734573088305604,0.0
5.277077490774908,-0.04265098096525553,-0.04265098096525553,0.0
5.2850730627306275,-0.05056738884220546,-0.05056738884220546,0.0
5.293068634686347,-0.05848379671915539,-0.05848379671915539,0.0
5.301064206642066,-0.06640020459610532,-0.06640020459610532,0.0
5.309059778597786,-0.07431661247305525,-0.07431661247305525,0.0
5.317055350553505,-0.08223302035000518,-0.08223302035000518,0.0
5.3250509225092255,-0.09014942822695599,-0.09014942822695599,0.0
5.333046494464945,-0.09806583610390592,-0.09806583610390592,0.0
5.341042066420664,-0.1,0.0,0.0
5.349037638376384,-0.1,0.0,0.0
5.357033210332103,-0.1,0.0,0.0
5.365028782287823,-0.08935032986693497,-0.010649670133065035,0.0
5.373024354243542,-0.07723582690372385,-0.022764173096276156,0.0
5.381019926199262,-0.06512132394051137,-0.03487867605948863,0.0
5.389015498154982,-0.05300682097730026,-0.04699317902269975,0.0
5.397011070110701,-0.040892318014089137,-0.05910768198591087,0.0
5.405006642066421,-0.028777815050878022,-0.07122218494912198,0.0
5.41300221402214,-0.0166633120876669,-0.0833366879123331,0.0
5.4209977859778595,-0.00454880912445578,-0.09545119087554423,0.0
5.428993357933579,0.0,0.0,0.0
5.436988929889299,0.0,0.0,0.0
5.444984501845019,0.0,0.0,0.0
5.452980073800738,0.0,0.0,0.0
5.4609756457564576,0.0,0.0,0.0
5.468971217712177,0.0,0.0,0.0
5.476966789667896,0.0,0.0,0.0
5.484962361623616,0.0,0.0,0.0
5.492957933579336,0.0,0.0,0.0
5.500953505535056,0.0,0.0,0.0
5.508949077490775,0.0,0.0,0.0
5.516944649446494,0.0,0.0,0.0
5.524940221402214,0.0,0.0,0.0
5.532935793357933,0.0,0.0,0.0
5.540931365313654,0.0,0.0,0.0
5.548926937269373,0.0,0.0,0.0
5.5569225092250925,0.0,0.0,0.0
5.564918081180812,0.0,0.0,0.0
5.572913653136531,0.0,0.0,0.0
5.580909225092251,0.0,0.0,0.0
5.58890479704797,0.0,0.0,0.0
5.5969003690036905,0.0,0.0,0.0
5.60489594095941,0.0,0.0,0.0
5.612891512915129,0.0,0.0,0.0
5.620887084870849,0.0,0.0,0.0
5.628882656826568,0.0,0.0,0.0
5.636878228782288,0.0,0.0,0.0
5.644873800738007,-0.02184501845017524,0.0,0.0
5.652869372693727,-0.1,0.0,0.0
5.660864944649447,-0.1,0.0,0.0
5.668860516605166,-0.1,0.0,0.0
5.676856088560886,-0.1,0.0,0.0
5.684851660516605,-0.1,0.0,0.0
5.6928472324723245,-0.1,0.0,0.0
5.700842804428044,-0.1,0.0,0.0
5.708838376383764,-0.1,0.0,0.0
5.716833948339484,-0.1,0.0,0.0
5.724829520295203,-0.1,0.0,0.0
5.7328250922509225,-0.0652264340825238,0.0,0.0
5.740820664206642,0.0,0.0,0.0
5.748816236162361,0.0,0.0,0.0
5.756811808118081,0.0,0.0,0.0
5.764807380073801,0.0,0.0,0.0
5.7728029520295205,0.0,0.0,0.0
5.78079852398524,0.0,0.0,0.0
5.788794095940959,0.0,0.0,0.0
5.796789667896679,0.0,0.0,0.0
5.804785239852398,0.0,0.0,0.0
5.812780811808118,0.0,0.0,0.0
5.820776383763838,0.0,0.0,0.0
5.828771955719557,0.0,0.0,0.0
5.836767527675277,0.0,0.0,0.0
5.844763099630996,0.0,0.0,0.0
5.852758671586716,0.0,0.0,0.0
5.860754243542435,0.0,0.0,0.0
5.868749815498155,0.0,0.0,0.0
5.876745387453875,0.0,0.0,0.0
5.884740959409594,0.0,0.0,0.0
5.892736531365314,0.0,0.0,0.0
5.900732103321033,0.0,0.0,0.0
5.908727675276753,0.0,0.0,0.0
5.916723247232472,0.0,0.0,0.0
5.924718819188192,-0.08973115445440033,0.0,0.0
5.932714391143912,0.0,0.0,0.0
5.940709963099631,0.0,0.0,0.0
5.948705535055351,0.0,0.0,0.0
5.95670110701107,0.0,0.0,0.0
5.9646966789667895,0.0,0.0,0.0
5.972692250922509,0.0,0.0,0.0
5.980687822878229,0.0,0.0,0.0
5.988683394833949,0.0,0.0,0.0
5.996678966789668,0.0,0.0,0.0
6.0046745387453875,0.0,0.0,0.0
6.012670110701107,0.0,0.0,0.0
6.020665682656826,-0.08328413284131948,0.0,0.0
6.028661254612546,-0.07768757687575939,0.0,0.0
6.036656826568266,-0.1,0.0,0.0
6.0446523985239855,-0.1,0.0,0.0
6.052647970479705,-0.1,0.0,0.0
6.060643542435424,-0.1,0.0,0.0
6.068639114391144,-0.1,0.0,0.0
6.076634686346863,-0.1,0.0,0.0
6.084630258302583,-0.1,0.0,0.0
6.092625830258303,-0.1,0.0,0.0
6.100621402214022,-0.1,0.0,0.0
6.108616974169742,-0.1,0.0,0.0
6.116612546125461,-0.1,0.0,0.0
6.124608118081181,-0.1,0.0,0.0
6.1326036900369,-0.1,0.0,0.0
6.1405992619926195,-0.1,0.0,0.0
6.14859483394834,-0.1,0.0,0.0
6.156590405904059,-0.1,0.0,0.0
6.164585977859779,-0.1,0.0,0.0
6.172581549815498,-0.1,0.0,0.0
6.1805771217712175,-0.1,0.0,0.0
6.188572693726937,-0.1,0.0,0.0
6.196568265682657,-0.1,0.0,0.0
6.204563837638377,-0.1,0.0,0.0
6.212559409594096,-0.1,0.0,0.0
6.220554981549816,-0.1,0.0,0.0
6.228550553505535,-0.00561808118081375,0.0,0.0
6.236546125461254,0.0,0.09614551580298397,0.0
6.244541697416974,0.0,0.0874546767206803,0.0
6.252537269372694,0.0,0.07876383763837566,0.0
6.260532841328414,0.0,0.07007299855607198,0.0
6.268528413284133,0.0,0.0613821594737683,0.0
6.276523985239852,0.0,0.052691320391464624,0.0
6.284519557195572,0.0,0.04400048130916095,0.0
6.292515129151291,0.0,0.03530964222685727,0.0
6.300510701107011,0.0,0.0266188031445536,0.0
6.308506273062731,0.0,0.017927964062248947,0.0
6.3165018450184505,0.0,0.009237124979945277,0.0
6.32449741697417,0.0,0.0005462858976415935,0.0
6.332492988929889,0.04976629766297674,0.0,0.0
6.340488560885609,0.1,0.0,0.0
6.348484132841328,0.1,0.0,0.0
6.356479704797048,0.1,0.0,0.0
6.364475276752768,0.1,0.0,0.0
6.372470848708487,0.1,0.0,0.0
6.380466420664207,0.1,0.0,0.0
6.388461992619926,0.1,0.0,0.0
6.396457564575646,0.1,0.0,0.0
6.404453136531365,0.1,0.0,0.0
6.4124487084870845,0.1,0.0,0.0
6.420444280442805,0.1,0.0,0.0
6.428439852398524,0.05200492004918111,0.0,0.0
6.436435424354244,0.0,0.0,0.0
6.444430996309963,0.0,0.0,0.0
6.4524265682656825,0.0,0.0,0.0
6.460422140221402,0.0,0.0,0.0
6.468417712177122,0.0,0.0,0.0
6.476413284132842,0.0,0.0,0.0
6.484408856088561,0.0,0.0,0.0
6.4924044280442805,0.0,0.0,0.0
6.5004,0.0,0.0,0.0
6.508395571955719,0.0,0.0,0.0
6.516391143911439,0.0,0.0,0.0
6.524386715867159,0.0,0.0,0.0
6.5323822878228786,0.0,0.0,0.0
6.540377859778598,0.0,0.0,0.0
6.548373431734317,0.0,0.0,0.0
6.556369003690037,0.0,0.0,0.0
6.564364575645756,0.0,0.0,0.0
6.572360147601476,0.0,0.0,0.0
6.580355719557196,0.0,0.0,0.0
6.588351291512915,0.0,0.0,0.0
6.596346863468635,0.0,0.0,0.0
6.604342435424354,0.0,0.0,0.0
6.612338007380074,0.0,0.0,0.0
6.620333579335793,0.0,0.0,0.0
6.628329151291513,0.0,0.0,0.0
6.636324723247233,0.0,0.0,0.0
6.644320295202952,0.0,0.0,0.0
6.652315867158672,0.0,0.0,0.0
6.660311439114391,0.0,0.0,0.0
6.668307011070111,0.0,0.0,0.0
6.67630258302583,0.0,0.0,0.0
6.6842981549815494,0.0,0.0,0.0
6.69229372693727,0.0,0.0,0.0
6.700289298892989,0.0,0.0,0.0
6.708284870848709,0.0,0.0,0.0
6.716280442804428,0.0,0.0,0.0
6.7242760147601475,0.0,0.0,0.0
6.732271586715867,0.0,0.0,0.0
6.740267158671586,0.0,0.0,0.0
6.748262730627307,0.0,0.0,0.0
6.756258302583026,0.0,0.0,0.0
6.7642538745387455,0.0,0.0,0.0
6.772249446494465,0.0,0.0,0.0
6.780245018450184,0.0,0.0,0.0
6.788240590405904,0.0,0.0,0.0
6.796236162361624,0.0,0.0,0.0
6.8042317343173435,0.0,0.0,0.0
6.812227306273063,0.0,0.0,0.0
6.820222878228782,0.0,0.0,0.0
6.828218450184502,0.0,0.0,0.0
6.836214022140221,0.0,0.0,0.0
6.844209594095941,0.0,0.0,0.0
6.852205166051661,0.0,0.0,0.0
6.86020073800738,0.0,0.0,0.0
6.8681963099631,0.0,0.0,0.0
6.876191881918819,0.0,0.0,0.0
6.884187453874539,0.0,0.0,0.0
6.892183025830258,0.0,0.0,0.0
6.9001785977859775,0.0,0.0,0.0
6.908174169741698,0.0,0.0,0.0
6.916169741697417,0.0,0.0,0.0
6.924165313653137,0.0,0.0,0.0
6.932160885608856,0.0,0.0,0.0
6.9401564575645756,0.0,0.0,0.0
6.948152029520295,0.0,0.0,0.0
6.956147601476014,0.0,0.0,0.0
6.964143173431735,0.0,0.0,0.0
6.972138745387454,0.0,0.0,0.0
6.980134317343174,0.0,0.0,0.0
6.988129889298893,0.0,0.0,0.0
6.996125461254612,0.0,0.0,0.0
7.004121033210332,0.0,0.0,0.0
7.012116605166051,0.0,0.0,0.0
7.020112177121772,0.0,0.0,0.0
7.028107749077491,0.0,0.0,0.0
7.0361033210332105,-0.00012448317254321425,0.0,0.0
7.04409889298893,-0.00975770239630154,0.0,0.0
7.052094464944649,-0.019390921620059866,0.0,0.0
7.060090036900369,-0.02902414084381819,0.0,0.0
7.068085608856088,-0.038657360067576516,0.0,0.0
7.0760811808118085,-0.048290579291335914,0.0,0.0
7.084076752767528,-0.05792379851509424,0.0,0.0
7.092072324723247,-0.06755701773885256,0.0,0.0
7.100067896678967,-0.07719023696261089,0.0,0.0
7.108063468634686,-0.08682345618636922,0.0,0.0
7.116059040590406,-0.09645667541012753,0.0,0.0
7.124054612546126,-0.1,0.07064839219819799,0.0
7.132050184501845,-0.10287753254891112,0.0,0.0
7.140045756457565,-0.11042052495996713,0.0,0.0
7.148041328413284,-0.11796351737102313,0.0,0.0
7.156036900369004,-0.12550650978207914,0.0,0.0
7.164032472324723,-0.13304950219313516,0.0,0.0
7.1720280442804425,-0.14059249460419115,0.0,0.0
7.180023616236163,-0.148135487015248,0.0,0.0
7.188019188191882,-0.15567847942630403,0.0,0.0
7.196014760147602,-0.16322147183736002,0.0,0.0
7.204010332103321,-0.17076446424841604,0.0,0.0
7.2120059040590405,-0.17830745665947206,0.0,0.0
7.22000147601476,-0.18585044907052806,0.0,0.0
7.227997047970479,-0.19339344148158405,0.0,0.0
7.2359926199262,-0.2,0.0,0.0
7.243988191881919,-0.4962174786304817,-0.1,0.0
7.2519837638376385,-0.4860965014713433,-0.1,0.0
7.259979335793358,-0.47597552431220486,-0.1,0.0
7.267974907749077,-0.46585454715306646,-0.1,0.0
7.275970479704797,-0.455733569993928,-0.1,0.0
7.283966051660516,-0.4456125928347896,-0.1,0.0
7.291961623616237,-0.43549161567565,-0.1,0.0
7.299957195571956,-0.4253706385165116,-0.1,0.0
7.307952767527675,-0.4152496613573732,-0.1,0.0
7.315948339483395,-0.4051286841982347,-0.1,0.0
7.323943911439114,-0.23146371463713733,-0.03146371463713732,-0.03146371463713732
7.331939483394834,-0.3,-0.1,-0.1
7.339935055350553,-0.3,-0.1,-0.1
7.347930627306273,-0.3,-0.1,-0.1
7.355926199261993,-0.3,-0.1,-0.1
7.363921771217712,-0.3,-0.1,-0.1
7.371917343173432,-0.3,-0.1,-0.1
7.379912915129151,-0.3,-0.1,-0.1
7.387908487084871,-0.3,-0.1,-0.1
7.39590405904059,-0.3,-0.1,-0.1
7.40389963099631,-0.3,-0.1,-0.1
7.41189520295203,-0.3,-0.1,-0.1
7.419890774907749,-0.3,-0.1,-0.1
7.427886346863469,0.1,0.029544895448965575,-0.07045510455103443
7.435881918819188,0.1,0.1,0.0
7.4438774907749075,0.1,0.1,0.0
7.451873062730628,0.1,0.1,0.0
7.459868634686347,0.1,0.1,0.0
7.467864206642067,0.1,0.1,0.0
7.475859778597786,0.1,0.1,0.0
7.4838553505535055,0.1,0.1,0.0
7.491850922509225,0.1,0.1,0.0
7.499846494464944,0.1,0.1,0.0
7.507842066420665,0.1,0.1,0.0
7.515837638376384,0.1,0.1,0.0
7.5238332103321035,-0.1,0.08166789667896698,0.08166789667896698
7.531828782287823,-0.1,0.0017121771217710052,0.0017121771217710052
7.539824354243542,-0.1,0.0,0.007244772447724404
7.547819926199262,-0.1,0.0,0.014648079814131305
7.555815498154981,-0.1,0.0,0.022051387180538205
7.5638110701107015,-0.1,0.0,0.02945469454694593
7.571806642066421,-0.1,0.0,0.03685800191335283
7.57980221402214,-0.1,0.0,0.04426130927975973
7.58779778597786,-0.1,0.0,0.05166461664616663
7.595793357933579,-0.1,0.0,0.05906792401257353
7.603788929889299,-0.1,0.0,0.06647123137898044
7.611784501845018,-0.1,0.0,0.07387453874538734
7.619780073800738,-0.1,0.0,0.08127784611179506
7.627775645756458,-0.1,0.0,0.08868115347820196
7.635771217712177,-0.1,0.0,0.09608446084460887
7.643766789667897,-0.1919285298116117,0.0,0.09596426490580585
7.651762361623616,-0.10776461448824988,0.0,0.05388230724412494
7.6597579335793355,-0.02360069916488805,0.0,0.011800349582444025
7.667753505535055,0.0,-0.017703093954015425,0.0
7.675749077490775,0.0,-0.04230485381777009,0.0
7.683744649446495,0.0,-0.06690661368152204,0.0
7.691740221402214,0.0,-0.09150837354527397,0.0
7.699735793357934,0.0,-0.1161101334090259,0.0
7.707731365313653,0.0,-0.14071189327277783,0.0
7.715726937269372,0.0,-0.16531365313652976,0.0
7.723722509225093,0.0,-0.18991541300028444,0.0
7.731718081180812,0.6179520295203073,-0.1,0.5987361623616899
7.739713653136532,0.7963402403254785,-0.1009149399186304,1.6036597596745217
7.747709225092251,0.7553373072192251,-0.11116567319519373,1.644662692780775
7.7557047970479704,0.7143343741129718,-0.12141640647175705,1.6856656258870284
7.76370036900369,0.6733314410067185,-0.1316671397483204,1.7266685589932815
7.771695940959409,0.6323285079004652,-0.14191787302488373,1.767671492099535
7.77969151291513,0.5913255747942073,-0.15216860630144818,1.8086744252057927
7.787687084870849,0.550322641687954,-0.16241933957801152,1.849677358312046
7.7956826568265685,0.5093197085817007,-0.17267007285457486,1.8906802914182994
7.803678228782288,0.46831677547544737,-0.18292080613113817,1.9316832245245528
7.811673800738007,0.427313842369194,-0.19317153940770151,1.9726861576308061
7.819669372693727,0.7008118081179728,-0.2,1.9495940959410136
7.827664944649446,0.8210961779342548,-0.2140641186228365,1.8718717627543269
7.8356605166051665,0.843102339280274,-0.228734892853516,1.842530214292968
7.843656088560886,0.8651085006262909,-0.24340566708419384,1.8131886658316123
7.851651660516605,0.8871146619723076,-0.2580764413148717,1.7838471173702566
7.859647232472325,0.9091208233183243,-0.27274721554554954,1.7545055689089009
7.867642804428044,0.9311269846643411,-0.2874179897762274,1.7251640204475451
7.875638376383764,0.9531331460103579,-0.30208876400690526,1.6958224719861894
7.883633948339483,0.9751393073563747,-0.31675953823758307,1.666480923524834
7.891629520295203,0.997145468702394,-0.3314303124682626,1.6371393750634748
7.899625092250923,1.0191516300484107,-0.34610108669894046,1.6077978266021191
7.907620664206642,1.0411577913944274,-0.36077186092961827,1.5784562781407634
7.915616236162362,1.0631639527404442,-0.37544263516029613,1.5491147296794079
7.923611808118081,1.085170114086461,-0.39011340939097394,1.519773181218052
7.9316073800738005,1.1711439114396955,-0.17483394833982252,1.1036900369001268
7.93960295202952,1.438451631575136,0.17802763909992236,0.1670414586498835
7.94759852398524,1.4933232038202755,0.14667245495984252,0.12000868243976374
7.95559409594096,1.5481947760654091,0.11531727081976614,0.0729759062296492
7.963589667896679,1.6030663483105427,0.08396208667968978,0.02594313001953466
7.9715852398523985,1.6579379205556766,0.05260690253961342,-0.021089646190579903
7.979580811808118,1.7128094928008102,0.021251718399537045,-0.06812242240069444
7.987576383763837,1.7676810650459438,-0.010103465740539302,-0.11515519861080903
7.995571955719557,1.8225526372910774,-0.04145864988061568,-0.16218797482092356
8.003567527675276,1.877424209536211,-0.07281383402069203,-0.2092207510310381
8.011563099630996,1.9322957817813449,-0.1041690181607684,-0.25625352724115263
8.019558671586715,1.9871673540264783,-0.13552420230084478,-0.3032863034512672
8.027554243542436,2.042038926271624,-0.1668793864409281,-0.35031907966139225
8.035549815498156,2.096910498516758,-0.19823457058100447,-0.39735185587150673
8.043545387453875,0.03180811808138029,0.040910209102068856,-0.21362853628551798
8.051540959409595,0.31107102182131297,0.006840690629129772,-0.4657965468543511
8.059536531365314,0.1827470274702625,0.016711767117672117,-0.4164411644116394
8.067532103321033,0.05442303311921204,0.026582843606214462,-0.3670857819689277
8.075527675276753,-0.07390096123183848,0.03645392009475681,-0.31773039952621596
8.083523247232472,-0.202224955582889,0.04632499658329915,-0.26837501708350425
8.091518819188192,-0.33054894993393946,0.056196073071841504,-0.21901963464079255
8.099514391143911,-0.4588729442849899,0.06606714956038384,-0.1696642521980808
8.10750996309963,-0.5871969386360404,0.0759382260489262,-0.12030886975536909
8.11550553505535,-0.715520932987091,0.08580930253746853,-0.07095348731265733
8.12350110701107,-0.8438449273381413,0.09568037902601088,-0.021598104869945622
8.131496678966789,-1.001992619926662,-0.09955719557185294,0.7004428044281471
8.13949225092251,-0.08557277572775375,-0.34328167281673877,0.5649225092251081
8.14748782287823,-0.06780483804837756,-0.3965854858548673,0.6448782287823009
8.155483394833949,-0.05003690036900138,-0.4498892988929959,0.7248339483394938
8.163478966789668,-0.0322689626896252,-0.5031931119311244,0.8047896678966866
8.171474538745388,-0.014501025010249025,-0.556496924969253,0.8847453874538793
8.179470110701107,0.003266912669127167,-0.6098007380073815,0.9647011070110723
8.187465682656827,0.021034850348503345,-0.66310455104551,1.044656826568265
8.195461254612546,0.03880278802787954,-0.7164083640836386,1.1246125461254577
8.203456826568265,0.056570725707255715,-0.7697121771217672,1.2045682656826506
8.211452398523985,0.07433866338663189,-0.8230159901598957,1.2845239852398436
8.219447970479704,0.09210660106600807,-0.8763198031980244,1.3644797047970363
8.227443542435424,-0.6024105567142578,-0.1975894432857422,1.397589443285742
8.235439114391143,-0.6458647521257762,-0.15413524787422384,1.3541352478742237
8.243434686346864,-0.6893189475373042,-0.1106810524626958,1.3106810524626957
8.251430258302584,-0.7327731429488226,-0.06722685705117742,1.2672268570511773
8.259425830258303,-0.776227338360341,-0.02377266163965905,1.223772661639659
8.267421402214023,-0.8196815337718594,0.019681533771859328,1.1803184662281407
8.275416974169742,-0.8631357291833778,0.06313572918337773,1.1368642708166223
8.283412546125462,-0.9065899245948961,0.10658992459489608,1.093410075405104
8.291408118081181,-0.9500441200064145,0.15004412000641448,1.0499558799935855
8.2994036900369,-0.9934983154179329,0.19349831541793283,1.0065016845820671
8.30739926199262,-1.0369525108294513,0.23695251082945123,0.9630474891705488
8.31539483394834,-1.0804067062409697,0.2804067062409696,0.9195932937590304
8.323390405904059,-1.1609594095940987,0.2,0.17431734317344416
8.331385977859778,-0.9745777344565959,0.16516048179349885,-0.05819257815219862
8.339381549815498,-0.8388038710575866,0.1274455197382185,-0.012934623685862179
8.347377121771217,-0.7030300076585773,0.08973055768293813,0.03232333078047425
8.355372693726938,-0.5672561442595377,0.0520155956276494,0.07758128524682073
8.363368265682658,-0.43148228086052853,0.01430063357236902,0.12283923971315716
8.371363837638377,-0.2957084174615192,-0.023414328482911334,0.16809719417949362
8.379359409594096,-0.1599345540625099,-0.061129290538191716,0.21335514864583002
8.387354981549816,-0.024160690663500572,-0.09884425259347207,0.25861310311216645
8.395350553505535,0.11161317273550875,-0.13655921464875242,0.30387105757850286
8.403346125461255,0.24738703613451807,-0.17427417670403278,0.34912901204483937
8.411341697416974,0.3831608995335274,-0.21198913875931313,0.3943869665111758
8.419337269372694,0.5189347629325367,-0.2497041008145935,0.4396449209775123
8.427332841328413,0.654708626331546,-0.28741906286987384,0.4849028754438487
8.435328413284132,0.6102185637241011,-1.1489071813794944,0.0897814362758989
8.443323985239852,0.6717229633834818,-0.8413851830825909,0.028277036616518203
8.451319557195571,0.6556968492761843,-0.6723105307976152,0.0
8.45931512915129,0.5736909830636786,-0.6210568644147991,0.0
8.467310701107012,0.4916851168511547,-0.5698031980319717,0.0
8.475306273062731,0.409679250638649,-0.5185495316491556,0.0
8.48330184501845,0.3276733844261433,-0.4672958652663396,0.0
8.49129741697417,0.24566751821363764,-0.4160421988835235,0.0
8.49929298892989,0.16366165200113192,-0.3647885325007074,0.0
8.507288560885609,0.0816557857886262,-0.3135348661178914,0.0
8.515284132841328,-0.00035008042387951743,-0.2622811997350753,0.0
8.523279704797048,-0.08235594663638524,-0.21102753335225927,0.0
8.531275276752767,-0.49601476014760015,-0.30398523985239984,0.1
8.539270848708487,-0.47102859778597694,-0.328971402214023,0.1
8.547266420664206,-0.4460424354243538,-0.3539575645756462,0.1
8.555261992619926,-0.42105627306273063,-0.3789437269372694,0.1
8.563257564575645,-0.3960701107011074,-0.40392988929889256,0.1
8.571253136531366,-0.37108394833947866,-0.42891605166052127,0.1
8.579248708487086,-0.3460977859778555,-0.4539022140221445,0.1
8.587244280442805,-0.3211116236162323,-0.4788883763837677,0.1
8.595239852398525,-0.29612546125460915,-0.5038745387453909,0.1
8.603235424354244,-0.27113929889298594,-0.5288607011070141,0.1
8.611230996309963,-0.24615313653136278,-0.5538468634686372,0.1
8.619226568265683,-0.22116697416973957,-0.5788330258302604,0.1
8.627222140221402,-0.4444280442804719,-0.722214022140236,0.1
8.635217712177122,0.08185930246399392,0.3136055231520046,0.7546482561599849
8.643213284132841,0.04746974566520067,0.3393976907510995,0.6686743641630017
8.65120885608856,0.013080188866407425,0.3651898583501944,0.5827004721660186
8.65920442804428,-0.021309367932385817,0.3909820259492893,0.4967265801690355
8.6672,-0.05569892473117907,0.4167741935483843,0.4107526881720524
8.675195571955719,-0.09008848152997231,0.4425663611474792,0.3247787961750693
8.68319114391144,-0.12447803832877319,0.4683585287465799,0.2388049041780671
8.69118671586716,-0.15886759512756646,0.49415069634567477,0.15283101218108397
8.699182287822879,-0.1932571519263597,0.5199428639447697,0.06685712018410084
8.707177859778598,-0.22764670872515294,0.5457350315438647,-0.019116771812882294
8.715173431734318,-0.2620362655239462,0.5715271991429596,-0.10509066380986531
8.723169003690037,-0.2964258223227394,0.5973193667420545,-0.19106455580684845
8.731164575645757,-1.1968238846024832,0.5031761153975167,0.30105870513250554
8.739160147601476,-1.1750177792687029,0.5249822207312971,0.30832740691043237
8.747155719557195,-1.1532116739349225,0.5467883260650774,0.31559610868835913
8.755151291512915,-1.1314055686011422,0.5685944313988578,0.3228648104662859
8.763146863468634,-1.1095994632673618,0.5904005367326381,0.3301335122442127
8.771142435424354,-1.0877933579335815,0.6122066420664185,0.3374022140221395
8.779138007380073,-1.065987252599801,0.6340127474001989,0.3446709158000663
8.787133579335793,-1.0441811472660207,0.6558188527339793,0.3519396175779931
8.795129151291514,-1.0223750419322355,0.6776249580677645,0.3592083193559215
8.803124723247233,-1.0005689365984551,0.6994310634015448,0.3664770211338483
8.811120295202953,-0.9787628312646748,0.7212371687353253,0.3737457229117751
8.819115867158672,-0.9569567259308944,0.7430432740691056,0.38101442468970187
8.827111439114391,-0.9351506205971141,0.764849379402886,0.38828312646762864
8.83510701107011,-0.9133445152633337,0.7866554847366664,0.39555182824555546
8.84310258302583,-0.6926494464944676,0.8073505535055324,0.5147011070110649
8.85109815498155,-0.6393456334563338,0.8606543665436662,0.6213087330873324
8.85909372693727,-0.5001441952881064,0.9,0.8004325858643193
8.867089298892989,-0.5124450752199825,0.9,0.8373352256599477
8.875084870848708,-0.5247459551518587,0.9,0.8742378654555761
8.883080442804427,-0.5370468350837349,0.9,0.9111405052512045
8.891076014760147,-0.549347715015611,0.9,0.948043145046833
8.899071586715868,-0.5616485949474899,0.9,0.9849457848424695
8.907067158671587,-0.573949474879366,0.9,1.0218484246380979
8.915062730627307,-0.5862503548112421,0.9,1.0587510644337264
8.923058302583026,-0.5985512347431182,0.9,1.0956537042293548
8.931053874538746,-1.0996486443125222,1.7994144071875369,1.400585592812463
8.939049446494465,-1.0475036098187,1.7125060163645,1.4874939836355
8.947045018450185,-0.995358575324878,1.6255976255414635,1.5744023744585367
8.955040590405904,-0.943213540831056,1.5386892347184267,1.6613107652815733
8.963036162361623,-0.8910685063372339,1.4517808438953899,1.74821915610461
8.971031734317343,-0.8389234718434119,1.364872453072353,1.835127546927647
8.979027306273062,-0.7867784373495899,1.2779640622493162,1.9220359377506835
8.987022878228782,-0.7346334028557677,1.1910556714262794,2.0089443285737203
8.995018450184501,-0.6824883683619456,1.1041472806032429,2.095852719396757
9.00301402214022,-0.6303433338681237,1.017238889780206,2.182761110219794
9.011009594095942,-0.57819829937429,0.93033049895715,2.26966950104285
9.019005166051661,-0.5260532648804679,0.8434221081341132,2.3565778918658866
9.02700073800738,-1.5490036900362703,-0.45033210332124324,3.000073800738054
9.0349963099631,-0.3230120433072473,-0.9615060216536236,3.138441263533515
9.04299188191882,-0.46359352824297456,-1.0317967641214874,3.1823729775759295
9.050987453874539,-0.6041750131787018,-1.102087506589351,3.226304691618344
9.058983025830258,-0.7447564981144292,-1.1723782490572145,3.2702364056607593
9.066978597785978,-0.8853379830501564,-1.2426689915250781,3.314168119703174
9.074974169741697,-1.0259194679858836,-1.3129597339929417,3.3580998337455887
9.082969741697417,-1.166500952921611,-1.3832504764608053,3.4020315477880034
9.090965313653136,-1.3070824378573382,-1.453541218928669,3.445963261830418
9.098960885608856,-1.4476639227930654,-1.5238319613965325,3.489894975872833
9.106956457564575,-1.5882454077287929,-1.5941227038643961,3.533826689915248
9.114952029520294,-1.72882689266452,-1.66441344633226,3.5777584039576626
9.122947601476016,-1.4235793357927022,-2.884280442804865,3.5
9.130943173431735,-0.3621281449178119,-2.787376048305937,3.537871855082188
9.138938745387454,-0.31851593425025115,-2.7728386447500837,3.581484065749749
9.146934317343174,-0.27490372358269044,-2.75830124119423,3.6250962764173096
9.154929889298893,-0.23129151291512967,-2.7437638376383764,3.6687084870848703
9.162925461254613,-0.18767930224756893,-2.729226434082523,3.712320697752431
9.170921033210332,-0.1440670915800082,-2.7146890305266695,3.7559329084199917
9.178916605166052,-0.10045488091244748,-2.7001516269708157,3.7995451190875524
9.186912177121771,-0.056842670244886706,-2.6856142234149623,3.843157329755113
9.19490774907749,-0.013230459577325993,-2.671076819859109,3.886769540422674
9.20290332103321,0.030381751090234776,-2.656539416303255,3.9303817510902346
9.21089889298893,0.07399396175779555,-2.6420020127474015,3.9739939617577953
9.218894464944649,0.11760617242535631,-2.627464609191548,4.017606172425356
9.22689003690037,0.1612183830929267,-2.612927205635691,4.0612183830929265
9.23488560885609,0.17584703119756157,-2.5758470311975614,4.091949010399187
9.242881180811809,-0.04221402214025624,-2.3577859778597436,4.0192619926199145
9.250876752767528,-1.0205482340537775,-1.1794517659462225,4.0
9.258872324723248,-1.077659462308916,-1.122340537691084,4.0
9.266867896678967,-1.1347706905640544,-1.0652293094359455,4.0
9.274863468634686,-1.1918819188191931,-1.0081180811808068,4.0
9.282859040590406,-1.2489931470743316,-0.9510068529256683,4.0
9.290854612546125,-1.30610437532947,-0.8938956246705299,4.0
9.298850184501845,-1.3632156035846086,-0.8367843964153914,4.0
9.306845756457564,-1.420326831839747,-0.7796731681602528,4.0
9.314841328413284,-1.4774380600948858,-0.7225619399051142,4.0
9.322836900369003,-0.6686162361623589,-0.28953874538745294,4.941845018450189
9.330832472324722,-0.41109963099629854,-0.19815006150061693,5.280575645756477
9.338828044280444,-0.5177072570725815,-0.18038212382123645,5.094012300122983
9.346823616236163,-0.6243148831488406,-0.1626141861418599,4.907448954489529
9.354819188191883,-0.7309225092250999,-0.14484624846248337,4.720885608856075
9.362814760147602,-0.8375301353013591,-0.12707831078310683,4.534322263222622
9.370810332103321,-0.9441377613776183,-0.1093103731037303,4.347758917589168
9.37880590405904,-1.0507453874538775,-0.09154243542435377,4.161195571955714
9.38680147601476,-1.1573530135301366,-0.07377449774497724,3.974632226322261
9.39479704797048,-1.2639606396063958,-0.0560065600656007,3.788068880688807
9.402792619926199,-1.3705682656826552,-0.038238622386224164,3.6015055350553538
9.410788191881919,-1.4771758917589146,-0.020470684706847625,3.4149421894219003
9.418783763837638,-1.5837835178351738,-0.002702747027471114,3.2283788437884464
9.426779335793357,-1.6889667896678868,-0.5362084870848585,3.5527583025830283
9.434774907749077,-1.792198207696365,-0.7902477596204562,3.4960991038481826
9.442770479704796,-1.7570528364624332,-0.7463160455780414,3.4785264182312163
9.450766051660517,-1.7219074652284936,-0.702384331535617,3.4609537326142465
9.458761623616237,-1.6867620939945618,-0.6584526174932022,3.4433810469972808
9.466757195571956,-1.6516167227606298,-0.6145209034507875,3.425808361380315
9.474752767527676,-1.616471351526698,-0.5705891894083727,3.4082356757633487
9.482748339483395,-1.5813259802927662,-0.5266574753659579,3.390662990146383
9.490743911439115,-1.5461806090588344,-0.4827257613235431,3.373090304529417
9.498739483394834,-1.5110352378249026,-0.4387940472811283,3.3555176189124514
9.506735055350553,-1.4758898665909708,-0.39486233323871356,3.337944933295485
9.514730627306273,-1.440744495357039,-0.3509306191962988,3.3203722476785194
9.522726199261992,-1.405599124123107,-0.306998905153884,3.3027995620615536
9.530721771217712,0.69305737412213,0.39305737412213,2.6
9.538717343173431,0.6608171646232615,0.36081716462326147,2.6
9.54671291512915,0.6285769551243929,0.32857695512439294,2.6
9.554708487084872,0.5963367456255172,0.29633674562551726,2.6
9.562704059040591,0.5640965361266488,0.26409653612664874,2.6
9.57069963099631,0.5318563266277803,0.23185632662778025,2.6
9.57869520295203,0.49961611712891174,0.19961611712891172,2.6
9.58669077490775,0.4673759076300432,0.1673759076300432,2.6
9.594686346863469,0.4351356981311747,0.1351356981311747,2.6
9.602681918819188,0.4028954886323062,0.10289548863230619,2.6
9.610677490774908,0.37065527913343765,0.07065527913343767,2.6
9.618673062730627,0.3384150696345692,0.03841506963456914,2.6
9.626668634686347,0.30617486013570067,0.006174860135700622,2.6
9.634664206642066,0.27393465063683214,-0.0260653493631679,2.6
9.642659778597785,0.24169444113796362,-0.058305558862036366,2.6
9.650655350553505,0.20945423163909516,-0.09054576836090489,2.6
9.658650922509224,-0.0018867319107965777,0.09905663404460172,2.4952831702230087
9.666646494464946,-0.025062302796944713,0.08746884860152765,2.4373442430076384
9.674642066420665,-0.0482378736830877,0.07588106315845616,2.3794053157922805
9.682637638376384,-0.07141344456923068,0.06429327771538466,2.321466388576923
9.690633210332104,-0.09458901545537367,0.05270549227231317,2.2635274613615657
9.698628782287823,-0.11776458634151665,0.04111770682924168,2.2055885341462083
9.706624354243543,-0.14094015722765965,0.02952992138617018,2.147649606930851
9.714619926199262,-0.16411572811380262,0.017942135943098694,2.0897106797154934
9.722615498154981,-0.18729129899994562,0.006354350500027195,2.031771752500136
9.730611070110701,0.16110701107008343,-0.3,1.786125461254708
9.73860664206642,0.3,-0.24744716538074235,1.2624622609862446
9.74660221402214,0.3,-0.18384602482388399,1.217032874874203
9.75459778597786,0.3,-0.12024488426702559,1.1716034887621611
9.762593357933579,0.3,-0.05664374371016723,1.1261741026501195
9.7705889298893,0.3,0.006957396846705266,1.0807447165380677
9.77858450184502,0.3,0.07055853740356366,1.0353153304260259
9.786580073800739,0.3,0.13415967796042205,0.9898859443139842
9.794575645756458,0.3,0.19776081851728045,0.9444565582019426
9.802571217712178,0.3,0.2613619590741388,0.8990271720899009
9.810566789667897,0.3,0.3249630996309972,0.8535977859778592
9.818562361623616,0.3,0.38856424018785557,0.8081683998658176
9.826557933579336,-0.1918615410034659,0.40232527399900975,0.5034879109985146
9.834553505535055,-0.15009362780194663,0.4142589634851581,0.5213884452277372
9.842549077490775,-0.10832571460042732,0.4261926529713065,0.5392889794569597
9.850544649446494,-0.06655780139890805,0.43812634245745485,0.5571895136861823
9.858540221402214,-0.024789888197388754,0.4500600319436032,0.5750900479154049
9.866535793357933,0.016978025004130537,0.4619937214297516,0.5929905821446274
9.874531365313652,0.05874593820564983,0.47392741091589996,0.61089111637385
9.882526937269374,0.10051385140717839,0.485861100402051,0.6287916506030765
9.890522509225093,0.14228176460869768,0.49779478988819936,0.6466921848322991
9.898518081180812,0.18404967781021697,0.5097284793743477,0.6645927190615216
9.906513653136532,0.22581759101173626,0.5216621688604961,0.6824932532907442
9.914509225092251,0.2675855042132555,0.5335958583466445,0.7003937875199667
9.92250479704797,0.3093534174147748,0.5455295478327928,0.7182943217491893
9.93050036900369,0.3511213306162941,0.5574632373189412,0.7361948559784118
9.93849594095941,0.39288924381781337,0.5693969268050896,0.7540953902076344
9.946491512915129,0.43465715701933266,0.581330616291238,0.7719959244368568
9.954487084870848,0.47642507022085195,0.5932643057773863,0.7898964586660795
9.962482656826568,0.45173431734320435,0.3034686346864088,0.3310701107012153
9.970478228782287,0.2280196801968152,-0.0719803198031848,-0.4159409594095544
9.978473800738007,0.14751149977254457,-0.10749835717535078,-0.5149967143507016
9.986469372693726,0.07084163170400068,-0.11845119547085706,-0.5369023909417141
9.994464944649447,-0.00582823636456023,-0.12940403376636575,-0.5588080675327315
10.002460516605167,-0.08249810443310412,-0.14035687206187203,-0.580713744123744
10.010456088560886,-0.15916797250164805,-0.1513097103573783,-0.6026194207147566
10.018451660516606,-0.23583784057019191,-0.1622625486528846,-0.6245250973057691
10.026447232472325,-0.31250770863873584,-0.17321538694839084,-0.6464307738967816
10.034442804428044,-0.38917757670727976,-0.18416822524389712,-0.6683364504877942
10.042438376383764,-0.46584744477582357,-0.1951210635394034,-0.6902421270788067
10.050433948339483,-1.2,-0.63018450184486,-0.56981549815514
10.058429520295203,-1.119680861673485,-0.7899601077091857,-0.2795212925102277
10.066425092250922,-1.0332422459359776,-0.7791552807419972,-0.14986336890396645
10.074420664206642,-0.9468036301984701,-0.7683504537748088,-0.020205445297705182
10.082416236162361,-0.8603650144609626,-0.7575456268076204,0.10945247830855609
10.09041180811808,-0.773926398723455,-0.7467407998404318,0.23911040191481736
10.098407380073802,-0.6874877829859284,-0.7359359728732411,0.3687683255211075
10.106402952029521,-0.601049167248421,-0.7251311459060525,0.49842624912736877
10.11439852398524,-0.5146105515109134,-0.7143263189388641,0.62808417273363
10.12239409594096,-0.42817193577340584,-0.7035214919716757,0.7577420963398912
10.13038966789668,-0.38747847478520414,-1.0852890528906363,3.0683886838867043
10.138385239852399,-2.912516273477329,-1.661963597164056,2.242945395746084
10.146380811808118,-2.7058891330486254,-1.5721257100211417,2.1081885650317123
10.154376383763838,-2.4992619926199224,-1.482287822878227,1.9734317343173404
10.162371955719557,-2.292634852191219,-1.3924499357353126,1.8386749036029688
10.170367527675277,-2.086007711762516,-1.302612048592398,1.7039180728885972
10.178363099630996,-1.8793805713338123,-1.2127741614494836,1.5691612421742254
10.186358671586715,-1.672753430905109,-1.1229362743065692,1.4344044114598535
10.194354243542435,-1.4661262904764059,-1.0330983871636545,1.299647580745482
10.202349815498154,-1.2594991500477024,-0.9432605000207401,1.16489075003111
10.210345387453875,-1.0528720096189532,-0.8534226128778056,1.0301339193167085
10.218340959409595,-0.84624486919025,-0.7635847257348911,0.8953770886023367
10.226336531365314,-1.0004797047971294,-0.6331734317342902,0.5668265682657098
10.234332103321034,-0.6419073089813399,-0.694190730898134,0.4232370764074641
10.242327675276753,-0.5685534378279505,-0.686855343782795,0.4525786248688198
10.250323247232473,-0.49519956667456133,-0.6795199566674561,0.48192017333017545
10.258318819188192,-0.421845695521172,-0.6721845695521171,0.5112617217915312
10.266314391143911,-0.3484918243677828,-0.6648491824367783,0.5406032702528869
10.27430996309963,-0.27513795321439355,-0.6575137953214393,0.5699448187142426
10.28230553505535,-0.2017840820610043,-0.6501784082061004,0.5992863671755984
10.29030110701107,-0.12843021090761497,-0.6428430210907615,0.628627915636954
10.29829667896679,-0.05507633975422577,-0.6355076339754225,0.6579694640983097
10.306292250922509,0.018277531399163438,-0.6281722468600837,0.6873110125596653
10.314287822878228,0.09163140255255275,-0.6208368597447447,0.716652561021021
10.32228339483395,0.16498527370595828,-0.6135014726294041,0.7459941094823833
10.330278966789669,0.2383391448593476,-0.6061660855140653,0.7753356579437389
10.338274538745388,0.2362730627306064,-0.5362730627306064,0.7362730627306063
10.346270110701107,0.12471270426988938,-0.3,0.7
10.354265682656827,0.010490247759621013,-0.3,0.7
10.362261254612546,-0.04468464376951356,-0.3111711609423784,0.7111711609423783
10.370256826568266,-0.0938881634970181,-0.3234720408742545,0.7234720408742545
10.378252398523985,-0.14309168322452265,-0.33577292080613064,0.7357729208061307
10.386247970479705,-0.1922952029520272,-0.3480738007380068,0.7480738007380068
10.394243542435424,-0.24149872267953174,-0.36037468066988293,0.7603746806698829
10.402239114391143,-0.2907022424070363,-0.3726755606017591,0.7726755606017591
10.410234686346863,-0.3399057621345408,-0.3849764405336352,0.7849764405336352
10.418230258302582,-0.3891092818620454,-0.39727732046551134,0.7972773204655114
10.426225830258304,-0.2,-0.49393153337473855,-0.001213693325052295
10.434221402214023,-0.2,-0.45434949398998853,-0.009130101202002295
10.442216974169742,-0.2,-0.41476745460523856,-0.017046509078952294
10.450212546125462,-0.2,-0.37518541522048854,-0.024962916955902293
10.458208118081181,-0.2,-0.3356033758357385,-0.032879324832852296
10.4662036900369,-0.2,-0.29602133645098855,-0.040795732709802295
10.47419926199262,-0.2,-0.2564392970662386,-0.048712140586752294
10.48219483394834,-0.2,-0.21685725768148856,-0.05662854846370229
10.490190405904059,-0.2,-0.1772752182967386,-0.0645449563406523
10.498185977859778,-0.2,-0.13769317891198857,-0.0724613642176023
10.506181549815498,-0.2,-0.0981111395272386,-0.0803777720945523
10.514177121771217,-0.2,-0.05852910014248858,-0.0882941799715023
10.522172693726937,-0.2,-0.01894706075773861,-0.0962105878484523
10.530168265682656,-0.11682656826557654,-0.2,0.0
10.538163837638377,-0.30948282713596503,-0.19051717286403494,0.2284484814078952
10.546159409594097,-0.3217837070678412,-0.17821629293215882,0.2653511212035236
10.554154981549816,-0.3340845869997173,-0.16591541300028267,0.302253760999152
10.562150553505536,-0.3463854669315935,-0.15361453306840653,0.33915640079478043
10.570146125461255,-0.3586863468634696,-0.1413136531365304,0.37605904059040884
10.578141697416974,-0.3709872267953458,-0.12901277320465426,0.4129616803860372
10.586137269372694,-0.3832881067272219,-0.11671189327277813,0.44986432018166567
10.594132841328413,-0.39558898665909803,-0.10441101334090198,0.486766959977294
10.602128413284133,-0.48547355473554943,-0.3564206642066483,0.3290528905289012
10.610123985239852,-0.5974181940166505,-0.49483638803330116,-0.012909029916747063
10.618119557195572,-0.5908102833094444,-0.48162056661888897,-0.045948583452777636
10.626115129151291,-0.5842023726022383,-0.4684047452044767,-0.0789881369888082
10.63411070110701,-0.5775944618950323,-0.4551889237900645,-0.11202769052483878
10.64210627306273,-0.5709865511878262,-0.44197310237565224,-0.14506724406086935
10.650101845018451,-0.5643786404806186,-0.4287572809612371,-0.17810679759690726
10.65809741697417,-0.5577707297734125,-0.41554145954682487,-0.21114635113293784
10.66609298892989,-0.5511628190662063,-0.4023256381324126,-0.24418590466896842
10.67408856088561,-0.5445549083590002,-0.3891098167180004,-0.277225458204999
10.682084132841329,-0.5379469976517941,-0.3758939953035882,-0.31026501174102955
10.690079704797048,-0.531339086944588,-0.36267817388917595,-0.34330456527706016
10.698075276752768,-0.5247311762373819,-0.34946235247476376,-0.3763441188130907
10.706070848708487,-0.5181232655301757,-0.3362465310603515,-0.40938367234912126
10.714066420664206,-0.5115153548229696,-0.3230307096459393,-0.44242322588515187
10.722061992619926,-0.5049074441157635,-0.30981488823152703,-0.4754627794211824
10.730057564575645,-0.49972910787931824,-0.30013544606034087,-0.09959366181897736
10.738053136531365,-0.4621028869112264,-0.3189485565443868,-0.04315433036683961
10.746048708487084,-0.42447666594313455,-0.3377616670284327,0.013285001085298134
10.754044280442805,-0.3868504449750344,-0.3565747775124828,0.06972433253744842
10.762039852398525,-0.34922422400694253,-0.3753878879965287,0.12616366398958614
10.770035424354244,-0.31159800303885066,-0.39420099848057466,0.1826029954417239
10.778030996309964,-0.2739717820707589,-0.41301410896462054,0.23904232689386165
10.786026568265683,-0.23634556110266702,-0.4318272194486665,0.2954816583459994
10.794022140221402,-0.1987193401345752,-0.4506403299327124,0.35192098979813713
10.802017712177122,-0.16109311916648333,-0.4694534404167583,0.4083603212502749
10.810013284132841,-0.12346689819839152,-0.48826655090080423,0.46479965270241264
10.81800885608856,0.1747785977859858,-0.19159286592866195,0.6663714637146477
10.82600442804428,-0.02511070110699229,-0.12496309963100258,0.3998523985240103
10.834,0.09999999999999998,-0.3,0.3
