gyro_time_list,gyro_x_list,gyro_y_list,gyro_z_list
0.0,-0.3,0.2,-0.1
0.007997982243744955,0.0,0.09853237905331624,0.0
0.01599596448748991,0.0,0.08677064045957367,0.0
0.023993946731234866,0.0,0.07500890186583108,0.0
0.03199192897497982,0.0,0.06324716327208849,0.0
0.03998991121872478,0.0,0.05148542467834591,0.0
0.04798789346246973,0.0,0.039723686084603325,0.0
0.05598587570621469,0.0,0.027961947490860742,0.0
0.06398385794995964,0.0,0.01620020889711815,0.0
0.0719818401937046,0.0,0.0044384703033755885,0.0
0.07997982243744955,0.0,0.09959644874899107,0.0
0.08797780468119451,-0.1,0.1,0.0
0.09597578692493947,-0.1,0.1,0.0
0.10397376916868442,-0.1,0.1,0.0
0.11197175141242938,-0.1,0.1,0.0
0.11996973365617433,-0.1,0.1,0.0
0.1279677158999193,-0.1,0.1,0.0
0.13596569814366424,-0.1,0.1,0.0
0.1439636803874092,-0.1,0.1,0.0
0.15196166263115415,-0.1,0.1,0.0
0.1599596448748991,-0.1,0.1,0.0
0.16795762711864407,-0.1,0.1,0.0
0.17595560936238902,-0.1,0.1,0.0
0.18395359160613398,-0.1,0.1,0.0
0.19195157384987893,-0.1,0.1,0.0
0.1999495560936239,-0.1,0.1,0.0
0.20794753833736884,0.0,0.1,0.0
0.2159455205811138,0.0,0.1,0.0
0.22394350282485875,0.0,0.1,0.0
0.2319414850686037,0.0,0.1,0.0
0.23993946731234866,0.0,0.1,0.0
0.24793744955609362,0.0,0.1,0.0
0.2559354317998386,0.0,0.1,0.0
0.2639334140435835,0.0,0.1,0.0
0.2719313962873285,0.0,0.1,0.0
0.27992937853107347,0.0,0.1,0.0
0.2879273607748184,0.0,0.1,0.0
0.2959253430185633,-0.1,0.12139270020625934,-0.1
0.3039233252623083,-0.1,0.10766747376916844,-0.1
0.3119213075060533,-0.1,0.16601089588377743,-0.1
0.3199192897497982,-0.1035542402774041,0.1964457597225959,-0.0964457597225959
0.32791727199354315,-0.11836531850656139,0.18163468149343864,-0.08163468149343862
0.33591525423728813,-0.13317639673571877,0.16682360326428125,-0.06682360326428124
0.3439132364810331,-0.14798747496487613,0.15201252503512386,-0.052012525035123866
0.35191121872477804,-0.1627985531940334,0.13720144680596658,-0.037201446805966584
0.35990920096852297,-0.1776096314231907,0.12239036857680932,-0.022390368576809316
0.36790718321226795,-0.1924207096523481,0.10757929034765194,-0.007579290347651937
0.37590516545601294,-0.49051654560129343,0.2547417271993533,-0.1
0.38390314769975786,-0.6063918034257016,0.2,-0.1
0.3919011299435028,-0.6137973425402803,0.2,-0.1
0.3998991121872478,-0.621202881654859,0.2,-0.1
0.40789709443099276,-0.6286084207694377,0.2,-0.1
0.4158950766747377,-0.6360139598840163,0.2,-0.1
0.4238930589184826,-0.643419498998595,0.2,-0.1
0.4318910411622276,-0.6508250381131737,0.2,-0.1
0.4398890234059726,-0.6582305772277524,0.2,-0.1
0.4478870056497175,-0.665636116342331,0.2,-0.1
0.45588498789346243,-0.6730416554569096,0.2,-0.1
0.4638829701372074,-0.6804471945714883,0.2,-0.1
0.4718809523809524,-0.687852733686067,0.2,-0.1
0.47987893462469733,-0.6952582728006457,0.2,-0.1
0.48787691686844226,-1.18153753026634,0.3,-0.1
0.49587489911218724,-1.6103980515259952,0.30519902576299757,-0.1
0.5038728813559322,-1.6245537723113845,0.3122768861556922,-0.1
0.5118708635996772,-1.6387094930967738,0.31935474654838686,-0.1
0.5198688458434221,-1.6528652138821631,0.3264326069410815,-0.1
0.527866828087167,-1.6670209346675524,0.3335104673337761,-0.1
0.535864810330912,-1.6811766554529417,0.34058832772647085,-0.1
0.543862792574657,-1.695332376238331,0.3476661881191655,-0.1
0.5518607748184019,-1.7094880970237203,0.3547440485118601,-0.1
0.5598587570621469,-1.7236438178091098,0.36182190890455485,-0.1
0.5678567393058919,-1.737799538594499,0.36889976929724944,-0.1
0.5758547215496368,-1.7519552593798882,0.3759776296899441,-0.1
0.5838527037933817,-1.7661109801652775,0.3830554900826387,-0.1
0.5918506860371266,-1.7802667009506667,0.3901333504753334,-0.1
0.5998486682808717,-1.7944224217360563,0.3972112108680281,-0.1
0.6078466505246166,-1.8076674737691685,0.7923325262308316,0.0
0.6158446327683615,-1.6929582737730584,0.9140834524538833,0.11408345245388328
0.6238426150121066,-1.6833221505878233,0.9333556988243533,0.13335569882435327
0.6318405972558515,-1.6736860274025884,0.952627945194823,0.15262794519482298
0.6398385794995964,-1.6640499042173538,0.9719001915652927,0.17190019156529268
0.6478365617433414,-1.654413781032119,0.9911724379357625,0.1911724379357624
0.6558345439870863,-1.644777657846884,1.0104446843062322,0.21044468430623212
0.6638325262308313,-1.635141534661649,1.0297169306767022,0.2297169306767021
0.6718305084745763,-1.6255054114764143,1.048989177047172,0.24898917704717183
0.6798284907183212,-1.6158692882911794,1.0682614234176415,0.26826142341764153
0.6878264729620662,-1.6062331651059443,1.0875336697881115,0.2875336697881115
0.6958244552058112,-1.8824455205811201,1.39122276029056,0.5912227602905601
0.7038224374495561,-2.3364487489911228,1.4545170836696257,0.7454829163303741
0.711820419693301,-2.496408393866021,1.4011972020446597,0.7988027979553404
0.7198184019370459,-2.7936599974512553,1.0873199949025107,0.9063400025487447
0.727816384180791,-2.783136336604222,1.0662726732084449,0.9168636633957776
0.7358143664245359,-2.7726126757571894,1.0452253515143792,0.9273873242428105
0.7438123486682808,-2.7620890149101567,1.0241780298203136,0.9379109850898433
0.7518103309120259,-2.751565354063124,1.0031307081262477,0.9484346459368762
0.7598083131557708,-2.7410416932160913,0.9820833864321822,0.9589583067839089
0.7678062953995157,-2.7305180323690585,0.9610360647381166,0.9694819676309417
0.7758042776432607,-2.7199943715220254,0.939988743044051,0.9800056284779746
0.7838022598870056,-2.7094707106749927,0.9189414213499855,0.9905292893250073
0.7918002421307506,-2.5399515738498835,0.7399515738498834,1.0800242130750584
0.7997982243744955,-1.9641346945907494,0.7,1.2119551018030834
0.8077962066182405,-1.9146626394748014,0.7,1.228445786841733
0.8157941888619855,-1.8651905843588525,0.7,1.2449364718803824
0.8237921711057304,-1.8157185292429046,0.7,1.2614271569190316
0.8317901533494754,-1.7662464741269566,0.7,1.277917841957681
0.8397881355932203,-1.7167744190110086,0.7,1.2944085269963304
0.8477861178369652,-1.6673023638950606,0.7,1.3108992120349798
0.8557841000807103,-1.6178303087791117,0.7,1.3273898970736293
0.8637820823244552,-1.5683582536631637,0.7,1.3438805821122786
0.8717800645682001,-1.5188861985472157,0.7,1.360371267150928
0.8797780468119452,-1.469414143431267,0.7,1.3768619521895775
0.8877760290556901,-1.4199420883153189,0.7,1.3933526372282268
0.895774011299435,-0.9661016949152492,0.8225988700565006,1.3225988700565006
0.9037719935431799,-2.003970519519137,-0.11191155855741028,0.7920589609617266
0.9117699757869249,-2.012389448196763,-0.137168344590289,0.775221103606474
0.9197679580306699,-2.020808376874389,-0.1624251306231681,0.7583832462512213
0.9277659402744148,-2.029227305552016,-0.18768191665604683,0.7415453888959689
0.9357639225181598,-2.037646234229642,-0.21293870268892556,0.7247075315407163
0.9437619047619048,-2.046065162907268,-0.23819548872180463,0.7078696741854636
0.9517598870056497,-2.0544840915848943,-0.26345227475468336,0.6910318168302111
0.9597578692493947,-2.062903020262521,-0.2887090607875621,0.6741939594749586
0.9677558514931396,-2.071321948940147,-0.3139658468204408,0.6573561021197062
0.9757538337368845,-2.0797408776177733,-0.33922263285331955,0.6405182447644536
0.9837518159806296,-2.0881598062953994,-0.3644794188861986,0.623680387409201
0.9917497982243745,-2.096578734973026,-0.38973620491907734,0.6068425300539484
0.9997477804681194,-1.6626109765940276,-0.9,0.4
1.0077457627118644,-1.583343795773174,-0.891671897886587,0.4
1.0157437449556093,-1.5635956914676312,-0.8817978457338157,0.4
1.0237417271993543,-1.543847587162088,-0.871923793581044,0.4
1.0317397094430993,-1.5240994828565448,-0.8620497414282724,0.4
1.0397376916868442,-1.504351378551002,-0.852175689275501,0.4
1.0477356739305892,-1.4846032742454587,-0.8423016371227294,0.4
1.055733656174334,-1.464855169939916,-0.8324275849699581,0.4
1.063731638418079,-1.4451070656343727,-0.8225535328171865,0.4
1.071729620661824,-1.4253589613288296,-0.8126794806644148,0.4
1.079727602905569,-1.4056108570232868,-0.8028054285116435,0.4
1.087725585149314,-0.454573580844767,-0.3113566047888082,0.17728679042238352
1.095723567393059,-0.3212738767823498,-0.34468153080441255,0.11063693839117492
1.1037215496368038,-0.18797417271993633,-0.37800645682001593,0.043987086359968175
1.1117195318805488,0.11308239782816079,-0.5,-0.32616479565632156
1.1197175141242939,0.2585002568053417,-0.5,-0.6170005136106834
1.1277154963680387,0.30742272255589426,-0.4777318323323172,-0.729690890223577
1.1357134786117837,0.3178097124828359,-0.44657086255149236,-0.7712388499313435
1.1437114608555285,0.3281967024097772,-0.41540989277066837,-0.8127868096391089
1.1517094430992736,0.3385836923367188,-0.38424892298984353,-0.8543347693468752
1.1597074253430186,0.34897068226366046,-0.35308795320901865,-0.8958827290546418
1.1677054075867634,0.3593576721906018,-0.3219269834281947,-0.9374306887624071
1.1757033898305085,0.3697446621175434,-0.29076601364736987,-0.9789786484701736
1.1837013720742533,0.38013165204448474,-0.25960504386654587,-1.020526608177939
1.1916993543179983,0.39051864197142633,-0.22844407408572104,-1.0620745678857053
1.1996973365617434,0.4,-0.13026634382566893,-1.2394673123486621
1.2076953188054882,0.4,-0.28171912832929347,-2.087812752219529
1.2156933010492332,0.38413752360982834,-0.30793123819508583,-2.1237937145852577
1.2236912832929783,0.36764683857117875,-0.3161765807144106,-2.148529742143232
1.231689265536723,0.35115615353252966,-0.3244219232337352,-2.1732657697012057
1.2396872477804681,0.33466546849388007,-0.33266726575306,-2.19800179725918
1.2476852300242132,0.31817478345523054,-0.3409126082723848,-2.222737824817154
1.255683212267958,0.3016840984165814,-0.3491579507917093,-2.247473852375128
1.263681194511703,0.2851934133779318,-0.3574032933110341,-2.272209879933102
1.2716791767554478,0.2687027283392827,-0.36564863583035867,-2.296945907491076
1.2796771589991929,0.2522120433006332,-0.37389397834968346,-2.32168193504905
1.287675141242938,0.23572135826198357,-0.38213932086900826,-2.3464179626070245
1.2956731234866827,0.21923067322333445,-0.3903846633883328,-2.371153990164998
1.3036711057304278,0.2027399881846849,-0.39863000590765757,-2.3958900177229725
1.3116690879741726,-0.1658192090395748,-0.09927360774820695,-3.3
1.3196670702179176,1.8611721976926374,-1.056084603332857,-3.3
1.3276650524616627,1.7764876798176898,-1.178406684707781,-3.3
1.3356630347054075,1.6918031619427447,-1.3007287660827018,-3.3
1.3436610169491525,1.6071186440677974,-1.423050847457626,-3.3
1.3516589991928976,1.5224341261928498,-1.5453729288325502,-3.3
1.3596569814366424,1.4377496083179047,-1.667695010207471,-3.3
1.3676549636803874,1.353065090442957,-1.7900170915823952,-3.3
1.3756529459241325,1.2683805725680095,-1.9123391729573194,-3.3
1.3836509281678773,1.1836960546930646,-2.03466125433224,-3.3
1.3916489104116223,1.099011536818117,-2.156983335707164,-3.3
1.3996468926553671,1.014327018943172,-2.2793054170820852,-3.3
1.4076448748991122,-3.5401937046005107,-1.7887812752219385,-2.553268765133163
1.4156428571428572,-3.6617857142857138,-1.623571428571427,-2.446499999999999
1.423640839386602,-3.62179580306699,-1.5435916061339792,-2.3905141242937855
1.431638821630347,-3.5818058918482647,-1.4636117836965288,-2.3345282485875702
1.4396368038740919,-3.5418159806295404,-1.3836319612590806,-2.2785423728813563
1.447634786117837,-3.501826069410815,-1.3036521388216302,-2.222556497175141
1.455632768361582,-3.4618361581920905,-1.22367231638418,-2.166570621468926
1.4636307506053268,-3.421846246973366,-1.143692493946732,-2.1105847457627123
1.4716287328490718,-3.381856335754641,-1.0637126715092817,-2.054598870056497
1.4796267150928168,-3.3418664245359158,-0.9837328490718313,-1.998612994350282
1.4876246973365617,-3.301876513317192,-0.9037530266343832,-1.9426271186440682
1.4956226795803067,-3.2618866020984667,-0.8237732041969329,-1.886641242937853
1.5036206618240517,-3.2218966908797415,-0.7437933817594826,-1.8306553672316377
1.5116186440677966,-2.958757062146896,-0.5621468926553689,-1.6276836158192112
1.5196166263115416,-2.425558245897224,-0.2574618547984137,-1.2468273184980172
1.5276146085552864,-1.8923594296475672,0.047223183058533014,-0.8659710211768338
1.5356125907990315,0.1037863634768573,0.2924272730462854,1.111359090430572
1.5436105730427765,0.1153776420909805,0.269244715818039,1.1461329262729416
1.5516085552865213,0.1269689207051034,0.2460621585897932,1.1809067621153102
1.5596065375302663,0.1385601993192266,0.22287960136154678,1.21568059795768
1.5676045197740112,0.15015147793334951,0.19969704413330097,1.2504544338000485
1.5756025020177562,0.16174275654747272,0.17651448690505456,1.2852282696424182
1.5836004842615012,0.17333403516159596,0.15333192967680814,1.3200021054847877
1.591598466505246,0.18492531377571886,0.13014937244856234,1.3547759413271563
1.599596448748991,0.19651659238984204,0.10696681522031593,1.389549777169526
1.6075944309927361,0.07972154963680193,-0.17972154963680192,2.059443099273604
1.615592413236481,0.4280528222828977,-0.2859735888585511,2.3140264111414486
1.623590395480226,0.4620867892775574,-0.2689566053612213,2.3310433946387787
1.631588377723971,0.49612075627221713,-0.25193962186389146,2.3480603781361085
1.6395863599677158,0.530154723266876,-0.23492263836656208,2.3650773616334377
1.6475843422114609,0.5641886902615356,-0.2179056548692322,2.382094345130768
1.6555823244552057,0.5982226572561944,-0.20088867137190283,2.399111328628097
1.6635803066989507,0.632256624250854,-0.18387168787457298,2.416128312125427
1.6715782889426958,0.6662905912455138,-0.16685470437724312,2.433145295622757
1.6795762711864406,0.7003245582401726,-0.14983772087991373,2.4501622791200863
1.6875742534301856,0.7343585252348324,-0.1328207373825839,2.467179262617416
1.6955722356739305,0.768392492229491,-0.11580375388525452,2.4841962461147453
1.7035702179176755,0.8,-0.1,2.528510895883771
1.7115682001614205,-0.3766889165194241,-0.11483432585127559,2.9915232423707
1.7195661824051653,-0.2577999912745688,-0.19049091464345624,2.948290905918025
1.7275641646489104,-0.1389110660297102,-0.266147503435639,2.905058569465349
1.7355621468926554,-0.02002214078485165,-0.3418040922278217,2.8618262330126734
1.7435601291364002,0.09886678446000363,-0.41746068102000233,2.8185938965599986
1.7515581113801453,0.21775570970486224,-0.49311726981218507,2.775361560107323
1.7595560936238903,0.33664463494972086,-0.5687738586043678,2.7321292236546473
1.7675540758676351,0.45553356019457614,-0.6444304473965484,2.6888968872019725
1.7755520581113802,0.5744224854394346,-0.7200870361887313,2.6456645507492964
1.783550040355125,0.69331141068429,-0.7957436249809119,2.602432214296622
1.79154802259887,-1.2418079096044963,-1.6129943502825026,0.14519774011300102
1.799546004842615,-1.3702131387791512,-1.4801420925194342,0.1
1.8075439870863599,-1.3386421562380533,-1.459094770825369,0.1
1.815541969330105,-1.3070711736969545,-1.4380474491313031,0.1
1.8235399515738497,-1.2755001911558566,-1.4170001274372377,0.1
1.8315379338175948,-1.2439292086147578,-1.3959528057431718,0.1
1.8395359160613398,-1.212358226073659,-1.374905484049106,0.1
1.8475338983050846,-1.180787243532561,-1.3538581623550408,0.1
1.8555318805488297,-1.1492162609914622,-1.3328108406609749,0.1
1.8635298627925747,-1.1176452784503634,-1.311763518966909,0.1
1.8715278450363195,-0.6061016949152706,-1.3,0.17055690072638993
1.8795258272800646,0.0945336011161788,-1.4972668005580894,0.3918004016742682
1.8875238095238096,0.08213362864525627,-1.4910668143226282,0.3732004429678844
1.8955217917675544,0.06973365617433407,-1.484866828087167,0.3546004842615011
1.9035197740112995,0.05733368370341153,-1.4786668418517057,0.3360005255551173
1.9115177562550443,0.04493371123248933,-1.4724668556162446,0.317400566848734
1.9195157384987893,0.03253373876156679,-1.4662668693807834,0.2988006081423502
1.9275137207425344,0.020133766290644242,-1.460066883145322,0.2802006494359664
1.9355117029862792,0.007733793819722043,-1.453866896909861,0.2616006907295831
1.9435096852300242,-0.004666178651200489,-1.4476669106743998,0.24300073202319927
1.951507667473769,-0.01706615112212269,-1.4414669244389386,0.224400773316816
1.959505649717514,-0.029466123593045235,-1.4352669382034773,0.20580081461043218
1.967503631961259,-0.04186609606396777,-1.4290669519680161,0.18720085590404836
1.975501614205004,-0.054266068534889966,-1.422866965732555,0.16860089719766505
1.983499596448749,-0.06666604100581253,-1.4166669794970936,0.15000093849128124
1.991497578692494,-0.07906601347673506,-1.4104669932616325,0.13140097978489745
1.9994955609362388,-0.09146598594765726,-1.4042670070261714,0.11280102107851414
2.007493543179984,-0.250645682001621,-0.8766142050040526,-0.4480629539951369
2.015491525423729,0.9084745762711959,-0.4898305084745773,-1.8491525423728865
2.023489507667474,1.062412563895616,-0.5390078524347599,-1.9702141343825679
2.0314874899112185,1.1290624159268208,-0.580664009954263,-2.0451952179176733
2.0394854721549636,1.1957122679580294,-0.6223201674737684,-2.120176301452783
2.0474834543987086,1.262362119989238,-0.6639763249932737,-2.1951573849878927
2.0554814366424536,1.3290119720204467,-0.7056324825127791,-2.2701384685230024
2.0634794188861987,1.3956618240516552,-0.7472886400322845,-2.345119552058112
2.0714774011299433,1.46231167608286,-0.7889447975517876,-2.4201006355932178
2.0794753833736883,1.5289615281140687,-0.830600955071293,-2.495081719128327
2.0874733656174334,1.5956113801452774,-0.8722571125907983,-2.5700628026634367
2.0954713478611784,1.662261232176486,-0.9139132701103037,-2.6450438861985464
2.1034693301049234,1.7289110842076947,-0.955569427629809,-2.720024969733656
2.111467312348668,1.7955609362388993,-0.9972255851493121,-2.7950060532687617
2.119465294592413,0.16041162227609523,-0.2048829701369208,-2.7138821630347936
2.127463276836158,-0.11784121320249497,-1.0099851323223286,-2.5392804044008317
2.135461259079903,-0.24412514336689065,-1.127850133809098,-2.5813750477889634
2.143459241323648,-0.3704090735312863,-1.245715135295867,-2.6234696911770956
2.151457223567393,-0.49669300369568203,-1.3635801367826366,-2.6655643345652273
2.159455205811138,-0.6229769338600707,-1.4814451382693994,-2.707658977953357
2.167453188054883,-0.7492608640244663,-1.5993101397561684,-2.7497536213414886
2.175451170298628,-0.8755447941888621,-1.717175141242938,-2.7918482647296208
2.183449152542373,-1.0018287243532578,-1.835040142729707,-2.8339429081177525
2.191447134786118,-1.1281126545176534,-1.9529051442164764,-2.8760375515058847
2.1994451170298626,-1.2543965846820422,-2.0707701457032393,-2.9181321948940138
2.2074430992736076,-1.3806805148464378,-2.1886351471900083,-2.960226838282146
2.2154410815173526,-1.7646489104116394,-2.189729620661817,-2.9117836965294535
2.2234390637610977,-3.212187247780447,-0.5585149313962298,-2.3243744955608943
2.2314370460048427,-2.431851199647814,0.6511116002641395,-1.2903697996918373
2.2394350282485878,-2.0828248587570624,0.9171751412429379,-0.9541996233521658
2.2474330104923324,-2.042834947538339,0.9571650524616611,-0.8475598601022372
2.2554309927360774,-2.0028450363196137,0.9971549636803865,-0.7409200968523026
2.2634289749798224,-1.962855125100888,1.037144874899112,-0.634280333602368
2.2714269572235675,-1.9228652138821627,1.0771347861178375,-0.5276405703524334
2.2794249394673125,-1.882875302663437,1.117124697336563,-0.4210008071024989
2.287422921711057,-1.8428853914447139,1.1571146085552861,-0.31436104385257024
2.295420903954802,-1.8028954802259884,1.1971045197740116,-0.20772128060263573
2.303418886198547,0.07094430992736438,1.2709443099273643,1.2709443099273643
2.311416868442292,-0.7314021358973459,0.7607473301283176,1.4921494660256636
2.3194148506860373,-0.7777672503538389,0.7027909370577013,1.4805581874115403
2.327412832929782,-0.8241323648103294,0.6448345439870884,1.4689669087974175
2.335410815173527,-0.8704974792668224,0.586878150916472,1.4573756301832943
2.343408797417272,-0.9168625937233155,0.5289217578458558,1.445784351569171
2.351406779661017,-0.9632277081798084,0.47096536477523954,1.4341930729550478
2.359404761904762,-1.0095928226363013,0.41300897170462325,1.4226017943409246
2.3674027441485066,-1.055957937092792,0.35505257863401024,1.411010515726802
2.3754007263922516,-1.1,0.3,1.4
2.3833987086359967,0.41479015334945873,-0.0048224374495420275,0.9749192897497918
2.3913966908797417,1.4044112868568075,-1.1823548525727698,2.4838144502793433
2.3993946731234868,1.414798276783749,-1.1408068928650033,2.681167258891234
2.407392655367232,1.4251852667106908,-1.0992589331572369,2.878520067503125
2.4153906376109764,1.4355722566376317,-1.0577109734494727,3.0758728761150045
2.4233886198547214,1.4459592465645734,-1.0161630137417061,3.2732256847268952
2.4313866020984665,1.456346236491515,-0.9746150540339398,3.4705784933387855
2.4393845843422115,1.4667332264184567,-0.9330670943261734,3.6679313019506763
2.4473825665859565,1.4771202163453983,-0.8915191346184069,3.865284110562567
2.455380548829701,1.4875072062723393,-0.8499711749106428,4.062636919174447
2.463378531073446,1.4978941961992809,-0.8084232152028763,4.259989727786338
2.471376513317191,0.8012106537529368,0.3376513317191171,4.243523002421324
2.4793744955609363,2.1591917444944095,0.44991467773549987,3.9635743110803636
2.4873724778046813,2.233458722472042,0.3870733886775032,3.9178715554018204
2.4953704600484263,2.3077257004496743,0.3242320996195065,3.8721687997232777
2.503368442292171,2.3819926784273027,0.2613908105615133,3.826466044044737
2.511366424535916,2.456259656404935,0.19854952150351662,3.780763288366194
2.519364406779661,2.5305266343825674,0.13570823244551994,3.735060532687651
2.527362389023406,2.6047936123602,0.07286694338752325,3.689357777009108
2.535360371267151,2.679060590337832,0.010025654329526568,3.6436550213305647
2.5433583535108957,2.7533275683154605,-0.05281563472846662,3.597952265652024
2.5513563357546407,2.827594546293093,-0.1156569237864633,3.5522495099734814
2.5593543179983858,2.9018615242707253,-0.17849821284446,3.5065467542949382
2.567352300242131,2.9761285022483577,-0.24133950190245668,3.4608439986163955
2.575350282485876,3.05039548022599,-0.30418079096045336,3.4151412429378523
2.5833482647296204,3.1246624582036184,-0.3670220800184465,3.3694384872593117
2.5913462469733655,3.198929436181251,-0.4298633690764432,3.3237357315807685
2.5993442292171105,3.2731964141588836,-0.49270465813443987,3.2780329759022258
2.6073422114608555,3.3474633921365156,-0.5555459471924367,3.2323302202236825
2.6153401937046006,2.2938256658596363,-1.7510290556900605,1.7809322033898585
2.623338175948345,-1.4,-1.6,1.303974018986125
2.63133615819209,-1.4,-1.6,1.313495426419155
2.6393341404358353,-1.4,-1.6,1.3230168338521846
2.6473321226795803,-1.4,-1.6,1.3325382412852145
2.6553301049233253,-1.4,-1.6,1.3420596487182443
2.6633280871670704,-1.4,-1.6,1.351581056151274
2.671326069410815,-1.4,-1.6,1.3611024635843032
2.67932405165456,-1.4,-1.6,1.370623871017333
2.687322033898305,-1.4,-1.6,1.380145278450363
2.69532001614205,-1.4,-1.6,1.3896666858833926
2.703317998385795,-1.4,-1.6,1.3991880933164225
2.7113159806295397,-2.521186440677827,-1.6104116222761484,0.14200968523012367
2.7193139628732848,-2.988747749425716,-1.1437387471285803,-0.24500900229713582
2.72731194511703,-2.976443161358416,-1.08221580679208,-0.2942273545663361
2.735309927360775,-2.964138573291116,-1.0206928664555794,-0.3434457068355364
2.74330790960452,-2.951833985223816,-0.9591699261190791,-0.3926640591047367
2.751305891848265,-2.9395293971565155,-0.8976469857825788,-0.4418824113739369
2.7593038740920095,-2.9272248090892163,-0.8361240454460819,-0.4911007636431345
2.7673018563357545,-2.9149202210219163,-0.7746011051095816,-0.5403191159123347
2.7752998385794996,-2.902615632954616,-0.7130781647730812,-0.5895374681815351
2.7832978208232446,-1.7936238902340358,0.1297820823244732,-1.453188054882982
2.7912958030669897,-0.152894359250288,0.6470738050399079,-1.5529261949600923
2.7992937853107343,0.06927181418706224,0.7181669805398598,-1.4818330194601401
2.8072917675544793,0.2914379876244248,0.7892601560398158,-1.4107398439601841
2.8152897497982243,0.5136041610617872,0.8603533315397719,-1.3396466684602282
2.8232877320419694,0.7357703344991497,0.9314465070397279,-1.2685534929602722
2.8312857142857144,0.9579365079365123,1.002539682539684,-1.1974603174603162
2.839283696529459,1.1801026813738624,1.073632858039636,-1.126367141960364
2.847281678773204,1.402268854811225,1.144726033539592,-1.055273966460408
2.855279661016949,1.6244350282485875,1.215819209039548,-0.984180790960452
2.863277643260694,1.84660120168595,1.2869123845395039,-0.913087615460496
2.871275625504439,2.0687673751233127,1.35800556003946,-0.84199443996054
2.8792736077481837,5.245762711864321,3.618401937045944,-2.18256658595621
2.887271589991929,1.9300892481940346,1.1041529092376605,-3.4
2.895269572235674,1.6723030436435746,0.9587350502604779,-3.4
2.903267554479419,1.4145168390931147,0.8133171912832954,-3.4
2.911265536723164,1.1567306345426547,0.6678993323061129,-3.4
2.919263518966909,0.8989444299921947,0.5224814733289304,-3.4
2.9272615012106535,0.6411582254417489,0.37706361435175584,-3.4
2.9352594834543986,0.38337202089128897,0.23164575537457333,-3.4
2.9432574656981436,0.125585816340829,0.08622789639739081,-3.4
2.9512554479418887,-0.13220038820963076,-0.05918996257979181,-3.4
2.9592534301856337,-0.38998659276009073,-0.2046078215569742,-3.4
2.9672514124293783,-0.6477727973105365,-0.35002568053414884,-3.4
2.9752493946731233,-0.9055590018609965,-0.49544353951133124,-3.4
2.9832473769168684,-1.1633452064114564,-0.6408613984885139,-3.4
2.9912453591606134,-1.4211314109619164,-0.7862792574656963,-3.4
2.9992433414043584,-1.6789176155123764,-0.9316971164428789,-3.4
3.0072413236481035,-1.9477132095776026,0.8201103040086145,-2.9597793919827713
3.015239305891848,-0.5880347054075937,1.2776069410815187,-1.8656416464891126
3.023237288135593,-0.19815442561205457,1.200263653483992,-1.3994726930320156
3.031235270379338,-0.1359478970495931,1.2091503004214867,-1.3816993991570266
3.039233252623083,-0.07374136848713159,1.2180369473589812,-1.3639261052820375
3.0472312348668282,-0.011534839924670082,1.2269235942964758,-1.3461528114070485
3.055229217110573,0.05067168863778798,1.2358102412339698,-1.3283795175320605
3.063227199354318,0.11287821720024949,1.2446968881714642,-1.3106062236570715
3.071225181598063,0.175084745762711,1.2535835351089588,-1.2928329297820824
3.079223163841808,0.2372912743251725,1.2624701820464532,-1.2750596359070934
3.087221146085553,0.299497802887634,1.2713568289839476,-1.2572863420321045
3.0952191283292976,0.361704331450092,1.2802434759214418,-1.2395130481571164
3.1032171105730426,0.42391086001255357,1.2891301228589362,-1.2217397542821276
3.1112150928167877,0.486117388575015,1.2980167697964307,-1.2039664604071385
3.1192130750605327,-0.5098305084745844,1.1114769975786902,0.20983050847458443
3.1272110573042777,-1.0947345334596617,0.09473453345966157,1.901755155513446
3.1352090395480223,-1.0599606976172937,0.05996069761729373,1.9133464341275688
3.1432070217917674,-1.025186861774924,0.025186861774923963,1.924937712741692
3.1512050040355124,-0.9904130259325543,-0.009586974067445811,1.9365289913558152
3.1592029862792574,-0.9556391900901845,-0.044360809909815585,1.9481202699699385
3.1672009685230025,-0.9208653542478147,-0.07913464575218535,1.9597115485840617
3.1751989507667475,-0.886091518405445,-0.1139084815945551,1.971302827198185
3.183196933010492,-0.8513176825630772,-0.14868231743692295,1.9828941058123077
3.191194915254237,-0.8165438467207073,-0.18345615327929274,1.994485384426431
3.199192897497982,-0.27588781275220664,-0.46205609362389666,1.8427663438256618
3.2071908797417272,0.08547215496371863,-1.2809120258272864,4.150423728813492
3.2151888619854723,-0.39218601958100857,-1.2,4.914046215391094
3.223186844229217,-0.3834925606204166,-1.2,4.818418166824582
3.231184826472962,-0.3747991016598241,-1.2,4.722790118258065
3.239182808716707,-0.3661056426992317,-1.2,4.627162069691548
3.247180790960452,-0.3574121837386392,-1.2,4.531534021125031
3.255178773204197,-0.3487187247780467,-1.2,4.435905972558514
3.263176755447942,-0.34002526581745424,-1.2,4.340277923991996
3.2711747376916867,-0.33133180685686225,-1.2,4.244649875425485
3.2791727199354317,-0.3226383478962698,-1.2,4.149021826858967
3.2871707021791767,-0.31394488893567735,-1.2,4.053393778292451
3.2951686844229218,-0.30525142997508486,-1.2,3.957765729725933
3.303166666666667,0.399999999999889,-2.5333333333333705,2.0083333333332316
3.3111646489104114,-1.3,-3.0919133030865797,0.48786995462986954
3.3191626311541564,-1.3,-3.0763832404773663,0.4645748607160491
3.3271606133979015,-1.3,-3.0608531778681525,0.44127976680222863
3.3351585956416465,-1.3,-3.0453231152589386,0.4179846728884082
3.3431565778853916,-1.3,-3.029793052649725,0.39468957897458773
3.351154560129136,-1.3,-3.0142629900405122,0.37139448506076855
3.359152542372881,-1.3,-2.998732927431299,0.3480993911469481
3.3671505246166262,-1.3,-2.983202864822085,0.32480429723312765
3.3751485068603713,-1.3,-2.9676728022128716,0.3015092033193072
3.3831464891041163,-1.3,-2.9521427396036577,0.27821410940548674
3.391144471347861,-1.3,-2.936612676994445,0.2549190154916676
3.399142453591606,-1.3,-2.9210826143852313,0.23162392157784711
3.407140435835351,-1.3,-2.905552551776018,0.20832882766402666
3.415138418079096,-0.6430790960451989,-2.2744632768361592,0.1
3.423136400322841,-0.02046004842615415,-1.9,0.1
3.431134382566586,-0.3,-1.8747902086304675,0.08319347242031168
3.4391323648103307,-0.3,-1.8419217884506953,0.0612811923004636
3.4471303470540757,-0.3,-1.8090533682709213,0.03936891218061429
3.4551283292978208,-0.3,-1.7761849480911474,0.01745663206076499
3.463126311541566,-0.3,-1.7433165279113736,-0.004455648059084313
3.471124293785311,-0.3,-1.7104481077315996,-0.026367928178933603
3.4791222760290554,-0.3,-1.6775796875518274,-0.04828020829878171
3.4871202582728005,-0.3,-1.6447112673720534,-0.07019248841863102
3.4951182405165455,-0.3,-1.6118428471922797,-0.09210476853848032
3.5031162227602906,0.19806295399515925,-0.2941888619854777,-0.8019370460048408
3.5111142050040356,0.09530176665769848,0.0023491166711507657,-0.9023491166711508
3.5191121872477806,0.07752847278270955,0.011235763608645224,-0.9112357636086452
3.5271101694915252,0.05975517890772163,0.020122410546139186,-0.9201224105461392
3.5351081517352703,0.041981885032732716,0.029009057483633645,-0.9290090574836337
3.5431061339790153,0.024208591157743806,0.0378957044211281,-0.9378957044211281
3.5511041162227603,0.0064352972827548816,0.04678235135862256,-0.9467823513586225
3.5591020984665054,-0.011337996592234029,0.05566899829611702,-0.9556689982961171
3.56710008071025,-0.029111290467221967,0.06455564523361099,-0.964555645233611
3.575098062953995,-0.04688458434221088,0.07344229217110544,-0.9734422921711054
3.58309604519774,-0.06465787821719979,0.0823289391085999,-0.9823289391085999
3.591094027441485,-0.0824311720921887,0.09121558604609435,-0.9912155860460944
3.59909200968523,-0.1552058111379655,0.10920096852299425,-1.0184019370459885
3.6070899919289747,3.7066060116907567,1.9950454912319324,-2.618166532149581
3.6150879741727198,3.7550786313498175,1.958691026487637,-2.7514662362119977
3.623085956416465,3.803551251008878,1.9223365617433414,-2.8847659402744146
3.63108393866021,3.8520238706679386,1.885982096999046,-3.018065644336831
3.639081920903955,3.900496490326999,1.8496276322547507,-3.151365348399248
3.6470799031476995,3.948969109986057,1.8132731675104572,-3.284665052461657
3.6550778853914445,3.9974417296451175,1.7769187027661617,-3.417964756524074
3.6630758676351896,4.045914349304178,1.7405642380218662,-3.551264460586491
3.6710738498789346,4.094386968963239,1.7042097732775705,-3.684564164648908
3.6790718321226796,-0.9132633844497942,-0.3071832122679506,-3.7154694646220086
3.6870698143664247,-0.06446987457883085,0.6903099657942265,-4.393409623736493
3.6950677966101693,0.005353779930050345,0.671267150928168,-4.183938660209849
3.7030657788539143,0.07517743443893543,0.6522243360621085,-3.9744676966831936
3.7110637610976593,0.14500108894782052,0.633181521196049,-3.7649967331565386
3.7190617433414044,0.21482474345670557,0.6141387063299893,-3.5555257696298836
3.7270597255851494,0.2846483979655907,0.5950958914639298,-3.3460548061032283
3.735057707828894,0.3544720524744719,0.5760530765978713,-3.1365838425765844
3.743055690072639,0.42429570698335695,0.5570102617318118,-2.9271128790499295
3.751053672316384,0.4941193614922421,0.5379674468657522,-2.7176419155232745
3.759051654560129,0.5639430160011272,0.5189246319996926,-2.508170951996619
3.767049636803874,0.6337666705100122,0.49988181713363306,-2.2986999884699637
3.775047619047619,0.7035903250188973,0.4808390022675735,-2.0892290249433088
3.783045601291364,0.7734139795277786,0.46179618740151496,-1.879758061416665
3.791043583535109,0.8432376340366636,0.44275337253545544,-1.67028709789001
3.799041565778854,0.9130612885455486,0.42371055766939586,-1.4608161343633546
3.807039548022599,0.9828849430544339,0.4046677428033363,-1.2513451708366996
3.815037530266344,0.033995157384972496,0.0981234866828039,-1.0792493946731216
3.8230355125100886,0.6001420500403544,0.7999526499865486,1.000094700026903
3.8310334947538336,0.6321339790153344,0.7892886736615552,1.0214226526768897
3.8390314769975786,0.6641259079903146,0.7786246973365618,1.0427506053268765
3.8470294592413237,0.6961178369652946,0.7679607210115684,1.064078557976863
3.8550274414850687,0.7281097659402747,0.7572967446865752,1.0854065106268498
3.8630254237288133,0.760101694915253,0.7466327683615823,1.1067344632768352
3.8710234059725583,0.7920936238902331,0.7359687920365889,1.128062415926822
3.8790213882163034,0.8240855528652131,0.7253048157115956,1.1493903685768088
3.8870193704600484,0.8560774818401933,0.7146408393866022,1.1707183212267955
3.8950173527037935,0.8880694108151733,0.7039768630616089,1.192046273876782
3.903015334947538,0.5492332526230931,-0.5884584342211336,1.1376916868442268
3.911013317191283,0.3006658595641529,-0.1,2.2059927360773766
3.919011299435028,0.3864914619437566,-0.0932457309718783,3.1540341522249737
3.927009281678773,0.368518468137588,-0.08425923406879399,3.2259261274496485
3.935007263922518,0.35054547433141936,-0.07527273716570966,3.2978181026743227
3.9430052461662632,0.3325724805252507,-0.06628624026262535,3.369710077898997
3.951003228410008,0.31459948671908305,-0.05729974335954153,3.4416020531236677
3.959001210653753,0.29662649291291443,-0.04831324645645721,3.5134940283483425
3.966999192897498,0.2786534991067458,-0.03932674955337289,3.5853860035730167
3.974997175141243,0.2606805053005772,-0.03034025265028857,3.6572779787976915
3.982995157384988,0.24270751149440853,-0.02135375574720426,3.7291699540223657
3.9909931396287326,0.2247345176882409,-0.012367258844120446,3.8010619292470365
3.9989911218724776,0.20676152388207225,-0.00338076194103612,3.8729539044717107
4.006989104116223,-1.0098062953989118,0.19128329297874502,6.590193704601088
4.014987086359968,2.8510760109524487,0.6104734749911416,6.2720229609347316
4.022985068603712,3.052894254486192,0.49087747882299737,6.234649212132187
4.030983050847458,3.2547124980199578,0.37128148265483985,6.197275463329637
4.038981033091202,3.4565307415537014,0.2516854864866956,6.159901714527092
4.046979015334948,3.658348985087467,0.13208949031853812,6.122527965724543
4.0549769975786925,3.8601672286212105,0.012493494150393802,6.085154216921998
4.062974979822437,4.061985472154954,-0.1071025020177504,6.047780468119453
4.0709729620661825,4.26380371568872,-0.22669849818590793,6.0104067193169035
4.078970944309927,4.465621959222463,-0.34629449435405224,5.9730329705143586
4.086968926553673,4.667440202756229,-0.46589049052220965,5.935659221711809
4.094966908797417,4.869258446289972,-0.585486486690354,5.898285472909264
4.102964891041162,5.071076689823716,-0.7050824828584981,5.860911724106719
4.110962873284907,5.272894933357481,-0.8246784790266557,5.82353797530417
4.118960855528652,-0.33932606941075427,-1.998042776432605,2.9254439063761355
4.126958837772397,-2.1639225181598087,-2.1319612590799046,2.0200968523002394
4.134956820016142,-2.483103885622044,-2.3126720857834666,1.5831038856220443
4.1429548022598865,-2.437401129943504,-2.346949152542372,1.537401129943504
4.150952784503632,-2.3916983742649585,-2.381226219301281,1.4916983742649585
4.158950766747377,-2.345995618586418,-2.4155032860601864,1.445995618586418
4.166948748991122,-2.3002928629078725,-2.4497803528190953,1.4002928629078726
4.174946731234867,-2.2545901072293324,-2.4840574195780007,1.3545901072293323
4.182944713478611,-2.208887351550792,-2.518334486336906,1.308887351550792
4.190942695722357,-2.1631845958722464,-2.552611553095815,1.2631845958722465
4.198940677966101,-2.1174818401937063,-2.5868886198547205,1.217481840193706
4.206938660209847,-1.7,-2.0122679580305998,0.7092009685229498
4.2149366424535915,-1.3756609036716092,-1.551321807343219,0.03915225917902343
4.222934624697336,-1.3475978080795228,-1.4951956161590456,-0.03100547980119292
4.2309326069410815,-1.319534712487433,-1.4390694249748663,-0.10116321878141707
4.238930589184826,-1.2914716168953466,-1.3829432337906933,-0.17132095776163345
4.246928571428572,-1.2634085213032569,-1.326817042606514,-0.2414786967418576
4.254926553672316,-1.2353454257111705,-1.2706908514223407,-0.3116364357220739
4.262924535916062,-1.2072823301190807,-1.2145646602381615,-0.38179417470229804
4.270922518159806,-0.9153816745252973,-0.695605235849915,-1.30878952830017
4.278920500403551,-0.9574763179134268,-0.683578194881878,-1.332843610236244
4.286918482647296,-0.9995709613015609,-0.6715511539138397,-1.3568976921723206
4.294916464891041,-1.0416656046896904,-0.6595241129458027,-1.3809517741083945
4.302914447134786,-1.0837602480778243,-0.6474970719777644,-1.4050058560444711
4.310912429378531,-1.1258548914659539,-0.6354700310097274,-1.429059937980545
4.318910411622276,-1.1679495348540834,-0.6234429900416905,-1.453114019916619
4.326908393866021,-1.2100441782422175,-0.6114159490736522,-1.4771681018526956
4.334906376109766,-1.2521388216303468,-0.5993889081056152,-1.5012221837887696
4.342904358353511,-1.294233465018481,-0.5873618671375769,-1.5252762657248462
4.350902340597256,-1.3363281084066105,-0.5753348261695399,-1.5493303476609204
4.358900322841,-1.3784227517947398,-0.5633077852015029,-1.5733844295969943
4.366898305084746,-1.4205173951828742,-0.5512807442334645,-1.597438511533071
4.3748962873284905,-1.4626120385710035,-0.5392537032654275,-1.6214925934691449
4.382894269572236,-1.5047066819591377,-0.5272266622973892,-1.6455466754052215
4.3908922518159805,-1.5468013253472672,-0.5151996213293523,-1.6696007573412954
4.398890234059725,-1.5888959687353965,-0.5031725803613153,-1.6936548392773694
4.406888216303471,0.4432001614206391,0.3214487489912081,-1.5332324455205923
4.414886198547215,2.6822817262498058,1.7080188007406256,-1.7540094003703128
4.422884180790961,2.893993020937187,1.8334773457405555,-1.8167386728702777
4.430882163034705,3.1057043156245454,1.9589358907404715,-1.8794679453702356
4.43888014527845,3.3174156103119037,2.0843944357403874,-1.9421972178701936
4.446878127522195,3.529126904999285,2.209852980740317,-2.0049264903701585
4.45487610976594,3.7408381996866433,2.335311525740233,-2.0676557628701167
4.462874092009685,3.9525494943740247,2.460770070740163,-2.1303850353700815
4.47087207425343,4.164260789061383,2.5862286157400787,-2.1931143078700392
4.4788700564971755,4.375972083748764,2.711687160740009,-2.255843580370004
4.48686803874092,4.587683378436123,2.8371457057399248,-2.3185728528699623
4.494866020984665,4.799394673123481,2.9626042507398407,-2.3813021253699205
4.50286400322841,5.011105967810863,3.088062795739771,-2.4440313978698853
4.510861985472155,4.953718436527165,2.9167762020062398,-2.5123140781736417
4.5188599677159,1.4020312079629533,-1.0219666397637397,-2.9099946193167323
4.526857949959645,-2.2539936200468977,0.5982305238479576,-3.387613666935703
4.5348559322033895,-2.0559483454398877,0.5906133979015341,-3.334293785310739
4.542853914447135,-1.857903070832856,0.5829962719551098,-3.280973903685769
4.5508518966908795,-1.6598577962258463,0.5753791460086863,-3.2276540220608045
4.558849878934625,-1.4618125216188145,0.5677620200622621,-3.1743341404358345
4.56684786117837,-1.2637672470118044,0.5601448941158387,-3.1210142588108702
4.574845843422114,-1.0657219724047946,0.5525277681694152,-3.0676943771859064
4.58284382566586,-0.8676766977977628,0.5449106422229909,-3.0143744955609364
4.590841807909604,-0.669631423190753,0.5372935162765674,-2.961054613935972
4.59883979015335,-0.47158614858372117,0.5296763903301431,-2.9077347323110017
4.606837772397094,-0.2735408739767111,0.5220592643837196,-2.854414850686038
4.614835754640839,-0.07549559936970152,0.5144421384372962,-2.8010949690610736
4.622833736884584,0.12254967523733029,0.5068250124908719,-2.7477750874361035
4.630831719128329,1.2148910411617413,0.2504842615013433,-1.95145278450403
4.6388297013720745,-0.009128068942175408,-0.04107631023978934,0.022820172355438522
4.646827683615819,-0.03492801166393205,-0.15717605248769423,0.08732002915983013
4.654825665859564,-0.06072795438568869,-0.2732757947355991,0.15181988596422175
4.662823648103309,-0.0865278971074482,-0.3893755369835169,0.2163197427686205
4.670821630347054,-0.11232783982920484,-0.5054752792314218,0.2808195995730121
4.678819612590799,-0.13812778255096433,-0.6215750214793396,0.3453194563774109
4.686817594834544,-0.16392772527272098,-0.7376747637272445,0.4098193131818025
4.6948155770782884,-0.18972766799447763,-0.8537745059751494,0.4743191699861941
4.702813559322034,-0.2,-1.1750605326876433,0.912590799031465
4.7108115415657785,1.4009222063247482,-0.49723338102575493,3.610144269572232
4.718809523809524,1.4100108225108228,-0.4699675324675317,3.7101190476190506
4.726807506053269,1.419099438696896,-0.4427016839093115,3.810093825665858
4.734805488297013,1.4281880548829695,-0.4154358353510913,3.910068603712665
4.742803470540759,1.4372766710690439,-0.3881699867928681,4.010043381759484
4.750801452784503,1.4463652872551174,-0.36090413823464795,4.110018159806291
4.758799435028249,1.4554539034411917,-0.3336382896764247,4.20999293785311
4.766797417271993,1.4645425196272652,-0.3063724411182045,4.309967715899917
4.774795399515739,1.4736311358133396,-0.2791065925599813,4.409942493946735
4.782793381759483,1.4827197519994129,-0.25184074400176115,4.509917271993543
4.790791364003228,1.4918083681854863,-0.22457489544354092,4.60989205004035
4.7987893462469735,0.5527845036317368,-0.2789346246973553,5.331476997578842
4.806787328490718,0.9477375907990406,-1.7383257667473702,3.6651583938660273
4.814785310734464,0.797775423728813,-1.8482980225988703,3.5651836158192087
4.822783292978208,0.647813256658602,-1.9582702784503585,3.4652088377724013
4.830781275221953,0.49785108958839097,-2.0682425343018465,3.3652340597255943
4.838779257465698,0.3478889225181634,-2.178214790153347,3.2652592816787758
4.846777239709443,0.19792675544795235,-2.288187046004835,3.1652845036319683
4.854775221953188,0.04796458837772466,-2.398159301856335,3.06530972558515
4.862773204196933,-0.10199757869248627,-2.508131557707823,2.9653349475383424
4.8707711864406775,-0.2519597457626974,-2.618103813559311,2.8653601694915354
4.878769168684423,-0.401921912832925,-2.7280760694108115,2.765385391444717
4.886767150928168,-1.8952179176756045,-3.7767150928168007,1.8
4.894765133171913,-1.4234866828086798,-3.30782889426956,1.47188592951304
4.902763115415658,-1.0743918526039893,-3.1846351115623937,1.4
4.910761097659402,-1.031391948067728,-3.158835168840637,1.4
4.918759079903148,-0.988392043531462,-3.1330352261188774,1.4
4.926757062146892,-0.9453921389952007,-3.1072352833971206,1.4
4.934755044390638,-0.9023922344589347,-3.0814353406753607,1.4
4.942753026634382,-0.8593923299226733,-3.055635397953604,1.4
4.950751008878127,-0.8163924253864121,-3.029835455231847,1.4
4.9587489911218725,-0.773392520850146,-3.0040355125100877,1.4
4.966746973365617,-0.7303926163138847,-2.978235569788331,1.4
4.974744955609363,-0.6873927117776186,-2.952435627066571,1.4
4.982742937853107,-0.6443928072413574,-2.9266356843448142,1.4
4.990740920096853,-0.6013929027050913,-2.900835741623055,1.4
4.998738902340597,-0.8261097659402883,-2.2891646489104325,0.7891646489104324
5.006736884584342,-0.6936444485053378,-2.0809333455160135,0.5682222425266893
5.014734866828087,-0.6860991822376534,-2.0582975467129603,0.5304959111882672
5.022732849071832,-0.6785539159699698,-2.0356617479099097,0.49276957984984926
5.030730831315577,-0.6710086497022854,-2.0130259491068565,0.4550432485114271
5.038728813559322,-0.6634633834346018,-1.9903901503038055,0.41731691717300917
5.046726795803067,-0.6559181171669182,-1.9677543515007547,0.3795905858345912
5.054724778046812,-0.6483728508992338,-1.9451185526977015,0.3418642544961691
5.062722760290557,-0.6408275846315502,-1.9224827538946507,0.3041379231577511
5.070720742534302,-0.6332823183638658,-1.8998469550915975,0.266411591819329
5.078718724778047,-0.6257370520961822,-1.8772111562885467,0.2286852604809111
5.086716707021791,-0.6181917858284987,-1.854575357485496,0.19095892914249313
5.094714689265537,-0.6106465195608142,-1.8319395586824427,0.153232597804071
5.102712671509281,-0.6031012532931306,-1.809303759879392,0.11550626646565304
5.110710653753027,-1.2421307506053971,-0.8868038740919045,-1.2974576271188893
5.1187086359967715,-1.6660075329566983,-0.7,-2.7757196663976416
5.126706618240516,-1.5402286462331978,-0.6342117955077873,-2.724813480580328
5.134704600484262,-1.3744168192287178,-0.5659363373294721,-2.6467843855193967
5.142702582728006,-1.2086049922242565,-0.4976608791511644,-2.5687552904584736
5.150700564971752,-1.0427931652197766,-0.4293854209728492,-2.4907261953975417
5.158698547215496,-0.8769813382153153,-0.3611099627945416,-2.4126971003366187
5.166696529459241,-0.7111695112108538,-0.29283450461623395,-2.334668005275696
5.174694511702986,-0.5453576842063741,-0.22455904643791874,-2.256638910214764
5.182692493946731,-0.3795458572019126,-0.15628358825961108,-2.178609815153841
5.190690476190476,-0.21373403019743287,-0.08800813008129593,-2.1005807200929096
5.198688458434221,-0.04792220319297136,-0.01973267190298822,-2.0225516250319866
5.206686440677966,0.8851694915260474,0.5822033898312571,-4.362711864406946
5.214684422921711,-0.10689115765124839,-0.6137823153024967,-4.05865305409251
5.222682405165456,-0.11513650017057275,-0.6302730003411455,-4.009180998976563
5.230680387409201,-0.12338184268989803,-0.646763685379796,-3.9597089438606115
5.238678369652946,-0.1316271852092224,-0.6632543704184448,-3.9102368887446652
5.24667635189669,-0.13987252772854675,-0.6797450554570935,-3.8607648336287195
5.254674334140436,-0.14811787024787204,-0.6962357404957441,-3.8112927785127675
5.26267231638418,-0.1563632127671964,-0.7127264255343928,-3.7618207233968217
5.270670298627926,-0.16460855528652169,-0.7292171105730434,-3.7123486682808697
5.2786682808716705,-0.17285389780584604,-0.7457077956116921,-3.6628766131649235
5.286666263115416,-0.18109924032517133,-0.7621984806503427,-3.613404558048972
5.294664245359161,-0.18934458284449568,-0.7786891656889914,-3.5639325029330258
5.302662227602905,-0.19758992536382006,-0.7951798507276402,-3.5144604478170796
5.310660209846651,-0.06657442638072611,-0.1,-2.067404588954191
5.318658192090395,0.06974576271185448,-0.26974576271185446,-1.347344632768388
5.326656174334141,0.7008412491463347,-0.7008412491463347,-0.39327000682932195
5.334654156577885,0.7110950725357509,-0.7110950725357509,-0.3112394197139931
5.34265213882163,0.7213488959251669,-0.7213488959251669,-0.22920883259866423
5.350650121065375,0.7316027193145842,-0.7316027193145842,-0.14717824548332625
5.35864810330912,0.7418565427040004,-0.7418565427040004,-0.06514765836799735
5.3666460855528655,0.7521103660934176,-0.7521103660934176,0.016882928747340598
5.37464406779661,0.7623641894828337,-0.7623641894828337,0.0989135158626695
5.382642050040355,0.7726180128722498,-0.7726180128722498,0.18094410297799834
5.3906400322841,0.7828718362616671,-0.7828718362616671,0.2629746900933363
5.398638014527845,0.7931256596510832,-0.7931256596510832,0.34500527720866525
5.40663599677159,0.3728006456819342,-0.6953995157385493,1.0907990314770988
5.414633979015335,-0.9871741917105816,-1.404275269429806,2.4171010777192246
5.422631961259079,-0.958946019085601,-1.4136846603047997,2.4547386412191985
5.430629943502825,-0.9307178464606172,-1.4230940511797943,2.492376204719177
5.4386279257465695,-0.9024896738356365,-1.4325034420547877,2.5300137682191512
5.446625907990315,-0.8742615012106527,-1.4419128329297823,2.5676513317191296
5.45462389023406,-0.8460333285856722,-1.4513222238047758,2.6052888952191036
5.462621872477804,-0.8178051559606915,-1.4607316146797695,2.642926458719078
5.47061985472155,-0.7895769833357077,-1.4701410055547641,2.6805640222190563
5.478617836965294,-0.7613488107107271,-1.4795503964297576,2.7182015857190303
5.48661581920904,-0.7331206380857433,-1.4889597873047522,2.7558391492190086
5.494613801452784,-0.7048924654607627,-1.4983691781797457,2.793476712718983
5.50261178369653,0.8372612321766315,-1.2925477535646737,3.2149044928706525
5.510609765940274,0.5389898714319769,-0.7949158226193315,4.355925951187355
5.518607748184019,0.40381270674897074,-0.7836510588957476,4.479838352146777
5.5266057304277645,0.2686355420659497,-0.7723862951721625,4.603750753106213
5.534603712671509,0.13345837738294364,-0.7611215314485786,4.727663154065635
5.542601694915255,-0.0017187873000774623,-0.7498567677249935,4.851575555025071
5.550599677158999,-0.13689595198308346,-0.7385920040014097,4.975487955984494
5.558597659402744,-0.2720731166660896,-0.7273272402778259,5.0994003569439155
5.566595641646489,-0.4072502813491107,-0.7160624765542407,5.223312757903352
5.574593623890234,-0.5424274460321167,-0.704797712830657,5.3472251588627735
5.582591606133979,3.1099273607748987,-1.595803066989541,4.742937853107321
5.590589588377724,2.962716908797411,-2.7219652945924144,3.5560694108151716
5.5985875706214685,2.796092278719399,-2.7486252354048966,3.5027495291902078
5.606585552865214,2.629467648641368,-2.7752851762173814,3.4494296475652377
5.614583535108959,2.462843018563356,-2.801945117029863,3.396109765940274
5.622581517352704,2.2962183884853253,-2.8286050578423483,3.342789884315304
5.630579499596449,2.129593758407313,-2.85526499865483,3.28947000269034
5.638577481840193,1.9629691283293007,-2.881924939467312,3.2361501210653763
5.646575464083939,1.79634449825127,-2.908584880279797,3.182830239440406
5.654573446327683,1.6297198681732576,-2.935244821092279,3.1295103578154424
5.662571428571429,1.463095238095227,-2.961904761904764,3.0761904761904724
5.670569410815173,1.2964706080172148,-2.988564702717246,3.0228705945655086
5.678567393058918,1.1298459779392025,-3.0152246435297276,2.9695507129405447
5.6865653753026635,0.9632213478611718,-3.0418845843422124,2.9162308313155747
5.694563357546408,0.7965967177831597,-3.0685445251546946,2.862910949690611
5.702561339790154,0.6299720877051289,-3.0952044659671794,2.809591068065641
5.710559322033898,-2.563174114021537,-2.834206471494616,2.0927580893682696
5.718557304277643,-3.4929213441925313,-2.5946910081443986,1.7929213441925314
5.726555286521388,-3.456566879448234,-2.5674251595861755,1.7565668794482336
5.734553268765133,-3.4202124147039403,-2.540159311027955,1.7202124147039402
5.742551251008878,-3.3838579499596424,-2.512893462469732,1.6838579499596424
5.750549233252623,-3.347503485215349,-2.485627613911512,1.647503485215349
5.7585472154963675,-3.3111490204710554,-2.4583617653532914,1.6111490204710552
5.766545197740113,-3.274794555726758,-2.4310959167950683,1.5747945557267577
5.774543179983858,-3.238440090982464,-2.403830068236848,1.538440090982464
5.782541162227603,-3.2020856262381665,-2.3765642196786247,1.5020856262381663
5.790539144471348,-3.165731161493873,-2.3492983711204047,1.4657311614938728
5.798537126715093,-3.1293766967495755,-2.322032522562181,1.4293766967495753
5.806535108958838,-2.1021791767556226,-2.5302663438256254,1.1697336561743745
5.814533091202582,-0.9066182405164183,-2.193381759483582,0.5700363196126863
5.822531073446328,-1.5,-1.7923163841807908,-0.13841807909604692
5.830529055690072,-1.5,-1.782906993305797,-0.18546503347101514
5.838527037933818,-1.5,-1.7734976024308022,-0.2325119878459886
5.8465250201775625,-1.5,-1.7640882115558087,-0.2795589422209568
5.854523002421307,-1.5,-1.754678820680815,-0.32660589659592504
5.862520984665053,-1.5,-1.7452694298058202,-0.3736528509708985
5.870518966908797,-1.5,-1.7358600389308267,-0.4206998053458667
5.878516949152543,-1.5,-1.726450648055832,-0.4677467597208401
5.886514931396287,-1.5,-1.7170412571808382,-0.5147937140958083
5.894512913640032,-1.5,-1.7076318663058447,-0.5618406684707766
5.902510895883777,-1.1978208232444651,-1.6244552058111164,-0.9777239709444185
5.910508878127522,-1.8719589020548992,-1.2799706443249281,-1.5959941288649857
5.918506860371267,-1.7233238338083021,-1.1738027384345018,-1.5747605476869004
5.926504842615012,-1.5746887655617219,-1.0676348325440872,-1.5535269665088176
5.934502824858757,-1.4260536973151414,-0.9614669266536726,-1.5322933853307346
5.942500807102502,-1.2774186290685445,-0.8552990207632463,-1.5110598041526493
5.950498789346247,-1.128783560821964,-0.7491311148728317,-1.4898262229745665
5.958496771589992,-0.9801484925753672,-0.6429632089824053,-1.4685926417964812
5.966494753833737,-0.8315134243287867,-0.5367953030919907,-1.4473590606183981
5.974492736077481,-0.6828783560822063,-0.43062739720157617,-1.4261254794403153
5.982490718321227,-0.5342432878356094,-0.3244594913111498,-1.40489189826223
5.990488700564971,-0.38560821958902913,-0.21829158542073523,-1.383658317084147
5.998486682808717,-0.23697315134243224,-0.11212367953030888,-1.3624247359060617
6.0064846650524615,-0.08833808309585178,-0.005955773639894302,-1.341191154727979
6.014482647296207,0.06029698515074511,0.10021213225053205,-1.3199575735498936
6.022480629539952,0.9209443099270536,0.5124092009683898,-1.7085351089586638
6.030478611783696,-0.3317981028751879,0.08092113827488726,-3.9952302845687218
6.038476594027442,-0.5037977210202521,-0.02227863261215128,-3.9694303418469623
6.046474576271186,-0.6757973391652972,-0.12547840349917835,-3.9436303991252055
6.054472558514932,-0.8477969573103614,-0.22867817438621688,-3.9178304564034456
6.062470540758676,-1.0197965754554066,-0.331877945273244,-3.8920305136816893
6.070468523002421,-1.1917961936004515,-0.43507771616027113,-3.8662305709599325
6.078466505246166,-1.3637958117455158,-0.5382774870473096,-3.8404306282381726
6.086464487489911,-1.535795429890561,-0.6414772579343367,-3.814630685516416
6.0944624697336565,-1.7077950480356252,-0.7446770288213752,-3.7888307427946564
6.102460451977401,-1.8797946661806701,-0.8478767997084024,-3.7630308000728996
6.110458434221146,-2.051794284325715,-0.9510765705954295,-3.737230857351143
6.118456416464891,-2.2237939024707796,-1.0542763414824678,-3.7114309146293833
6.126454398708636,-2.768596375376041,-0.6801746276322882,-3.111578252256247
6.134452380952381,-2.4964285714285857,-0.04166666666667779,-2.541666666666678
6.142450363196126,1.487913640032285,1.0909352300242139,0.4211511299435011
6.15044834543987,1.42126378800108,1.0409478410008102,0.5377883709981097
6.158446327683616,1.354613935969868,0.990960451977401,0.6544256120527312
6.1664443099273605,1.287964083938663,0.9409730629539973,0.7710628531073398
6.174442292171106,1.2213142319074508,0.890985673930588,0.8877000941619614
6.182440274414851,1.154664379876246,0.8409982849071844,1.00433733521657
6.190438256658595,0.5966101694916617,0.5842615012107122,1.1719128329297626
6.198436238902341,-0.0029710230516352535,0.2792028386385532,1.2148551152581761
6.206434221146085,-0.012724659934250631,0.21092738046024556,1.263623299671253
6.214432203389831,-0.02247829681686709,0.14265192228193035,1.3123914840843354
6.222430185633575,-0.03223193369948247,0.07437646410362272,1.3611596684974123
6.23042816787732,-0.04198557058209784,0.006101005925315095,1.409927852910489
6.238426150121065,-0.051739207464714304,-0.06217445225300011,1.4586960373235716
6.24642413236481,-0.061492844347329684,-0.13044991043130777,1.5074642217366483
6.2544221146085555,-0.07124648122994615,-0.19872536860962298,1.5562324061497306
6.2624200968523,-0.08100011811256151,-0.26700082678793063,1.6050005905628075
6.270418079096045,-0.09075375499517689,-0.33527628496623824,1.6537687749758845
6.27841606133979,-0.05839386602095868,-0.3583938660209587,1.8664245359161653
6.286414043583535,-0.6169406567265608,-0.4021175820908201,4.212705492544921
6.29441202582728,-0.6730668479107397,-0.4091333559888425,4.2548001359330545
6.302410008071025,-0.7291930390949124,-0.4161491298868641,4.2968947793211845
6.31040799031477,-0.7853192302790912,-0.4231649037848864,4.338989422709319
6.318405972558515,-0.8414454214632638,-0.430180677682908,4.381084066097448
6.3264039548022595,-0.8975716126474365,-0.43719645158092957,4.423178709485578
6.334401937046005,-0.9536978038316154,-0.44421222547895195,4.465273352873711
6.3423999192897496,-1.0098239950157881,-0.45122799937697355,4.507367996261841
6.350397901533495,-1.065950186199967,-0.4582437732749959,4.549462639649975
6.35839588377724,-1.1220763773841396,-0.4652595471730175,4.591557283038105
6.366393866020984,-1.1782025685683122,-0.47227532107103903,4.633651926426234
6.37439184826473,-1.2343287597524912,-0.4792910949690614,4.675746569814368
6.382389830508474,-1.2904549509366636,-0.48630686886708296,4.717841213202497
6.39038781275222,-1.3465811421208427,-0.49332264276510535,4.759935856590632
6.398385794995964,-1.1878127522194888,-0.6157384987893697,4.6456820016141736
6.406383777239709,1.136973365617464,-2.5260532687650725,2.7478934624698557
6.4143817594834545,1.0402945924132363,-2.610855528652139,2.5402945924132365
6.422379741727199,0.9756050301476551,-2.622617267245881,2.4756050301476553
6.4303777239709445,0.9109154678820667,-2.6343790058396244,2.4109154678820666
6.438375706214689,0.8462259056164855,-2.6461407444333664,2.3462259056164854
6.446373688458434,0.7815363433509042,-2.6579024830271085,2.281536343350904
6.454371670702179,0.7168467810853159,-2.6696642216208515,2.216846781085316
6.462369652945924,0.6521572188197347,-2.6814259602145936,2.1521572188197347
6.470367635189669,0.5874676565541461,-2.693187698808337,2.0874676565541463
6.478365617433414,0.5227780942885649,-2.704949437402079,2.022778094288565
6.4863635996771585,0.4580885320229837,-2.716711175995821,1.9580885320229837
6.494361581920904,0.3933989697573953,-2.7284729145895645,1.8933989697573952
6.5023595641646486,0.328709407491814,-2.7402346531833066,1.828709407491814
6.510357546408394,0.26401984522622557,-2.7519963917770496,1.7640198452262257
6.518355528652139,0.19933028296064437,-2.7637581303707917,1.6993302829606445
6.526353510895884,0.13464072069505595,-2.775519868964535,1.634640720695056
6.534351493139629,0.06995115842947475,-2.787281607558277,1.5699511584294747
6.542349475383373,0.005261596163893545,-2.799043346152019,1.5052615961638935
6.550347457627119,-0.7347457627118557,-2.8667950693374413,1.0992295839753514
6.558345439870863,-1.3172719935431603,-2.9,0.856545601291368
6.566343422114609,0.006053268765172315,-2.398486682808707,0.6
6.5743414043583535,0.9975610829848126,-2.0,0.8
6.582339386602098,0.9830192970870951,-2.0,0.8
6.5903373688458435,0.968477511189376,-2.0,0.8
6.598335351089588,0.9539357252916585,-2.0,0.8
6.606333333333334,0.9393939393939393,-2.0,0.8
6.614331315577078,0.9248521534962217,-2.0,0.8
6.622329297820823,0.9103103675985043,-2.0,0.8
6.630327280064568,0.269087974172629,-1.8509079903147359,0.6345439870863144
6.638325262308313,-1.1861447403820287,-0.47921711057304317,-0.12078288942695682
6.646323244552058,-1.1528198143664226,-0.42922972154963396,-0.17077027845036605
6.654321226795803,-1.1194948883508202,-0.3792423325262303,-0.22075766747376974
6.6623192090395476,-1.0861699623352177,-0.32925494350282664,-0.2707450564971734
6.670317191283293,-1.0528450363196116,-0.2792675544794174,-0.32073244552058267
6.678315173527038,-1.0195201103040092,-0.22928016545601376,-0.3707198345439864
6.686313155770783,-1.2313155770783064,0.13131557707830643,-1.0939467312349194
6.694311138014528,0.8295862412761681,1.2549458766557406,-1.1718523002421224
6.702309120258272,0.8844743547136313,1.3568809444681722,-1.305152004304533
6.710307102502018,0.9393624681511006,1.4588160122806153,-1.4384517083669586
6.718305084745762,0.9942505815885638,1.5607510800930469,-1.5717514124293692
6.726303066989508,1.049138695026033,1.66268614790549,-1.7050511164917945
6.7343010492332525,1.1040268084634963,1.7646212157179217,-1.8383508205542052
6.742299031476997,1.1589149219009596,1.8665562835303533,-1.9716505246166158
6.7502970137207425,1.2138030353384288,1.9684913513427964,-2.104950228679041
6.758294995964487,1.268691148775892,2.070426419155228,-2.238249932741452
6.766292978208233,1.3235792622133613,2.172361486967671,-2.371549636803877
6.774290960451977,1.3784673756508246,2.2742965547801024,-2.504849340866288
6.782288942695722,1.4333554890882878,2.3762316225925346,-2.6381490449286984
6.790286924939467,1.488243602525757,2.4781666904049775,-2.7714487489911237
6.798284907183212,-0.5113708600284262,0.2954516559886295,-4.0965887419914715
6.806282889426957,-0.5821494639553771,0.26714021441784913,-4.075355160813387
6.814280871670702,-0.6529280678823202,0.2388287728470719,-4.054121579635304
6.822278853914447,-0.7237066718092711,0.21051733127629157,-4.032887998457219
6.830276836158192,-0.7944852757362142,0.18220588970551432,-4.011654417279136
6.838274818401937,-0.8652638796631571,0.15389444813473713,-3.9904208361010527
6.846272800645682,-0.936042483590108,0.12558300656395677,-3.9691872549229674
6.854270782889427,-1.0068210875170511,0.09727156499317954,-3.9479536737448844
6.862268765133172,-1.077599691444002,0.06896012342239918,-3.926720092566799
6.870266747376917,-1.1483782953709452,0.04064868185162196,-3.905486511388716
6.878264729620661,-1.219156899297888,0.012337240280844763,-3.8842529302106334
6.886262711864407,-1.289935503224839,-0.015974201289935597,-3.863019349032548
6.8942606941081515,-1.360714107151782,-0.04428564286071285,-3.841785767854465
6.902258676351897,-1.431492711078733,-0.07259708443149321,-3.82055218667638
6.9102566585956415,-1.497433414043586,-0.0820338983051023,-3.782033898305102
6.918254640839386,-1.4174535916061384,0.4778248587570313,-3.222175141242969
6.926252623083132,-1.1726318878861233,0.8842101401423461,-2.7589478318291847
6.934250605326876,1.425221953188014,0.9,-1.0997578692494394
6.942248587570622,0.5312953995157405,1.0281174334140433,-0.025020177562551357
6.950246569814366,0.27421739882395013,1.070963766862675,0.0892367116337999
6.958244552058111,0.01713939813215981,1.1138101003113068,0.20349360083015114
6.966242534301856,-0.23993860255965904,1.1566564337599432,0.317750490026515
6.974240516545601,-0.49701660325144936,1.199502767208575,0.43200737922286636
6.982238498789346,-0.7540946039432683,1.2423491006572114,0.5462642684192303
6.990236481033091,-1.0111726046350586,1.2851954341058431,0.6605211576155815
6.998234463276836,0.7765536723164465,0.5296610169493392,1.7703389830506608
7.006232445520581,0.7077768231404101,0.32333046942123045,2.054437761982871
7.014230427764326,0.7163768040476624,0.34913041214298723,2.1146376283336368
7.022228410008071,0.7249767849549156,0.37493035486474685,2.1748374946844096
7.030226392251816,0.7335767658621679,0.4007302975865036,2.2350373610351753
7.038224374495561,0.7421767467694211,0.42653024030826325,2.2952372273859476
7.046222356739306,0.7507767276766734,0.45233018303002004,2.3554370937367133
7.0542203389830505,0.7593767085839256,0.47813012575177677,2.4156369600874794
7.062218321226796,0.7679766894911788,0.5039300684735364,2.4758368264382518
7.0702163034705405,0.776576670398431,0.5297300111952932,2.5360366927890174
7.078214285714286,0.7851766513056843,0.5555299539170528,2.59623655913979
7.086212267958031,0.7937766322129366,0.5813298966388095,2.656436425490556
7.094210250201775,0.05538740920108587,0.43948748991123177,3.4815375302663045
7.102208232445521,-1.353046981504466,0.005217002055059338,3.846953018495534
7.110206214689265,-1.292558040165221,0.011937995537197666,3.9074419598347787
7.118204196933011,-1.2320690988259693,0.01865898901933674,3.9679309011740305
7.126202179176755,-1.1715801574867244,0.02537998250147507,4.028419842513276
7.1342001614205,-1.1110912161474793,0.032100975983613396,4.088908783852521
7.142198143664245,-1.0506022748082278,0.038821969465752476,4.149397725191772
7.15019612590799,-0.9901133334689828,0.0455429629478908,4.209886666531017
7.1581941081517355,-0.9296243921297311,0.05226395643002987,4.270375607870269
7.16619209039548,-0.8691354507904862,0.058984949912168204,4.3308645492095135
7.174190072639225,-0.8086465094512412,0.06570594339430653,4.391353490548759
7.18218805488297,-0.7481575681119895,0.07242693687644561,4.451842431888011
7.190186037126715,-0.6876686267727447,0.07914793035858393,4.512331373227255
7.19818401937046,-0.6271796854334929,0.085868923840723,4.572820314566507
7.206182001614205,-0.566690744094248,0.09258991732286134,4.633309255905752
7.2141799838579495,-0.506201802755003,0.09931091080499967,4.693798197244997
7.222177966101695,0.4665254237290986,-1.8622881355930874,1.728813559322186
7.2301759483454395,-1.3117298896959804,-2.6372432965653267,0.7255134068693464
7.238173930589185,-1.4840802135717375,-2.6840802135717374,0.5920401067858687
7.24617191283293,-1.459471037437139,-2.659471037437139,0.5797355187185694
7.254169895076674,-1.4348618613025403,-2.6348618613025403,0.5674309306512701
7.26216787732042,-1.410252685167939,-2.610252685167939,0.5551263425839694
7.270165859564164,-1.3856435090333403,-2.5856435090333405,0.5428217545166701
7.27816384180791,-1.3610343328987389,-2.561034332898739,0.5305171664493695
7.286161824051654,-1.3364251567641403,-2.5364251567641403,0.5182125783820701
7.294159806295399,-1.3118159806295417,-2.511815980629542,0.5059079903147709
7.302157788539144,0.2946731234868676,-1.4526634382565662,0.615778853914478
7.310155770782889,0.5505611020818836,-1.192937300297412,0.7929373002974119
7.3181537530266345,0.47386812166240677,-1.1819811602374866,0.7819811602374868
7.326151735270379,0.3971751412429384,-1.1710250201775627,0.7710250201775627
7.334149717514125,0.32048216082346165,-1.1600688801176373,0.7600688801176374
7.342147699757869,0.24378918040399333,-1.1491127400577135,0.7491127400577133
7.350145682001614,0.16709619998452502,-1.1381565999977894,0.7381565999977893
7.358143664245359,0.09040321956504827,-1.127200459937864,0.727200459937864
7.366141646489104,0.013710239145579894,-1.1162443198779401,0.71624431987794
7.374139628732849,-0.06298274127389691,-1.1052881798180147,0.7052881798180147
7.382137610976594,-0.5654812348668043,-0.944839588377732,0.5448395883777319
7.3901355932203385,-0.4025423728815535,0.17033898305076278,-0.7271186440676837
7.398133575464084,-0.08437903183047296,0.30520698938984236,-0.9260349469492117
7.406131557707829,-0.06686520209964532,0.31104493263345157,-0.9552246631672578
7.414129539951574,-0.04935137236881574,0.31688287587706143,-0.9844143793853071
7.422127522195319,-0.0318375426379881,0.32272081912067063,-1.0136040956033532
7.430125504439063,-0.01432371290716046,0.32855876236427983,-1.0427938118213993
7.438123486682809,0.003190116823669112,0.3343967056078897,-1.0719835280394485
7.446121468926553,0.020703946554496755,0.3402346488514989,-1.1011732442574946
7.454119451170299,0.03821777628532633,0.34607259209510877,-1.1303629604755439
7.462117433414043,0.055731606016153956,0.35191053533871797,-1.15955267669359
7.470115415657788,0.07324543574698161,0.3577484785823272,-1.188742392911636
7.4781133979015335,0.09075926547781119,0.3635864218259371,-1.2179321091296853
7.486111380145278,0.10827309520863881,0.3694243650695463,-1.2471218253477314
7.494109362389024,0.12578692493946841,0.37526230831315616,-1.2763115415657806
7.502107344632768,0.14330075467029604,0.38110025155676536,-1.3055012577838268
7.510105326876513,0.1608145844011237,0.38693819480037456,-1.3346909740018726
7.518103309120258,0.17832841413195324,0.3927761380439844,-1.363880690219922
7.526101291364003,0.1958422438627809,0.3986140812875937,-1.393070406437968
7.534099273607748,-1.3770424177203804,0.9229575822796194,-2.157911099154031
7.542097255851493,-1.3177981048037541,0.9822018951962458,-2.0492965254735496
7.550095238095238,-1.2585537918871212,1.0414462081128788,-1.9406819517930558
7.558093220338983,-1.199309478970495,1.100690521029505,-1.8320673781125743
7.566091202582728,-1.1400651660538685,1.1599348339461315,-1.7234528044320927
7.574089184826473,-1.0808208531372356,1.2191791468627642,-1.614838230751599
7.582087167070218,-1.0215765402206094,1.2784234597793906,-1.5062236570711174
7.590085149313963,-0.9623322273039765,1.3376677726960235,-1.3976090833906238
7.598083131557708,-0.9030879143873503,1.3969120856126498,-1.288994509710142
7.606081113801452,-0.8438436014707239,1.4561563985292763,-1.1803799360296605
7.614079096045198,1.1898305084750338,3.6237288135593793,-2.40282485875731
7.622077078288942,-1.3418975876602823,-0.5290512061698588,-3.8974307237019152
7.630075060532688,-2.0034017385781766,-0.17278609137458623,-3.6829913071091167
7.6380730427764325,-2.0165131848793973,-0.06789452096482093,-3.6174340756030134
7.646071025020177,-2.029624631180618,0.036997049444944335,-3.5518768440969097
7.654069007263923,-2.04273607748184,0.1418886198547213,-3.4863196125907994
7.662066989507667,-2.055847523783061,0.24678019026448655,-3.420762381084696
7.670064971751413,-2.068958970084283,0.3516717606742635,-3.3552051495785857
7.678062953995157,-2.0820704163855037,0.45656333108402875,-3.289647918072482
7.686060936238902,-2.0951818626867245,0.561454901493794,-3.2240906865663788
7.694058918482647,-1.4941081517352437,0.5388216303470487,-2.171751412429341
7.702056900726392,0.6046222488233522,0.9861332535299432,-0.2930666267649716
7.710054882970137,0.622595242629522,0.932214272111434,-0.266107136055717
7.718052865213882,0.6405682364356897,0.8782952906929309,-0.2391476453464654
7.726050847457627,0.6585412302418574,0.8243763092744276,-0.2121881546372138
7.734048829701372,0.6765142240480272,0.7704573278559185,-0.18522866392795923
7.742046811945117,0.6944872178541949,0.7165383464374153,-0.15826917321870765
7.750044794188862,0.7124602116603647,0.6626193650189062,-0.13130968250945307
7.758042776432607,0.7304332054665323,0.608700383600403,-0.1043501918002015
7.766040758676351,0.7484061992727,0.5547814021818998,-0.07739070109094989
7.774038740920097,0.7663791930788698,0.5008624207633907,-0.05043121038169532
7.782036723163841,0.7843521868850375,0.44694343934488745,-0.023471719672443714
7.790034705407587,0.5930589184826269,0.19305891848262696,0.10347054075868653
7.7980326876513315,-0.2,0.09430878523459274,0.43983850335785085
7.806030669895076,-0.2,0.08676351896690915,0.492655367231636
7.814028652138822,-0.2,0.07921825269922472,0.545472231105427
7.822026634382566,-0.2,0.07167298643154113,0.5982890949792121
7.830024616626312,-0.2,0.0641277201638567,0.651105958853003
7.838022598870056,-0.2,0.05658245389617312,0.7039228227267882
7.846020581113802,-0.2,0.04903718762848869,0.7567396866005792
7.854018563357546,-0.2,0.0414919213608051,0.8095565504743644
7.862016545601291,-0.2,0.03394665509312152,0.8623734143481495
7.870014527845036,-0.2,0.026401388825437078,0.9151902782219405
7.878012510088781,-0.2,0.0188561225577535,0.9680071420957256
7.8860104923325265,-0.2,0.01131085629006906,1.0208240059695166
7.894008474576271,-0.2,0.0037655900223854816,1.0736408698433018
7.902006456820016,0.301614205003886,0.1,1.7019370460046632
7.910004439063761,0.20002690341673346,0.3999955160972111,4.899968612680478
7.918002421307506,0.2484995230757915,0.39191674615403477,4.8434172230782435
7.926000403551251,0.29697214273485495,0.3838379762108575,4.786865833476003
7.933998385794996,0.345444762393913,0.37575920626768117,4.730314443873769
7.94199636803874,0.3939173820529711,0.36768043632450487,4.673763054271534
7.949994350282486,0.4423900017120345,0.3596016663813276,4.617211664669293
7.9579923325262305,0.49086262137109254,0.35152289643815127,4.560660275067059
7.965990314769976,0.539335241030156,0.343444126494974,4.504108885464818
7.973988297013721,0.5878078606892141,0.33536535655179767,4.447557495862584
7.981986279257465,0.6362804803482721,0.3272865866086213,4.39100610626035
7.989984261501211,0.6847531000073356,0.31920781666544407,4.334454716658109
7.997982243744955,0.7332257196663936,0.3111290467222677,4.277903327055874
8.0059802259887,0.7816983393254571,0.30305027677909047,4.221351937453633
8.013978208232446,0.2428329297820449,-2.1791283292978325,2.5219612590798772
8.02197619047619,-0.7969047619046592,-2.4990476190475874,1.8021428571429283
8.029974172719935,-1.9376982309185715,-2.2811508845407142,1.381150884540714
8.037972154963681,-1.9809305673712498,-2.259534716314375,1.359534716314375
8.045970137207425,-2.0241629038239184,-2.2379185480880404,1.3379185480880407
8.05396811945117,-2.067395240276597,-2.2163023798617014,1.3163023798617013
8.061966101694916,-2.1106275767292755,-2.194686211635362,1.2946862116353621
8.06996408393866,-2.153859913181944,-2.173070043409028,1.2730700434090279
8.077962066182405,-2.1970922496346224,-2.1514538751826886,1.2514538751826887
8.08596004842615,-2.2403245860873007,-2.1298377069563497,1.2298377069563495
8.093958030669896,-2.2835569225399794,-2.1082215387300103,1.2082215387300104
8.10195601291364,-1.7052784503633056,-1.9017594834544351,1.1008797417272176
8.109953995157385,-0.10460048426149615,-1.725575060532687,1.274424939467313
8.11795197740113,0.395060028248588,-1.490120056497176,1.190120056497176
8.125949959644874,0.38506255044390836,-1.4701251008878167,1.1701251008878166
8.13394794188862,0.3750650726392265,-1.450130145278453,1.150130145278453
8.141945924132365,0.36506759483454465,-1.4301351896690893,1.1301351896690892
8.149943906376109,0.355070117029865,-1.41014023405973,1.11014023405973
8.157941888619854,0.34507263922518316,-1.3901452784503663,1.0901452784503665
8.1659398708636,0.3350751614205013,-1.3701503228410028,1.0701503228410028
8.173937853107345,0.3250776836158195,-1.350155367231639,1.050155367231639
8.181935835351089,0.3150802058111399,-1.3301604116222798,1.0301604116222798
8.189933817594834,0.305082728006458,-1.3101654560129161,1.010165456012916
8.19793179983858,-0.3727199354318308,-0.6272800645681692,0.3272800645681692
8.205929782082324,-0.004681194511727771,-0.10234059725586389,-0.8918079096044764
8.213927764326069,-0.009008823097806226,-0.1,-0.9540529385868374
8.221925746569815,-0.018097439283880537,-0.1,-1.0085846357032833
8.22992372881356,-0.027186055469954853,-0.1,-1.063116332819729
8.237921711057304,-0.03627467165602715,-0.1,-1.1176480299361629
8.24591969330105,-0.04536328784210146,-0.1,-1.1721797270526086
8.253917675544795,-0.05445190402817578,-0.1,-1.2267114241690547
8.261915657788538,-0.06354052021424807,-0.1,-1.2812431212854882
8.269913640032284,-0.07262913640032238,-0.1,-1.3357748184019342
8.27791162227603,-0.0817177525863967,-0.1,-1.3903065155183802
8.285909604519773,-0.09080636877246899,-0.1,-1.4448382126348138
8.293907586763519,-0.0998949849585433,-0.1,-1.4993699097512598
8.301905569007264,-1.3858353510896695,-0.0031476997578512023,-2.196852300242149
8.30990355125101,0.2362097569724955,2.6217935611155996,-1.8926226347412969
8.317901533494753,0.45837593040982105,2.6573401488655715,-2.0436956326786784
8.325899515738499,0.6805421038471958,2.6928867366155513,-2.1947686306160934
8.333897497982244,0.9027082772845707,2.728433324365531,-2.345841628553508
8.341895480225988,1.1248744507218964,2.7639799121155035,-2.4969146264908897
8.349893462469733,1.3470406241592712,2.7995264998654834,-2.6479876244283043
8.357891444713479,1.5692067975966462,2.8350730876154633,-2.7990606223657193
8.365889426957223,1.7913729710339716,2.8706196753654356,-2.9501336203031006
8.373887409200968,2.013539144471346,2.9061662631154155,-3.1012066182405156
8.381885391444714,2.2357053179087214,2.9417128508653954,-3.2522796161779306
8.389883373688459,2.457871491346096,2.9772594386153752,-3.403352614115345
8.397881355932203,2.004143126177228,1.4041431261772275,-4.190207156308862
8.405879338175948,0.2268137386782989,-0.3731862613217012,-4.101340686933915
8.413877320419694,-0.9071802229994326,0.10359011149971627,-3.4784593310017025
8.421875302663437,-0.9219913012285875,0.11099565061429373,-3.4340260963142377
8.429873284907183,-0.9368023794577457,0.11840118972887284,-3.3895928616267628
8.437871267150928,-0.951613457686904,0.12580672884345195,-3.3451596269392883
8.445869249394672,-0.9664245359160589,0.13321226795802943,-3.3007263922518235
8.453867231638418,-0.9812356141452171,0.14061780707260854,-3.2562931575643486
8.461865213882163,-0.9960466923743754,0.14802334618718765,-3.211859922876874
8.469863196125909,-1.0108577706035335,0.15542888530176677,-3.1674266881893995
8.477861178369652,-1.0256688488326886,0.16283442441634424,-3.1229934535019344
8.485859160613398,-1.0404799270618468,0.17023996353092335,-3.07856021881446
8.493857142857143,-1.055291005291005,0.17764550264550247,-3.0341269841269853
8.501855125100887,-1.07010208352016,0.18505104176007994,-2.98969374943952
8.509853107344632,-1.0849131617493182,0.19245658087465906,-2.9452605147520456
8.517851089588378,-1.0997242399784763,0.19986211998923817,-2.900827280064571
8.525849071832123,-0.38773204196912825,0.527360774818523,-1.3028248587567797
8.533847054075867,-0.08043698835466342,0.7097815058226683,-0.831529459241322
8.541845036319613,-0.057585610515390705,0.7212071947423047,-0.7515496368038674
8.549843018563358,-0.034734232676117985,0.732632883661941,-0.671569814366413
8.557841000807102,-0.011882854836850351,0.7440585725815748,-0.5915899919289762
8.565838983050847,0.010968523002422362,0.7554842615012112,-0.5116101694915218
8.573836965294593,0.03381990084169509,0.7669099504208475,-0.4316303470540672
8.581834947538336,0.05667127868096272,0.7783356393404813,-0.3516505246166305
8.589832929782082,0.07952265652023544,0.7897613282601177,-0.271670702179176
8.597830912025827,0.1,0.7584543987086211,0.04927360774827383
8.605828894269573,-0.22762980898574708,-0.46381490449287355,1.3552596179714942
8.613826876513317,-0.18280055499632752,-0.4,1.9300990287564268
8.621824858757062,-0.14685456738398844,-0.4,1.9930045070780202
8.629822841000808,-0.11090857977164936,-0.4,2.0559099853996137
8.637820823244551,-0.07496259215931828,-0.4,2.118815463721193
8.645818805488297,-0.039016604546979194,-0.4,2.1817209420427863
8.653816787732042,-0.0030706169346401135,-0.4,2.24462642036438
8.661814769975786,0.032875370677691,-0.4,2.3075318986859594
8.669812752219531,0.06882135829003005,-0.4,2.3704373770075526
8.677810734463277,0.10476734590236914,-0.4,2.4333428553291463
8.685808716707022,0.14071333351470822,-0.4,2.4962483336507395
8.693806698950766,0.1766593211270393,-0.4,2.559153811972319
8.701804681194512,-0.33312348668287706,-0.5082808716707192,3.4526553672316784
8.709802663438257,-1.6763196125907465,-0.5078934624697512,5.148692493946617
8.717800645682,-0.4982226006439411,0.13274086688131373,5.317794392854939
8.725798627925746,-0.2609198307745678,0.05363994359152263,5.221115486611861
8.733796610169492,-0.023617060905194442,-0.025460979698268438,5.1244365803687835
8.741794592413237,0.21368570896417882,-0.10456190298805956,5.027757674125705
8.749792574656981,0.45098847883349946,-0.18366282627783304,4.931078767882648
8.757790556900726,0.6882912487028727,-0.26276374956762416,4.834399861639571
8.765788539144472,0.925594018572246,-0.34186467285741523,4.737720955396492
8.773786521388216,1.1628967884415666,-0.4209655961471888,4.641042049153436
8.781784503631961,1.4001995583109397,-0.5000665194369798,4.544363142910358
8.789782485875707,1.6375023281803134,-0.579167442726771,4.44768423666728
8.79778046811945,1.8748050980496338,-0.6582683660165445,4.351005330424223
8.805778450363196,2.377845036319621,-1.0778450363196208,3.9977239709443033
8.813776432606941,2.881571159537216,-1.8184288404627837,3.282880459151563
8.821774414850687,1.4707021791751251,-2.3774414850687395,1.9353510895875627
8.82977239709443,-0.41070350592058547,-2.3841852134399164,1.5841852134399164
8.837770379338176,-0.5640894667595391,-2.3622729333200656,1.562272933320066
8.845768361581921,-0.7174754275984927,-2.3403606532002152,1.5403606532002154
8.853766343825665,-0.8708613884374123,-2.3184483730803698,1.5184483730803697
8.86176432606941,-1.024247349276366,-2.2965360929605194,1.4965360929605191
8.869762308313156,-1.1776333101153196,-2.2746238128406686,1.4746238128406686
8.8777602905569,-1.3310192709542392,-2.252711532720823,1.4527115327208229
8.885758272800645,-1.4844052317931928,-2.230799252600973,1.4307992526009725
8.89375625504439,-1.6377911926321465,-2.208886972481122,1.408886972481122
8.901754237288136,-2.016949152542385,-2.120762711864404,1.3207627118644039
8.90975221953188,-1.206314304619389,-2.4952642715354583,1.293685695380611
8.917750201775625,-1.2351358622545074,-2.4736481033091193,1.2648641377454926
8.92574818401937,-1.2639574198896262,-2.4520319350827804,1.2360425801103738
8.933746166263115,-1.2927789775247385,-2.4304157668564463,1.2072210224752615
8.94174414850686,-1.3216005351598572,-2.408799598630107,1.1783994648401428
8.949742130750606,-1.350422092794976,-2.387183430403768,1.149577907205024
8.957740112994351,-1.3792436504300947,-2.365567262177429,1.1207563495699053
8.965738095238095,-1.408065208065207,-2.343951093951095,1.091934791934793
8.97373607748184,-1.4368867657003257,-2.322334925724756,1.0631132342996745
8.981734059725586,-1.4657083233354444,-2.3007187574984167,1.0342916766645558
8.98973204196933,-1.4945298809705565,-2.2791025892720826,1.0054701190294435
8.997730024213075,-1.5233514386056752,-2.2574864210457437,0.9766485613943248
9.00572800645682,-1.552172996240794,-2.2358702528194048,0.947827003759206
9.013725988700564,-1.5809945538759063,-2.2142540845930707,0.9190054461240937
9.02172397094431,-1.5552058111381677,-1.4828087167072515,0.3828087167072515
9.029721953188055,-0.3695117029861189,-1.2139023405972238,-0.44439063761110487
9.0377199354318,-0.3406312391147427,-1.1458250145136764,-0.5677187318579044
9.045717917675544,-0.38272588250286715,-1.0896988233295104,-0.6378764708381119
9.05371589991929,-0.424820525891001,-1.033572632145332,-0.708034209818335
9.061713882163035,-0.4669151692791348,-0.9774464409611536,-0.778191948798558
9.069711864406779,-0.5090098126672593,-0.9213202497769877,-0.8483496877787655
9.077709846650524,-0.551104456055393,-0.8651940585928092,-0.9185074267589886
9.08570782889427,-0.593199099443527,-0.8090678674086307,-0.9886651657392116
9.093705811138014,2.0868690631401363,2.39141367107483,-2.710858632892517
9.101703793381759,3.0712361085242033,1.160954864344746,-2.833904513565525
9.109701775625505,3.5398461460855493,0.3982011702986218,-2.927763317191285
9.11769975786925,3.409878934624685,0.17825665859562112,-2.987748184019376
9.125697740112994,3.27991172316385,-0.041687853107330586,-3.047733050847454
9.13369572235674,3.1499445117029863,-0.26163236481033125,-3.107717917675545
9.141693704600485,3.019977300242122,-0.4815768765133318,-3.167702784503636
9.149691686844228,2.890010088781287,-0.7015213882162836,-3.2276876513317134
9.157689669087974,2.760042877320423,-0.9214658999192842,-3.2876725181598045
9.16568765133172,2.630075665859559,-1.1414104116222847,-3.3476573849878957
9.173685633575463,2.500108454398724,-1.3613549233252367,-3.4076422518159735
9.181683615819209,2.37014124293786,-1.581299435028237,-3.4676271186440646
9.189681598062954,0.6971254733966608,-1.9928136834916519,-3.592813683491652
9.1976795803067,0.6834537088774376,-1.958634272193594,-3.558634272193594
9.205677562550443,0.6697819443582175,-1.9244548608955439,-3.5244548608955437
9.213675544794189,0.6561101798389943,-1.8902754495974858,-3.490275449597486
9.221673527037934,0.6424384153197712,-1.856096038299428,-3.456096038299428
9.229671509281678,0.628766650800551,-1.8219166270013778,-3.421916627001378
9.237669491525423,0.6150948862813279,-1.7877372157033198,-3.38773721570332
9.245667473769169,0.6014231217621048,-1.753557804405262,-3.353557804405262
9.253665456012914,0.5877513572428816,-1.719378393107204,-3.319378393107204
9.261663438256658,0.5740795927236615,-1.6851989818091537,-3.285198981809154
9.269661420500404,0.5604078282044384,-1.651019570511096,-3.251019570511096
9.277659402744149,0.5467360636852152,-1.6168401592130381,-3.2168401592130382
9.285657384987893,0.5330642991659951,-1.582660747914988,-3.182660747914988
9.293655367231638,0.5193925346467719,-1.5484813366169299,-3.14848133661693
9.301653349475384,0.5057207701275488,-1.5143019253188719,-3.114301925318872
9.309651331719127,0.38716707021824565,-1.6,-2.139467312349193
9.317649313962873,-1.9477605172710972,-0.7947760517271097,-0.5791042069084389
9.325647296206618,-1.8578955482402477,-0.7857895548240248,-0.5431582192960991
9.333645278450364,-1.7680305792093982,-0.7768030579209398,-0.5072122316837593
9.341643260694108,-1.6781656101785687,-0.7678165610178569,-0.4712662440714275
9.349641242937853,-1.5883006411477192,-0.7588300641147719,-0.4353202564590877
9.357639225181599,-1.4984356721168697,-0.749843567211687,-0.39937426884674787
9.365637207425342,-1.4085707030860402,-0.740857070308604,-0.36342828123441606
9.373635189669088,-1.3187057340551906,-0.7318705734055191,-0.32748229362207626
9.381633171912833,-1.2288407650243411,-0.7228840765024341,-0.29153630600973646
9.389631154156577,-1.1389757959935116,-0.7138975795993512,-0.25559031839740465
9.397629136400322,-1.0491108269626621,-0.7049110826962661,-0.21964433078506485
9.405627118644068,0.5415254237286471,-0.7,0.07203389830505541
9.413625100887813,0.5050001921672643,-0.7,1.5125004804181608
9.421623083131557,0.5202344440601093,-0.7,1.5505861101502734
9.429621065375303,0.5354686959529579,-0.7,1.5886717398823946
9.437619047619048,0.5507029478458063,-0.7,1.626757369614516
9.445617029862792,0.5659371997386514,-0.7,1.6648429993466285
9.453615012106537,0.5811714516314999,-0.7,1.7029286290787498
9.461612994350283,0.5964057035243484,-0.7,1.741014258810871
9.469610976594026,0.6116399554171934,-0.7,1.7790998885429836
9.477608958837772,0.626874207310042,-0.7,1.8171855182751049
9.485606941081517,0.6421084592028904,-0.7,1.8552711480072261
9.493604923325263,0.6573427110957388,-0.7,1.8933567777393472
9.501602905569007,0.6725769629885839,-0.7,1.93144240747146
9.509600887812752,0.6878112148814324,-0.7,1.969528037203581
9.517598870056498,0.7799435028248485,-0.7,3.03926553672303
9.525596852300241,-0.09685230024119951,-0.6387409200964799,4.7565375302653194
9.533594834543987,0.3186783085088009,-0.7915229779636571,6.066091911854628
9.541592816787732,0.488332477315526,-0.779404823048891,6.017619292195564
9.549590799031478,0.657986646122251,-0.7672866681341249,5.9691466725365
9.557588781275221,0.8276408149289385,-0.7551685132193615,5.920674052877446
9.565586763518967,0.9972949837356635,-0.7430503583045954,5.872201433218382
9.573584745762712,1.1669491525423887,-0.7309322033898293,5.823728813559318
9.581582728006456,1.336603321349076,-0.718814048475066,5.7752561939002645
9.589580710250202,1.506257490155801,-0.7066958935602999,5.7267835742412
9.597578692493947,3.031476997578816,-0.41370460048423674,4.984261501210592
9.60557667473769,-2.8933613695255094,-3.895021027144132,1.7933613695255095
9.613574656981436,-2.8596856548150025,-3.869764241111252,1.7596856548150024
9.621572639225182,-2.826009940104495,-3.8445074550783715,1.7260099401044953
9.629570621468927,-2.7923342253939882,-3.8192506690454913,1.6923342253939881
9.63756860371267,-2.7586585106834884,-3.7939938830126163,1.6586585106834886
9.645566585956416,-2.7249827959729815,-3.768737096979736,1.6249827959729815
9.653564568200162,-2.6913070812624746,-3.7434803109468557,1.5913070812624746
9.661562550443906,-2.657631366551975,-3.7182235249139812,1.5576313665519748
9.669560532687651,-2.623955651841468,-3.692966738881101,1.5239556518414679
9.677558514931397,-2.5902799371309606,-3.6677099528482207,1.4902799371309607
9.68555649717514,-2.5566042224204613,-3.642453166815346,1.4566042224204612
9.693554479418886,-2.5229285077099544,-3.617196380782466,1.422928507709954
9.701552461662631,-0.8618845843422542,-3.272376916868451,1.7552461662630983
9.709550443906377,-1.5112712504964354,-2.883093124255347,1.4774574990071294
9.71754842615012,-1.5366616703178437,-2.8450074945232346,1.4266766593643128
9.725546408393866,-1.5620520901392576,-2.8069218647911134,1.3758958197214848
9.733544390637611,-1.5874425099606715,-2.7688362350589926,1.3251149800786568
9.741542372881355,-1.6128329297820798,-2.73075060532688,1.2743341404358401
9.7495403551251,-1.638223349603494,-2.692664975594759,1.2235533007930122
9.757538337368846,-1.6636137694249078,-2.654579345862638,1.1727724611501842
9.765536319612591,-1.689004189246322,-2.6164937161305173,1.1219916215073562
9.773534301856335,-0.03284907183209329,-1.539709443099256,-0.01372074253432537
9.78153228410008,0.08650662414614411,-1.3,-0.5179911678051412
9.789530266343826,0.06699935038091112,-1.3,-0.5440008661587852
9.79752824858757,0.04749207661568245,-1.3,-0.5700105645124234
9.805526230831315,0.027984802850449464,-1.3,-0.5960202628660674
9.81352421307506,0.008477529085216456,-1.3,-0.6220299612197113
9.821522195318805,-0.011029744680012193,-1.3,-0.6480396595733495
9.82952017756255,-0.0305370184452452,-1.3,-0.6740493579269936
9.837518159806296,-0.05004429221047818,-1.3,-0.7000590562806376
9.845516142050041,-0.06955156597571119,-1.3,-0.7260687546342816
9.853514124293785,-0.08905883974093984,-1.3,-0.7520784529879198
9.86151210653753,-0.10856611350617285,-1.3,-0.7780881513415637
9.869510088781276,-0.12807338727140583,-1.3,-0.8040978496952078
9.87750807102502,-0.1475806610366345,-1.3,-0.830107548048846
9.885506053268765,-0.16708793480186748,-1.3,-0.85611724640249
9.89350403551251,-0.18659520856710046,-1.3,-0.882126944756134
9.901502017756254,-0.8928283177677961,-1.2071716822322038,-1.1
9.9095,0.3249999999996669,-0.1750000000003331,-1.1
9.917497982243745,0.8531845834743577,0.320935197479756,-1.2289975439784064
9.92549596448749,1.0165842207121685,0.4499349110885542,-1.366597238494458
9.933493946731234,1.1799838579499433,0.5789346246973237,-1.5041969330104787
9.94149192897498,1.3433834951877541,0.7079343383061218,-1.64179662752653
9.949489911218725,1.5067831324255652,0.83693405191492,-1.7793963220425815
9.957487893462469,1.67018276966334,0.9659337655236895,-1.9169960165586022
9.965485875706214,1.833582406901151,1.0949334791324876,-2.0545957110746533
9.97348385794996,1.996982044138962,1.2239331927412855,-2.192195405590705
9.981481840193705,2.160381681376773,1.3529329063500837,-2.3297951001067565
9.989479822437449,2.3237813186145475,1.4819326199588532,-2.467394794622777
9.997477804681195,2.4871809558523585,1.6109323335676513,-2.6049944891388286
10.00547578692494,0.18147699757807323,0.37663438256606185,-3.9213680387409915
10.013473769168684,-1.2157384987895612,-0.35786924939478065,-3.0683615819211547
10.02147175141243,-0.7588669177652139,-0.2166038920276219,-2.6750941619585675
10.029469733656175,-0.6077939198277991,-0.2343771859026119,-2.6484342211460823
10.037467715899918,-0.45672092189041763,-0.2521504797775979,-2.6217742803336033
10.045465698143664,-0.30564792395300266,-0.2699237736525879,-2.595114339521118
10.05346368038741,-0.15457492601558775,-0.2876970675275779,-2.5684543987086332
10.061461662631155,-0.0035019280781728446,-0.3054703614025679,-2.541794457896148
10.069459644874899,0.14757106985920865,-0.32324365527755394,-2.515134517083669
10.077457627118644,0.29864406779662345,-0.34101694915254394,-2.488474576271184
10.08545560936239,0.44971706573403847,-0.35879024302753393,-2.461814635458699
10.093453591606133,0.6007900636714197,-0.37656353690252,-2.43515469464622
10.101451573849879,0.7518630616088348,-0.39433683077751,-2.408494753833735
10.109449556093624,1.6027441485069172,-0.291283292978216,0.49862792574654136
10.117447538337368,-0.6956360274210542,-0.09563602742105423,2.0261838354736748
10.125445520581113,-0.6855119992644142,-0.08551199926441423,2.086928004413515
10.133443502824859,-0.6753879711077742,-0.07538797110777423,2.147672173353355
10.141441485068604,-0.6652639429511342,-0.06526394295113425,2.2084163422931944
10.149439467312348,-0.6551399147944964,-0.05513991479449649,2.269160511233021
10.157437449556094,-0.6450158866378565,-0.04501588663785649,2.329904680172861
10.165435431799839,-0.6348918584812164,-0.03489185848121648,2.390648849112701
10.173433414043583,-0.6247678303245787,-0.02476783032457873,2.451393018052528
10.181431396287328,-0.6146438021679387,-0.01464380216793873,2.5121371869923674
10.189429378531074,-0.6045197740112987,-0.00451977401129873,2.572881355932208
10.197427360774817,-0.4,0.0,3.3856133979014515
10.205425343018563,-0.4752746619228998,-0.01454431651594128,1.7970911366968119
10.213423325262308,-0.33653415361302774,-0.09615638022763073,1.7807687239544738
10.221421307506054,-0.19779364530315569,-0.17776844393932018,1.764446311212136
10.229419289749798,-0.05905313699331444,-0.2593805076509915,1.7481238984698018
10.237417271993543,0.07968737131655756,-0.34099257136268096,1.731801485727464
10.245415254237288,0.21842787962642973,-0.4226046350743704,1.715479072985126
10.253413236481032,0.3571683879362709,-0.5042166987860417,1.6991566602427917
10.261411218724778,0.495908896246143,-0.5858287624977312,1.6828342475004539
10.269409200968523,0.6346494045560152,-0.6674408262094207,1.6665118347581158
10.277407183212269,0.7733899128658872,-0.7490528899211101,1.650189422015778
10.285405165456012,0.9121304211757284,-0.8306649536327814,1.6338670092734437
10.293403147699758,1.0508709294856005,-0.9122770173444709,1.617544596531106
10.301401129943503,1.1896114377954725,-0.9938890810561604,1.6012221837887681
10.309399112187247,-1.6017132584928926,-0.14549490057965664,4.716307139188481
10.317397094430993,-2.0631961259081844,-0.15738498789330374,4.961743341404464
10.325395076674738,-1.172459179238822,-0.7568852051902945,4.551241252694033
10.333393058918482,-0.9263674178928646,-0.8184081455267838,4.498507303834185
10.341391041162227,-0.6802756565468526,-0.8799310858632867,4.4457733549743255
10.349389023405973,-0.4341838952008408,-0.9414540261997897,4.3930394061144655
10.357387005649718,-0.18809213385482892,-1.0029769665362926,4.340305457254606
10.365384987893462,0.0579996274911283,-1.064499906872782,4.287571508394758
10.373382970137207,0.3040913888371404,-1.126022847209285,4.234837559534898
10.381380952380953,0.5501831501831522,-1.187545787545788,4.182103610675039
10.389378934624697,0.7962749115291095,-1.2490687278822774,4.129369661815191
10.397376916868442,1.0423666728751213,-1.3105916682187804,4.076635712955331
10.405374899112187,1.2884584342211332,-1.3721146085552833,4.023901764095472
10.413372881355931,1.4406779661032756,-2.02372881355869,1.5135593220344252
10.421370863599677,-1.1679856151857773,-2.472805753925689,0.8864028769628446
10.429368845843422,-1.2692258967521772,-2.4323096412991294,0.8661548206495646
10.437366828087168,-1.3704661783185772,-2.3918135286725692,0.8459067643362845
10.445364810330911,-1.4717064598849547,-2.3513174160460184,0.8256587080230091
10.453362792574657,-1.5729467414513547,-2.3108213034194582,0.805410651709729
10.461360774818402,-1.6741870230177547,-2.270325190792898,0.7851625953964491
10.469358757062146,-1.7754273045841322,-2.2298290781663472,0.7649145390831735
10.477356739305892,-1.8766675861505322,-2.189332965539787,0.7446664827698936
10.485354721549637,-1.9779078677169322,-2.1488368529132273,0.7244184264566136
10.49335270379338,-2.0791481492833097,-2.1083407402866765,0.704170370143338
10.501350686037126,-0.7675343018562865,-2.4973970944311406,0.29739709443114054
10.509348668280872,-0.8170899262345841,-2.340185258178956,0.15727518441354
10.517346650524617,-0.8356898849409692,-2.275085402706608,0.11077528764757709
10.52534463276836,-0.8542898436473503,-2.2099855472342744,0.06427539088162451
10.533342615012106,-0.8728898023537354,-2.1448856917619263,0.017775494115661594
10.541340597255852,-0.8914897610601206,-2.0797858362895782,-0.028724402650301323
10.549338579499596,-0.9100897197665015,-2.0146859808172444,-0.07522429941625391
10.557336561743341,-0.9286896784728867,-1.9495861253448965,-0.1217241961822168
10.565334543987086,-0.947289637179272,-1.8844862698725484,-0.1682240929481797
10.573332526230832,-0.965889595885657,-1.8193864144002003,-0.21472398971414264
10.581330508474576,-0.9844895545920381,-1.7542865589278667,-0.2612238864800952
10.589328490718321,-1.1328490718321529,-1.4343018563356942,-0.6985472154964588
10.597326472962067,-1.4087319228886328,-1.2,-1.5218298072215826
10.60532445520581,-1.4218433691898522,-1.2,-1.5546084229746304
10.613322437449556,-1.4349548154910743,-1.2,-1.5873870387276858
10.621320419693301,-1.4480662617922964,-1.2,-1.620165654480741
10.629318401937045,-1.4611777080935155,-1.2,-1.652944270233789
10.63731638418079,-1.4742891543947376,-1.2,-1.6857228859868443
10.645314366424536,-1.48740060069596,-1.2,-1.7185015017398997
10.653312348668281,-1.500512046997182,-1.2,-1.7512801174929549
10.661310330912025,-1.5136234932984012,-1.2,-1.784058733246003
10.66930831315577,-1.5267349395996233,-1.2,-1.8168373489990581
10.677306295399516,-1.5398463859008453,-1.2,-1.8496159647521135
10.68530427764326,-1.5529578322020647,-1.2,-1.8823945805051616
10.693302259887005,-1.5660692785032868,-1.2,-1.9151731962582168
10.70130024213075,-1.5791807248045089,-1.2,-1.9479518120112722
10.709298224374495,-1.592292171105728,-1.2,-1.98073042776432
10.71729620661824,-2.5703793381760356,-0.8259483454400888,-2.640758676352071
10.725294188861985,-1.8278010125467732,0.2866387849438722,-2.7005392912172588
10.733292171105731,-0.4422774965146833,1.009501797637413,-3.179572969403497
10.741290153349475,1.8580306698949847,1.4274616626312693,-3.6580306698949845
10.74928813559322,2.076483050847466,0.8989406779661083,-3.9775423728813575
10.757286117836966,1.919379828202463,0.7704016776201968,-3.948978150582266
10.76528410008071,1.762276605557495,0.6418626772743139,-3.920413928283181
10.773282082324455,1.6051733829124921,0.5133236769284024,-3.8918497059840895
10.7812800645682,1.448070160267489,0.38478467658249105,-3.8632854836849977
10.789278046811946,1.2909669376224862,0.25624567623657957,-3.8347212613859063
10.79727602905569,1.1338637149775181,0.12770667589069662,-3.806157039086821
10.805274011299435,-0.6274011299434874,0.5654802259886975,-2.3416384180791177
10.81327199354318,-0.4949741252433163,0.6,-1.249741252433163
10.821269975786924,-0.4855647343683238,0.6,-1.155647343683238
10.82926795803067,-0.4761553434933292,0.6,-1.061553434933292
10.837265940274415,-0.4667459526183346,0.6,-0.9674595261833461
10.845263922518159,-0.45733656174334214,0.6,-0.8733656174334211
10.853261904761904,-0.44792717086834755,0.6,-0.7792717086834752
10.86125988700565,-0.43851777999335295,0.6,-0.6851777999335292
10.869257869249395,-0.42910838911835836,0.6,-0.5910838911835834
10.877255851493139,-0.4196989982433659,0.6,-0.49698998243365833
10.885253833736884,-0.4102896073683713,0.6,-0.4028960736837124
10.89325181598063,-0.4008802164933767,0.6,-0.30880216493376655
10.901249798224374,0.10520749260155551,0.6960943805488333,1.8052074926015556
10.90924778046812,0.13853241861716165,0.6711006860371287,1.8385324186171617
10.917245762711865,0.1718573446327678,0.6461069915254242,1.871857344632768
10.925243744955608,0.20518227064836658,0.6211132970137251,1.9051822706483665
10.933241727199354,0.23850719666397271,0.5961196025020205,1.9385071966639729
10.9412397094431,0.2718321226795789,0.5711259079903158,1.971832122679579
10.949237691686845,0.305157048695185,0.5461322134786113,2.0051570486951853
10.957235673930589,0.3384819747107838,0.5211385189669122,2.038481974710784
10.965233656174334,0.3718069007263899,0.4961448244552076,2.07180690072639
10.97323163841808,0.4051318267419961,0.47115112994350294,2.1051318267419963
10.981229620661823,0.4384567527575949,0.4461574354318039,2.138456752757595
10.989227602905569,0.471781678773201,0.42116374092009934,2.171781678773201
10.997225585149314,0.7451170298628762,0.4,2.383837772397157
11.00522356739306,1.183828600777749,0.3979785750972186,3.1020214249027815
11.013221549636803,1.1256614571868853,0.39070768214836066,3.1092923178516396
11.021219531880549,1.0674943135960087,0.38343678919950114,3.116563210800499
11.029217514124294,1.0093271700051323,0.37616589625064156,3.1238341037493584
11.037215496368038,0.9511600264142686,0.3688950033017836,3.1311049966982165
11.045213478611783,0.8929928828233921,0.361624110352924,3.138375889647076
11.053211460855529,0.8348257392325156,0.35435321740406445,3.1456467825959358
11.061209443099273,0.7766585956416518,0.3470823244552065,3.152917675544794
11.069207425343018,0.7184914520507754,0.3398114315063469,3.1601885684936533
11.077205407586764,0.6603243084598989,0.33254053855748733,3.1674594614425127
11.08520338983051,0.6021571648690223,0.3252696456086278,3.1747303543913725
11.093201372074253,0.5439900212781587,0.31799875265976985,3.18200124734023
11.101199354317998,0.48582287768728216,0.31072785971091027,3.18927214028909
11.109197336561744,0.42765573409640556,0.3034569667620507,3.1965430332379494
11.117195318805488,-0.7927091740649609,0.0,3.7707470182045606
11.125193301049233,-1.222679580306763,0.1789951573849639,4.41933010492331
11.133191283292978,2.5922894807640597,-0.6922894807640597,4.06156577885391
11.141189265536722,2.734475831763948,-0.834475831763948,3.848286252354078
11.149187247780468,2.876662182763868,-0.976662182763868,3.635006725854198
11.157185230024213,3.018848533763788,-1.118848533763788,3.421727199354318
11.165183212267959,3.1610348847637075,-1.2610348847637076,3.208447672854438
11.173181194511702,3.2501715092818655,-1.4113246569813942,2.975085754640933
11.181179176755448,0.7058111380134492,-1.9358353510896864,1.8104116222757838
11.189177158999193,-2.1694503942385253,-1.9969450394238526,0.6
11.197175141242937,-2.0925467188179123,-1.9892546718817912,0.6
11.205173123486682,-2.015643043397282,-1.9815643043397282,0.6
11.213171105730428,-1.9387393679766518,-1.9738739367976652,0.6
11.221169087974172,-1.8618356925560384,-1.9661835692556038,0.6
11.229167070217917,-1.7849320171354082,-1.9584932017135408,0.6
11.237165052461663,-1.7080283417147781,-1.9508028341714778,0.6
11.245163034705408,-1.6311246662941477,-1.9431124666294148,0.6
11.253161016949152,-1.5542209908735347,-1.9354220990873534,0.6
11.261158999192897,-1.4773173154529045,-1.9277317315452904,0.6
11.269156981436643,-1.4004136400322742,-1.9200413640032274,0.6
11.277154963680387,-1.3235099646116608,-1.912350996461166,0.6
11.285152945924132,-1.2466062891910306,-1.904660628919103,0.6
11.293150928167877,0.4969814366424364,-1.8969814366424362,0.6939628732848727
11.301148910411623,0.38822837229299845,-1.785285465366248,0.4882283722929984
11.309146892655367,0.3583293732509657,-1.747911716563707,0.4583293732509657
11.317144874899112,0.3284303742089263,-1.7105379677611579,0.42843037420892627
11.325142857142858,0.29853137516688694,-1.6731642189586087,0.3985313751668869
11.333140839386601,0.2686323761248542,-1.6357904701560677,0.36863237612485417
11.341138821630347,0.2387333770828148,-1.5984167213535185,0.3387333770828148
11.349136803874092,0.20883437804077543,-1.5610429725509694,0.3088343780407754
11.357134786117836,0.17893537899874268,-1.5236692237484284,0.27893537899874266
11.365132768361581,0.14903637995670332,-1.4862954749458792,0.2490363799567033
11.373130750605327,0.11913738091466392,-1.44892172614333,0.2191373809146639
11.381128732849072,0.08923838187262456,-1.4115479773407809,0.18923838187262454
11.389126715092816,0.059339382830591814,-1.37417422853824,0.1593393828305918
11.397124697336562,0.029440383788552404,-1.3368004797356905,0.12944038378855238
11.405122679580307,-0.03680387409231592,-1.263196125907684,0.06933010492307007
11.41312066182405,-1.412066182405064,-0.2560330912025319,-2.48016545601266
11.421118644067796,-1.5312907431551495,-0.2921773142112126,-2.7078226857887877
11.429116626311542,-1.5664467090617227,-0.2833883227345693,-2.7166116772654307
11.437114608555285,-1.601602674968288,-0.274599331257928,-2.725400668742072
11.445112590799031,-1.6367586408748611,-0.2658103397812847,-2.7341896602187155
11.453110573042776,-1.6719146067814343,-0.2570213483046414,-2.7429786516953585
11.461108555286522,-1.7070705726880073,-0.24823235682799816,-2.751767643172002
11.469106537530266,-1.7422265385945728,-0.2394433653513568,-2.760556634648643
11.477104519774011,-1.7773825045011458,-0.23065437387471355,-2.7693456261252862
11.485102502017757,-1.812538470407719,-0.22186538239807024,-2.7781346176019297
11.4931004842615,-1.8476944363142842,-0.21307639092142894,-2.786923609078571
11.501098466505246,-1.8828504022208574,-0.20428739944478563,-2.7957126005552144
11.509096448748991,-1.7907613666935775,-0.063451708366972,-2.6088323917137606
11.517094430992735,-1.5774818401937283,0.20314769975783964,-2.2355932203390245
11.52509241323648,1.8961947490861124,1.197961472724703,-4.199456392726588
11.533090395480226,1.5668660684612965,1.0215353938185516,-4.152409438351614
11.541088377723971,1.2375373878364806,0.8451093149124003,-4.1053624839766405
11.549086359967715,0.908208707211738,0.6686832360062882,-4.058315529601677
11.55708434221146,0.5788800265869221,0.49225715710013684,-4.011268575226703
11.565082324455206,0.24955134596210615,0.3158310781939855,-3.9642216208517294
11.57308030669895,-0.07977733466263648,0.1394049992878732,-3.9171746664767664
11.581078288942695,-0.40910601528745216,-0.03702107961827794,-3.8701277121017923
11.58907627118644,-0.7384346959122681,-0.2134471585244293,-3.8230807577268187
11.597074253430186,-1.4,0.3153464775740891,-3.107921134555465
11.60507223567393,-0.8939762040790407,0.5024095183683838,-1.8927714448948487
11.613070217917675,-0.8490437195636168,0.5203825121745533,-1.8388524634763401
11.621068200161421,-0.8041112350481929,0.5383555059807228,-1.7849334820578313
11.629066182405165,-0.7591787505327791,0.5563284997868884,-1.7310145006393347
11.63706416464891,-0.7142462660173552,0.5743014935930579,-1.6770955192208261
11.645062146892656,-0.6693137815019313,0.5922744873992274,-1.6231765378023175
11.6530601291364,-0.6243812969865175,0.610247481205393,-1.569257556383821
11.661058111380145,-0.5794488124710937,0.6282204750115625,-1.5153385749653123
11.66905609362389,-0.5345163279556697,0.6461934688177321,-1.4614195935468037
11.677054075867636,-0.4895838434402459,0.6641664626239017,-1.4075006121282951
11.68505205811138,-0.44465135892483204,0.6821394564300671,-1.3535816307097983
11.693050040355125,-0.394995964487467,0.7075060532687995,-1.2874899112186675
11.70104802259887,0.3,0.2959842694139792,0.6100393264650519
11.709046004842614,0.3,0.2803019512889916,0.6492451217775209
11.71704398708636,0.3,0.2646196331640005,0.6884509170899987
11.725041969330105,0.3,0.2489373150390094,0.7276567124024764
11.733039951573849,0.3,0.2332549969140218,0.7668625077149455
11.741037933817594,0.3,0.2175726787890307,0.8060683030274233
11.74903591606134,0.3,0.20189036066403962,0.845274098339901
11.757033898305085,0.3,0.18620804253904852,0.8844798936523788
11.765031880548829,0.3,0.17052572441406091,0.9236856889648477
11.773029862792574,0.3,0.1548434062890698,0.9628914842773255
11.78102784503632,0.3,0.1391610881640787,1.0020972795898033
11.789025827280064,0.3,0.1234787700390911,1.0413030749022723
11.79702380952381,0.3,0.1077964519141,1.08050887021475
11.805021791767555,-0.2,-0.17080594949844585,2.4167762020062167
11.8130197740113,-0.004856066720479531,0.003237377813653021,4.017805577975092
11.821017756255044,-0.04294169645259205,0.028627797635061365,4.1574528869928375
11.82901573849879,-0.08102732618471303,0.05401821745647535,4.297100196010614
11.837013720742535,-0.119112955916834,0.07940863727788934,4.436747505028391
11.845011702986278,-0.1571985856489465,0.10479905709929768,4.576394814046137
11.853009685230024,-0.1952842153810675,0.13018947692071167,4.716042123063914
11.86100766747377,-0.23336984511318848,0.15557989674212566,4.855689432081691
11.869005649717513,-0.27145547484530097,0.180970316563534,4.995336741099437
11.877003631961259,-1.199092009685508,0.6001815980628984,6.300363196125796
11.885001614205004,4.999977786169665,-4.442766066963195e-06,4.699968900637532
11.89299959644875,4.889913810338306,-0.022017237932338937,4.545879334473628
11.900997578692493,4.77984983450697,-0.04403003309860602,4.391789768309758
11.908995560936239,4.66978585867561,-0.06604282826487799,4.237700202145854
11.916993543179984,4.55972188284425,-0.08805562343114998,4.08361063598195
11.924991525423728,4.449657907012915,-0.11006841859741706,3.9295210698180805
11.932989507667473,4.339593931181555,-0.13208121376368903,3.775431503654177
11.940987489911219,4.229529955350195,-0.154094008929961,3.621341937490273
11.948985472154963,4.11946597951886,-0.1761068040962281,3.4672523713264036
11.956983454398708,4.0094020036875,-0.19811959926250006,3.3131628051624995
11.964981436642454,3.89933802785614,-0.22013239442877203,3.159073238998596
11.972979418886199,3.78927405202478,-0.24214518959504402,3.004983672834692
11.980977401129943,3.6792100761934448,-0.2641579847613111,2.8508941066708227
11.988975383373688,3.569146100362085,-0.28617077992758305,2.6968045405069185
11.996973365617434,-2.070702179177283,-1.4946731234867787,0.807990314769832
12.004971347861177,-2.0413624946256053,-1.9456069486245293,0.5869694432501344
12.012969330104923,-1.9740897467810177,-1.9979301969480974,0.572019943729115
12.020967312348668,-1.90681699893643,-2.0502534452716654,0.5570704442080956
12.028965294592414,-1.8395442510918425,-2.1025766935952337,0.5421209446870761
12.036963276836158,-1.77227150324727,-2.15489994191879,0.52717144516606
12.044961259079903,-1.7049987554026824,-2.207223190242358,0.5122219456450405
12.052959241323649,-1.637726007558095,-2.259546438565926,0.4972724461240211
12.060957223567392,-1.5704532597135223,-2.3118696868894824,0.482322946603005
12.068955205811138,-1.503180511868935,-2.3641929352130506,0.4673734470819856
12.076953188054883,-1.4359077640243474,-2.4165161835366185,0.45242394756096616
12.084951170298627,-1.368635016179775,-2.468839431860175,0.43747444803995
12.092949152542372,-1.3013622683351873,-2.521162680183743,0.4225249485189306
12.100947134786118,-1.2340895204906,-2.5734859285073113,0.4075754489979111
12.108945117029863,-0.052744148506829555,-1.8801856335751248,0.21097659402731822
12.116943099273607,-1.5333219656924586,-0.6944463390512569,-1.0388756266412016
12.124941081517353,-1.60091054803397,-0.6831815753276717,-1.1177289727062982
12.132939063761098,-1.6684991303754815,-0.6719168116040865,-1.1965823187713949
12.140937046004842,-1.7360877127169778,-0.6606520478805037,-1.275435664836474
12.148935028248587,-1.803676295058489,-0.6493872841569185,-1.3542890109015706
12.156933010492333,-1.8712648774000005,-0.6381225204333332,-1.4331423569666673
12.164930992736076,-1.9388534597414968,-0.6268577567097505,-1.5119957030317464
12.172928974979822,-2.006442042083008,-0.6155929929861652,-1.590849049096843
12.180926957223567,-2.0740306244245197,-0.60432822926258,-1.6697023951619396
12.188924939467313,-3.092493946731283,0.19249394673128262,-3.554963680387696
12.196922921711057,-2.612435587011899,0.3218911032470252,-3.4781088967529747
12.204920903954802,-2.267902154342833,0.4353076302228835,-3.3839510771714165
12.212918886198548,-2.1800122395763983,0.5319865364659615,-3.340006119788199
12.220916868442291,-2.0921223248099836,0.628665442709018,-3.2960611624049916
12.228914850686037,-2.004232410043549,0.7253443489520961,-3.2521162050217747
12.236912832929782,-1.9163424952771144,0.822023255195174,-3.2081712476385573
12.244910815173526,-1.8284525805106995,0.9187021614382307,-3.1642262902553497
12.252908797417271,-1.7405626657442648,1.0153810676813086,-3.1202813328721324
12.260906779661017,-1.6526727509778305,1.1120599739243868,-3.076336375488915
12.268904761904762,-1.5647828362113958,1.2087388801674646,-3.0323914181056977
12.276902744148506,-1.4768929214449809,1.3054177864105212,-2.98844646072249
12.284900726392252,-1.3890030066785464,1.4020966926535992,-2.944501503339273
12.292898708635997,-1.3011130919121117,1.4987755988966773,-2.900556545956056
12.30089669087974,2.511240454460789,2.151291364003247,-3.3962531818464035
12.308894673123486,2.534311557086978,2.0513165859564277,-3.3885628143043407
12.316892655367232,2.5573826597131673,1.9513418079096085,-3.3808724467622775
12.324890637610977,2.5804537623393564,1.8513670298627893,-3.3731820792202143
12.332888619854721,2.6035248649655403,1.7513922518159921,-3.3654917116781533
12.340886602098466,2.6265959675917294,1.6514174737691727,-3.35780134413609
12.348884584342212,2.649667070217918,1.5514426957223535,-3.350110976594027
12.356882566585956,2.6727381728441024,1.4514679176755565,-3.342420609051966
12.364880548829701,2.695809275470291,1.351493139628737,-3.3347302415099027
12.372878531073447,2.7188803780964803,1.2515183615819176,-3.3270398739678395
12.38087651331719,2.741951480722664,1.1515435835351207,-3.3193495064257785
12.388874495560936,2.7650225833488533,1.0515688054883015,-3.3116591388837153
12.396872477804681,2.7880936859750425,0.951594027441482,-3.303968771341652
12.404870460048427,-0.07875302663459965,-0.02590799031469107,-2.4388619854720366
12.41286844229217,0.10732421210263572,0.4,-0.891629471882702
12.420866424535916,0.17477707439928566,0.4,-0.8145404864008164
12.428864406779661,0.2422299366959356,0.4,-0.7374515009189307
12.436862389023405,0.30968279899257056,0.4,-0.6603625154370623
12.44486037126715,0.3771356612892205,0.4,-0.5832735299551766
12.452858353510896,0.4445885235858704,0.4,-0.5061845444732909
12.46085633575464,0.5120413858825055,0.4,-0.4290955589914224
12.468854317998385,0.5794942481791554,0.4,-0.3520065735095367
12.47685230024213,0.6469471104758053,0.4,-0.2749175880276511
12.484850282485876,0.7143999727724553,0.4,-0.1978286025457654
12.49284826472962,0.7818528350690902,0.4,-0.12073961706389691
12.500846246973365,0.8,0.5948748991121999,0.28974979822439995
12.508844229217111,0.357788539144424,-0.1266343825667281,1.5110573042778803
12.516842211460855,0.20781001848524874,-0.4078100184852488,2.4390500924262435
12.5248401937046,0.2207099898461287,-0.4207099898461287,2.5035499492306434
12.532838175948346,0.2336099612070086,-0.4336099612070086,2.568049806035043
12.54083615819209,0.2465099325678857,-0.4465099325678857,2.6325496628394283
12.548834140435835,0.2594099039287656,-0.45940990392876563,2.697049519643828
12.55683212267958,0.27230987528964556,-0.4723098752896456,2.7615493764482277
12.564830104923326,0.2852098466505255,-0.4852098466505255,2.8260492332526272
12.57282808716707,0.29810981801140257,-0.4981098180114026,2.890549090057013
12.580826069410815,0.9,-0.33140077123128253,4.1099026993094885
12.58882405165456,0.9,-0.420267240606229,4.420935342121801
12.596822033898304,0.9017305976806401,-0.4982694023193599,4.708652988403201
12.60482001614205,0.9185684550358937,-0.4814315449641064,4.792842275179468
12.612817998385795,0.9354063123911471,-0.46459368760885283,4.877031561955736
12.62081598062954,0.9522441697464007,-0.44775583025359933,4.961220848732004
12.628813962873284,0.9690820271016505,-0.43091797289834954,5.045410135508252
12.63681194511703,0.985919884456904,-0.414080115543096,5.12959942228452
12.644809927360775,1.0027577418121576,-0.3972422581878424,5.213788709060788
12.652807909604519,1.0195955991674075,-0.38040440083259264,5.297977995837037
12.660805891848264,1.036433456522661,-0.3635665434773391,5.382167282613304
12.66880387409201,1.0532713138779144,-0.34672868612208557,5.466356569389572
12.676801856335754,1.0701091712331643,-0.32989082876683573,5.550545856165821
12.684799838579499,1.0869470285884177,-0.3130529714115822,5.634735142942089
12.692797820823245,2.3983656174331163,0.759564164648831,5.720762711864546
12.70079580306699,1.4296817602377279,-0.8672308841166865,3.641733233765539
12.708793785310734,1.1456412693384215,-0.9793521305243074,3.544561486878934
12.71679176755448,0.8616007784390521,-1.0914733769319531,3.4473897399923077
12.724789749798225,0.5775602875396828,-1.2035946233395989,3.350217993105681
12.732787732041968,0.2935197966403764,-1.3157158697472198,3.253046246219076
12.740785714285714,0.009479305741006971,-1.4278371161548655,3.15587449933245
12.74878369652946,-0.2745611851583625,-1.5399583625625113,3.0587027524458232
12.756781678773203,-0.5586016760576689,-1.6520796089701322,2.9615310055592188
12.764779661016949,-0.8426421669570381,-1.7642008553777782,2.864359258672592
12.772777643260694,-1.1266826578564078,-1.8763221017854237,2.767187511785966
12.78077562550444,-1.410723148755777,-1.9884433481930697,2.6700157648993397
12.788773607748183,-1.6947636396550831,-2.100564594600691,2.5728440180127348
12.796771589991929,-1.9788041305544528,-2.2126858410083363,2.4756722711261085
12.804769572235674,-2.624697336561706,-2.5123486682808527,2.046085552865245
12.812767554479418,-2.2348668280873873,-3.2348668280873873,0.988377723970871
12.820765536723163,-1.8840810900631448,-2.776121635094717,0.9920405450315725
12.828763518966909,-1.8652623083131552,-2.7478934624697327,0.9826311541565776
12.836761501210654,-1.8464435265631656,-2.719665289844748,0.9732217632815828
12.844759483454398,-1.8276247448131802,-2.6914371172197704,0.9638123724065901
12.852757465698144,-1.8088059630631905,-2.663208944594786,0.9544029815315953
12.860755447941889,-1.7899871813132011,-2.6349807719698015,0.9449935906566006
12.868753430185633,-1.7711683995632157,-2.6067525993448237,0.9355841997816079
12.876751412429378,-1.752349617813226,-2.5785244267198393,0.9261748089066131
12.884749394673124,-1.7335308360632364,-2.550296254094855,0.9167654180316183
12.892747376916867,-1.7147120543132512,-2.5220680814698766,0.9073560271566257
12.900745359160613,-1.7,-2.325464083938678,0.8127320419693391
12.908743341404358,-1.9025880579286394,-1.184471652428163,-0.40776417378591845
12.916741323648104,-1.9101333241963239,-1.1392000548220567,-0.4303999725889717
12.924739305891848,-1.9176785904640066,-1.09392845721596,-0.45303577139201995
12.932737288135593,-1.925223856731691,-1.0486568596098536,-0.4756715701950732
12.940735270379339,-1.9327691229993755,-1.003385262003747,-0.4983073689981265
12.948733252623082,-1.9403143892670582,-0.9581136643976504,-0.5209431678011748
12.956731234866828,-1.9478596555347427,-0.9128420667915439,-0.543578966604228
12.964729217110573,-1.955404921802427,-0.8675704691854373,-0.5662147654072813
12.972727199354317,-1.96295018807011,-0.8222988715793409,-0.5888505642103296
12.980725181598062,-1.9704954543377942,-0.7770272739732342,-0.6114863630133829
12.988723163841808,-1.9780407206054786,-0.7317556763671277,-0.6341221618164361
12.996721146085553,-1.9855859868731631,-0.6864840787610211,-0.6567579606194893
13.004719128329297,-1.9931312531408458,-0.6412124811549246,-0.6793937594225377
13.012717110573043,-2.0,-0.31315577078298723,-1.1302663438255192
13.020715092816788,-2.0428490718321237,-0.05715092816787626,-1.928603712671505
13.028713075060532,-1.3610664758969881,0.13893352410301166,-2.0870221586323296
13.036711057304277,-1.179294152175502,0.3207058478244979,-2.0264313840585007
13.044709039548023,-0.9975218284540157,0.5024781715459842,-1.965840609484672
13.052707021791768,-0.8157495047325295,0.6842504952674704,-1.9052498349108433
13.060705004035512,-0.6339771810110836,0.8660228189889163,-1.8446590603370279
13.068702986279257,-0.45220485728959736,1.0477951427104026,-1.7840682857631993
13.076700968523003,-0.27043253356811103,1.229567466431889,-1.7234775111893705
13.084698950766747,-0.08866020984666534,1.4113397901533347,-1.662886736615555
13.092696933010492,0.09311211387482099,1.593112113874821,-1.6022959620417265
13.100694915254238,-0.03898305084747089,-0.11559322033898833,-3.346101694915253
13.108692897497981,-0.4825727627612812,-0.27676368368170823,-3.270954604602135
13.116690879741727,-0.4580891436477748,-0.24411885819703305,-3.230148572746291
13.124688861985472,-0.4336055245342684,-0.21147403271235787,-3.189342540890447
13.132686844229218,-0.40912190542076204,-0.17882920722768267,-3.1485365090346034
13.140684826472961,-0.38463828630726105,-0.14618438174301474,-3.107730477178768
13.148682808716707,-0.36015466719375466,-0.11353955625833953,-3.066924445322924
13.156680790960452,-0.3356710480802483,-0.08089473077366435,-3.0261184134670804
13.164678773204196,-0.31118742896674734,-0.04824990528899642,-2.9853123816112452
13.172676755447942,-0.28670380985324095,-0.015605079804321187,-2.944506349755401
13.180674737691687,-0.26222019073973457,0.01703974568035399,-2.9037003178995575
13.18867271993543,-0.23773657162623363,0.049684571165021896,-2.8628942860437223
13.196670702179176,-0.2132529525127272,0.08232939664969713,-2.8220882541878787
13.204668684422922,0.3003026634382232,-0.2,-1.3662631154157023
