accel_time_list,vertical_Accel_x,vertical_Accel_y,vertical_Accel_z
0.0,0.109,8.429,-5.444
0.007998588899341486,0.24861036962997807,8.27173095994042,-5.563764988044841
0.015997177798682972,0.21344990592662277,8.261566086547507,-5.53785289275635
0.02399576669802446,0.17828944222326748,8.251401213154594,-5.511940797467858
0.031994355597365944,0.1431289785199122,8.24123633976168,-5.486028702179366
0.03999294449670743,0.10796851481655692,8.231071466368768,-5.460116606890875
0.04799153339604892,0.0728080511132016,8.220906592975854,-5.434204511602383
0.0559901222953904,0.037647587409846334,8.210741719582941,-5.408292416313891
0.06398871119473189,0.002487123706491068,8.200576846190028,-5.3823803210254
0.07198730009407338,-0.032673339996864226,8.190411972797115,-5.356468225736909
0.07998588899341486,-0.06783380370021946,8.180247099404202,-5.330556130448417
0.08798447789275635,-0.10299426740357481,8.170082226011289,-5.304644035159925
0.09598306679209784,-0.1381547311069301,8.159917352618375,-5.278731939871434
0.10398165569143931,-0.19255973659454367,8.147073377234243,-5.037090780809032
0.1119802445907808,-0.3317692484582419,8.17019124072332,-5.629373095014111
0.11997883349012228,-0.3217265757290687,8.196231091251176,-5.599778316086548
0.12797742238946377,-0.3116839029998955,8.222270941779032,-5.570183537158984
0.13597601128880527,-0.3016412302707223,8.248310792306889,-5.54058875823142
0.14397460018814676,-0.29159855754154906,8.274350642834744,-5.510993979303857
0.15197318908748822,-0.2815558848123759,8.3003904933626,-5.481399200376294
0.1599717779868297,-0.2715132120832027,8.326430343890458,-5.45180442144873
0.1679703668861712,-0.26147053935402953,8.352470194418313,-5.4222096425211666
0.1759689557855127,-0.2514278666248563,8.37851004494617,-5.392614863593603
0.18396754468485418,-0.24138519389568308,8.404549895474027,-5.363020084666039
0.19196613358419568,-0.23134252116650988,8.430589746001882,-5.3334253057384755
0.19996472248353714,-0.22129984843733674,8.456629596529739,-5.303830526810913
0.20796331138287863,-0.36515428033866537,8.160715898400753,-5.41180714957667
0.21596190028222012,-0.34712729746406495,8.152325863097948,-5.413825190422723
0.2239604891815616,-0.33620449326819,8.142607147553587,-5.416663399387005
0.2319590780809031,-0.3252816890723151,8.132888432009226,-5.419501608351288
0.23995766698024457,-0.3143588848764402,8.123169716464865,-5.422339817315571
0.24795625587958606,-0.30343608068056527,8.113451000920502,-5.425178026279853
0.25595484477892755,-0.29251327648469033,8.103732285376141,-5.428016235244136
0.263953433678269,-0.2815904722888154,8.09401356983178,-5.430854444208418
0.27195202257761053,-0.27066766809294046,8.08429485428742,-5.433692653172701
0.279950611476952,-0.2597448638970655,8.074576138743058,-5.4365308621369826
0.2879492003762935,-0.2488220597011906,8.064857423198697,-5.439369071101265
0.295947789275635,-0.23789925550531568,8.055138707654336,-5.442207280065547
0.30394637817497644,-0.11901317027280955,7.804204139228604,-5.08690122295391
0.31194496707431796,0.03244967074317959,7.733733772342427,-5.017458607714017
0.3199435559736594,0.08944071677112975,7.662881694227521,-4.933678552403405
0.32794214487300094,0.07479269854582962,7.70354921851092,-4.796546118623128
0.3359407337723424,0.060144680320529595,7.744216742794318,-4.6594136848428525
0.34393932267168387,0.04549666209522957,7.784884267077717,-4.5222812510625765
0.3519379115710254,0.030848643869929443,7.825551791361116,-4.3851488172823
0.35993650047036685,0.016200625644629416,7.866219315644515,-4.248016383502024
0.36793508936970837,0.001552607419329291,7.906886839927914,-4.110883949721747
0.37593367826904983,-0.013095410805970736,7.947554364211313,-3.9737515159414714
0.38393226716839135,-0.02774342903127086,7.988221888494712,-3.836619082161194
0.3919308560677328,-0.042391447256570874,8.02888941277811,-3.6994866483809186
0.3999294449670743,-0.057039465481870916,8.06955693706151,-3.5623542146006426
0.4079280338664158,-0.27422342427093105,6.938895108184371,-3.559928033866416
0.41592662276575726,-0.388013117422601,5.628852896720116,-3.1034696375532467
0.4239252116650988,-0.30452222879913726,5.6265162303000835,-3.053500924878709
0.43192380056444024,-0.22103134017567413,5.624179563880051,-3.003532212204171
0.4399223894637817,-0.137540451552211,5.621842897460019,-2.9535634995296336
0.4479209783631232,-0.0540495629287473,5.619506231039987,-2.9035947868550953
0.4559195672624647,0.029441325694715803,5.617169564619954,-2.853626074180558
0.4639181561618062,0.11293221431817951,5.614832898199921,-2.8036573615060196
0.47191674506114767,0.1964231029416426,5.61249623177989,-2.7536886488314822
0.47991533396048913,0.2799139915651058,5.610159565359857,-2.7037199361569444
0.48791392285983065,0.3634048801885695,5.607822898939824,-2.653751223482406
0.4959125117591721,0.4468957688120326,5.605486232519793,-2.6037825108078687
0.5039111006585136,-1.0366650987770445,5.8052417685794895,-0.5844035747883387
0.5119096895578551,-2.952233792793162,7.32269847437523,0.990061106793734
0.5199082784571966,-2.8545119023272942,7.426419306515603,0.9615443985439079
0.527906867356538,-2.7567900118614266,7.530140138655977,0.9330276902940818
0.5359054562558796,-2.659068121395558,7.633860970796352,0.9045109820442554
0.5439040451552211,-2.5613462309296904,7.737581802936726,0.8759942737944293
0.5519026340545625,-2.4636243404638227,7.841302635077099,0.8474775655446032
0.559901222953904,-2.3659024499979555,7.945023467217473,0.8189608572947771
0.5678998118532455,-2.268180559532088,8.048744299357846,0.790444149044951
0.575898400752587,-2.1704586690662193,8.152465131498221,0.7619274407951245
0.5838969896519285,-2.0727367786003517,8.256185963638595,0.7334107325452984
0.59189557855127,-1.9750148881344842,8.359906795778969,0.7048940242954723
0.5998941674506114,-1.8772929976686166,8.463627627919342,0.6763773160456462
0.6078927563499529,-4.35419114352494,10.036068450504795,-3.2068013790963135
0.6158913452492945,-4.233057874523571,10.09708861324204,-3.220077387475633
0.6238899341486359,-4.111924605522204,10.158108775979283,-3.2333533958549525
0.6318885230479774,-3.9907913365208367,10.219128938716528,-3.246629404234272
0.6398871119473188,-3.8696580675194694,10.280149101453773,-3.259905412613591
0.6478857008466603,-3.7485247985181025,10.341169264191016,-3.2731814209929104
0.6558842897460019,-3.627391529516734,10.402189426928262,-3.2864574293722297
0.6638828786453433,-3.5062582605153665,10.463209589665505,-3.2997334377515495
0.6718814675446848,-3.385124991513999,10.52422975240275,-3.313009446130869
0.6798800564440263,-3.2639917225126323,10.585249915139993,-3.326285454510188
0.6878786453433677,-3.1428584535112654,10.646270077877238,-3.3395614628895074
0.6958772342427093,-3.0217251845098962,10.707290240614483,-3.3528374712688267
0.7038758231420508,-2.823718250235182,11.057759172154281,-2.47480761994355
0.7118744120413922,-2.0394470975596266,11.74580183719772,-0.9783378617674734
0.7198730009407337,-1.658808366996848,11.840843893531071,-0.6833310829505855
0.7278715898400752,-1.263253974600192,11.887925864299154,-0.5583177151928506
0.7358701787394167,-0.8581254468485418,11.904222989181562,-0.5424205197554092
0.7438687676387582,-0.452996919096897,11.92052011406397,-0.526523324317968
0.7518673565380997,-0.04786839134525245,11.936817238946379,-0.5106261288805269
0.7598659454374411,0.3572601364063923,11.953114363828787,-0.49472893344308577
0.7678645343367827,0.7623886641580426,11.969411488711195,-0.4788317380056444
0.7758631232361242,1.1675171919096872,11.985708613593603,-0.4629345425682032
0.7838617121354656,1.5726457196613322,12.002005738476011,-0.4470373471307621
0.7918603010348071,1.9777742474129767,12.01830286335842,-0.431140151693321
0.7998588899341486,2.382902775164622,12.034599988240828,-0.4152429562558798
0.8078574788334901,4.4880244590780585,11.631079021636884,1.660116650987774
0.8158560677328316,6.708492693634368,10.334377694156998,1.4649349012229536
0.823854656632173,6.727422687362809,10.334999806626946,1.5241244590780803
0.8318532455315145,6.746352681091251,10.335621919096894,1.5833140169332072
0.839851834430856,6.765282674819693,10.336244031566844,1.642503574788334
0.8478504233301976,6.784212668548134,10.336866144036792,1.7016931326434617
0.855849012229539,6.803142662276576,10.337488256506742,1.7608826904985886
0.8638476011288805,6.822072656005017,10.33811036897669,1.8200722483537155
0.871846190028222,6.841002649733459,10.33873248144664,1.8792618062088422
0.8798447789275634,6.8599326434619,10.339354593916587,1.9384513640639691
0.887843367826905,6.878862637190342,10.339976706386537,1.9976409219190967
0.8958419567262464,6.897792630918783,10.340598818856485,2.0568304797742236
0.9038405456255879,6.799218720602072,10.559722013170266,2.3520693791157035
0.9118391345249294,4.615240430647018,11.187028096582003,1.2386458241873113
0.9198377234242708,4.5126807463154615,11.14916810912512,1.1971420351207283
0.9278363123236124,4.4101210619839035,11.111308121668236,1.1556382460541446
0.9358349012229539,4.307561377652347,11.073448134211352,1.1141344569875615
0.9438334901222953,4.205001693320791,11.035588146754469,1.0726306679209787
0.9518320790216368,4.102442008989234,10.997728159297587,1.0311268788543957
0.9598306679209783,3.999882324657678,10.959868171840704,0.9896230897878127
0.9678292568203198,3.8973226403261205,10.92200818438382,0.948119300721229
0.9758278457196613,3.7947629559945644,10.884148196926937,0.906615511654646
0.9838264346190028,3.6922032716630078,10.846288209470053,0.865111722588063
0.9918250235183442,3.5896435873314516,10.808428222013172,0.8236079335214801
0.9998236124176857,3.4870839029998955,10.770568234556288,0.7821041444548971
1.0078222013170273,1.1501345249294461,7.575917685794926,0.3961773283160861
1.0158207902163687,1.1511845709545918,7.483587073508734,0.4056343327365237
1.0238193791157102,1.1626234131439726,7.446346331644059,0.41139675699733963
1.0318179680150517,1.1740622553333533,7.409105589779383,0.41715918125815554
1.0398165569143931,1.1855010975227342,7.371864847914707,0.4229216055189714
1.0478151458137346,1.196939939712115,7.334624106050031,0.4286840297797873
1.055813734713076,1.2083787819014957,7.297383364185356,0.4344464540406032
1.0638123236124177,1.219817624090877,7.260142622320679,0.44020887830141925
1.0718109125117592,1.2312564662802576,7.222901880456003,0.44597130256223516
1.0798095014111007,1.2426953084696386,7.1856611385913265,0.451733726823051
1.0878080903104421,1.2541341506590193,7.148420396726651,0.45749615108386693
1.0958066792097836,1.2655729928484,7.111179654861975,0.46325857534468284
1.103805268109125,1.757476952022571,6.814373471307622,0.6089397930385669
1.1118038570084665,2.0705813734713043,7.019072436500465,0.8270253998118502
1.119802445907808,1.4445474038042363,8.216814067411606,0.6949565885781179
1.1278010348071494,1.4001649897895978,8.214960735837368,0.505136417869356
1.135799623706491,1.355782575774959,8.21310740426313,0.3153162471605942
1.1437982126058326,1.3114001617603193,8.211254072688893,0.12549607645182703
1.151796801505174,1.2670177477456808,8.209400741114655,-0.06432409425693486
1.1597953904045155,1.2226353337310423,8.207547409540418,-0.25414426496569664
1.167793979303857,1.1782529197164036,8.20569407796618,-0.44396443567445854
1.1757925682031984,1.133870505701765,8.203840746391942,-0.6337846063832204
1.18379115710254,1.0894880916871266,8.201987414817705,-0.8236047770919823
1.1917897460018814,1.0451056776724879,8.200134083243467,-1.0134249478007442
1.1997883349012228,1.0007232636578494,8.198280751669229,-1.203245118509506
1.2077869238005643,-1.2872405926622132,7.643037550956417,-1.5753389777359663
1.2157855126999058,-6.273151661250318,8.220260316001026,-0.8731528585478641
1.2237841015992474,-6.342503062729838,8.229622300735484,-0.37969445929188583
1.231782690498589,-6.411854464209355,8.23898428546994,0.11376393996407863
1.2397812793979304,-6.481205865688873,8.248346270204395,0.6072223392200431
1.2477798682972718,-6.55055726716839,8.257708254938853,1.1006807384760076
1.2557784571966133,-6.619908668647908,8.26707023967331,1.5941391377319722
1.2637770460959548,-6.689260070127426,8.276432224407765,2.0875975369879365
1.2717756349952962,-6.758611471606943,8.285794209142223,2.581055936243901
1.2797742238946377,-6.827962873086461,8.295156193876679,3.074514335499866
1.2877728127939791,-6.897314274565979,8.304518178611135,3.5679727347558305
1.2957714016933206,-6.966665676045496,8.313880163345592,4.061431134011794
1.3037699905926623,-7.310199435559737,9.509990592662277,8.311377234242707
1.3117685794920038,0.567840422921172,12.41382635281609,28.34135964661131
1.3197671683913452,2.4352501073663415,8.58032874043931,29.099834533109735
1.3277657572906867,4.30265979181151,4.74683112806253,29.858309419608158
1.3357643461900282,6.170069476256679,0.9133335156857516,30.61678430610658
1.3437629350893696,8.03747916070185,-2.92016409669103,31.375259192605007
1.351761523988711,9.904888845147019,-6.753661709067808,32.133734079103434
1.3597601128880525,11.772298529592188,-10.587159321444586,32.89220896560185
1.367758701787394,13.639708214037357,-14.420656933821368,33.65068385210028
1.3757572906867355,15.507117898482527,-18.254154546198144,34.409158738598705
1.3837558795860772,17.374527582927747,-22.087652158575033,35.167633625097146
1.3917544684854186,19.241937267372915,-25.921149770951814,35.92610851159557
1.39975305738476,21.109346951818086,-29.754647383328596,36.68458339809399
1.4077516462841015,23.892866415804296,-13.216923800564253,24.65132173095005
1.415750235183443,4.314954813068801,6.0918936125233865,5.969792869449406
1.4237488240827845,3.9245517773526286,5.530734184574082,5.039440147134992
1.431747412982126,3.5341487416364563,4.969574756624777,4.1090874248205775
1.4397460018814674,3.143745705920284,4.408415328675472,3.178734702506164
1.4477445907808089,2.7533426702041117,3.8472559007261675,2.2483819801917493
1.4557431796801503,2.3629396344879394,3.286096472776863,1.3180292578773356
1.463741768579492,1.9725365987717565,2.7249370448275427,0.3876765355628953
1.4717403574788335,1.5821335630555842,2.163777616878238,-0.5426761867515184
1.479738946378175,1.1917305273394119,1.6026181889289335,-1.473028909065933
1.4877375352775164,0.8013274916232396,1.0414587609796282,-2.4033816313803475
1.4957361241768579,0.4109244559070673,0.4802993330303238,-3.3337343536947612
1.5037347130761993,3.787656632173096,-8.342121354656632,-8.285250235183446
1.5117333019755408,2.9565305310869876,-8.659156332848708,-6.644085221927674
1.5197318908748823,0.1630102792373154,-6.377328889704703,-1.7806175573044516
1.5277304797742237,0.40355320881994994,-6.140492623270544,-2.01686856113622
1.5357290686735654,0.6440961384025912,-5.903656356836378,-2.253119564967995
1.5437276575729069,0.8846390679852257,-5.6668200904022195,-2.4893705687997634
1.5517262464722483,1.1251819975678603,-5.42998382396806,-2.725621572631532
1.5597248353715898,1.3657249271504948,-5.193147557533901,-2.9618725764633003
1.5677234242709313,1.6062678567331294,-4.956311291099741,-3.1981235802950687
1.5757220131702727,1.846810786315764,-4.7194750246655826,-3.4343745841268367
1.5837206020696142,2.0873537158983986,-4.482638758231423,-3.6706255879586056
1.5917191909689556,2.327896645481033,-4.245802491797264,-3.906876591790374
1.599717779868297,2.5684395750636675,-4.008966225363105,-4.143127595622142
1.6077163687676386,0.1508323392245952,1.3905344618802655,-4.68500828145954
1.6157149576669803,0.14896032905666418,1.4411638277856729,-4.629273433277957
1.6237135465663217,0.14708831888873322,1.4917931936910789,-4.573538585096376
1.6317121354656632,0.14521630872080224,1.5424225595964849,-4.517803736914794
1.6397107243650046,0.14334429855287126,1.593051925501891,-4.462068888733213
1.647709313264346,0.14147228838494028,1.643681291407297,-4.406334040551632
1.6557079021636876,0.1396002782170093,1.6943106573127031,-4.3505991923700496
1.663706491063029,0.1377282680490783,1.7449400232181091,-4.294864344188468
1.6717050799623705,0.13585625788114733,1.7955693891235152,-4.239129496006887
1.679703668861712,0.13398424771321638,1.8461987550289212,-4.183394647825305
1.6877022577610534,0.1321122375452854,1.8968281209343272,-4.127659799643724
1.6957008466603951,0.13024022737735436,1.9474574868397347,-4.071924951462141
1.7036994355597366,0.9228561618062052,1.3297085606773327,-3.3056492003762954
1.711698024459078,4.08886723110692,0.14200077349220994,-2.909702268213652
1.7196966133584195,4.77487953904044,0.33681084979617126,-2.8375372216995935
1.727695202257761,5.460891846973961,0.5316209261001326,-2.7653721751855347
1.7356937911571024,6.146904154907482,0.7264310024040939,-2.6932071286714763
1.743692380056444,6.832916462841002,0.9212410787080552,-2.6210420821574174
1.7516909689557854,7.518928770774522,1.1160511550120165,-2.548877035643359
1.7596895578551268,8.204941078708043,1.3108612313159778,-2.4767119891293
1.7676881467544683,8.890953386641563,1.505671307619939,-2.4045469426152417
1.77568673565381,9.576965694575103,1.7004813839239057,-2.332381896101181
1.7836853245531514,10.262978002508625,1.895291460227867,-2.260216849587122
1.791683913452493,10.948990310442145,2.0901015365318285,-2.188051803073064
1.7996825023518344,11.635002618375665,2.28491161283579,-2.1158867565590054
1.8076810912511758,-0.9176885170432859,-9.57676237465224,42.98111406897382
1.8156796801505173,-2.6051355006905244,-6.849413742719344,39.79988806268893
1.8236782690498587,-4.292582484337762,-4.122065110786447,36.618662056404034
1.8316768579492002,-5.980029467985001,-1.3947164788535495,33.437436050119146
1.8396754468485417,-7.667476451632239,1.3326321530793486,30.256210043834255
1.8476740357478831,-9.354923435279478,4.059980785012245,27.074984037549363
1.8556726246472248,-11.042370418926762,6.787329416945218,23.893758031264387
1.8636712135465663,-12.729817402574,9.514678048878116,20.712532024979495
1.8716698024459077,-14.417264386221241,12.242026680811014,17.531306018694604
1.8796683913452492,-16.10471136986848,14.969375312743908,14.350080012409713
1.8876669802445907,-17.792158353515717,17.696723944676805,11.168854006124825
1.8956655691439321,-19.479605337162955,20.424072576609703,7.98762799983993
1.9036641580432736,-15.632571025400143,19.699839134525096,5.803836312323616
1.911662746942615,-0.7038713938542571,12.064519481028734,5.617202571338983
1.9196613358419565,-2.670374725619349,5.1757021009721775,5.986808403888483
1.927659924741298,-2.3925315741214837,4.2078497148028635,4.41311680579207
1.9356585136406397,-2.5077517534563043,4.17089420912869,3.999215142241326
1.9436571025399811,-2.622971932791122,4.133938703454517,3.5853134786905922
1.9516556914393226,-2.7381921121259394,4.096983197780345,3.171411815139859
1.959654280338664,-2.853412291460757,4.060027692106172,2.757510151589126
1.9676528692380055,-2.9686324707955745,4.023072186432,2.343608488038393
1.975651458137347,-3.083852650130392,3.986116680757827,1.9297068244876598
1.9836500470366885,-3.1990728294652095,3.9491611750836544,1.5158051609369267
1.99164863593603,-3.3142930088000275,3.912205669409482,1.1019034973861936
1.9996472248353714,-3.4295131881348446,3.875250163735309,0.6880018338354601
2.007645813734713,-2.2282351834430707,4.720090780809038,0.011119943555983891
2.0156444026340545,0.24002400493073828,5.934294395605581,-0.1310168358906187
2.023642991533396,0.045575550653644464,5.80925898292622,-0.2818867713368177
2.0316415804327375,-0.1488729036234493,5.68422357024686,-0.4327567067830167
2.039640169332079,-0.3433213579005431,5.559188157567499,-0.5836266422292157
2.0476387582314204,-0.5377698121776369,5.434152744888139,-0.7344965776754147
2.055637347130762,-0.7322182664547308,5.309117332208778,-0.8853665131216136
2.0636359360301033,-0.9266667207318244,5.184081919529418,-1.0362364485678126
2.0716345249294448,-1.1211151750089183,5.059046506850057,-1.1871063840140117
2.0796331138287862,-1.315563629286012,4.934011094170696,-1.3379763194602108
2.0876317027281277,-1.510012083563106,4.8089756814913365,-1.4888462549064096
2.095630291627469,-1.7044605378401996,4.683940268811975,-1.6397161903526087
2.1036288805268106,-3.1617083725303914,3.344271401693493,-0.007691439322909943
2.111627469426152,2.487849482595913,4.233081843837933,8.446853245530928
2.1196260583254936,3.301716641366605,3.393544834516379,7.940329930300188
2.1276246472248355,3.8977024074232514,3.345916873343025,7.749999871718121
2.135623236124177,4.493688173479864,3.2982889121696735,7.559669813136063
2.1436218250235184,5.0896739395364765,3.2506609509963225,7.369339754554006
2.15162041392286,5.685659705593089,3.203032989822971,7.179009695971949
2.1596190028222013,6.2816454716497026,3.1554050286496196,6.988679637389892
2.167617591721543,6.877631237706315,3.107777067476268,6.798349578807835
2.1756161806208842,7.473617003762928,3.0601491063029167,6.608019520225778
2.1836147695202257,8.069602769819541,3.0125211451295653,6.417689461643721
2.191613358419567,8.665588535876154,2.964893183956214,6.227359403061664
2.1996119473189086,9.261574301932766,2.9172652227828624,6.037029344479607
2.20761053621825,20.298950616534658,13.457461030356367,-1.1089816607491467
2.2156091251175916,19.996982384001456,13.293188935756987,-0.37508962765150444
2.223607714016933,19.695014151468254,13.12891684115761,0.35880240544613784
2.2316063029162745,19.39304591893505,12.964644746558232,1.0926944385437802
2.239604891815616,19.091077686401846,12.800372651958853,1.8265864716414226
2.2476034807149574,18.789109453868644,12.636100557359473,2.560478504739065
2.255602069614299,18.487141221335442,12.471828462760095,3.2943705378367074
2.2636006585136403,18.185172988802236,12.307556368160718,4.028262570934349
2.271599247412982,17.883204756269034,12.143284273561338,4.762154604031992
2.2795978363123233,17.581236523735832,11.979012178961959,5.496046637129634
2.287596425211665,17.279268291202612,11.814740084362573,6.229938670227317
2.2955950141110066,16.97730005866941,11.650467989763193,6.96383070332496
2.303593603010348,-1.224239887111932,9.617178269049829,-3.0067873941674095
2.3115921919096896,-0.32674817914674703,7.85093334852732,-0.7533307309598417
2.319590780809031,-0.20874837796161674,7.5960504795802635,-0.6299710506153589
2.3275893697083725,-0.09074857677648646,7.341167610633207,-0.5066113702708761
2.335587958607714,0.027251224408643804,7.086284741686151,-0.3832516899263933
2.3435865475070554,0.14525102559377406,6.831401872739095,-0.2598920095819105
2.351585136406397,0.2632508267789044,6.576519003792038,-0.13653232923742764
2.3595837253057383,0.3812506279640346,6.321636134844981,-0.013172648892944894
2.36758231420508,0.4992504291491649,6.066753265897925,0.11018703145153796
2.3755809031044213,0.6172502303342953,5.8118703969508685,0.23354671179602082
2.3835794920037627,0.7352500315194255,5.556987528003813,0.35690639214050357
2.391578080903104,0.8532498327045557,5.302104659056756,0.4802660724849863
2.3995766698024457,0.9712496338896861,5.047221790109699,0.6036257528294691
2.407575258701787,4.792620649106046,-0.24173777046080033,0.14902140169338082
2.4155738476011286,7.202501511178722,-0.9327293088609195,-1.9675679429955246
2.42357243650047,7.142171728948583,-0.7311478503232605,-2.2676001180920995
2.4315710253998115,7.081841946718443,-0.5295663917856014,-2.5676322931886744
2.439569614299153,7.021512164488303,-0.3279849332479423,-2.8676644682852492
2.447568203198495,6.96118238225816,-0.12640347471027202,-3.167696643381841
2.4555667920978363,6.9008526000280215,0.07517798382738694,-3.467728818478416
2.463565380997178,6.840522817797882,0.2767594423650461,-3.7677609935749907
2.4715639698965193,6.780193035567742,0.4783409009027051,-4.067793168671566
2.4795625587958607,6.719863253337603,0.6799223594403643,-4.367825343768141
2.487561147695202,6.659533471107463,0.8815038179780235,-4.667857518864715
2.4955597365945437,6.599203688877324,1.0830852765156824,-4.967889693961291
2.503558325493885,6.538873906647185,1.2846667350533414,-5.267921869057865
2.5115569143932266,3.221272342427139,2.741349482596382,-4.192340075258688
2.519555503292568,3.3105845074888682,3.1170626116460696,-4.35418541439851
2.5275540921919095,3.6563212658682684,3.2791014406967736,-4.446483737989787
2.535552681091251,4.002058024247669,3.4411402697474776,-4.538782061581065
2.5435512699905924,4.347794782627069,3.603179098798182,-4.631080385172342
2.551549858889934,4.69353154100647,3.765217927848886,-4.72337870876362
2.5595484477892754,5.03926829938587,3.92725675689959,-4.8156770323548965
2.567547036688617,5.3850050577652695,4.089295585950294,-4.907975355946174
2.5755456255879583,5.73074181614467,4.251334415000998,-5.000273679537451
2.5835442144872998,6.076478574524071,4.413373244051702,-5.092572003128729
2.5915428033866412,6.4222153329034715,4.575412073102407,-5.184870326720006
2.599541392285983,6.76795209128289,4.737450902153119,-5.277168650311289
2.6075399811853246,33.06534632441893,9.901700981050954,9.614760381669264
2.615538570084666,9.59056080416884,7.35316081262485,26.443244596065853
2.6235371589840075,8.052495069075247,8.24864328220955,24.02290754383928
2.631535747883349,6.514429333981653,9.14412575179425,21.602570491612706
2.6395343367826904,4.976363598888059,10.039608221378952,19.18223343938613
2.647532925682032,3.4382978637944657,10.935090690963651,16.76189638715956
2.6555315145813734,1.9002321287008712,11.830573160548354,14.341559334932985
2.663530103480715,0.36216639360727676,12.726055630133054,11.921222282706411
2.6715286923800563,-1.175899341486316,13.621538099717753,9.500885230479838
2.6795272812793978,-2.7139650765799104,14.517020569302456,7.080548178253263
2.6875258701787392,-4.252030811673505,15.412503038887156,4.660211126026692
2.6955244590780807,-5.790096546767099,16.307985508471855,2.2398740738001166
2.703523047977422,-10.457388052681187,17.494638601442723,-3.550882251489343
2.7115216368767636,-1.1979945960071081,5.683203292568207,-0.9145826486881958
2.719520225776105,-1.1672444653496399,5.425648730009413,-1.1381876450297854
2.7275188146754465,-1.1364943346921719,5.168094167450619,-1.361792641371375
2.735517403574788,-1.1057442040347036,4.910539604891824,-1.5853976377129644
2.7435159924741295,-1.0749940733772354,4.65298504233303,-1.8090026340545537
2.751514581373471,-1.0442439427197672,4.395430479774236,-2.0326076303961433
2.759513170272813,-1.0134938120622974,4.1378759172154265,-2.2562126267377454
2.7675117591721543,-0.9827436814048292,3.8803213546566324,-2.479817623079335
2.7755103480714958,-0.9519935507473609,3.6227667920978384,-2.7034226194209245
2.7835089369708372,-0.9212434200898928,3.3652122295390443,-2.9270276157625137
2.7915075258701787,-0.8904932894324246,3.10765766698025,-3.1506326121041033
2.79950611476952,-0.8597431587749564,2.8501031044214553,-3.374237608445693
2.8075047036688616,-0.09389248113528618,-0.17779730189547854,-3.3545180590860872
2.815503292568203,0.09798856107763963,-0.15873683473109035,-3.2676397690198358
2.8235018814675445,0.28986960329056544,-0.13967636756670215,-3.1807614789535843
2.831500470366886,0.4817506455034912,-0.12061590040231394,-3.093883188887333
2.8394990592662275,0.6736316877164171,-0.10155543323792575,-3.0070048988210814
2.847497648165569,0.8655127299293429,-0.08249496607353755,-2.9201266087548294
2.8554962370649104,1.0573937721422686,-0.06343449890914936,-2.833248318688578
2.863494825964252,1.2492748143551944,-0.04437403174476118,-2.7463700286223265
2.8714934148635933,1.4411558565681202,-0.025313564580372955,-2.659491738556075
2.879492003762935,1.633036898781046,-0.00625309741598476,-2.5726134484898235
2.8874905926622763,1.824917940993972,0.012807369748403435,-2.485735158423572
2.8954891815616177,2.0167989832068978,0.03186783691279163,-2.3988568683573206
2.903487770460959,2.4082577610535187,4.3376408748817585,0.09650823141999232
2.9114863593603006,1.8745288150844588,9.426394269704293,1.1971671233997392
2.9194849482596426,1.9468638799132898,9.1474000112479,0.9589482800932521
2.927483537158984,2.019198944742117,8.868405752791523,0.7207294367867784
2.9354821260583255,2.091534009570944,8.589411494335145,0.48251059348030445
2.943480714957667,2.163869074399771,8.310417235878768,0.24429175017383065
2.9514793038570084,2.2362041392285983,8.031422977422391,0.006072906867356842
2.95947789275635,2.3085392040574253,7.752428718966013,-0.23214593643911696
2.9674764816556913,2.3808742688862523,7.473434460509635,-0.47036477974559077
2.975475070555033,2.4532093337150793,7.194440202053258,-0.7085836230520648
2.9834736594543743,2.5255443985439063,6.915445943596881,-0.9468024663585386
2.9914722483537157,2.5978794633727333,6.636451685140503,-1.1850213096650124
2.999470837253057,2.6702145282015604,6.3574574266841255,-1.4232401529714862
3.0074694261523987,34.0352203668861,-0.6572114299153169,-6.339237300094029
3.01546801505174,39.19897605048595,-1.833670547193456,-9.362037354970155
3.0234666039510816,38.67925559623258,-1.0652465855898008,-9.134622278389216
3.031465192850423,36.81307880062116,0.16393415430297198,-8.137207879495433
3.0394637817497645,34.946902005009754,1.3931148941957447,-7.13979348060165
3.047462370649106,33.080725209398345,2.622295634088517,-6.142379081707867
3.0554609595484474,31.214548413786932,3.8514763739812903,-5.144964682814084
3.063459548447789,29.34837161817552,5.080657113874063,-4.147550283920301
3.071458137347131,27.482194822564004,6.309837853766903,-3.1501358850264634
3.0794567262464723,25.616018026952595,7.539018593659676,-2.1527214861326804
3.0874553151458137,23.749841231341186,8.768199333552449,-1.1553070872388975
3.095453904045155,21.883664435729774,9.997380073445221,-0.1578926883451146
3.1034524929444967,13.078073847600404,6.939275164628233,-2.258409689557737
3.111451081843838,6.234069924541143,6.769686665599166,-2.9708313334400835
3.1194496707431796,6.286996757470828,6.537387222033186,-2.9940612777966815
3.127448259642521,6.339923590400512,6.305087778467207,-3.0172912221532795
3.1354468485418625,6.392850423330197,6.072788334901226,-3.0405211665098775
3.143445437441204,6.445777256259882,5.840488891335246,-3.0637511108664754
3.1514440263405454,6.498704089189567,5.608189447769266,-3.0869810552230734
3.159442615239887,6.5516309221192515,5.375890004203287,-3.1102109995796714
3.1674412041392284,6.604557755048936,5.143590560637306,-3.1334409439362694
3.17543979303857,6.6574845879786215,4.911291117071326,-3.156670888292868
3.1834383819379113,6.710411420908306,4.6789916735053465,-3.1799008326494658
3.1914369708372528,6.763338253837991,4.446692229939366,-3.2031307770060637
3.199435559736594,6.816265086767675,4.214392786373386,-3.2263607213626617
3.2074341486359357,3.7951959278237,-2.704486899781827,-1.691814820560034
3.215432737535277,3.8909237205019886,-2.8055754488501,-1.7989448569884474
3.2234313264346186,3.986651513180277,-2.9066639979183724,-1.906074893416861
3.2314299153339605,4.082379305858571,-3.0077525469866506,-2.0132049298452803
3.239428504233302,4.178107098536859,-3.108841096054923,-2.120334966273694
3.2474270931326434,4.273834891215148,-3.209929645123196,-2.2274650027021075
3.255425682031985,4.369562683893436,-3.3110181941914685,-2.334595039130521
3.2634242709313264,4.465290476571725,-3.4121067432597414,-2.4417250755589346
3.271422859830668,4.561018269250013,-3.513195292328014,-2.548855111987348
3.2794214487300093,4.656746061928302,-3.6142838413962863,-2.6559851484157617
3.2874200376293508,4.75247385460659,-3.7153723904645592,-2.763115184844175
3.295418626528692,4.848201647284879,-3.8164609395328317,-2.8702452212725884
3.3034172154280337,6.259369473189055,-4.993893697083717,-3.9486020696142856
3.311415804327375,5.560328305971132,-5.30933202844455,-6.048782599459836
3.3194143932267166,5.473977948391145,-5.429482874599175,-6.09548403787212
3.327412982126058,5.387627590811157,-5.549633720753798,-6.1421854762844035
3.3354115710253995,5.301277233231169,-5.669784566908422,-6.188886914696687
3.343410159924741,5.214926875651182,-5.789935413063046,-6.235588353108972
3.3514087488240825,5.128576518071195,-5.91008625921767,-6.282289791521256
3.359407337723424,5.042226160491207,-6.030237105372294,-6.32899122993354
3.3674059266227654,4.95587580291122,-6.150387951526918,-6.375692668345824
3.375404515522107,4.869525445331233,-6.270538797681541,-6.422394106758108
3.3834031044214483,4.783175087751245,-6.390689643836166,-6.469095545170392
3.3914016933207902,4.696824730171253,-6.510840489990796,-6.515796983582678
3.3994002822201317,4.610474372591265,-6.63099133614542,-6.562498421994963
3.407398871119473,34.23533772342422,-3.577589526497348,12.713234556287219
3.4153974600188146,38.77010657169751,-1.1007814137887273,14.645564776239773
3.423396048918156,28.648647441927814,15.353865257978105,13.285729358130117
3.4313946378174975,27.563761912945974,16.71670175121206,13.055000832187575
3.439393226716839,26.47887638396414,18.079538244446013,12.824272306245032
3.4473918156161805,25.393990854982302,19.44237473767997,12.59354378030249
3.455390404515522,24.309105326000463,20.805211230913923,12.362815254359946
3.4633889934148634,23.224219797018627,22.168047724147875,12.132086728417402
3.471387582314205,22.13933426803679,23.53088421738183,11.90135820247486
3.4793861712135463,21.05444873905495,24.89372071061578,11.670629676532318
3.487384760112888,19.96956321007311,26.256557203849738,11.439901150589774
3.4953833490122292,18.884677681091276,27.61939369708369,11.20917262464723
3.5033819379115707,17.79979215210944,28.982230190317644,10.978444098704689
3.511380526810912,16.714906623127604,30.3450666835516,10.747715572762145
3.5193791157102536,15.630021094145764,31.707903176785553,10.516987046819603
3.527377704609595,14.383165192850493,31.30426801505205,9.903044684854272
3.5353762935089366,5.696521166510229,9.341853245531698,3.5956679209785296
3.543374882408278,5.091121474003455,8.942271921203021,2.958143749736758
3.55137347130762,5.077153788910574,8.847124527878014,2.5711075525477076
3.5593720602069614,5.063186103817695,8.751977134553012,2.184071355358678
3.567370649106303,5.049218418724815,8.65682974122801,1.797035158169649
3.5753692380056443,5.035250733631935,8.561682347903009,1.4099989609806198
3.583367826904986,5.021283048539055,8.466534954578007,1.0229627637915906
3.5913664158043273,5.007315363446176,8.371387561253005,0.6359265666025613
3.5993650047036687,4.993347678353295,8.276240167928004,0.24889036941353204
3.60736359360301,2.3872126058327923,6.416742238946496,-0.5835437441204004
3.6153621825023516,-0.5977963311382815,5.834054562558794,-1.472650517403568
3.623360771401693,-0.7485448416431496,5.886234068499356,-1.831944235392493
3.6313593603010346,-0.6374533291522959,5.8656944821899355,-2.0064319710114606
3.639357949200376,-0.5263618166614422,5.8451548958805155,-2.1809197066304282
3.6473565380997175,-0.41527030417058847,5.8246153095710955,-2.355407442249396
3.655355126999059,-0.3041787916797347,5.8040757232616755,-2.5298951778683634
3.6633537158984004,-0.19308727918888102,5.7835361369522555,-2.704382913487331
3.671352304797742,-0.08199576669802733,5.762996550642836,-2.8788706491062985
3.6793508936970833,0.029095745792826366,5.742456964333416,-3.053358384725266
3.687349482596425,0.14018725828368006,5.721917378023996,-3.2278461203442337
3.6953480714957663,0.25127877077453387,5.701377791714576,-3.4023338559632013
3.703346660395108,-1.0185917215428935,6.542343603010412,-0.7569365004704233
3.7113452492944496,-0.7989702100972016,5.7440360614612835,-0.4430677328316083
3.719343838193791,-1.1332445711821815,5.283450650674203,-0.4605646460489178
3.7273424270931326,-1.4675189322671613,4.822865239887122,-0.4780615592662273
3.735341015992474,-1.8017932933521412,4.362279829100041,-0.4955584724835368
3.7433396048918155,-2.136067654437121,3.90169441831296,-0.5130553857008463
3.751338193791157,-2.470342015522101,3.4411090075258786,-0.5305522989181558
3.7593367826904984,-2.804616376607081,2.9805235967387977,-0.5480492121354654
3.76733537158984,-3.1388907376920607,2.519938185951717,-0.5655461253527749
3.7753339604891814,-3.4731650987770406,2.059352775164636,-0.5830430385700844
3.783332549388523,-3.8074394598620205,1.5987673643775553,-0.6005399517873939
3.7913311382878643,-4.141713820947,1.1381819535904745,-0.6180368650047035
3.7993297271872057,-4.47598818203198,0.6775965428033928,-0.635533778222013
3.807328316086547,4.252567769012894,-0.7022126781967251,-2.6782445907807126
3.8153269049858887,18.308549569432675,0.004739525291229785,-4.4139383819378235
3.82332549388523,41.00156820319852,-3.800709313264372,-3.951133113828798
3.8313240827845716,40.08173047977425,-2.7368969896519584,-3.4752170743179813
3.839322671683913,39.161892756349985,-1.6730846660395446,-2.9993010348071643
3.8473212605832545,38.24205503292571,-0.6092723424271309,-2.5233849952963476
3.855319849482596,37.32221730950145,0.4545399811852828,-2.047468955785531
3.863318438381938,36.40237958607713,1.5183523047977552,-1.5715529162746882
3.8713170272812794,35.48254186265286,2.582164628410169,-1.0956368767638716
3.879315616180621,34.56270413922859,3.6459769520225827,-0.6197208372530549
3.8873142050799623,33.64286641580433,4.709789275634996,-0.14380479774223787
3.8953127939793037,32.723028692380055,5.77360159924741,0.33211124176857876
3.903311382878645,31.80319096895579,6.837413922859824,0.8080272812793954
3.9113099717779867,7.164721699592384,1.286929131389168,-10.861753841329717
3.919308560677328,6.717030304311518,1.1271549039711604,-8.641333379136867
3.9273071495766696,6.765291453063725,1.2403933535573428,-8.24104444702825
3.935305738476011,6.813552601815931,1.3536318031435255,-7.840755514919634
3.9433043273753525,6.861813750568137,1.466870252729708,-7.440466582811016
3.951302916274694,6.910074899320343,1.5801087023158904,-7.0401776507024
3.9593015051740355,6.9583360480725505,1.693347151902073,-6.639888718593783
3.967300094073377,7.006597196824757,1.8065856014882558,-6.239599786485167
3.9752986829727184,7.054858345576963,1.9198240510744382,-5.839310854376549
3.98329727187206,7.103119494329169,2.0330625006606207,-5.4390219222679335
3.9912958607714013,7.151380643081376,2.146300950246803,-5.038732990159316
3.9992944496707428,7.199641791833582,2.2595393998329856,-4.6384440580507
4.007293038570085,7.774323142050689,-3.390829492004041,0.42526058325486826
4.015291627469426,6.844079676060378,-5.489573152276161,-0.016946950795536875
4.023290216368768,6.666198014233718,-5.626331634218163,0.06321282056525505
4.031288805268109,6.488316352407058,-5.763090116160164,0.14337259192604696
4.0392873941674505,6.310434690580399,-5.899848598102166,0.2235323632868389
4.047285983066792,6.132553028753739,-6.036607080044169,0.3036921346476308
4.0552845719661335,5.954671366927079,-6.17336556198617,0.3838519060084227
4.063283160865475,5.776789705100419,-6.310124043928172,0.4640116773692146
4.071281749764816,5.5989080432737595,-6.4468825258701745,0.5441714487300067
4.079280338664158,5.421026381447099,-6.583641007812176,0.6243312200907986
4.087278927563499,5.24314471962044,-6.720399489754178,0.7044909914515904
4.095277516462841,5.06526305779378,-6.85715797169618,0.7846507628123824
4.103276105362182,3.294662982126204,-6.026511288805238,0.8794621354656897
4.111274694261524,3.701354094236988,-9.150338970919051,3.308790431101478
4.119273283160865,4.610845816802319,-8.23032736512741,3.694200698392571
4.127271872060207,5.520337539367652,-7.31031575933577,4.079610965683663
4.135270460959548,6.429829261932984,-6.390304153544131,4.465021232974755
4.1432690498588896,7.3393209844983165,-5.470292547752491,4.850431500265848
4.151267638758231,8.248812707063648,-4.550280941960851,5.23584176755694
4.1592662276575725,9.15830442962898,-3.630269336169211,5.621252034848032
4.167264816556914,10.067796152194314,-2.7102577303775712,6.006662302139125
4.175263405456255,10.977287874759645,-1.7902461245859316,6.392072569430217
4.183261994355597,11.886779597324978,-0.870234518794291,6.77748283672131
4.191260583254938,12.796271319890309,0.04977708699734862,7.162893104012403
4.19925917215428,13.705763042455642,0.9697886927889883,7.548303371303494
4.207257761053621,35.62301952022593,20.746540686735667,-3.336655926621965
4.215256349952963,23.91213358420272,24.183892991530946,-24.192805973650255
4.223254938852304,-2.1008859558649537,17.909706627072868,-26.1038849357922
4.231253527751646,-0.7308144090946245,16.073596816239704,-24.615087346564174
4.239252116650987,0.6392571376757044,14.237487005406539,-23.12628975733615
4.247250705550329,2.0093286844460336,12.401377194573378,-21.637492168108125
4.255249294449671,3.3794002312165143,10.565267383740009,-20.148694578879937
4.263247883349012,4.7494717779868445,8.729157572906846,-18.659896989651912
4.271246472248354,6.119543324757172,6.893047762073682,-17.171099400423888
4.279245061147695,7.489614871527502,5.056937951240519,-15.682301811195863
4.287243650047037,8.859686418297832,3.220828140407354,-14.193504221967839
4.295242238946378,10.22975796506816,1.3847183295741914,-12.704706632739816
4.30324082784572,10.841728127939746,3.2958936970836836,-8.812466603951094
4.311239416745061,2.2901317027286634,-2.2856307619940015,-12.151433207902125
4.319238005644403,0.577436072864103,-3.5063200205250995,-12.040020311297367
4.327236594543744,0.6806905841101474,-3.5354057983408866,-11.772612941503475
4.335235183443086,0.7839450953561916,-3.564491576156674,-11.505205571709581
4.343233772342427,0.8871996066022358,-3.593577353972461,-11.23779820191569
4.3512323612417685,0.9904541178482801,-3.6226631317882476,-10.970390832121796
4.35923095014111,1.0937086290943245,-3.6517489096040348,-10.702983462327904
4.367229539040451,1.1969631403403687,-3.680834687419822,-10.43557609253401
4.375228127939793,1.3002176515864128,-3.709920465235609,-10.168168722740118
4.383226716839134,1.4034721628324571,-3.739006243051396,-9.900761352946224
4.391225305738476,1.5067266740785015,-3.7680920208671833,-9.633353983152332
4.399223894637817,1.6099811853245458,-3.7971777986829705,-9.365946613358439
4.407222483537159,-1.3146763875821263,-2.25888734713089,-2.4444452022580503
4.4152210724365,-0.5680463390658168,0.5844549663344147,-3.2399785322439167
4.423219661335842,-0.3672727705138084,0.5720526599511663,-3.4066906941346846
4.431218250235183,-0.16649920196180001,0.5596503535679178,-3.5734028560254525
4.439216839134525,0.03427436659020833,0.5472480471846692,-3.7401150179162204
4.447215428033866,0.23504793514221678,0.5348457408014208,-3.9068271798069882
4.4552140169332075,0.4358215036942251,0.5224434344181723,-4.0735393416977566
4.463212605832549,0.6365950722462336,0.5100411280349237,-4.240251503588524
4.47121119473189,0.837368640798242,0.4976388216516753,-4.406963665479292
4.479209783631232,1.0381422093502501,0.4852365152684268,-4.57367582737006
4.487208372530573,1.2389157779022586,0.4728342088851783,-4.740387989260828
4.495206961429915,1.439689346454267,0.4604319025019298,-4.907100151151596
4.503205550329256,0.9584943555973628,1.1702895108183653,-5.773200141109977
4.511204139228598,-0.4130944577630772,-1.660324532920625,-3.867964080154566
4.519202728127939,-0.3961512103096334,-1.6266960570104907,-3.7860860518516297
4.527201317027281,-0.3792079628561897,-1.593067581100356,-3.704208023548693
4.535199905926622,-0.3622647154027459,-1.5594391051902217,-3.622329995245757
4.543198494825964,-0.3453214679493022,-1.525810629280087,-3.540451966942821
4.551197083725305,-0.3283782204958584,-1.4921821533699524,-3.4585739386398844
4.5591956726246465,-0.3114349730424147,-1.4585536774598178,-3.3766959103369483
4.567194261523988,-0.29449172558897097,-1.4249252015496834,-3.2948178820340117
4.57519285042333,-0.2775484781355253,-1.391296725639545,-3.2129398537310663
4.583191439322672,-0.2606052306820815,-1.3576682497294106,-3.13106182542813
4.591190028222013,-0.2436619832286378,-1.324039773819276,-3.0491837971251936
4.599188617121355,-0.22671873577519405,-1.2904112979091413,-2.9673057688222575
4.607187206020696,2.0735991618918375,-3.5379022492090337,-2.750571025399802
4.615185794920038,26.670850658514084,-14.890953668861204,-11.876691909689018
4.623184383819379,20.875312805451664,-20.448574099993117,-18.624236766629195
4.631182972718721,20.01175783562398,-20.047083954753,-19.272512642544115
4.639181561618062,19.148202865796293,-19.64559380951288,-19.920788518459034
4.6471801505174035,18.28464789596861,-19.244103664272767,-20.569064394373953
4.655178739416745,17.421092926140926,-18.84261351903265,-21.217340270288872
4.6631773283160864,16.55753795631324,-18.441123373792536,-21.865616146203795
4.671175917215428,15.693982986485558,-18.039633228552418,-22.513892022118714
4.679174506114769,14.830428016657873,-17.638143083312304,-23.162167898033633
4.687173095014111,13.966873046830191,-17.236652938072186,-23.810443773948553
4.695171683913452,13.103318077002506,-16.835162792832072,-24.458719649863475
4.703170272812794,11.452815616180278,-11.543276575731124,-7.665946378175346
4.711168861712135,9.527936081488107,-4.442918029676605,-6.6604128991201454
4.719167450611477,9.422610125141317,-4.297330268702036,-6.557372253887452
4.727166039510818,9.317284168794526,-4.151742507727468,-6.454331608654759
4.73516462841016,9.211958212447735,-4.006154746752899,-6.351290963422066
4.743163217309501,9.106632256100944,-3.860566985778331,-6.248250318189373
4.7511618062088425,9.001306299754154,-3.7149792248037627,-6.14520967295668
4.759160395108184,8.895980343407363,-3.569391463829194,-6.042169027723986
4.7671589840075255,8.790654387060572,-3.4238037028546255,-5.939128382491293
4.775157572906867,8.685328430713781,-3.278215941880057,-5.8360877372586
4.783156161806208,8.58000247436699,-3.132628180905489,-5.733047092025907
4.79115475070555,8.4746765180202,-2.9870404199309206,-5.630006446793214
4.799153339604891,8.369350561673409,-2.841452658956352,-5.526965801560521
4.807151928504233,8.264024605326618,-2.6958648979817834,-5.423925156327828
4.815150517403574,8.158698648979827,-2.550277137007215,-5.320884511095135
4.823149106302916,8.053372692633037,-2.4046893760326467,-5.2178438658624415
4.831147695202257,6.480878645343334,-0.3201081843837292,2.298104421448201
4.839146284101599,6.494776629485287,-0.4031335976347308,3.232857498992065
4.84714487300094,6.449756000537565,-0.33388867087757496,3.328954831339867
4.855143461900282,6.404735371589844,-0.26464374412041913,3.425052163687669
4.863142050799623,6.359714742642121,-0.19539881736326337,3.5211494960354712
4.8711406396989645,6.3146941136944,-0.12615389060610754,3.6172468283832733
4.879139228598306,6.269673484746678,-0.05690896384895172,3.7133441607310753
4.887137817497648,6.224652855798952,0.012335962908211762,3.809441493078888
4.89513640639699,6.17963222685123,0.08158088966536753,3.90553882542669
4.903134995296331,5.522427563499484,0.22215216368768245,3.9704075729068657
4.911133584195673,3.492698708629148,-0.34934781493204775,4.230913195929192
4.919132173095014,5.287291199863195,-1.5840390832121982,4.361799196100233
4.927130761994356,6.109645516901251,-2.1565764780023633,4.198977102722646
4.935129350893697,6.813676652449114,-2.648528523413318,4.0004101918914206
4.9431279397930385,7.517707787996977,-3.1404805688242723,3.8018432810601954
4.95112652869238,8.221738923544839,-3.632432614235227,3.6032763702289703
4.9591251175917215,8.925770059092702,-4.12438465964618,3.4047094593977456
4.967123706491063,9.629801194640565,-4.616336705057135,3.2061425485665205
4.975122295390404,10.333832330188429,-5.108288750468089,3.007575637735296
4.983120884289746,11.03786346573629,-5.600240795879044,2.8090087269040707
4.991119473189087,11.741894601284153,-6.092192841289998,2.6104418160728455
4.999118062088429,12.445925736832017,-6.584144886700953,2.4118749052416204
5.00711665098777,13.149956872379878,-7.0760969321119065,2.2133079944103957
5.015115239887112,13.853988007927743,-7.568048977522861,2.0147410835791706
5.023113828786453,14.799106302916329,-8.579287394167563,1.076893226716681
5.031112417685795,10.135682031985569,-27.946032925681948,-12.720930856068174
5.039111006585136,7.626968055953229,-27.57423815561648,-10.754965629132776
5.047109595484478,7.114015072191114,-26.847873546293677,-10.181269738366964
5.055108184383819,6.601062088428997,-26.12150893697087,-9.607573847601154
5.0631067732831605,6.088109104666882,-25.39514432764806,-9.033877956835344
5.071105362182502,5.575156120904765,-24.668779718325258,-8.460182066069533
5.079103951081843,5.0622031371426495,-23.94241510900245,-7.886486175303723
5.087102539981185,4.549250153380534,-23.216050499679643,-7.312790284537912
5.095101128880526,4.036297169618417,-22.48968589035684,-6.739094393772102
5.103099717779868,8.201333019755296,-12.309146754469351,-6.742167450611687
5.111098306679209,10.076079617434957,-5.23836738789589,-2.258775932894347
5.119096895578551,9.668507076408513,-5.2664513222535785,-1.8843530991951734
5.127095484477892,9.260934535382068,-5.294535256611266,-1.5099302654959996
5.135094073377234,8.853361994355623,-5.322619190968954,-1.135507431796826
5.143092662276575,8.44578945332918,-5.350703125326642,-0.7610845980976522
5.151091251175917,8.038216912302735,-5.3787870596843295,-0.3866617643984782
5.159089840075258,7.63064437127629,-5.406870994042017,-0.012238930699304706
5.1670884289745995,7.223071830249846,-5.434954928399705,0.36218390299986947
5.175087017873941,6.815499289223402,-5.463038862757393,0.7366067366990432
5.1830856067732824,6.407926748196957,-5.4911227971150804,1.111029570398217
5.191084195672624,6.0003542071705125,-5.519206731472769,1.4854524040973907
5.199082784571966,5.5477707745373035,-5.5154038883661505,1.823686422075775
5.207081373471308,0.1247488240827281,-1.7832575258702288,-2.2661883819380955
5.215079962370649,-0.3222212895289124,-2.180014276410328,-3.650463368240419
5.223078551269991,-0.37513503147840194,-2.228708982456868,-3.7286913256076044
5.231077140169332,-0.4280487734278915,-2.2774036885034086,-3.80691928297479
5.239075729068674,-0.4809625153773811,-2.3260983945499487,-3.8851472403419756
5.247074317968015,-0.5338762573268707,-2.374793100596489,-3.963375197709161
5.2550729068673565,-0.5867899992763603,-2.423487806643029,-4.041603155076347
5.263071495766698,-0.6397037412258498,-2.472182512689569,-4.119831112443532
5.271070084666039,-0.6926174831753394,-2.5208772187361097,-4.198059069810718
5.279068673565381,-0.745531225124829,-2.56957192478265,-4.276287027177903
5.287067262464722,-0.7984449670743186,-2.61826663082919,-4.354514984545089
5.295065851364064,-0.8513587090238082,-2.6669613368757306,-4.432742941912275
5.303064440263405,-2.2379731890875365,-2.377995766697978,-4.866046801505151
5.311063029162747,-0.9283863280025164,-4.418029084352437,-5.237664863593604
5.319061618062088,-0.5032036856605449,-5.546778574788327,-5.130996354656637
5.32706020696143,-0.17421410652691538,-5.7127492944496625,-5.0223488554405815
5.335058795860771,0.1547754726067141,-5.878720014110999,-4.913701356224526
5.343057384760113,0.4837650517403437,-6.0446907337723355,-4.805053857008471
5.351055973659454,0.8127546308739731,-6.210661453433671,-4.696406357792416
5.3590545625587955,1.1417442100076025,-6.3766321730950075,-4.58775885857636
5.367053151458137,1.470733789141232,-6.542602892756344,-4.479111359360305
5.3750517403574785,1.7997233682748615,-6.70857361241768,-4.37046386014425
5.38305032925682,2.128712947408491,-6.874544332079016,-4.2618163609281945
5.391048918156161,2.4577025265421204,-7.040515051740352,-4.153168861712139
5.399047507055503,2.7866921056757503,-7.206485771401688,-4.044521362496083
5.407046095954844,32.175592662272024,-4.8818015051754085,0.7454459078063214
5.415044684854186,36.87777993549264,-0.348923934954909,15.891977556780102
5.423043273753527,35.60899278426194,-1.2224401600280441,14.682169011609378
5.431041862652869,34.34020563303124,-2.095956385101179,13.472360466438657
5.43904045155221,33.071418481800535,-2.9694726101743143,12.262551921267935
5.447039040451552,31.802631330569838,-3.84298883524745,11.052743376097213
5.455037629350893,30.533844179339138,-4.716505060320585,9.842934830926492
5.4630362182502346,29.265057028108437,-5.59002128539372,8.63312628575577
5.471034807149576,27.996269876877736,-6.463537510466855,7.423317740585048
5.4790333960489175,26.727482725647036,-7.33705373553999,6.213509195414327
5.487031984948259,25.458695574416335,-8.210569960613125,5.003700650243605
5.4950305738476,24.189908423185635,-9.08408618568626,3.7938921050728833
5.503029162746942,17.383067867224984,-12.742929310575079,1.9294667383420867
5.511027751646283,3.3993083254918255,-15.354874412042552,3.502892991533231
5.519026340545626,8.536545909995839,-7.955353584633221,0.2300865256295188
5.527024929444967,8.342161598372309,-7.808495772167405,-0.08967101664880506
5.535023518344309,8.147777286748779,-7.66163795970159,-0.40942855892712904
5.54302210724365,7.953392975125248,-7.514780147235774,-0.7291861012054529
5.5510206961429915,7.759008663501718,-7.3679223347699585,-1.0489436434837769
5.559019285042333,7.564624351878187,-7.221064522304143,-1.368701185762101
5.5670178739416745,7.370240040254657,-7.074206709838328,-1.6884587280404246
5.575016462841016,7.175855728631127,-6.927348897372513,-2.0082162703187483
5.583015051740357,6.981471417007597,-6.780491084906696,-2.3279738125970724
5.591013640639699,6.787087105384067,-6.633633272440881,-2.6477313548753965
5.59901222953904,6.592600501724689,-6.48191862652883,-2.9647660708686714
5.607010818438382,5.411665412355116,-2.0280224208217073,-0.5915669488869131
5.615009407337723,4.197413295703984,-0.8607050799623773,0.42373643775477554
5.623007996237065,4.170929079126165,-0.7516576513013552,0.5302954165360025
5.631006585136406,4.144444862548346,-0.6426102226403332,0.6368543953172295
5.639005174035748,4.117960645970526,-0.5335627939793111,0.7434133740984565
5.647003762935089,4.091476429392706,-0.4245153653182888,0.8499723528796835
5.655002351834431,4.064992212814887,-0.3154679366572667,0.9565313316609105
5.663000940733772,4.038507996237067,-0.20642050799624456,1.0630903104421376
5.6709995296331135,4.0120237796592475,-0.09737307933522243,1.1696492892233645
5.678998118532455,3.985539563081428,0.011674349325799693,1.2762082680045914
5.686996707431796,3.9590553465036082,0.12072177798682171,1.3827672467858185
5.694995296331138,3.9325711299257886,0.22976920664784384,1.4893262255670456
5.702993885230479,3.9318248219325334,0.6012378040585467,1.9738608385968972
5.710992474129821,4.1878419567262375,1.8518570084665962,2.8618849410232308
5.718991063029162,4.35581232361241,2.0038301975540853,2.820661444388163
5.726989651928504,4.433248281351763,2.0455253153870308,2.836674108112016
5.734988240827845,4.419712207829801,1.9764093036157986,2.910199598379039
5.742986829727187,4.406176134307838,1.907293291844566,2.9837250886460622
5.750985418626528,4.392640060785876,1.8381772800733336,3.0572505789130857
5.75898400752587,4.379103987263913,1.7690612683021012,3.1307760691801088
5.766982596425211,4.365567913741951,1.6999452565308688,3.204301559447132
5.7749811853245525,4.352031840219988,1.6308292447596364,3.2778270497141553
5.782979774223894,4.338495766698026,1.561713232988404,3.3513525399811783
5.790978363123235,4.324959693176063,1.4925972212171716,3.424878030248202
5.798976952022577,4.311423619654101,1.4234812094459393,3.498403520515225
5.806975540921918,21.34798946377888,-4.894603010346984,-0.27096067732685025
5.81497412982126,34.272171863880054,-14.23730944414894,-10.645750889606884
5.822972718720601,32.67043704855019,-15.421378813039277,-11.247036115996508
5.830971307619944,31.06870223322015,-16.605448181929745,-11.8483213423862
5.838969896519285,29.466967417890288,-17.789517550820086,-12.449606568775824
5.846968485418627,27.865232602560425,-18.97358691971042,-13.050891795165448
5.854967074317968,26.263497787230563,-20.15765628860076,-13.652177021555074
5.8629656632173095,24.6617629719007,-21.341725657491097,-14.253462247944698
5.870964252116651,23.060028156570837,-22.525795026381434,-14.854747474334323
5.878962841015992,21.458293341240974,-23.709864395271772,-15.456032700723949
5.886961429915334,19.85655852591111,-24.89393376416211,-16.057317927113573
5.894960018814675,18.25482371058125,-26.078003133052448,-16.658603153503197
5.902958607714017,16.653088895251386,-27.262072501942786,-17.25988837989282
5.910957196613358,15.051354079921524,-28.446141870833124,-17.861173606282446
5.9189557855127,13.449619264591664,-29.63021123972346,-18.46245883267207
5.926954374412041,-5.210363123239459,-24.65280620884173,1.379121825027461
5.934952963311383,-3.9531585937031135,-8.274272532575443,8.660756830327673
5.942951552210724,-3.598753032365269,-7.80099432557398,8.437987620343884
5.950950141110066,-3.2443474710274245,-7.327716118572518,8.215218410360096
5.958948730009407,-2.8899419096895795,-6.854437911571055,7.992449200376307
5.9669473189087485,-2.5355363483517346,-6.381159704569592,7.769679990392519
5.97494590780809,-2.18113078701389,-5.9078814975681295,7.546910780408732
5.9829444967074314,-1.8267252256760456,-5.434603290566667,7.324141570424944
5.990943085606773,-1.472319664338201,-4.961325083565204,7.101372360441156
5.998941674506114,-1.117914103000356,-4.488046876563741,6.8786031504573675
6.006940263405456,-0.7635085416625116,-4.014768669562279,6.655833940473579
6.014938852304797,-0.40910298032466663,-3.541490462560816,6.433064730489791
6.022937441204139,-0.05469741898682212,-3.068212255559353,6.210295520506003
6.03093603010348,1.2407619943557284,-1.892760740043976,5.4806249608027695
6.038934619002822,0.3472077625235181,0.19830737741063068,0.776840692615238
6.046933207902163,0.3695788158513637,0.16643799976481707,0.9263143226716815
6.054931796801505,0.3919498691792094,0.13456862211900344,1.0757879527281249
6.062930385700846,0.414320922507055,0.10269924447318984,1.2252615827845683
6.0709289746001875,0.4366919758349006,0.07082986682737621,1.3747352128410117
6.078927563499529,0.45906302916274627,0.03896048918156261,1.5242088428974552
6.0869261523988705,0.4814340824905919,0.007091111535749012,1.6736824729538986
6.094924741298212,0.5038051358184376,-0.024778266110064617,1.8231561030103423
6.102923330197553,4.839159807149729,-1.5698044449668762,1.6898142050799054
6.110921919096895,3.2054480244592973,-3.6940963468168997,2.300373157729614
6.118920507996236,-1.1240251175917193,-10.591301058325529,-2.1751922389464196
6.126919096895578,-1.1416220131702706,-10.324548118532492,-1.864047130762037
6.134917685794919,-1.1592189087488216,-10.057795178739454,-1.5529020225776542
6.142916274694262,-1.1768158043273749,-9.791042238946387,-1.241756914393237
6.150914863593603,-1.1944126999059261,-9.524289299153349,-0.9306118062088542
6.1589134524929445,-1.2120095954844772,-9.257536359360312,-0.6194666980244716
6.166912041392286,-1.2296064910630284,-8.990783419567274,-0.30832158984008884
6.1749106302916275,-1.2472033866415797,-8.724030479774237,0.0028235183442939515
6.182909219190969,-1.2648002822201307,-8.457277539981199,0.3139686265286765
6.19090780809031,-1.282397177798682,-8.190524600188162,0.6251137347130591
6.198906396989652,0.7209992944488226,-6.877653574788787,1.865406396989247
6.206904985888993,1.7703753527751287,-1.4001157102539383,6.268196613358462
6.214903574788335,1.9406528330559383,-1.5647596063390994,6.894045878862437
6.222902163687676,2.2175954281946755,-1.9065796447724952,7.402127183989837
6.230900752587018,2.494538023333413,-2.248399683205891,7.910208489117236
6.238899341486359,2.7714806184721503,-2.5902197216392873,8.418289794244636
6.246897930385701,3.0484232136108877,-2.9320397600726826,8.926371099372036
6.254896519285042,3.325365808749625,-3.273859798506079,9.434452404499435
6.2628951081843836,3.6023084038883626,-3.615679836939475,9.942533709626835
6.270893697083725,3.8792509990271,-3.9574998753728705,10.450615014754234
6.2788922859830665,4.156193594165837,-4.299319913806267,10.958696319881636
6.286890874882408,4.433136189304574,-4.641139952239662,11.466777625009033
6.294889463781749,4.710078784443311,-4.982959990673058,11.974858930136435
6.302888052681091,4.987021379582049,-5.324780029106455,12.482940235263833
6.310886641580432,5.263963974720786,-5.66660006753985,12.991021540391234
6.318885230479774,5.540906569859524,-6.008420105973246,13.499102845518632
6.326883819379115,5.630360301037297,-21.130743179678493,17.6856237064916
6.334882408278457,9.227357428794464,-12.58605738476013,11.786015582154103
6.342880997177798,9.152391930705956,-12.37809407337725,11.505639513820801
6.35087958607714,9.077426432617447,-12.17013076199437,11.225263445487501
6.358878174976481,9.002460934528937,-11.962167450611492,10.9448873771542
6.366876763875823,8.927495436440429,-11.754204139228612,10.664511308820899
6.374875352775164,8.85252993835192,-11.546240827845732,10.384135240487598
6.3828739416745055,8.77756444026341,-11.338277516462854,10.103759172154298
6.390872530573847,8.702598942174902,-11.130314205079975,9.823383103820998
6.398871119473188,8.627633444086392,-10.922350893697095,9.543007035487696
6.40686970837253,8.552667945997882,-10.714387582314217,9.262630967154395
6.414868297271871,8.477702447909374,-10.506424270931337,8.982254898821093
6.422866886171213,8.402736949820865,-10.298460959548457,8.701878830487793
6.430865475070554,3.385503762935662,-7.789220602070313,5.150293508937445
6.438864063969896,3.956518566279437,-2.8533051835488012,3.2132835413870136
6.446862652869237,4.103189320029158,-2.686593021658033,3.0716456076189003
6.454861241768579,4.24986007377888,-2.519880859767265,2.930007673850787
6.462859830667921,4.3965308275286175,-2.3531686978764785,2.7883697400826577
6.4708584195672625,4.543201581278339,-2.1864565359857107,2.646731806314545
6.478857008466604,4.689872335028061,-2.019744374094943,2.505093872546431
6.486855597365945,4.836543088777782,-1.853032212204175,2.363455938778318
6.494854186265287,4.983213842527503,-1.686320050313407,2.2218180050102045
6.502852775164628,5.129884596277225,-1.5196078884226392,2.0801800712420913
6.51085136406397,5.276555350026946,-1.3528957265318713,1.938542137473978
6.518849952963311,5.423226103776668,-1.1861835646411034,1.7969042037058645
6.526848541862653,5.708068438381898,-0.923826669802477,1.6947779868297255
6.534847130761994,6.452603755095626,-0.34326242552525477,1.724106146127312
6.542845719661336,11.37798521704072,1.942912951582754,1.6893959145276172
6.550844308560677,11.245437172423062,1.7245618624085233,1.6836826367423734
6.558842897460019,11.112889127805403,1.5062107732342924,1.6779693589571294
6.56684148635936,10.980341083187744,1.2878596840600618,1.6722560811718854
6.5748400752587015,10.847793038570085,1.0695085948858312,1.6665428033866416
6.582838664158043,10.715244993952426,0.8511575057116003,1.6608295256013976
6.590837253057384,10.582696949334768,0.6328064165373697,1.6551162478161539
6.598835841956726,10.45014890471711,0.41445532736313906,1.6494029700309099
6.606834430856067,10.317600860099452,0.1961042381889082,1.643689692245666
6.614833019755409,10.185052815481793,-0.02224685098532242,1.637976414460422
6.62283160865475,10.337594700533062,-0.6130352775164214,1.8163628096581843
6.630830197554092,14.852945690326662,-13.543275473148604,4.022119680555105
6.638828786453433,13.994946519790851,-14.056561264022474,4.73623025723502
6.646827375352775,13.13694734925504,-14.569847054896343,5.450340833914936
6.654825964252116,12.27894817871923,-15.083132845770212,6.164451410594852
6.662824553151458,11.420949008183417,-15.596418636644081,6.878561987274768
6.670823142050799,10.562949837647606,-16.10970442751795,7.592672563954684
6.6788217309501405,9.704950667111795,-16.62299021839182,8.3067831406346
6.686820319849482,8.846951496575983,-17.13627600926569,9.020893717314516
6.6948189087488235,7.988952326040171,-17.64956180013956,9.735004293994432
6.702817497648165,7.13095315550436,-18.16284759101343,10.449114870674348
6.710816086547506,6.272953984968549,-18.676133381887297,11.163225447354264
6.718814675446848,5.414954814432738,-19.18941917276117,11.87733602403418
6.726813264346189,-2.3079541392289555,-13.265859595485058,19.261662982127483
6.734811853245531,-1.5268295831973486,-11.867497120202756,16.149033799220554
6.742810442144872,-1.4338663918060228,-11.563958833298154,15.786240659857567
6.750809031044214,-1.3409032004146968,-11.260420546393552,15.423447520494578
6.758807619943555,-1.2479400090233708,-10.956882259488951,15.060654381131592
6.766806208842897,-1.154976817632045,-10.65334397258435,14.697861241768603
6.774804797742239,-1.0620136262407087,-10.349805685679716,14.335068102405575
6.7828033866415804,-0.9690504348493828,-10.046267398775115,13.972274963042587
6.790801975540922,-0.8760872434580569,-9.742729111870512,13.609481823679598
6.798800564440263,-0.783124052066731,-9.43919082496591,13.24668868431661
6.806799153339605,-0.690160860675405,-9.13565253806131,12.88389554495362
6.814797742238946,-0.5971976692840792,-8.832114251156707,12.521102405590634
6.822796331138288,-0.5042344778927532,-8.528575964252106,12.158309266227645
6.830794920037629,0.5865124311248195,-8.486458674909285,8.542162881333251
6.838793508936971,-2.933669332078993,-2.7850966603951877,3.9224040451552127
6.846792097836312,-3.1489572796192795,-1.9933217862874222,4.053533064025234
6.854790686735654,-3.111222760223563,-1.870049416191689,4.121285817054949
6.862789275634995,-3.073488240827846,-1.7467770460959557,4.189038570084666
6.8707878645343365,-3.0357537214321293,-1.6235046760002225,4.256791323114381
6.878786453433678,-2.9980192020364123,-1.5002323059044893,4.324544076144098
6.8867850423330195,-2.9602846826406957,-1.3769599358087563,4.392296829173813
6.894783631232361,-2.9225501632449786,-1.253687565713023,4.4600495822035295
6.902782220131702,-2.884815643849262,-1.13041519561729,4.527802335233245
6.910780809031044,-2.847081124453545,-1.0071428255215567,4.595555088262961
6.918779397930385,-2.8093466050578284,-0.8838704554258237,4.663307841292677
6.926777986829727,-1.100784571965867,-1.8947826904983267,4.0411255879587005
6.934776575729068,-4.578143731669475,-0.8635849703945658,-0.04015851364061568
6.94277516462841,-5.470104020253396,-0.6678547949753855,-0.4640837253057156
6.950773753527751,-6.3620643088373185,-0.472124619556205,-0.8880089369708156
6.958772342427093,-7.254024597421239,-0.2763944441370245,-1.3119341486359155
6.966770931326434,-8.145984886005161,-0.08066426871784416,-1.7358593603010155
6.974769520225776,-9.037945174589083,0.1150659067013362,-2.159784571966115
6.982768109125117,-9.929905463173004,0.3107960821205167,-2.5837097836312153
6.9907666980244585,-10.821865751756924,0.5065262575396972,-3.007634995296315
6.9987652869238,-11.713826040340846,0.7022564329588776,-3.4315602069614153
7.006763875823141,28.573568074551112,-5.934082945381054,19.989760522951528
7.014762464722483,28.830821835476087,-6.898288909793977,19.652179052994704
7.022761053621824,29.08807559640106,-7.8624948742069005,19.314597583037884
7.030759642521166,29.345329357326033,-8.826700838619825,18.97701611308106
7.038758231420507,29.602583118251008,-9.790906803032748,18.63943464312424
7.046756820319849,29.85983687917598,-10.75511276744567,18.30185317316742
7.05475540921919,30.117090640100955,-11.719318731858593,17.964271703210596
7.062753998118532,30.37434440102593,-12.683524696271517,17.626690233253775
7.070752587017873,30.6315981619509,-13.647730660684442,17.28910876329695
7.078751175917215,30.888851922875876,-14.611936625097364,16.95152729334013
7.086749764816556,31.14610568380085,-15.576142589510287,16.61394582338331
7.094748353715898,31.40335944472585,-16.540348553923316,16.27636435342645
7.10274694261524,31.660613205650826,-17.504554518336242,15.938782883469628
7.110745531514581,31.9178669665758,-18.468760482749165,15.601201413512808
7.118744120413923,32.175120727500776,-19.432966447162087,15.263619943555986
7.126742709313264,13.063429915333383,-10.890080903103948,17.20212935089317
7.134741298212606,11.068445888609439,-2.412311613262431,11.287868700443497
7.142739887111947,11.165081901434137,-2.2525030717837513,10.99820551673163
7.150738476011289,11.261717914258833,-2.0926945303050717,10.708542333019764
7.15873706491063,11.358353927083531,-1.9328859888263916,10.418879149307898
7.166735653809972,11.454989939908227,-1.773077447347712,10.129215965596032
7.174734242709313,11.551625952732923,-1.6132689058690324,9.839552781884166
7.1827328316086545,11.648261965557621,-1.4534603643903528,9.5498895981723
7.190731420507996,11.744897978382317,-1.2936518229116731,9.260226414460433
7.198730009407337,11.841533991207015,-1.1338432814329933,8.970563230748567
7.206728598306679,11.938170004031711,-0.9740347399543137,8.680900047036701
7.21472718720602,12.03480601685641,-0.814226198475634,8.391236863324835
7.222725776105362,12.131442029681105,-0.6544176569969544,8.101573679612969
7.230724365004703,4.404390135734522,-4.67150826501798,4.778228463916342
7.238722953904045,4.68212746942613,-2.8938885230480573,3.822242356538198
7.246721542803386,5.063393540294754,-1.472805895265006,2.068551740357519
7.254720131702728,5.270028757055501,-0.7812783984007592,1.422421625117595
7.262718720602069,5.407104574317965,-0.38034912982126867,1.21745778457197
7.270717309501411,5.544180391580429,0.020580138758221844,1.0124939440263454
7.278715898400752,5.6812562088428935,0.42150940733771214,0.8075301034807206
7.2867144873000935,5.818332026105358,0.8224386759172027,0.6025662629350957
7.294713076199435,5.955407843367822,1.223367944496693,0.39760242238947097
7.3027116650987765,6.092483660630286,1.6242972130761837,0.1926385818438463
7.310710253998118,6.22955947789275,2.025226481655674,-0.012325258701778585
7.318708842897459,6.3666352951552145,2.4261557502351643,-0.21728909924740347
7.326707431796801,6.503711112417679,2.827085018814655,-0.42225293979302814
7.334706020696142,7.575848824082702,4.397052022577723,-0.8686351834430863
7.342704609595484,6.805053712498171,2.2689147672534036,0.724916784730653
7.350703198494825,6.708010591755557,2.2255489238232387,0.6599643881263615
7.358701787394167,6.610967471012944,2.1821830803930737,0.5950119915220701
7.366700376293508,6.51392435027033,2.138817236962909,0.5300595949177785
7.37469896519285,6.416881229527717,2.095451393532744,0.4651071983134871
7.382697554092191,6.319838108785103,2.0520855501025785,0.40015480170919565
7.3906961429915325,6.22279498804249,2.0087197066724136,0.3352024051049042
7.398694731890874,6.1257518672998765,1.965353863242249,0.2702500085006127
7.406693320790216,6.028708746557252,1.9219880198120791,0.20529761189631401
7.414691909689558,5.931665625814639,1.8786221763819142,0.14034521529202248
7.422690498588899,6.000926891546877,1.816805402499658,0.11739913990056064
7.430689087488241,14.16986116337412,-0.917594220366899,1.3649949827532244
7.438687676387582,14.9923827218564,-1.4120069967074427,1.7595920351207361
7.446686265286924,15.814904280338679,-1.9064197730479866,2.1541890874882483
7.454684854186265,16.63742583882096,-2.4008325493885305,2.54878613985576
7.462683443085607,17.45994739730324,-2.895245325729074,2.943383192223272
7.470682031984948,18.282468955785518,-3.389658102069618,3.3379802445907836
7.4786806208842895,19.104990514267797,-3.884070878410162,3.7325772969582958
7.486679209783631,19.927512072750076,-4.378483654750706,4.1271743493258075
7.4946777986829725,20.75003363123236,-4.872896431091249,4.52177140169332
7.502676387582314,21.572555189714638,-5.367309207431793,4.916368454060831
7.510674976481655,22.395076748196917,-5.861721983772337,5.310965506428343
7.518673565380997,23.2175983066792,-6.356134760112881,5.7055625587958545
7.526672154280338,32.235809031039565,-11.960390404512626,8.736124647223335
7.53467074317968,15.372581373471697,-19.05320602069639,13.135335841956781
7.542669332079021,4.795375315359643,-9.746133060378028,11.129850011759174
7.550667920978363,4.137036913110437,-9.16787144017791,11.05486324082785
7.558666509877704,3.4786985108612303,-8.589609819977793,10.979876469896523
7.566665098777046,2.8203601086120242,-8.011348199777675,10.904889698965198
7.574663687676387,2.1620217063628178,-7.433086579577559,10.82990292803387
7.5826622765757286,1.5036833041136113,-6.85482495937744,10.754916157102544
7.59066086547507,0.8453449018644053,-6.276563339177323,10.679929386171219
7.5986594543744115,0.18700649961519833,-5.698301718977206,10.604942615239892
7.606658043273753,-0.4713319026340077,-5.120040098777088,10.529955844308567
7.614656632173094,-1.1296703048832146,-4.541778478576971,10.45496907337724
7.622655221072436,-1.7880087071324207,-3.9635168583768534,10.379982302445914
7.630653809971777,0.8732317340854829,-1.6097447475701059,6.833791784258929
7.638652398871119,-0.666914981185085,2.8413672389464826,6.396537511759181
7.64665098777046,-2.738745061147698,2.1690771401691418,5.571689557855741
7.654649576669802,-2.572325988068173,2.7031966133584158,3.722358252854969
7.662648165569143,-2.380258606523228,2.767185324553147,3.363130488109864
7.670646754468485,-2.1881912249782833,2.8311740357478783,3.0039027233647593
7.678645343367826,-1.9961238434333384,2.8951627469426096,2.644674958619654
7.686643932267168,-1.8040564618883936,2.959151458137341,2.2854471938745498
7.694642521166509,-1.611989080343449,3.0231401693320716,1.9262194291294445
7.7026411100658505,-1.4199216987985042,3.087128880526803,1.5669916643843398
7.710639698965192,-1.2278543172535592,3.151117591721534,1.2077638996392346
7.718638287864534,-1.0357869357085931,3.2151063029162725,0.8485361348940899
7.726636876763876,-0.8437195541636484,3.279095014111004,0.4893083701489851
7.734635465663217,5.119556781463458,-2.506878328356998,6.214664316536462
7.742634054562559,5.03626712748988,-2.1999759499366123,6.256135261155874
7.7506326434619,4.952977473516302,-1.8930735715162266,6.297606205775286
7.758631232361242,4.869687819542724,-1.586171193095841,6.339077150394698
7.766629821260583,4.786398165569146,-1.2792688146754554,6.38054809501411
7.774628410159925,4.703108511595569,-0.9723664362550697,6.422019039633522
7.782626999059266,4.619818857621991,-0.665464057834684,6.463489984252933
7.7906255879586075,4.5365292036484135,-0.3585616794142985,6.504960928872345
7.798624176857949,4.453239549674835,-0.051659300993912805,6.546431873491757
7.80662276575729,4.369949895701257,0.2552430774264729,6.587902818111169
7.814621354656632,4.28666024172768,0.5621454558468586,6.629373762730581
7.822619943555973,4.203370587754102,0.8690478342672443,6.670844707349993
7.830618532455315,-2.3220296331156316,5.442608419565824,-0.9223457196609514
7.838617121354656,-0.8714371377416659,6.196284192638013,-0.520898946985164
7.846615710253998,-0.5190691945093864,6.0537717000981335,0.1502084635692602
7.854614299153339,-0.1667012512771069,5.9112592075582535,0.8213158741236846
7.862612888052681,0.18566669195517238,5.7687467150183735,1.492423284678109
7.870611476952022,0.5380346351874519,5.6262342224784945,2.1635306952325335
7.878610065851364,0.8904025784197314,5.4837217299386145,2.834638105786958
7.886608654750705,1.2427705216520109,5.3412092373987345,3.5057455163413813
7.8946072436500465,1.5951384648842903,5.1986967448588555,4.176852926895806
7.902605832549388,1.9475064081165694,5.0561842523189755,4.84796033745023
7.910604421448729,2.2998743513488487,4.9136717597790955,5.519067748004654
7.918603010348071,2.6522422945811286,4.7711592672392165,6.190175158559079
7.926601599247412,10.527861790527874,4.7998767638757895,9.02129531200939
7.934600188146754,22.22042333019942,8.335885230480615,10.304971777987332
7.942598777046095,18.63305758787309,6.626045748524768,9.023310730779126
7.950597365945437,18.583429979474904,6.490342416402985,8.626108077482279
7.958595954844778,18.533802371076714,6.354639084281202,8.228905424185433
7.96659454374412,18.484174762678528,6.218935752159418,7.831702770888586
7.974593132643461,18.43454715428034,6.0832324200376355,7.434500117591739
7.982591721542803,18.384919545882152,5.947529087915853,7.037297464294892
7.990590310442144,18.335291937483966,5.811825755794069,6.640094810998045
7.9985888993414855,18.28566432908578,5.676122423672286,6.242892157701199
8.006587488240827,18.23603672068759,5.540419091550503,5.845689504404351
8.01458607714017,18.1864091122894,5.404715759428704,5.448486851107461
8.02258466603951,18.136781503891218,5.2690124273069365,5.0512841978106575
8.030583254938852,14.937200564440499,3.4609298212606747,4.550228974600042
8.038581843838193,13.001511542080085,3.0317372458210405,5.151903755698581
8.046580432737535,8.284059266228535,2.5496422075886427,3.9976077140173145
8.054579021636876,7.237419048026393,2.464868291163221,3.558307729899492
8.062577610536218,6.727067525137184,2.4140720577635015,3.3528374851865155
8.070576199435559,6.21671600224809,2.363275824363793,3.147367240473585
8.078574788334901,5.706364479358882,2.3124795909640734,2.9418969957606085
8.086573377234242,5.196012956469788,2.2616833575643653,2.7364267510476776
8.094571966133584,4.685661433580581,2.2108871241646457,2.530956506334701
8.102570555032925,4.175309910691485,2.160090890764937,2.3254862616217706
8.110569143932267,3.664958387802278,2.1092946573652176,2.120016016908794
8.118567732831607,3.154606864913184,2.058498423965509,1.9145457721958634
8.12656632173095,2.819370649106138,1.8938617121358856,-1.6825014111003194
8.13456491063029,4.825952169251164,-0.29321493237846374,-3.8971071273227333
8.142563499529633,4.7809708574838945,-0.1501003955128113,-4.00504507429773
8.150562088428973,4.735989545716635,-0.006985858647190646,-4.112983021272702
8.158560677328316,4.691008233949366,0.1361286782184618,-4.2209209682476985
8.166559266227656,4.646026922182107,0.27924321508408245,-4.32885891522267
8.174557855126999,4.601045610414837,0.4223577519497349,-4.436796862197667
8.18255644402634,4.556064298647578,0.5654722888153556,-4.544734809172639
8.190555032925682,4.511082986880308,0.708586825681008,-4.652672756147635
8.198553621825024,4.466101675113039,0.8517013625466605,-4.760610703122632
8.206552210724364,4.421120363345779,0.9948158994122811,-4.868548650097604
8.214550799623707,4.376139051578511,1.1379304362779334,-4.976486597072601
8.222549388523047,4.3311577398112515,1.2810449731435543,-5.084424544047573
8.23054797742239,2.1750333960487835,2.729609830667925,-3.279681326434436
8.23854656632173,2.3054065790671405,2.750770946499559,-3.1944274269413975
8.246545155221073,2.5580931832205582,2.7696063332625265,-3.259534220455399
8.254543744120413,2.81077978737392,2.7884417200254896,-3.3246410139693863
8.262542333019756,3.0634663915273372,2.807277106788457,-3.389747807483388
8.270540921919096,3.3161529956806985,2.8261124935514204,-3.4548546009973755
8.278539510818439,3.5688395998341162,2.844947880314388,-3.5199613945113772
8.286538099717779,3.821526203987478,2.863783267077351,-3.5850681880253648
8.294536688617121,4.074212808140896,2.8826186538403187,-3.650174981539366
8.302535277516462,4.326899412294257,2.901454040603282,-3.7152817750533536
8.310533866415804,4.579586016447674,2.9202894273662494,-3.7803885685673553
8.318532455315145,4.832272620601035,2.9391248141292126,-3.845495362081343
8.326531044214487,20.396430385699606,1.7976006585142164,7.745215898399232
8.334529633113828,20.052298583197988,9.289466318880228,22.544379495804723
8.34252822201317,18.860993600159578,9.521667778442955,22.28010288681736
8.35052681091251,17.66968861712143,9.75386923800563,22.015826277830058
8.358525399811853,16.478383634083016,9.986070697568355,21.751549668842696
8.366523988711194,15.287078651044872,10.218272157131029,21.487273059855394
8.374522577610536,14.09577366800646,10.450473616693756,21.22299645086803
8.382521166509877,12.904468684968313,10.68267507625643,20.95871984188073
8.390519755409219,11.713163701929902,10.914876535819156,20.69444323289337
8.39851834430856,10.521858718891755,11.147077995381832,20.430166623906064
8.406516933207902,9.330553735853343,11.379279454944557,20.165890014918705
8.414515522107243,8.139248752815197,11.611480914507231,19.9016134059314
8.422514111006585,6.947943769776785,11.843682374069957,19.63733679694404
8.430512699905925,5.098301034808676,11.337580432739038,17.241787394171915
8.438511288805268,5.728970324125442,6.992013426836653,7.843737834602017
8.446509877704608,10.12786200159202,1.0932693151940394,6.39314991436911
8.45450846660395,10.047260836529416,1.238679559543623,6.348439853342017
8.462507055503291,9.966659671466829,1.3840898038931746,6.303729792314933
8.470505644402634,9.886058506404225,1.5295000482427585,6.25901973128784
8.478504233301974,9.805457341341638,1.67491029259231,6.214309670260756
8.486502822201317,9.724856176279035,1.8203205369418938,6.169599609233663
8.494501411100657,9.644255011216448,1.9657307812914453,6.124889548206579
8.5025,9.563653846153844,2.1111410256410292,6.080179487179486
8.510498588899342,9.48305268109124,2.256551269990613,6.0354694261523925
8.518497177798682,9.402451516028652,2.4019615143401642,5.990759365125309
8.526495766698025,4.13913264345962,3.004037629349947,6.321701787393848
8.534494355597365,2.5285457419153072,0.919043809870595,4.582248525677986
8.542492944496708,2.15897653223279,1.115998310725369,4.580528399032966
8.550491533396048,1.7894073225503548,1.3129528115800995,4.578808272387946
8.55849012229539,1.4198381128678377,1.5099073124348736,4.577088145742927
8.566488711194731,1.0502689031854027,1.7068618132896038,4.575368019097907
8.574487300094074,0.6806996935028855,1.903816314144378,4.573647892452888
8.582485888993414,0.3111304838204503,2.100770814999108,4.571927765807868
8.590484477892756,-0.058438725862066665,2.2977253158538824,4.570207639162848
8.598483066792097,-0.4280079355445019,2.494679816708613,4.568487512517828
8.60648165569144,-0.7975771452270188,2.691634317563387,4.566767385872809
8.61448024459078,-1.167146354909454,2.8885888184181177,4.565047259227789
8.622478833490122,-1.536715564591971,3.085543319272891,4.563327132582769
8.630477422389463,-5.030809736594526,4.247186500469571,3.8801293508936006
8.638476011288805,-4.865273541104003,4.934891451461165,3.9824284587139247
8.646474600188146,-4.677263698803373,5.186201954298511,4.033172194741999
8.654473189087488,-4.489253856502702,5.437512457135913,4.083915930770085
8.662471777986829,-4.301244014202073,5.688822959973258,4.13465966679816
8.670470366886171,-4.113234171901402,5.94013346281066,4.185403402826246
8.678468955785512,-3.9252243296007734,6.191443965648006,4.236147138854321
8.686467544684854,-3.7372144873001023,6.442754468485408,4.286890874882406
8.694466133584195,-3.549204644999473,6.694064971322754,4.337634610910481
8.702464722483537,-3.3611948026988023,6.945375474160155,4.388378346938567
8.710463311382878,-3.1731849603981734,7.196685976997501,4.439122082966642
8.71846190028222,-2.9851751180975024,7.447996479834902,4.489865818994727
8.72646048918156,0.23701473816063068,8.739062088428323,7.150341956724716
8.734459078080903,22.963716368767663,16.08435606773283,4.547356538099752
8.742457666980243,21.2677838321658,15.74615764140693,2.6765485345559568
8.750456255879586,21.114179862817267,15.349489756961873,3.0214197316625535
8.758454844778926,20.960575893468764,14.952821872516903,3.366290928769074
8.766453433678269,20.806971924120226,14.556153988071847,3.7111621258756706
8.77445202257761,20.653367954771724,14.159486103626879,4.056033322982191
8.782450611476952,20.49976398542319,13.762818219181822,4.400904520088788
8.790449200376292,20.346160016074688,13.366150334736854,4.745775717195308
8.798447789275635,20.19255604672615,12.969482450291796,5.090646914301905
8.806446378174975,20.038952077377647,12.572814565846828,5.435518111408426
8.814444967074317,19.885348108029113,12.176146681401772,5.780389308515022
8.82244355597366,19.731744138680575,11.779478796956715,6.125260505621618
8.830442144873,19.578140169332073,11.382810912511747,6.470131702728139
8.838440733772343,19.38289196034433,10.928803531369661,6.737280700484698
8.846439322671683,18.473513930096342,9.491518633765264,5.671622548664999
8.854437911571026,11.008221542803323,5.698541157102529,1.4515649106302586
8.862436500470366,4.21527963662403,5.37106118981761,-0.24615290434001144
8.870435089369709,4.127414540655135,5.172529050420501,-0.015387645497791647
8.87843367826905,4.039549444686259,4.973996911023436,0.21537761334437688
8.886432267168392,3.9516843487173645,4.775464771626327,0.44614287218659665
8.894430856067732,3.863819252748489,4.576932632229262,0.6769081310287652
8.902429444967074,3.7759541567795942,4.378400492832153,0.907673389870985
8.910428033866415,3.688089060810719,4.179868353435088,1.1384386487131535
8.918426622765757,3.600223964841824,3.981336214037979,1.3692039075553732
8.926425211665098,2.332231420509037,2.3208043273756918,-1.2202775164611483
8.93442380056444,1.4354004276944277,-0.3434605231255689,-2.576506793649565
8.94242238946378,1.4480167586387482,-0.39359600818535245,-2.603388649125699
8.950420978363123,1.4606330895830715,-0.44373149324514716,-2.630270504601839
8.958419567262464,1.473249420527392,-0.4938669783049307,-2.6571523600779727
8.966418156161806,1.4858657514717153,-0.5440024633647254,-2.6840342155541124
8.974416745061147,1.4984820824160359,-0.594137948424509,-2.7109160710302467
8.982415333960489,1.5110984133603593,-0.6442734334843037,-2.7377979265063863
8.99041392285983,1.5237147443046797,-0.6944089185440872,-2.76467978198252
8.998412511759172,1.5363310752490031,-0.744544403603882,-2.7915616374586603
9.006411100658513,1.5489474061933237,-0.7946798886636655,-2.818443492934794
9.014409689557855,1.561563737137647,-0.84481537372346,-2.845325348410934
9.022408278457196,1.5741800680819675,-0.8949508587832438,-2.872207203887068
9.030406867356538,1.6162104891816844,-1.4729640169332523,-3.738518579492085
9.038405456255878,5.225817706700077,-3.0134974391136162,-4.201239155430091
9.04640404515522,5.460265234660802,-3.035804614821782,-4.408491481133051
9.054402634054561,5.6947127626214735,-3.058111790529943,-4.615743806835965
9.062401222953904,5.929160290582197,-3.080418966238109,-4.8229961325389255
9.070399811853244,6.163607818542869,-3.10272614194627,-5.030248458241839
9.078398400752587,6.398055346503593,-3.125033317654436,-5.237500783944799
9.086396989651927,6.632502874464265,-3.147340493362597,-5.444753109647713
9.09439557855127,6.8669504024249886,-3.1696476690707627,-5.652005435350673
9.10239416745061,7.1013979303856605,-3.1919548447789237,-5.859257761053587
9.110392756349952,7.335845458346385,-3.2142620204870895,-6.066510086756546
9.118391345249293,7.570292986307057,-3.2365691961952505,-6.27376241245946
9.126389934148635,11.91851317026988,-2.137492944497496,-8.34087017873808
9.134388523047976,35.171904163984756,9.69358722582564,16.34825704807647
9.142387111947318,35.14479315739961,9.538162014160525,16.17498235381493
9.15038570084666,35.117682150814474,9.38273680249541,16.001707659553386
9.158384289746001,35.090571144229344,9.22731159083033,15.828432965291885
9.166382878645344,35.0634601376442,9.071886379165216,15.655158271030343
9.174381467544684,35.03634913105907,8.916461167500136,15.48188357676884
9.182380056444027,35.00923812447393,8.761035955835021,15.308608882507299
9.190378645343367,34.982127117888794,8.605610744169942,15.135334188245796
9.19837723424271,34.95501611130366,8.450185532504827,14.962059493984254
9.20637582314205,34.927905104718526,8.294760320839746,14.788784799722752
9.214374412041392,34.90079409813338,8.139335109174633,14.61551010546121
9.222373000940733,34.87368309154825,7.983909897509552,14.442235411199707
9.230371589840075,12.593269520226041,6.317427563499649,5.503396989651984
9.238370178739416,9.416051689230652,5.074779019591801,4.860271606200664
9.246368767638758,9.073329543130571,5.15737314409588,4.815409955417396
9.254367356538099,8.730607397030568,5.23996726859994,4.770548304634138
9.262365945437441,8.387885250930488,5.322561393104017,4.725686653850871
9.270364534336782,8.045163104830483,5.405155517608077,4.680825003067612
9.278363123236124,7.702440958730403,5.487749642112155,4.635963352284345
9.286361712135465,7.359718812630399,5.570343766616215,4.5911017015010875
9.294360301034807,7.01699666653032,5.652937891120294,4.546240050717819
9.302358889934148,6.674274520430314,5.7355320156243526,4.501378399934562
9.31035747883349,6.331552374330235,5.818126140128431,4.4565167491512945
9.31835606773283,5.988830228230231,5.900720264632491,4.411655098368036
9.326354656632173,2.0952869238020275,3.2068739416759877,4.080660395107859
9.334353245531513,-1.0529184242203424,4.391394359643533,3.758253350731868
9.342351834430856,-1.2029994739983252,4.382793726418433,3.534636886879286
9.350350423330196,-1.3530805237762749,4.374193093193337,3.3110204230267537
9.358349012229539,-1.5031615735542578,4.365592459968237,3.0874039591741718
9.36634760112888,-1.6532426233322073,4.35699182674314,2.8637874953216396
9.374346190028222,-1.80332367311019,4.34839119351804,2.640171031469058
9.382344778927562,-1.9534047228881395,4.339790560292943,2.416554567616526
9.390343367826905,-2.1034857726661222,4.331189927067844,2.192938103763944
9.398341956726245,-2.253566822444072,4.322589293842746,1.9693216399114115
9.406340545625588,-2.403647872222055,4.313988660617647,1.7457051760588294
9.414339134524928,-2.553728922000005,4.305388027392549,1.5220887122062972
9.42233772342427,-2.7038099717779875,4.296787394167451,1.2984722483537152
9.430336312323611,-3.499402163687552,1.8112885700851955,-0.08250729068678496
9.438334901222953,-3.177770649106303,2.2293317027281234,1.101498965192845
9.446333490122294,-3.1791926204661856,2.050963170272828,0.8883810076304147
9.454332079021636,-3.180614591826069,1.8725946378174936,0.6752630500679371
9.462330667920979,-3.1820365631859517,1.694226105362159,0.4621450925054593
9.47032925682032,-3.1834585345458346,1.5158575729068637,0.24902713494302897
9.478327845719662,-3.184880505905718,1.337489040451529,0.03590917738055133
9.486326434619002,-3.186302477265601,1.159120507996234,-0.1772087801818789
9.494325023518345,-3.1877244486254837,0.9807519755408991,-0.39032673774435667
9.502323612417685,-3.1891464199853665,0.802383443085604,-0.6034446953067869
9.510322201317027,-3.1905683913452494,0.6240149106302693,-0.8165626528692647
9.518320790216368,-3.1919903627051323,0.4456463781749742,-1.029680610431695
9.52631937911571,-3.829615945437663,1.5438464252122368,-8.639949435560883
9.534317968015051,0.6713011764227494,15.002603071040472,-13.186301358500598
9.542316556914393,2.03888786554579,15.589854307650253,-12.572302152560757
9.550315145813734,3.406474554668527,16.177105544259902,-11.958302946621055
9.558313734713076,4.774061243791567,16.764356780869683,-11.344303740681216
9.566312323612417,6.141647932914304,17.351608017479332,-10.730304534741514
9.57431091251176,7.5092346220373445,17.938859254089113,-10.116305328801673
9.5823095014111,8.87682131116008,18.526110490698763,-9.50230612286197
9.590308090310442,10.244408000283121,19.113361727308543,-8.88830691692213
9.598306679209783,11.611994689405858,19.700612963918193,-8.274307710982427
9.606305268109125,12.979581378528898,20.287864200527974,-7.660308505042588
9.614303857008466,14.347168067651635,20.875115437137623,-7.046309299102885
9.622302445907808,15.714754756774676,21.462366673747404,-6.4323100931630455
9.630301034807148,11.069531044213884,7.01106961430043,-8.58822342427158
9.63829962370649,11.712306451612887,5.988169028616526,-7.8672852395836665
9.646298212605831,11.986580645161244,5.777969552595145,-7.5410632213557225
9.654296801505174,12.26085483870966,5.567770076573718,-7.214841203127706
9.662295390404514,12.535129032258016,5.3575706005523385,-6.8886191848997615
9.670293979303857,12.809403225806435,5.1473711245309115,-6.5623971666717456
9.678292568203197,13.083677419354789,4.937171648509531,-6.236175148443801
9.68629115710254,13.357951612903207,4.726972172488104,-5.909953130215785
9.69428974600188,13.632225806451562,4.516772696466724,-5.58373111198784
9.702288334901223,13.90649999999998,4.306573220445297,-5.257509093759824
9.710286923800563,14.180774193548334,4.096373744423916,-4.93128707553188
9.718285512699905,14.455048387096753,3.8861742684024896,-4.605065057303863
9.726284101599246,12.634749361645742,3.3403499529637912,-2.494340545625663
9.734282690498588,8.999815145814033,0.6015921919100093,-2.460968955785464
9.742281279397929,6.877555622176531,-1.9362804317037474,-2.6071467131175217
9.750279868297271,6.781484658803111,-1.993940589044062,-2.721939648310282
9.758278457196612,6.685413695429712,-2.0516007463843637,-2.8367325835030166
9.766277046095954,6.589342732056291,-2.109260903724678,-2.951525518695777
9.774275634995297,6.49327176868287,-2.166921061064993,-3.0663184538885373
9.782274223894637,6.397200805309471,-2.2245812184052944,-3.181111389081272
9.79027281279398,6.301129841936051,-2.2822413757456093,-3.2959043242740327
9.79827140169332,6.205058878562652,-2.3399015330859108,-3.4106972594667675
9.806269990592662,6.108987915189232,-2.3975616904262256,-3.525490194659528
9.814268579492003,6.012916951815832,-2.455221847766527,-3.6402831298522624
9.822267168391345,5.916845988442412,-2.512882005106842,-3.755076065045023
9.830265757290686,5.426311853245563,-3.6367500783944604,-4.33945758858573
9.838264346190028,3.9156936380143907,-3.5652838062525953,-6.775760244153229
9.846262935089369,3.876165727756022,-3.5436132107462424,-6.768505710035223
9.854261523988711,3.836637817497644,-3.521942615239885,-6.761251175917215
9.862260112888052,3.797109907239275,-3.500272019733532,-6.753996641799208
9.870258701787394,3.7575819969808975,-3.4786014242271746,-6.7467421076812
9.878257290686735,3.7180540867225282,-3.4569308287208216,-6.739487573563194
9.886255879586077,3.6785261764641506,-3.4352602332144637,-6.732233039445186
9.894254468485418,3.638998266205782,-3.413589637708111,-6.724978505327179
9.90225305738476,3.599470355947404,-3.3919190422017533,-6.717723971209171
9.9102516462841,3.559942445689035,-3.3702484466954004,-6.710469437091164
9.918250235183443,3.5204145354306573,-3.348577851189043,-6.703214902973157
9.926248824082784,2.6768508936953688,-3.7893433678249573,-7.020230479774432
9.934247412982126,16.792896946891183,-9.246851193021476,0.6867454032326341
9.942246001881466,25.486183935850818,-8.534780568248005,5.599390942077652
9.950244590780809,26.832993952425802,-8.42003890606101,5.960470098105108
9.95824317968015,28.17980396900049,-8.305297243874039,6.321549254132484
9.966241768579492,29.526613985575473,-8.190555581687045,6.68262841015994
9.974240357478832,30.87342400215016,-8.075813919500074,7.043707566187316
9.982238946378175,32.220234018725144,-7.96107225731308,7.404786722214772
9.990237535277515,33.56704403529983,-7.84633059512611,7.765865878242149
9.998236124176858,34.913854051874814,-7.731588932939116,8.126945034269605
10.006234713076198,36.2606640684495,-7.616847270752146,8.488024190296981
10.01423330197554,37.607474085024485,-7.502105608565151,8.849103346324437
10.022231890874881,38.95428410159917,-7.387363946378182,9.210182502351813
10.030230479774223,28.811929915334026,8.0115192850419,6.26904797742279
10.038229068673564,23.229168621183724,1.88325788399038,6.4800317283845255
10.046227657572906,22.6251842662277,2.1093089134524776,6.363688617121363
10.054226246472247,22.021199911271804,2.3353599429145255,6.247345505858226
10.06222483537159,21.417215556315778,2.561410972376623,6.131002394595063
10.07022342427093,20.813231201359883,2.787462001838671,6.014659283331927
10.078222013170272,20.209246846403857,3.0135130313007688,5.898316172068764
10.086220602069615,19.605262491447828,3.2395640607628664,5.781973060805601
10.094219190968955,19.001278136491933,3.4656150902249143,5.665629949542465
10.102217779868297,18.397293781535907,3.691666119687012,5.549286838279302
10.110216368767638,17.793309426580016,3.91771714914906,5.432943727016165
10.11821495766698,17.189325071623987,4.1437681786111575,5.316600615753003
10.126213546566321,8.332651458137459,3.702490122295363,2.0800065851366005
10.134212135465663,6.32751189573026,4.943880450945288,-0.24784854186265684
10.142210724365004,6.14612454101296,4.962887850372753,-0.27984289746001856
10.150209313264346,5.964737186295619,4.981895249800222,-0.31183725305738735
10.158207902163687,5.7833498315783185,5.000902649227687,-0.34383160865474904
10.16620649106303,5.601962476860978,5.019910048655156,-0.37582596425211784
10.17420507996237,5.420575122143677,5.03891744808262,-0.40782031984947953
10.182203668861712,5.239187767426336,5.0579248475100895,-0.4398146754468484
10.190202257761053,5.057800412709035,5.076932246937555,-0.47180903104421
10.198200846660395,4.8764130579916944,5.095939646365024,-0.5038033866415789
10.206199435559736,4.6950257032743945,5.114947045792489,-0.5357977422389406
10.214198024459078,4.513638348557053,5.133954445219958,-0.5677920978363094
10.222196613358419,4.332250993839752,5.152961844647423,-0.599786453433671
10.230195202257761,2.9769513170272592,5.264083254938854,-0.029070084666029117
10.238193791157101,-2.3789917521713266,4.578680763088242,-1.4298595462600274
10.246192380056444,-2.626296960117271,4.441681676475088,-1.5478852359491602
10.254190968955784,-2.8736021680631607,4.304682589861964,-1.6659109256382667
10.262189557855127,-3.1209073760091055,4.167683503248811,-1.7839366153273994
10.270188146754467,-3.3682125839549952,4.030684416635687,-1.9019623050165058
10.27818673565381,-3.61551779190094,3.8936853300225334,-2.0199879947056383
10.28618532455315,-3.8628229998468298,3.7566862434094097,-2.138013684394745
10.294183913452493,-4.1101282077927745,3.619687156796256,-2.2560393740838776
10.302182502351833,-4.357433415738663,3.482688070183132,-2.374065063772984
10.310181091251176,-4.604738623684608,3.3456889835699783,-2.492090753462117
10.318179680150516,-4.852043831630498,3.2086898969568542,-2.610116443151223
10.326178269049858,-3.785630291627421,2.9458699435560067,-3.1247730479774183
10.334176857949199,-2.2939090310443504,3.5362750705550474,-3.3517436500469606
10.342175446848541,-1.2864310912511512,2.1990529162748595,-4.618241063029081
10.350174035747882,-1.0613836800112135,1.3419660290582227,-4.899530608689618
10.358172624647224,-0.669354075932333,1.3318937319257174,-4.742916263080272
10.366171213546565,-0.2773244718535395,1.3218214347932145,-4.58630191747096
10.374169802445907,0.11470513222534096,1.311749137660709,-4.429687571861614
10.382168391345248,0.5067347363041346,1.3016768405282062,-4.273073226252303
10.39016698024459,0.8987643403830148,1.2916045433957009,-4.1164588806429565
10.398165569143933,1.2907939444618954,1.2815322462631957,-3.9598445350336107
10.406164158043273,1.682823548540689,1.2714599491306926,-3.8032301894242995
10.414162746942615,2.0748531526195695,1.2613876519981875,-3.6466158438149527
10.422161335841956,2.4668827566983627,1.2513153548656846,-3.4900014982056415
10.430159924741298,28.449975917214996,-1.4704624647227091,-4.474036876764062
10.438158513640639,15.3543921605519,-7.530567936657261,-9.845232094700533
10.446157102539981,14.497298923382369,-6.473776596634149,-9.66295314100552
10.454155691439322,13.640205686213028,-5.416985256611271,-9.480674187310546
10.462154280338664,12.783112449043497,-4.360193916588161,-9.298395233615533
10.470152869238005,11.926019211874156,-3.303402576565283,-9.116116279920561
10.478151458137347,11.068925974704625,-2.2466112365421713,-8.933837326225548
10.486150047036688,10.211832737535286,-1.1898198965192943,-8.751558372530575
10.49414863593603,9.354739500365753,-0.13302855649618284,-8.569279418835562
10.50214722483537,8.497646263196414,0.9237627835266942,-8.38700046514059
10.510145813734713,7.640553026026883,1.9805541235498065,-8.204721511445577
10.518144402634054,6.783459788857542,3.0373454635726826,-8.022442557750605
10.526142991533396,13.490042803386697,-1.857952022577366,-4.3197732831605755
10.534141580432737,11.01601810912513,0.3213377381232468,0.7423096190028187
10.542140169332079,10.753397773596722,0.09796047938223817,0.8162965663217353
10.55013875823142,10.490777438068374,-0.1254167793587208,0.8902835136406356
10.558137347130762,10.228157102539967,-0.34879403809972936,0.9642704609595523
10.566135936030102,9.965536767011619,-0.5721712968406882,1.0382574082784526
10.574134524929445,9.702916431483212,-0.7955485555816968,1.1122443555973693
10.582133113828785,9.440296095954864,-1.0189258143226558,1.1862313029162694
10.590131702728128,9.177675760426457,-1.2423030730636644,1.2602182502351862
10.598130291627468,8.915055424898107,-1.4656803318046234,1.3342051975540865
10.60612888052681,8.6524350893697,-1.6890575905456322,1.408192144873003
10.614127469426151,8.389814753841353,-1.9124348492865908,1.4821790921919034
10.622126058325494,8.127194418312946,-2.1358121080276,1.55616603951082
10.630124647224834,4.156514581374393,-4.429576669800972,2.33362652869195
10.638123236124176,3.114624220612996,-12.505904548338412,2.458474097004968
10.646121825023517,3.4147573180335997,-12.240090977706839,2.4243405839112704
10.65412041392286,3.7148904154542706,-11.974277407075206,2.3902070708175653
10.6621190028222,4.015023512874874,-11.708463836443634,2.356073557723868
10.670117591721542,4.315156610295546,-11.442650265812002,2.321940044630163
10.678116180620883,4.615289707716149,-11.176836695180429,2.2878065315364653
10.686114769520225,4.91542280513682,-10.911023124548796,2.2536730184427602
10.694113358419566,5.2155559025574245,-10.645209553917223,2.2195395053490627
10.702111947318908,5.515688999978094,-10.37939598328559,2.1854059922553577
10.710110536218249,5.815822097398699,-10.113582412654019,2.15127247916166
10.718109125117591,6.115955194819369,-9.847768842022386,2.117138966067955
10.726107714016933,5.829226952022558,-6.630256114769457,1.3712925682032056
10.734106302916274,5.556475070555038,-5.765608654750722,1.4672756349952945
10.742104891815616,5.902559266227682,-4.727996550642774,1.505630134838509
10.750103480714957,13.260710977639224,-3.4027471597077583,1.014831174469994
10.7581020696143,15.030039860578379,-2.6479059688352007,0.5915212388740263
10.76610065851364,16.79936874351714,-1.8930647779628105,0.1682113032781527
10.774099247412982,18.56869762645629,-1.1382235870902528,-0.25509863231781504
10.782097836312323,20.338026509395053,-0.38338239621786263,-0.6784085679136889
10.790096425211665,22.107355392334206,0.37145879465469545,-1.1017185035096564
10.798095014111006,23.876684275272968,1.1262999855270852,-1.5250284391055302
10.806093603010348,25.64601315821212,1.8811411763996428,-1.9483383747014977
10.814092191909689,27.415342041150883,2.6359823672720326,-2.3716483102973713
10.822090780809031,29.184670924090035,3.390823558144591,-2.794958245893339
10.830089369708372,25.52655710254367,9.868292568204895,5.068650235183439
10.838087958607714,15.171042523280503,1.564647890748039,4.341026514951317
10.846086547507054,14.64870770661795,1.4641712346866602,4.080847696259285
10.854085136406397,14.126372889955281,1.363694578625259,3.8206688775671953
10.862083725305737,13.60403807329273,1.26321792256388,3.560490058875163
10.87008231420508,13.08170325663006,1.1627412665024788,3.300311240183073
10.87808090310442,12.559368439967507,1.0622646104410998,3.040132421491041
10.886079492003763,12.037033623304838,0.9617879543796987,2.779953602798951
10.894078080903103,11.514698806642285,0.8613112983183198,2.519774784106919
10.902076669802446,10.992363989979616,0.7608346422569185,2.259595965414829
10.910075258701786,10.470029173317062,0.6603579861955396,1.9994171467227968
10.918073847601129,9.947694356654393,0.5598813301341383,1.7392383280307069
10.926072436500469,6.4194004390105714,-2.8192072750063106,-1.7120915647523238
10.934071025399811,4.558735590771069,1.4332879518189487,0.18218382131880326
10.942069614299152,4.997998302799806,1.0674968141130212,-0.13380167004483828
10.950068203198494,5.43726101482864,0.7017056764070125,-0.44978716140855
10.958066792097835,5.876523726857377,0.3359145387010851,-0.7657726527721915
10.966065380997177,6.31578643888621,-0.029876599004923676,-1.0817581441359032
10.974063969896518,6.755049150914947,-0.395667736710851,-1.3977436354995447
10.98206255879586,7.194311862943781,-0.76145887441686,-1.7137291268632564
10.9900611476952,7.633574574972517,-1.1272500121227873,-2.0297146182268984
10.998059736594543,8.072837287001352,-1.4930411498287959,-2.3457001095906094
11.006058325493884,8.512099999030088,-1.8588322875347232,-2.661685600954251
11.014056914393226,8.951362711058923,-2.224623425240732,-2.977671092317963
11.022055503292567,9.39062542308766,-2.5904145629466595,-3.2936565836816047
11.030054092191909,3.59672718720589,3.0247996237065387,-7.0906947318907845
11.038052681091251,6.4351882159260665,-0.028603287034474505,-4.945985321786286
11.046051269990592,6.081956414974304,0.04056098168335321,-4.825418356759461
11.054049858889934,5.728724614022462,0.1097252504011963,-4.704851391732609
11.062048447789275,5.375492813070699,0.178889519119024,-4.584284426705783
11.070047036688617,5.022261012118857,0.2480537878368671,-4.463717461678931
11.078045625587958,4.669029211167095,0.3172180565546948,-4.343150496652105
11.0860442144873,4.315797410215254,0.3863823252725379,-4.2225835316252525
11.09404280338664,3.96256560926349,0.4555465939903656,-4.102016566598428
11.102041392285983,3.6093338083116486,0.5247108627082087,-3.9814496015715752
11.110039981185324,2.567081373471384,1.09381058325486,-4.41018753527749
11.118038570084666,1.4319431814222414,-3.3422243127417235,-4.944435307132142
11.126037158984007,1.6275383044144482,-3.181363802654986,-5.242086499599268
11.134035747883349,1.8231334274066988,-3.020503292568213,-5.53973769206646
11.14203433678269,2.0187285503989054,-2.8596427824814756,-5.837388884533586
11.150032925682032,2.214323673391156,-2.6987822723947024,-6.135040077000778
11.158031514581372,2.409918796383363,-2.537921762307965,-6.432691269467904
11.166030103480715,2.6055139193756136,-2.377061252221192,-6.730342461935097
11.174028692380055,2.8011090423678207,-2.2162007421344545,-7.027993654402223
11.182027281279398,2.996704165360071,-2.0553402320476817,-7.325644846869414
11.190025870178738,3.192299288352278,-1.894479721960944,-7.623296039336541
11.19802445907808,3.3878944113445284,-1.733619211874171,-7.920947231803733
11.206023047977421,3.5834895343367354,-1.5727587017874334,-8.218598424270859
11.214021636876764,3.7790846573289856,-1.4118981917006603,-8.516249616738051
11.222020225776104,3.9746797803211926,-1.2510376816139228,-8.813900809205176
11.230018814675446,23.328865475065594,1.69922765757101,-6.367783631233601
11.238017403574787,29.323819026340598,4.058465942497657,-4.4925907808090795
11.24601599247413,28.97254766384448,3.9997263052681116,-4.15131765443714
11.25401458137347,28.621276301348438,3.940986668038579,-3.8100445280652755
11.262013170272812,28.27000493885232,3.8822470308090336,-3.4687714016933358
11.270011759172153,27.91873357635628,3.8235073935795016,-3.1274982753214715
11.278010348071495,27.567462213860164,3.764767756349956,-2.7862251489495313
11.286008936970836,27.216190851364125,3.7060281191204236,-2.444952022577667
11.294007525870178,26.864919488868004,3.6472884818908784,-2.103678896205727
11.302006114769519,26.513648126371965,3.588548844661346,-1.7624057698338627
11.310004703668861,26.162376763875848,3.529809207431801,-1.4211326434619225
11.318003292568202,25.811105401379805,3.4710695702022685,-1.0798595170900582
11.326001881467544,25.459834038883688,3.412329932972723,-0.738586390718118
11.334000470366885,19.189998118534955,0.29110888993387674,0.2726730950149272
11.341999059266227,7.723284101599286,-1.4160989562334716,-2.2513341844734276
11.34999764816557,7.433335253998125,-1.4857057239170346,-2.1428771278502015
11.35799623706491,7.143386406397028,-1.555312491600582,-2.0344200712269997
11.365994825964252,6.853437558795866,-1.624919259284145,-1.9259630146037738
11.373993414863593,6.563488711194769,-1.6945260269676925,-1.817505957980572
11.381992003762935,6.273539863593608,-1.7641327946512555,-1.7090489013573462
11.389990592662276,5.983591015992511,-1.8337395623348027,-1.6005918447341443
11.397989181561618,5.693642168391349,-1.9033463300183657,-1.4921347881109184
11.405987770460959,5.403693320790252,-1.9729530977019132,-1.3836777314877167
11.413986359360301,5.11374447318909,-2.042559865385476,-1.2752206748644905
11.421984948259642,4.8237956255879935,-2.1121666330690236,-1.1667636182412888
11.429983537158984,5.399051583568417,-6.158171762307988,7.546405769833755
11.437982126058325,6.438019628568716,-5.463778039679944,7.964979092456169
11.445980714957667,6.263308877778588,-5.296616518862228,7.697790274503982
11.453979303857007,6.088598126988497,-5.129454998044549,7.4306014565518534
11.46197789275635,5.913887376198369,-4.962293477226834,7.163412638599666
11.46997648165569,5.7391766254082786,-4.795131956409155,6.8962238206475375
11.477975070555033,5.564465874618151,-4.62797043559144,6.62903500269535
11.485973659454373,5.38975512382806,-4.460808914773761,6.3618461847432215
11.493972248353716,5.215044373037932,-4.293647393956045,6.094657366791034
11.501970837253056,5.040333622247841,-4.126485873138366,5.827468548838905
11.509969426152399,4.865622871457713,-3.9593243523206505,5.560279730886718
11.51796801505174,4.6909121206676225,-3.7921628315029716,5.2930909129345896
11.525966603951082,4.002808889934138,-3.5698191439322646,4.5622352304797635
11.533965192850422,1.5143066792119666,-3.3402596425210724,2.4230291627485148
11.541963781749764,2.9212146284102074,-4.184233301975559,-0.3080163217309827
11.549962370649105,4.951136406396825,-4.443320790216398,-0.8961072436500772
11.557960959548447,6.802502098559961,-4.118967755746917,-0.5571926755433326
11.565959548447788,8.653867790722686,-3.794614721277509,-0.21827810743666343
11.57395813734713,10.505233482885824,-3.470261686808028,0.12063646067008116
11.58195672624647,12.356599175048547,-3.14590865233862,0.45955102877675036
11.589955315145813,14.207964867211686,-2.8215556178691394,0.798465596883495
11.597953904045154,16.05933055937441,-2.497202583399731,1.1373801649901645
11.605952492944496,17.910696251537548,-2.1728495489302504,1.4762947330969087
11.613951081843837,19.76206194370027,-1.8484965144608423,1.815209301203578
11.621949670743179,21.613427635863406,-1.5241434799913618,2.1541238693103226
11.62994825964252,21.13602257763256,7.024427093134468,-5.348603951089011
11.637946848541862,19.960697283120073,6.563408390936305,-5.481993532455266
11.645945437441203,19.29307593357619,6.142091414781903,-5.783940263405377
11.653944026340545,18.625454584032163,5.720774438627407,-6.085886994355555
11.661942615239887,17.95783323448813,5.299457462472912,-6.3878337253057325
11.669941204139228,17.29021188494425,4.878140486318511,-6.689780456255843
11.67793979303857,16.62259053540022,4.456823510164015,-6.9917271872060205
11.68593838193791,15.954969185856338,4.035506534009613,-7.293673918156132
11.693936970837253,15.287347836312309,3.614189557855118,-7.595620649106309
11.701935559736594,14.619726486768428,3.1928725817007164,-7.897567380056421
11.709934148635936,13.952105137224397,2.7715556055462214,-8.199514111006598
11.717932737535277,13.284483787680514,2.3502386293918196,-8.501460841956709
11.725931326434619,6.805189087489198,4.519797742238833,-2.5267949200387303
11.73392991533396,6.625192615239888,1.0147462370649125,-0.6143273753527736
11.741928504233302,6.609280528812472,0.9380789115510043,-0.6813793759132171
11.749927093132642,6.593368442385061,0.8614115860371132,-0.7484313764736458
11.757925682031985,6.577456355957646,0.784744260523205,-0.8154833770340892
11.765924270931325,6.561544269530235,0.7080769350093139,-0.882535377594518
11.773922859830668,6.54563218310282,0.6314096094954057,-0.9495873781549615
11.781921448730008,6.529720096675409,0.5547422839815146,-1.0166393787153902
11.78992003762935,6.513808010247994,0.4780749584676064,-1.0836913792758338
11.797918626528691,6.4978959238205825,0.4014076329537153,-1.1507433798362623
11.805917215428034,6.481983837393168,0.3247403074398071,-1.2177953803967059
11.813915804327374,6.466071750965757,0.24807298192591598,-1.2848473809571344
11.821914393226717,6.450159664538342,0.1714056564120079,-1.351899381517578
11.829912982126057,2.441968715598226,-4.953619007826067,-5.31120577050103
11.8379115710254,2.178866195632623,-5.11673916654989,-5.137789555853586
11.84591015992474,1.9157636756670782,-5.279859325273677,-4.964373341206179
11.853908748824082,1.652661155701475,-5.442979483997501,-4.790957126558735
11.861907337723423,1.38955863573593,-5.606099642721287,-4.617540911911329
11.869905926622765,1.1264561157703268,-5.769219801445111,-4.4441246972638835
11.877904515522106,0.863353595804782,-5.932339960168898,-4.270708482616477
11.885903104421448,0.6002510758391786,-6.095460118892721,-4.097292267969032
11.893901693320789,0.3371485558736338,-6.258580277616508,-3.923876053321626
11.901900282220131,0.07404603590803038,-6.421700436340331,-3.750459838674181
11.909898871119472,-0.1890564840575144,-6.5848205950641185,-3.577043624026775
11.917897460018814,-0.4521590040231174,-6.747940753787942,-3.4036274093793297
11.925896048918155,-2.4200141110058233,-5.7696023047984895,-2.7331872060208613
11.933894637817497,-0.10017898218675131,-9.38940220920704,-1.6197300397535792
11.941893226716838,-0.08822410200386592,-9.722934765676316,-1.8491949341991778
11.94989181561618,-0.07626922182097788,-10.056467322145668,-2.0786598286448275
11.95789040451552,-0.0643143416380925,-10.389999878614944,-2.3081247230904256
11.965888993414863,-0.05235946145520447,-10.723532435084296,-2.5375896175360753
11.973887582314205,-0.04040458127231643,-11.057064991553647,-2.7670545119817245
11.981886171213546,-0.028449701089431054,-11.390597548022924,-2.996519406427323
11.989884760112888,-0.016494820906543015,-11.724130104492275,-3.2259843008729727
11.997883349012229,-0.00453994072365764,-12.057662660961551,-3.4554491953185713
12.005881937911571,0.007414939459230399,-12.391195217430901,-3.6849140897642205
12.013880526810912,0.019369819642115774,-12.72472777390018,-3.914378984209819
12.021879115710254,0.03132469982500381,-13.058260330369531,-4.143843878655469
12.029877704609595,4.58800551001193,-15.046477758365741,-4.786150651794092
12.037876293508937,20.040748467252715,-14.91107816200084,-2.978247915788119
12.045874882408278,19.71142725532814,-14.834677847341622,-3.2052423524831988
12.05387347130762,19.382106043403493,-14.758277532682385,-3.432236789178329
12.06187206020696,19.052784831478917,-14.681877218023166,-3.659231225873409
12.069870649106303,18.72346361955427,-14.60547690336393,-3.886225662568539
12.077869238005643,18.394142407629694,-14.529076588704712,-4.113220099263619
12.085867826904986,18.064821195705047,-14.452676274045476,-4.340214535958749
12.093866415804326,17.73549998378047,-14.376275959386257,-4.5672089726538285
12.101865004703669,17.406178771855824,-14.299875644727022,-4.794203409348959
12.10986359360301,17.07685755993125,-14.223475330067803,-5.021197846044039
12.117862182502352,16.7475363480066,-14.147075015408568,-5.2481922827391685
12.125860771401692,13.555076199436185,-14.11278065224208,-4.959639542176322
12.133859360301035,5.066701552210974,-6.998617826905637,1.4789275634991323
12.141857949200375,5.028101683807748,-6.688136596657784,1.5801804094834409
12.149856538099717,5.04958104051497,-6.53050148509097,1.5864714344604516
12.157855126999058,5.071060397222189,-6.372866373524191,1.592762459437461
12.1658537158984,5.092539753929411,-6.215231261957378,1.599053484414472
12.173852304797741,5.114019110636629,-6.057596150390599,1.6053445093914813
12.181850893697083,5.135498467343852,-5.899961038823785,1.611635534368492
12.189849482596424,5.1569778240510695,-5.742325927257006,1.6179265593455014
12.197848071495766,5.178457180758292,-5.584690815690193,1.6242175843225122
12.205846660395107,5.1999365374655095,-5.427055704123415,1.6305086092995216
12.21384524929445,5.221415894172733,-5.269420592556601,1.6367996342765323
12.22184383819379,5.2428952508799505,-5.111785480989822,1.6430906592535417
12.229842427093132,5.097785418626533,-2.604872530573868,5.365705174035776
12.237841015992473,4.997003198494839,-2.0529698965193557,4.578644026340647
12.245839604891815,4.885071318072543,-1.9734470105571247,4.617267487195567
12.253838193791156,4.77291332706179,-1.9035037942928907,4.672635497021003
12.261836782690498,4.660755336051011,-1.8335605780286415,4.72800350684645
12.269835371589839,4.548597345040258,-1.7636173617644078,4.7833715166718855
12.27783396048918,4.4364393540294795,-1.6936741455001583,4.838739526497333
12.285832549388523,4.3242813630187005,-1.623730929235909,4.894107536322781
12.293831138287864,4.212123372007947,-1.5537877129716753,4.949475546148216
12.301829727187206,4.099965380997168,-1.4838444967074258,5.004843555973664
12.309828316086547,3.987807389986415,-1.4139012804431919,5.060211565799099
12.317826904985889,3.8756493989756367,-1.3439580641789428,5.1155795756245475
12.32582549388523,3.763491407964883,-1.2740148479147089,5.170947585449983
12.333824082784572,2.2916683913451523,-1.1170221072436153,4.302895578551184
12.341822671683913,2.39076655414752,-0.421044972608046,5.81744751812296
12.349821260583255,2.986614376625582,-0.4211390736539206,5.774443340158261
12.357819849482595,3.582462199103512,-0.4212331746997952,5.731439162193571
12.365818438381938,4.178310021581574,-0.42132727574566986,5.688434984228873
12.373817027281278,4.774157844059504,-0.42142137679154446,5.645430806264184
12.38181561618062,5.3700056665375655,-0.42151547783741905,5.602426628299484
12.389814205079961,5.965853489015496,-0.42160957888329365,5.559422450334795
12.397812793979304,6.561701311493557,-0.42170367992916824,5.516418272370096
12.405811382878644,7.157549133971487,-0.42179778097504284,5.473414094405406
12.413809971777987,7.753396956449549,-0.4218918820209175,5.430409916440707
12.421808560677327,8.349244778927478,-0.4219859830667921,5.3874057384760174
12.42980714957667,30.497927751646447,-18.615698400752276,-17.71881919096893
12.43780573847601,11.862652707042846,-25.187731371849477,-16.535813978006686
12.445804327375352,10.33078502611362,-24.58259674960268,-14.64235491614512
12.453802916274693,8.798917345184734,-23.977462127356013,-12.748895854283974
12.461801505174035,7.2670496642555085,-23.372327505109215,-10.85543679242241
12.469800094073376,5.735181983326623,-22.767192882862552,-8.961977730561264
12.477798682972718,4.203314302397397,-22.16205826061575,-7.068518668699699
12.485797271872059,2.6714466214685118,-21.55692363836909,-5.175059606838554
12.493795860771401,1.1395789405392858,-20.95178901612229,-3.281600544976987
12.501794449670742,-0.39228874038959916,-20.346654393875625,-1.3881414831158434
12.509793038570084,-1.9241564213188251,-19.741519771628827,0.5053175787457214
12.517791627469425,-3.45602410224771,-19.13638514938216,2.3987766406068687
12.525790216368767,-1.9781627469432037,-10.375795860772213,4.3465682031993325
12.533788805268108,-0.20736765051742342,-8.039614475540938,1.9882675799623821
12.54178739416745,0.01959230950141555,-7.850647812793975,1.8566241376607062
12.54978598306679,0.24655226952020415,-7.6616811500470545,1.7249806953590592
12.557784571966133,0.47351222953904315,-7.472714487300092,1.5933372530573833
12.565783160865474,0.7004721895578317,-7.283747824553171,1.4616938107557362
12.573781749764816,0.9274321495766708,-7.094781161806208,1.3300503684540603
12.581780338664156,1.1543921095954595,-6.905814499059287,1.1984069261524135
12.589778927563499,1.3813520696142985,-6.716847836312324,1.0667634838507374
12.59777751646284,1.6083120296330868,-6.527881173565403,0.9351200415490906
12.605776105362182,1.8352719896519258,-6.338914510818441,0.8034765992474144
12.613774694261524,2.062231949670765,-6.149947848071477,0.6718331569457383
12.621773283160865,2.2891919096895537,-5.960981185324557,0.5401897146440915
12.629771872060207,3.2077293038570036,-4.570853715898408,-0.6481479303856947
12.637770460959548,1.4564410159925858,-4.738816933207823,-2.280109125117587
12.64576904985889,0.4560841643147553,-5.449091627469481,-2.3227682659140827
12.65376763875823,0.00438396227538565,-5.796772306703025,-2.3093422722888413
12.661766227657573,-0.07550067875728608,-5.898729003179451,-2.2579083082272478
12.669764816556913,-0.15538531978994005,-6.000685699655855,-2.206474344165666
12.677763405456256,-0.23526996082261176,-6.102642396132281,-2.1550403801040723
12.685761994355596,-0.3151546018552658,-6.204599092608685,-2.1036064160424903
12.693760583254939,-0.39503924288793746,-6.306555789085111,-2.052172451980897
12.70175917215428,-0.4749238839205914,-6.408512485561515,-2.000738487919315
12.709757761053622,-0.5548085249532632,-6.510469182037942,-1.9493045238577216
12.717756349952962,-0.6346931659859171,-6.612425878514346,-1.8978705597961396
12.725754938852305,-0.7145778070185889,-6.714382574990772,-1.8464365957345463
12.733753527751645,-4.708479774223724,-7.433304327374399,0.11595061147763669
12.741752116650988,-4.795474129821258,-8.331341889530975,-0.4285289611611295
12.749750705550328,-4.697713598829318,-8.2737012647643,-0.26804933626007577
12.75774929444967,-4.599953067837357,-8.216060639997611,-0.10756971135898635
12.765747883349011,-4.502192536845418,-8.158420015230934,0.05290991354206742
12.773746472248353,-4.404432005853456,-8.100779390464247,0.21338953844315678
