gyro_time_list,gyro_x_list,gyro_y_list,gyro_z_list
0.0,0.4,-0.2,-0.1
0.007997041420118343,0.3057885258554155,0.09710573707229227,-0.20289426292770776
0.015994082840236686,0.32896835605865704,0.08551582197067148,-0.21448417802932854
0.02399112426035503,0.35214818626189864,0.07392590686905069,-0.2260740931309493
0.03198816568047337,0.3753280164651402,0.0623359917674299,-0.2376640082325701
0.03998520710059171,0.3985078466683818,0.05074607666580911,-0.24925392333419089
0.04798224852071006,0.42168767687162334,0.039156161564188316,-0.26084383843581166
0.0559792899408284,0.44486750707486494,0.02756624646256753,-0.2724337535374325
0.06397633136094674,0.46804733727810655,0.01597633136094674,-0.28402366863905326
0.07197337278106508,0.4912271674813481,0.004386416259325968,-0.29561358374067404
0.07997041420118342,0.3011834319526632,0.09940828402366839,-0.20059171597633163
0.08796745562130177,0.19735048605240915,-0.1,0.1
0.09596449704142011,0.19021027049873207,-0.1,0.1
0.10396153846153845,0.18307005494505496,-0.1,0.1
0.1119585798816568,0.17592983939137788,-0.1,0.1
0.11995562130177514,0.16878962383770077,-0.1,0.1
0.12795266272189348,0.1616494082840237,-0.1,0.1
0.13594970414201182,0.1545091927303466,-0.1,0.1
0.14394674556213016,0.14736897717666952,-0.1,0.1
0.1519437869822485,0.14022876162299241,-0.1,0.1
0.15994082840236684,0.13308854606931533,-0.1,0.1
0.1679378698224852,0.12594833051563822,-0.1,0.1
0.17593491124260355,0.11880811496196113,-0.1,0.1
0.1839319526627219,0.11166789940828405,-0.1,0.1
0.19192899408284023,0.10452768385460695,-0.1,0.1
0.19992603550295857,0.09630177514792773,-0.1,0.19630177514792774
0.2079230769230769,0.1,0.0,0.18909751665657182
0.21592011834319524,0.1,0.0,0.17650375064063745
0.2239171597633136,0.1,0.0,0.163909984624703
0.23191420118343195,0.1,0.0,0.1513162186087686
0.2399112426035503,0.1,0.0,0.13872245259283422
0.24790828402366863,0.1,0.0,0.12612868657689982
0.25590532544378697,0.1,0.0,0.11353492056096542
0.26390236686390534,0.1,0.0,0.100941154545031
0.27189940828402365,0.1,0.0,0.08834738852909664
0.279896449704142,0.1,0.0,0.0757536225131622
0.2878934911242603,0.1,0.0,0.06315985649722786
0.2958905325443787,0.1,0.0,0.05056609048129343
0.303887573964497,0.1,0.0,0.03797232446535906
0.31188461538461537,0.1,0.0,0.025378558449424632
0.3198816568047337,0.1,0.0,0.012784792433490288
0.32787869822485205,0.1,0.0,0.00019102641755583405
0.3358757396449704,0.1,-0.007297830374753334,0.19270216962524667
0.34387278106508873,0.1,-0.07393984220907285,0.12606015779092716
0.3518698224852071,0.09081165568828847,-0.1,0.09081165568828847
0.3598668639053254,0.07572289829183884,-0.1,0.07572289829183884
0.3678639053254438,0.0606341408953891,-0.1,0.0606341408953891
0.3758609467455621,0.04554538349893946,-0.1,0.04554538349893946
0.38385798816568045,0.030456626102489726,-0.1,0.030456626102489726
0.3918550295857988,0.015367868706039983,-0.1,0.015367868706039983
0.39985207100591713,0.0002791113095903519,-0.1,0.0002791113095903519
0.4078491124260355,0.0,-0.1,0.0
0.4158461538461538,-0.10330948121645794,0.0,0.19669051878354207
0.4238431952662722,-0.11260836658868861,0.0,0.1873916334113114
0.4318402366863905,-0.1219072519609192,0.0,0.17809274803908082
0.43983727810650886,-0.13120613733314987,0.0,0.16879386266685015
0.4478343195266272,-0.1405050227053805,0.0,0.1594949772946195
0.45583136094674553,-0.14980390807761113,0.0,0.15019609192238892
0.4638284023668639,-0.15910279344984177,0.0,0.14089720655015825
0.4718254437869822,-0.16840167882207235,0.0,0.13159832117792764
0.4798224852071006,-0.17770056419430302,0.0,0.122299435805697
0.4878195266272189,-0.1869994495665336,0.0,0.1130005504334664
0.49581656804733726,-0.19629833493876425,0.0,0.10370166506123575
0.5038136094674556,0.009319526627221686,0.0,0.1
0.5118106508875739,-0.006810650887573934,-0.1,0.0
0.5198076923076923,-0.014807692307692303,-0.1,0.0
0.5278047337278107,-0.02280473372781067,-0.1,0.0
0.5358017751479289,-0.03080177514792893,-0.1,0.0
0.5437988165680473,-0.0387988165680473,-0.1,0.0
0.5517958579881657,-0.046795857988165664,-0.1,0.0
0.559792899408284,-0.05479289940828404,-0.1,0.0
0.5677899408284023,-0.0627899408284023,-0.1,0.0
0.5757869822485207,-0.07078698224852066,-0.1,0.0
0.583784023668639,-0.07878402366863903,-0.1,0.0
0.5917810650887574,-0.0867810650887574,-0.1,0.0
0.5997781065088758,-0.09477810650887578,-0.1,0.0
0.607775147928994,-0.2,-0.2,-0.2775147928994024
0.6157721893491124,-0.8957391166525782,-0.41704353338968714,1.161652049873204
0.6237692307692307,-0.8885989010989012,-0.4456043956043956,1.09739010989011
0.6317662721893491,-0.881458685545224,-0.474165257819104,1.0331281699070158
0.6397633136094674,-0.874318469991547,-0.5027261200338121,0.9688662299239228
0.6477603550295857,-0.8671782544378699,-0.5312869822485206,0.9046042899408288
0.6557573964497041,-0.8600380388841928,-0.559847844463229,0.8403423499577347
0.6637544378698225,-0.8528978233305157,-0.5884087066779375,0.7760804099746408
0.6717514792899408,-0.8457576077768385,-0.616969568892646,0.7118184699915466
0.6797485207100591,-0.8386173922231616,-0.645530431107354,0.6475565300084536
0.6877455621301775,-0.8314771766694844,-0.6740912933220624,0.5832945900253595
0.6957426035502958,-0.8243369611158073,-0.7026521555367709,0.5190326500422655
0.7037396449704142,-0.8171967455621302,-0.7312130177514794,0.45477071005917147
0.7117366863905326,-0.8100565300084531,-0.7597738799661878,0.3905087700760774
0.7197337278106508,-0.8029163144547761,-0.7883347421808959,0.3262468300929843
0.7277307692307692,-2.403846153846121,-0.10961538461538013,-1.459615384615419
0.7357278106508875,-4.024260355029585,-0.24393491124260366,-0.7849112426035487
0.7437248520710059,-4.411932938856016,-0.169723865877712,-1.430276134122288
0.7517218934911242,-4.930994082840235,-0.08966863905325498,-1.4965562130177517
0.7597189349112425,-5.074940828402366,-0.04168639053254482,-1.480562130177515
0.7677159763313609,-5.218887573964496,0.006295857988165343,-1.4645680473372782
0.7757130177514793,-5.362834319526627,0.05427810650887552,-1.4485739644970415
0.7837100591715976,-5.506781065088757,0.10226035502958569,-1.4325798816568047
0.7917071005917159,-5.650727810650886,0.1502426035502952,-1.4165857988165682
0.7997041420118343,-5.794674556213016,0.19822485207100535,-1.4005917159763315
0.8077011834319526,-5.511205621301778,0.5850591715976289,-1.4962647928994073
0.815698224852071,-1.0183374504509684,0.20261963577870976,-2.00261963577871
0.8236952662721893,-1.0726862756362379,0.2103837536623197,-2.0103837536623197
0.8316923076923076,-1.1270351008215083,0.21814787154592977,-2.0181478715459296
0.839689349112426,-1.1813839260067787,0.22591198942953983,-2.02591198942954
0.8476863905325444,-1.235732751192049,0.2336761073131499,-2.0336761073131497
0.8556834319526627,-1.2900815763773195,0.24144022519675995,-2.04144022519676
0.863680473372781,-1.3444304015625892,0.24920434308036987,-2.04920434308037
0.8716775147928993,-1.3987792267478596,0.25696846096397996,-2.05696846096398
0.8796745562130177,-1.45312805193313,0.26473257884759,-2.06473257884759
0.8876715976331361,-1.5074768771184004,0.2724966967312,-2.0724966967312
0.8956686390532544,-1.5618257023036708,0.2802608146148101,-2.0802608146148103
0.9036656804733727,-1.6161745274889405,0.2880249324984201,-2.08802493249842
0.9116627218934911,-1.670523352674211,0.2957890503820301,-2.09578905038203
0.9196597633136094,-2.8329881656804696,0.26701183431953024,-2.4989644970414093
0.9276568047337278,-2.7860325809043758,0.20698370954781206,-2.913967419095624
0.9356538461538461,-2.7662867996201332,0.21685660018993339,-2.9337132003798665
0.9436508875739644,-2.7465410183358903,0.22672949083205485,-2.9534589816641095
0.9516479289940828,-2.7267952370516473,0.2366023814741763,-2.9732047629483525
0.9596449704142012,-2.7070494557674043,0.24647527211629777,-2.9929505442325954
0.9676420118343195,-2.6873036744831613,0.2563481627584192,-3.0126963255168384
0.9756390532544378,-2.667557893198919,0.26622105340054053,-3.032442106801081
0.9836360946745561,-2.647812111914676,0.27609394404266197,-3.052187888085324
0.9916331360946745,-2.6280663306304333,0.28596683468478346,-3.071933669369567
0.9996301775147929,-2.6083205493461903,0.2958397253269049,-3.09167945065381
1.0076272189349111,-1.7,0.0,-3.7813609467455565
1.0156242603550296,-1.707059500328731,0.007059500328731115,-3.807059500328731
1.0236213017751479,-1.7144641683103221,0.014464168310322087,-3.8144641683103218
1.0316183431952661,-1.721868836291913,0.02186883629191306,-3.821868836291913
1.0396153846153846,-1.7292735042735041,0.029273504273504235,-3.829273504273504
1.0476124260355029,-1.7366781722550952,0.036678172255095204,-3.836678172255095
1.0556094674556213,-1.7440828402366864,0.044082840236686384,-3.8440828402366862
1.0636065088757396,-1.7514875082182773,0.051487508218277356,-3.8514875082182773
1.0716035502958579,-1.7588921761998684,0.05889217619986833,-3.858892176199868
1.0796005917159763,-1.7662968441814595,0.06629684418145951,-3.8662968441814596
1.0875976331360946,-1.7737015121630506,0.07370151216305047,-3.8737015121630503
1.095594674556213,-1.7811061801446417,0.08110618014464166,-3.8811061801446414
1.1035917159763313,-1.7885108481262326,0.08851084812623262,-3.8885108481262325
1.1115887573964496,-1.7959155161078235,0.0959155161078236,-3.8959155161078236
1.119585798816568,-1.4885601577909322,0.1,-3.9528599605522667
1.1275828402366863,-1.120467993544917,-0.01968800430338867,-3.9401559978483056
1.1355798816568046,-1.0043885601577907,-0.09780571992110464,-3.693417159763314
1.143576923076923,-1.0266025641025642,-0.08669871794871786,-3.660096153846154
1.1515739644970413,-1.0488165680473371,-0.07559171597633141,-3.6267751479289942
1.1595710059171598,-1.0710305719921107,-0.06448471400394465,-3.5934541420118338
1.167568047337278,-1.0932445759368836,-0.05337771203155818,-3.5601331360946746
1.1755650887573963,-1.1154585798816565,-0.042270710059171726,-3.526812130177515
1.1835621301775148,-1.13767258382643,-0.031163708086784966,-3.493491124260355
1.191559171597633,-1.159886587771203,-0.020056706114398498,-3.4601701183431954
1.1995562130177515,-1.1821005917159764,-0.008949704142011738,-3.426849112426035
1.2075532544378698,-1.5106508875739597,0.07766272189348992,-3.0893491124260404
1.215550295857988,-1.6710059171597593,0.0,-2.044970414201203
1.2235473372781065,-1.7228395486445574,0.0,-1.8695472684739236
1.2315443786982248,-1.750736204761249,0.0,-1.8323517269850014
1.2395414201183432,-1.7786328608779414,0.0,-1.7951561854960782
1.2475384615384615,-1.806529516994633,0.0,-1.757960644007156
1.2555355029585797,-1.8344261731113245,0.0,-1.7207651025182338
1.2635325443786982,-1.862322829228017,0.0,-1.6835695610293107
1.2715295857988165,-1.8902194853447087,0.0,-1.6463740195403884
1.2795266272189347,-1.9181161414614003,0.0,-1.6091784780514662
1.2875236686390532,-1.9460127975780928,0.0,-1.571982936562543
1.2955207100591715,-1.9739094536947843,0.0,-1.5347873950736208
1.30351775147929,-2.0258875739645004,0.0,-1.422337278106499
1.3115147928994082,-1.0952164434755534,-0.1,-0.4952164434755532
1.3195118343195265,-1.0699626284646535,-0.1,-0.4699626284646535
1.327508875739645,-1.044708813453753,-0.1,-0.444708813453753
1.3355059171597632,-1.0194549984428534,-0.1,-0.4194549984428532
1.3435029585798817,-0.9942011834319529,-0.1,-0.39420118343195276
1.3515,-0.9689473684210531,-0.1,-0.368947368421053
1.3594970414201182,-0.9436935534101534,-0.1,-0.34369355341015323
1.3674940828402367,-0.9184397383992529,-0.1,-0.31843973839925277
1.375491124260355,-0.893185923388353,-0.1,-0.29318592338835303
1.3834881656804734,-0.8679321083774526,-0.1,-0.2679321083774525
1.3914852071005916,-0.8426782933665529,-0.1,-0.24267829336655278
1.39948224852071,-0.817424478355653,-0.1,-0.21742447835565304
1.4074792899408284,-1.469822485207116,0.0,0.3218934911242697
1.4154763313609466,-1.013296033745386,-0.517728044993848,1.231024078739234
1.4234733727810651,-1.0370496221219756,-0.5493994961626341,1.2864491182846094
1.4314704142011834,-1.0608032104985643,-0.5810709473314192,1.3418741578299835
1.4394674556213016,-1.0845567988751532,-0.6127423985002044,1.3972991973753577
1.44746449704142,-1.1083103872517428,-0.6444138496689904,1.4527242369207332
1.4554615384615384,-1.1320639756283317,-0.6760853008377756,1.5081492764661073
1.4634585798816566,-1.1558175640049206,-0.7077567520065607,1.5635743160114812
1.471455621301775,-1.1795711523815102,-0.7394282031753469,1.618999355556857
1.4794526627218934,-1.2033247407580991,-0.771099654344132,1.674424395102231
1.4874497041420118,-1.2270783291346885,-0.8027711055129181,1.7298494346476065
1.49544674556213,-1.2508319175112774,-0.8344425566817033,1.7852744741929807
1.5034437869822483,-1.2745855058878663,-0.8661140078504884,1.8406995137383546
1.5114408284023668,-1.298339094264456,-0.8977854590192744,1.8961245532837303
1.519437869822485,0.4235207100591383,-1.4812623274161687,3.0531558185404215
1.5274349112426036,2.6174556213017652,-1.986982248520706,4.3892011834319415
1.5354319526627218,1.4196005917159764,-1.6821334648257724,5.544666337935569
1.54342899408284,1.3196375739644983,-1.6599194608809995,5.600201347797501
1.5514260355029585,1.2196745562130173,-1.6377054569362262,5.655736357659435
1.5594230769230768,1.1197115384615393,-1.6154914529914532,5.711271367521367
1.5674201183431953,1.0197485207100583,-1.5932774490466797,5.7668063773833005
1.5754171597633135,0.9197855029585802,-1.5710634451019068,5.822341387245233
1.5834142011834318,0.8198224852071021,-1.5488494411571339,5.8778763971071655
1.5914112426035503,0.7198594674556212,-1.5266354372123603,5.9334114069691
1.5994082840236685,0.6198964497041431,-1.5044214332675874,5.988946416831031
1.607405325443787,0.9202662721893509,-1.8265779092702163,6.446844181459567
1.6154023668639053,1.2670738690589824,-2.2,6.1817077050327685
1.6233994082840235,1.189683145638483,-2.2,6.138712858688046
1.631396449704142,1.1122924222179815,-2.2,6.0957180123433234
1.6393934911242602,1.0349016987974824,-2.2,6.052723165998602
1.6473905325443785,0.957510975376983,-2.2,6.009728319653879
1.655387573964497,0.8801202519564817,-2.2,5.966733473309157
1.6633846153846152,0.8027295285359823,-2.2,5.923738626964435
1.6713816568047337,0.7253388051154809,-2.2,5.880743780619712
1.679378698224852,0.6479480816949816,-2.2,5.83774893427499
1.6873757396449702,0.5705573582744824,-2.2,5.794754087930269
1.6953727810650887,0.49316663485398093,-2.2,5.751759241585545
1.703369822485207,0.4157759114334817,-2.2,5.708764395240824
1.7113668639053254,-0.7733727810650952,-1.8366863905325475,4.55325443786981
1.7193639053254437,-0.19014044343052727,-1.996713481143509,1.678637627432809
1.727360946745562,-0.1323305054537688,-1.9774435018179228,1.553382761816499
1.7353579881656804,-0.07452056747700866,-1.9581735224923362,1.4281278962001855
1.7433550295857987,-0.01671062950025015,-1.93890354316675,1.3028730305838754
1.7513520710059172,0.04109930847650997,-1.9196335638411635,1.1776181649675617
1.7593491124260354,0.09890924645326848,-1.9003635845155773,1.0523632993512517
1.7673461538461537,0.15671918443002703,-1.8810936051899911,0.9271084337349417
1.7753431952662722,0.21452912240678712,-1.8618236258644043,0.8018535681186281
1.7833402366863904,0.27233906038354566,-1.8425536465388181,0.6765987025023181
1.791337278106509,0.3301489983603058,-1.8232836672132315,0.5513438368860044
1.7993343195266271,0.3879589363370643,-1.8040136878876454,0.42608897126969447
1.8073313609467454,0.6713440405748012,-1.7095519864750661,-0.7758241758241385
1.8153284023668639,0.47861671295737207,-0.6809926337398862,-3.5190073662601136
1.8233254437869821,0.40517449583383713,-0.6157106629634107,-3.5842893370365894
1.8313224852071004,0.3317322787103022,-0.5504286921869352,-3.6495713078130647
1.8393195266272189,0.25829006158676515,-0.48514672141045795,-3.714853278589542
1.8473165680473371,0.18484784446323022,-0.41986475063398243,-3.7801352493660176
1.8553136094674556,0.11140562733969328,-0.35458277985750514,-3.8454172201424948
1.8633106508875739,0.037963410216158344,-0.2893008090810297,-3.91069919091897
1.8713076923076921,-0.03547880690737659,-0.22401883830455416,-3.975981161695446
1.8793047337278106,-0.10892102403091364,-0.1587368675280768,-4.041263132471923
1.8873017751479289,-0.18236324115444857,-0.09345489675160135,-4.106545103248399
1.8952988165680473,-0.2558054582779855,-0.028172925975124108,-4.1718270740248755
1.9032958579881656,-0.32924767540152045,0.037109044801351465,-4.237109044801351
1.9112928994082838,-0.4079881656804676,0.1079881656804676,-4.318639053254424
1.9192899408284023,-0.6260892953200644,0.3260892953200645,-4.82754168908015
1.9272869822485206,0.8962239177826247,0.9988671753347874,-4.896223917782625
1.935284023668639,0.7909996885705395,0.9672999065711618,-4.7909996885705395
1.9432810650887573,0.6857754593584573,0.9357326378075371,-4.6857754593584575
1.9512781065088756,0.5805512301463751,0.9041653690439125,-4.5805512301463756
1.959275147928994,0.4753270009342899,0.872598100280287,-4.47532700093429
1.9672721893491123,0.37010277172220774,0.8410308315166622,-4.370102771722208
1.9752692307692306,0.26487854251012544,0.8094635627530375,-4.264878542510125
1.983266272189349,0.15965431329804036,0.7778962939894121,-4.159654313298041
1.9912633136094673,0.054430084085958064,0.7463290252257874,-4.054430084085958
1.9992603550295858,-0.05079414512612701,0.7147617564621618,-3.949205854873873
2.0072573964497042,-3.290088757396455,3.177218934911247,-4.071301775147922
2.0152544378698223,-4.0,4.182689160266903,-2.3896134961601416
2.0232514792899408,-4.0,4.140151705904571,-2.364091023542742
2.0312485207100592,-4.0,4.097614251542238,-2.3385685509253427
2.0392455621301773,-4.0,4.055076797179908,-2.313046078307945
2.0472426035502957,-4.0,4.0125393428175755,-2.2875236056905455
2.0552396449704142,-4.0,3.9700018884552435,-2.262001133073146
2.0632366863905323,-4.0,3.9274644340929132,-2.236478660455748
2.0712337278106507,-4.0,3.8849269797305808,-2.2109561878383484
2.079230769230769,-4.0,3.8423895253682487,-2.185433715220949
2.0872278106508872,-4.0,3.7998520710059185,-2.159911242603551
2.0952248520710057,-4.0,3.757314616643586,-2.1343887699861517
2.103221893491124,-4.0,3.714777162281254,-2.108866297368752
2.1112189349112427,-2.9,2.3218934911242495,-1.0562130177515003
2.1192159763313607,-2.892925513400627,2.3858510268012534,-0.8858510268012537
2.127213017751479,-2.885085276714236,2.3701705534284723,-0.8701705534284724
2.1352100591715977,-2.8772450400278453,2.354490080055691,-0.8544900800556909
2.1432071005917157,-2.869404803341455,2.3388096066829105,-0.8388096066829105
2.151204142011834,-2.8615645666550646,2.323129133310129,-0.8231291333101292
2.1592011834319527,-2.853724329968674,2.307448659937348,-0.8074486599373478
2.1671982248520707,-2.8458840932822835,2.291768186564567,-0.7917681865645673
2.175195266272189,-2.8380438565958928,2.276087713191786,-0.7760877131917859
2.1831923076923077,-2.830203619909502,2.2604072398190045,-0.7604072398190046
2.191189349112426,-2.8223633832231116,2.2447267664462234,-0.7447267664462233
2.199186390532544,-2.8145231465367213,2.229046293073443,-0.7290462930734427
2.2071834319526626,-2.8066829098503305,2.2133658197006616,-0.7133658197006614
2.215180473372781,-2.7409763313609488,2.0229289940828465,-0.5819526627218977
2.223177514792899,-2.9,1.3750821827745114,-0.4
2.2311745562130176,-2.7916363222576246,0.27769685935366617,-0.0888484296768331
2.239171597633136,-2.760878470641784,0.19567592171142523,-0.04783796085571262
2.247168639053254,-2.7301206190259455,0.11365498406918881,-0.006827492034594415
2.2551656804733726,-2.6993627674101055,0.03163404642694784,0.03418297678652607
2.263162721893491,-2.668604915794265,-0.050386891215293106,0.07519344560764654
2.271159763313609,-2.6378470641784264,-0.13240782885752955,0.11620391442876477
2.2791568047337276,-2.607089212562586,-0.21442876649977055,0.15721438324988526
2.287153846153846,-2.5763313609467455,-0.2964497041420115,0.19822485207100574
2.2951508875739646,-2.5455735093309055,-0.37847064178425244,0.2392353208921262
2.3031479289940826,-2.514815657715067,-0.46049157942648883,0.28024578971324443
2.311144970414201,0.0732248520709825,-1.9724852071005778,1.11523668639052
2.3191420118343196,4.2074809805579045,-2.814961961115808,3.2962595097210476
2.3271390532544376,4.226521555367709,-2.8530431107354177,3.2867392223161453
2.335136094674556,4.245562130177515,-2.8911242603550296,3.2772189349112426
2.3431331360946746,4.264602704987321,-2.9292054099746414,3.2676986475063394
2.3511301775147926,4.283643279797126,-2.967286559594251,3.258178360101437
2.359127218934911,4.302683854606932,-3.005367709213863,3.2486580726965344
2.3671242603550295,4.321724429416737,-3.0434488588334747,3.239137785291631
2.375121301775148,4.340765004226544,-3.0815300084530866,3.2296174978867285
2.383118343195266,4.359805579036348,-3.119611158072696,3.220097210481826
2.3911153846153845,4.378846153846154,-3.157692307692308,3.210576923076923
2.399112426035503,4.39788672865596,-3.19577345731192,3.2010566356720203
2.407109467455621,-0.44304733727787304,-0.16715976331369187,3.466420118343154
2.4151065088757395,-1.0426234957782092,-0.9286882521108955,3.265574097466925
2.423103550295858,-0.9527690977993499,-0.9736154511003251,3.2116614586796097
2.431100591715976,-0.8629146998204956,-1.0185426500897523,3.1577488198922974
2.4390976331360945,-0.7730603018416362,-1.0634698490791819,3.1038361811049815
2.447094674556213,-0.6832059038627769,-1.1083970480686116,3.049923542317666
2.455091715976331,-0.5933515058839226,-1.1533242470580387,2.9960109035303537
2.4630887573964495,-0.5034971079050632,-1.1982514460474682,2.942098264743038
2.471085798816568,-0.4136427099262039,-1.243178645036898,2.8881856259557224
2.4790828402366865,-0.3237883119473446,-1.2881058440263278,2.834272987168407
2.4870798816568045,-0.23393391396849017,-1.3330330430157549,2.780360348381094
2.495076923076923,-0.14407951598963087,-1.3779602420051844,2.7264477095937787
2.5030739644970414,-0.19260355029586576,-0.8073964497041343,1.6630177514793287
2.5110710059171595,0.7080830635257335,-1.0010103829407166,0.9
2.519068047337278,0.7684380931115331,-1.0085547616389416,0.9
2.5270650887573964,0.8287931226973329,-1.0160991403371666,0.9
2.5350621301775145,0.889148152283129,-1.0236435190353912,0.9
2.543059171597633,0.9495031818689288,-1.0311878977336162,0.9
2.5510562130177514,1.0098582114547283,-1.0387322764318412,0.9
2.5590532544378695,1.0702132410405247,-1.0462766551300657,0.9
2.567050295857988,1.1305682706263243,-1.0538210338282905,0.9
2.5750473372781064,1.190923300212124,-1.0613654125265155,0.9
2.583044378698225,1.2512783297979237,-1.0689097912247405,0.9
2.591041420118343,1.3116333593837202,-1.076454169922965,0.9
2.5990384615384614,1.3719883889695197,-1.08399854862119,0.9
2.60703550295858,1.4323434185553192,-1.091542927319415,0.9
2.615032544378698,1.4926984481411156,-1.0990873060176396,0.9
2.6230295857988164,1.4973103819258018,-0.49892415277032076,0.2978483055406415
2.631026627218935,0.7703066164604644,-0.20812264658418572,-0.28375470683162857
2.639023668639053,0.3891837800208895,-0.07044900800557054,-0.5738774799860736
2.6470207100591714,0.21277845457709965,-0.02340758788722659,-0.6914810302819335
2.65501775147929,0.03637312913330987,0.02363383223111737,-0.8090845805777934
2.6630147928994083,-0.14003219631047992,0.07067525234946131,-0.9266881308736532
2.6710118343195264,-0.31643752175426,0.11771667246780265,-1.0442916811695064
2.679008875739645,-0.4928428471980498,0.16475809258614657,-1.1618952314653663
2.6870059171597633,-0.6692481726418396,0.21179951270449057,-1.2794987817612262
2.6950029585798814,-0.8456534980856196,0.25884093282283194,-1.3971023320570797
2.703,-1.8499999999998114,0.3999999999999778,-1.9499999999999
2.7109970414201183,-1.8699370108799402,2.21503149456003,-3.7128841381943114
2.7189940828402364,-1.7495514411147224,2.275224279442639,-3.764477953807976
2.726991124260355,-1.629165871349498,2.335417064325251,-3.8160717694216437
2.7349881656804733,-1.5087803015842736,2.3956098492078635,-3.8676655850353114
2.7429852071005913,-1.388394731819056,2.455802634090472,-3.919259400648976
2.75098224852071,-1.2680091620538314,2.5159954189730844,-3.9708532162626438
2.7589792899408283,-1.1476235922886069,2.5761882038556965,-4.022447031876311
2.766976331360947,-1.0272380225233824,2.636380988738309,-4.074040847489979
2.774973372781065,-0.9068524527581647,2.6965737736209174,-4.125634663103644
2.7829704142011833,-0.7864668829929404,2.75676655850353,-4.1772284787173115
2.7909674556213018,-0.6660813132277159,2.816959343386142,-4.228822294330978
2.79896449704142,-0.545695743462498,2.877152128268751,-4.280416109944643
2.8069615384615383,-9.569230769230362,5.334615384615182,-7.778846153846088
2.8149585798816568,-6.490210387902712,7.2954503616042174,-0.844273504273493
2.822955621301775,-5.8060190664037234,6.886712689020406,-1.3063247863247578
2.8309526627218933,-5.121827744904698,6.477975016436572,-1.7683760683760485
2.8389497041420118,-4.437636423405671,6.0692373438527385,-2.2304273504273393
2.8469467455621302,-3.753445101906644,5.660499671268904,-2.69247863247863
2.8549437869822483,-3.0692537804076556,5.251761998685094,-3.1545299145298946
2.8629408284023667,-2.385062458908629,4.8430243261012595,-3.616581196581185
2.8709378698224852,-1.700871137409603,4.434286653517425,-4.078632478632476
2.8789349112426033,-1.0166798159106145,4.025548980933614,-4.5406837606837405
2.8869319526627217,-0.3324884944115878,3.61681130834978,-5.002735042735031
2.89492899408284,0.35170282708743894,3.2080736357659463,-5.4647863247863215
2.9029260355029582,-3.4295857988167144,3.8684911242604465,-4.077810650887464
2.9109230769230767,-2.8052249637155278,1.9921625544267083,-4.595645863570393
2.918920118343195,-2.8504912359048777,1.9242631461426833,-4.557923970079268
2.9269171597633132,-2.895757508094225,1.8563637378586622,-4.520202076588145
2.9349142011834317,-2.941023780283575,1.7884643295746374,-4.48248018309702
2.94291124260355,-2.986290052472925,1.7205649212906124,-4.444758289605895
2.9509082840236687,-3.031556324662275,1.6526655130065877,-4.407036396114771
2.9589053254437867,-3.0768225968516223,1.5847661047225665,-4.369314502623648
2.966902366863905,-3.1220888690409723,1.5168666964385416,-4.331592609132523
2.9748994082840237,-3.1673551412303222,1.4489672881545168,-4.293870715641398
2.9828964497041417,-3.2126214134196696,1.3810678798704956,-4.256148822150275
2.99089349112426,-3.2578876856090195,1.3131684715864707,-4.21842692865915
2.9988905325443787,-3.3031539577983695,1.245269063302446,-4.180705035168025
3.0068875739644967,-3.348420229987717,1.1773696550184247,-4.142983141676902
3.014884615384615,-3.393686502177067,1.1094702467343998,-4.105261248185777
3.0228816568047336,-2.792476754015217,0.6731191885038043,-1.8462383770076085
3.030878698224852,-2.335502958579883,0.5588757396449707,-1.6177514792899415
3.03887573964497,-2.1231387441490748,0.47107656981365653,-1.4884306279254627
3.0468727810650886,-2.170882275015454,0.41139715623068257,-1.464558862492273
3.054869822485207,-2.218625805881833,0.3517177426477086,-1.4406870970590835
3.062866863905325,-2.26636933674821,0.2920383290647379,-1.4168153316258951
3.0708639053254436,-2.314112867614589,0.23235891548176402,-1.3929435661927057
3.078860946745562,-2.361856398480968,0.17267950189879006,-1.369071800759516
3.08685798816568,-2.4095999293473445,0.11300008831581937,-1.3452000353263278
3.0948550295857986,-2.457343460213724,0.05332067473284541,-1.3213282698931381
3.102852071005917,-2.926035502958563,0.04260355029585628,-1.3426035502958562
3.110849112426035,-1.6905325443790415,0.20754437869825348,-0.6452662721895208
3.1188461538461536,-1.5311188811188796,-0.16223776223775907,-0.18444055944056026
3.126843195266272,-1.5674690693921454,-0.23493813878429062,-0.16626546530392736
3.1348402366863906,-1.6038192576654111,-0.3076385153308222,-0.14809037116729445
3.1428372781065086,-1.6401694459386749,-0.3803388918773497,-0.12991527703066258
3.150834319526627,-1.6765196342119406,-0.4530392684238812,-0.1117401828940297
3.1588313609467455,-1.7128698224852064,-0.5257396449704128,-0.09356508875739682
3.1668284023668636,-1.7492200107584701,-0.5984400215169403,-0.07538999462076494
3.174825443786982,-1.7855701990317359,-0.6711403980634718,-0.05721490048413205
3.1828224852071005,-1.8219203873050016,-0.7438407746100034,-0.03903980634749915
3.1908195266272186,-1.8582705755782654,-0.8165411511565309,-0.020864712210867276
3.198816568047337,-1.894620763851531,-0.8892415277030624,-0.002689618074234401
3.2068136094674555,-2.7831360946746164,0.4813609467455657,4.529733727810703
3.214810650887574,-3.1,0.29003626646306024,4.925978240122164
3.222807692307692,-3.1,0.07506203473945716,5.054962779156326
3.2308047337278105,-3.1,-0.1399121969841579,5.183947318190494
3.238801775147929,-3.1,-0.354886428707773,5.3129318572246635
3.246798816568047,-3.1,-0.5698606604313761,5.441916396258826
3.2547958579881655,-3.1,-0.7848348921549912,5.570900935292994
3.262792899408284,-3.1,-0.9998091238786062,5.699885474327163
3.270789940828402,-3.1,-1.2147833556022094,5.828870013361326
3.2787869822485205,-3.1,-1.4297575873258244,5.957854552395494
3.286784023668639,-3.1,-1.6447318190494395,6.086839091429663
3.294781065088757,-3.1,-1.8597060507730427,6.2158236304638255
3.3027781065088755,3.0893491124257393,-2.8332840236686705,5.555473372781118
3.310775147928994,4.5,-1.9909044801352498,4.595452240067624
3.3187721893491124,4.5,-1.975672020287405,4.587836010143702
3.3267692307692305,4.5,-1.960439560439561,4.58021978021978
3.334766272189349,4.5,-1.9452071005917164,4.572603550295858
3.3427633136094674,4.5,-1.9299746407438716,4.5649873203719356
3.3507603550295855,4.5,-1.9147421808960279,4.557371090448013
3.358757396449704,4.5,-1.899509721048183,4.549754860524091
3.3667544378698224,4.5,-1.8842772612003382,4.542138630600169
3.3747514792899405,4.5,-1.8690448013524945,4.534522400676247
3.382748520710059,4.5,-1.8538123415046497,4.526906170752325
3.3907455621301774,4.5,-1.838579881656805,4.519289940828402
3.398742603550296,4.5,-1.8233474218089603,4.51167371090448
3.406739644970414,4.5,-1.8081149619611163,4.504057480980558
3.4147366863905324,3.8456278763971086,-0.8877383300460244,4.4
3.422733727810651,3.119956966110827,0.06670252824097746,4.420010758472293
3.430730769230769,2.2475524475524704,0.7937062937062747,4.638111888111883
3.4387278106508874,0.772189349112428,1.5417159763313582,4.651331360946749
3.446724852071006,0.7251479289940836,1.6122781065088745,4.569008875739646
3.454721893491124,0.6781065088757421,1.682840236686387,4.486686390532548
3.4627189349112424,0.6310650887573978,1.7534023668639034,4.404363905325446
3.470715976331361,0.5840236686390535,1.8239644970414197,4.322041420118344
3.478713017751479,0.5369822485207119,1.8945266272189323,4.239718934911246
3.4867100591715974,0.48994082840236763,1.9650887573964486,4.157396449704144
3.494707100591716,0.44289940828402335,2.035650887573965,4.075073964497041
3.5027041420118343,0.1535502958579344,2.2408284023668945,3.8591715976331056
3.5107011834319524,-0.9,3.565138067061097,2.2398422090730326
3.518698224852071,-1.453983182809093,3.8,1.7640112114606046
3.5266952662721893,-1.529744627841794,3.8,1.7135035814388038
3.5346923076923074,-1.6055060728744912,3.8,1.6629959514170058
3.542689349112426,-1.6812675179071923,3.8,1.612488321395205
3.5506863905325443,-1.7570289629398936,3.8,1.5619806913734042
3.5586834319526623,-1.8327904079725905,3.8,1.511473061351606
3.566680473372781,-1.9085518530052918,3.8,1.4609654313298055
3.5746775147928993,-1.984313298037993,3.8,1.4104578013080045
3.582674556213018,-2.060074743070694,3.8,1.3599501712862039
3.590671597633136,-2.135836188103391,3.8,1.3094425412644057
3.5986686390532543,-2.2115976331360923,3.8,1.258934911242605
3.6066656804733728,-2.2873590781687936,3.8,1.2084272812208041
3.614662721893491,-1.1081656804735445,2.9953846153848502,-3.8708875739642172
3.6226597633136093,-3.1539776462853393,0.7345167652859955,-4.294247205785667
3.6306568047337278,-3.074994521148367,0.793754109138725,-4.284374315143546
3.638653846153846,-2.9960113960113985,0.8529914529914513,-4.274501424501425
3.6466508875739643,-2.9170282708744257,0.9122287968441808,-4.2646285338593035
3.6546479289940828,-2.838045145737453,0.9714661406969103,-4.254755643217182
3.662644970414201,-2.7590620206004846,1.0307034845496363,-4.2448827525750605
3.6706420118343193,-2.680078895463512,1.089940828402366,-4.235009861932939
3.6786390532544377,-2.6010957703265394,1.1491781722550956,-4.2251369712908176
3.686636094674556,-2.5221126451895666,1.208415516107825,-4.215264080648696
3.6946331360946743,-2.443129520052598,1.2676528599605512,-4.205391190006575
3.7026301775147927,1.0671597633135583,2.5739644970414313,-4.118491124260357
3.710627218934911,-0.7485788250211342,2.709715765004227,-4.177329881656804
3.7186242603550292,-0.8556820583262863,2.7311364116652572,-4.127348372781067
3.7266213017751477,-0.9627852916314444,2.752557058326289,-4.077366863905326
3.734618343195266,-1.0698885249366026,2.7739777049873204,-4.027385355029586
3.7426153846153842,-1.1769917582417548,2.795398351648351,-3.977403846153848
3.7506124260355027,-1.2840949915469129,2.8168189983093828,-3.9274223372781076
3.758609467455621,-1.391198224852071,2.838239644970414,-3.877440828402367
3.7666065088757392,-1.4983014581572232,2.8596602916314446,-3.8274593195266293
3.7746035502958577,-1.6054046914623812,2.8810809382924765,-3.777477810650889
3.782600591715976,-1.7125079247675394,2.902501584953508,-3.7274963017751483
3.7905976331360947,-1.8196111580726975,2.9239222316145397,-3.677514792899408
3.7985946745562127,-1.9267143913778497,2.9453428782755697,-3.62753328402367
3.806591715976331,-2.0338176246830075,2.9667635249366016,-3.5775517751479295
3.8145887573964496,-2.140920857988166,2.9881841715976334,-3.527570266272189
3.8225857988165677,-3.6138067061144055,3.535355029585804,-2.970710059171608
3.830582840236686,-3.347238658777123,3.335428994082842,-2.5708579881656846
3.8385798816568046,-0.3,3.083727810650888,-1.2728796844181465
3.8465769230769227,-0.3,3.047377622377624,-1.2122960372960399
3.854573964497041,-0.3,3.011027434104358,-1.1517123901739301
3.8625710059171596,-0.3,2.974677245831092,-1.0911287430518202
3.870568047337278,-0.3,2.938327057557826,-1.0305450959297104
3.878565088757396,-0.3,2.9019768692845624,-0.9699614488076039
3.8865621301775146,-0.3,2.8656266810112965,-0.9093778016854941
3.894559171597633,-0.3,2.8292764927380305,-0.8487941545633843
3.902556213017751,-0.5494411571334223,2.5938198553583223,-0.5938198553583222
3.9105532544378696,-1.260289283366184,2.504963839579227,-0.504963839579227
3.918550295857988,-2.2949441157133466,1.9747205785667334,0.550558842866533
3.926547337278106,-2.2860585141354375,1.9302925706771885,0.6394148586456229
3.9345443786982246,-2.277172912557528,1.8858645627876411,0.7282708744247176
3.942541420118343,-2.268287310979619,1.8414365548980938,0.8171268902038125
3.950538461538461,-2.25940170940171,1.7970085470085488,0.9059829059829023
3.9585355029585796,-2.2505161078238003,1.7525805391190015,0.9948389217619971
3.966532544378698,-2.2416305062458908,1.708152531229454,1.0836949375410918
3.9745295857988165,-2.2327449046679813,1.6637245233399067,1.1725509533201866
3.9825266272189346,-2.2238593030900726,1.6192965154503618,1.2614069690992764
3.990523668639053,-2.214973701512163,1.5748685075608144,1.3502629848783712
3.9985207100591715,-2.2060880999342536,1.530440499671267,1.439119000657466
4.00651775147929,-0.10991124260325646,0.8758875739645143,3.5347633136096572
4.0145147928994085,0.33346620990345116,0.12376206789162461,4.995247586421675
4.022511834319526,0.21561507318592957,0.16585175957645376,4.98682964808471
4.030508875739645,0.09776393646839493,0.20794145126128755,4.978411709747743
4.038505917159763,-0.020087200249139736,0.2500311429461214,4.969993771410776
4.0465029585798815,-0.13793833696667446,0.2921208346309552,4.961575833073809
4.0545,-0.2557894736842091,0.33421052631578896,4.953157894736842
4.0624970414201185,-0.3736406104017438,0.37630021800062285,4.944739956399876
4.070494082840236,-0.49149174711926535,0.418389909685452,4.93632201806291
4.0784911242603545,-0.6093428838367999,0.46047960137028576,4.927904079725943
4.086488165680473,-0.7271940205543347,0.5025692930551195,4.919486141388976
4.0944852071005915,-0.8450451572718692,0.5446589847399534,4.911068203052009
4.10248224852071,-0.962896293989404,0.5867486764247872,4.902650264715043
4.1104792899408285,0.4958579881656794,-1.5958579881656794,4.464497041420122
4.118476331360947,0.586154941924172,-1.713845058075828,4.051542296734602
4.1264733727810645,0.5713456059609914,-1.7286543940390087,3.9997096208634693
4.134470414201183,0.556536269997809,-1.743463730002191,3.9478769449923314
4.1424674556213015,0.5417269340346268,-1.7582730659653731,3.896044269121193
4.15046449704142,0.5269175980714444,-1.7730824019285554,3.8442115932500553
4.158461538461538,0.5121082621082622,-1.7878917378917378,3.7923789173789175
4.166458579881657,0.49729892614507987,-1.80270107385492,3.7405462415077793
4.1744556213017745,0.48248959018189924,-1.8175104098181007,3.688713565636647
4.182452662721893,0.46768025421871695,-1.832319745781283,3.636880889765509
4.1904497041420115,0.45287091825553466,-1.8471290817444652,3.585048213894371
4.19844674556213,0.43806158229235237,-1.8619384177076475,3.5332155380232333
4.206443786982248,0.4232522463291701,-1.87674775367083,3.481382862152095
4.214440828402367,0.4084429103659878,-1.8915570896340121,3.429550186280957
4.222437869822485,0.618773534158138,-2.0250134480903643,3.0874663797740887
4.230434911242603,1.2957100591711608,-2.4087278106506447,2.18254437869871
4.238431952662721,4.225999641384251,-2.474000358615749,-0.8363994979379513
4.24642899408284,4.286583288506361,-2.4134167114936393,-0.9212166039089051
4.254426035502958,4.34716693562847,-2.3528330643715294,-1.0060337098798589
4.262423076923077,4.40775058275058,-2.2922494172494194,-1.0908508158508128
4.270420118343195,4.46833422987269,-2.23166577012731,-1.1756679218217665
4.278417159763313,4.528917876994794,-2.1710821230052066,-1.2604850277927109
4.286414201183431,4.589501524116903,-2.1104984758830967,-1.3453021337636644
4.29441124260355,4.650085171239013,-2.049914828760987,-1.4301192397346183
4.302408284023668,2.430473372781071,-1.6775147928994099,-2.665384615384612
4.310405325443787,-1.2449523004468042,-0.5775238497765979,-4.840457070402124
4.318402366863905,-1.326554763917401,-0.5367226180412995,-4.913899287525661
4.326399408284024,-1.4081572273879979,-0.4959213863060011,-4.987341504649198
4.334396449704141,-1.4897596908585855,-0.4551201545707072,-5.060783721772727
4.34239349112426,-1.5713621543291825,-0.4143189228354088,-5.1342259388962646
4.350390532544378,-1.6529646177997792,-0.37351769110011035,-5.2076681560198015
4.358387573964497,-1.734567081270376,-0.332716459364812,-5.281110373143338
4.366384615384615,-1.816169544740973,-0.29191522762951355,-5.354552590266875
4.374381656804734,-1.8977720082115699,-0.2511139958942151,-5.427994807390413
4.382378698224852,-1.9793744716821666,-0.2103127641589167,-5.50143702451395
4.39037573964497,-2.0609769351527545,-0.16951153242362282,-5.574879241637479
4.398372781065088,-2.1425793986233512,-0.1287103006883244,-5.648321458761016
4.406369822485207,-2.6260355029585796,1.0725838264299812,-5.9753451676528595
4.414366863905325,0.7245724689511698,1.5208075947720912,-6.186995253267443
4.422363905325444,0.4697216984199221,1.5911112556082974,-6.143055465244815
4.430360946745562,0.21487092788867446,1.6614149164445036,-6.099115677222185
4.43835798816568,-0.03997984264254495,1.731718577280702,-6.055175889199561
4.446355029585798,-0.29483061317379256,1.8020222381169082,-6.011236101176933
4.454352071005917,-0.5496813837050403,1.8723258989531144,-5.9672963131543035
4.462349112426035,-0.804532154236288,1.9426295597893208,-5.923356525131675
4.470346153846154,-1.0593829247675357,2.012933220625527,-5.879416737109046
4.478343195266272,-1.3142336952987834,2.0832368814617332,-5.8354769490864165
4.486340236686391,-1.569084465830031,2.1535405422979395,-5.791537161063788
4.494337278106508,-1.8239352363612504,2.2238442031341377,-5.747597373041164
4.502334319526627,-2.078786006892498,2.294147863970344,-5.703657585018535
4.510331360946745,-4.067455621301741,3.466863905325435,-2.900118343195261
4.518328402366864,-1.5,2.0723718997859777,-2.6861859498929888
4.526325443786982,-1.5,2.0213269545511787,-2.6606634772755893
4.534322485207101,-1.5,1.9702820093163793,-2.63514100465819
4.542319526627218,-1.5,1.919237064081586,-2.609618532040793
4.550316568047337,-1.5,1.8681921188467867,-2.5840960594233935
4.558313609467455,-1.5,1.8171471736119877,-2.558573586805994
4.566310650887574,-1.5,1.7661022283771886,-2.533051114188594
4.574307692307692,-1.5,1.7150572831423894,-2.5075286415711946
4.582304733727811,-1.5,1.6640123379075904,-2.482006168953795
4.590301775147929,-1.5,1.6129673926727912,-2.4564836963363956
4.598298816568047,-1.5,1.5619224474379978,-2.430961223718999
4.606295857988165,-1.5,1.5108775022031986,-2.4054387511015993
4.614292899408284,-2.066360946745525,1.5,-2.3370710059171635
4.622289940828402,-3.1,1.5,-2.0982248520710134
4.630286982248521,-2.497704142011834,1.3996173570019723,-1.2980867850098616
4.638284023668639,-2.433727810650886,1.388954635108481,-1.2447731755424054
4.646281065088757,-2.369751479289946,1.378291913214991,-1.191459566074955
4.654278106508875,-2.305775147928998,1.3676291913214997,-1.1381459566074985
4.662275147928994,-2.2417988165680502,1.3569664694280084,-1.084832347140042
4.670272189349112,-2.177822485207103,1.3463037475345172,-1.0315187376725856
4.678269230769231,-2.113846153846155,1.3356410256410258,-0.9782051282051293
4.686266272189349,-2.049869822485207,1.3249783037475347,-0.924891518737673
4.694263313609468,-1.9858934911242596,1.3143155818540433,-0.8715779092702165
4.702260355029585,-1.9219171597633191,1.3036528599605532,-0.818264299802766
4.710257396449704,-1.737623274161723,1.087130177514831,-0.18713017751483108
4.718254437869822,-2.096230550076709,0.2990576375191772,0.8018847249616456
4.726251479289941,-1.9777558623712506,0.2694389655928126,0.8611220688143748
4.734248520710059,-1.8592811746657922,0.23982029366644803,0.920359412667104
4.742245562130178,-1.740806486960334,0.21020162174008344,0.9795967565198331
4.750242603550296,-1.6223317992548756,0.18058294981371886,1.0388341003725623
4.758239644970414,-1.5038571115494304,0.15096427788735756,1.0980714442252848
4.766236686390532,-1.3853824238439718,0.12134560596099297,1.157308788078014
4.774233727810651,-1.2669077361385135,0.0917269340346284,1.2165461319307431
4.782230769230769,-1.1484330484330552,0.06210826210826381,1.2757834757834723
4.7902278106508875,-1.0299583607275968,0.03248959018189923,1.3350208196362015
4.798224852071006,-0.9114836730221385,0.002870918255534649,1.3942581634889306
4.806221893491124,0.8443786982247168,-0.36296844181460697,3.9110946745561788
4.814218934911242,1.644623350022757,-0.32434000910332195,4.104056668183887
4.822215976331361,1.7292074419663177,-0.3704767865270824,4.1117461310878465
4.830213017751479,1.8137915339098785,-0.4166135639508428,4.119435593991807
4.8382100591715975,1.8983756258534392,-0.4627503413746032,4.127125056895767
4.846207100591716,1.982959717797,-0.5088871187983637,4.134814519799727
4.8542041420118345,2.067543809740561,-0.555023896222124,4.142503982703687
4.862201183431952,2.1521279016841124,-0.6011606736458793,4.150193445607647
4.8701982248520705,2.236711993627673,-0.6472974510696397,4.157882908511606
4.878195266272189,2.321296085571234,-0.6934342284934001,4.165572371415567
4.8861923076923075,2.4058801775147947,-0.7395710059171605,4.1732618343195265
4.894189349112426,2.4904642694583554,-0.785707783340921,4.180951297223487
4.9021863905325445,2.575048361401916,-0.8318445607646814,4.188640760127447
4.910183431952662,2.659632453345467,-0.8779813381884367,4.196330223031406
4.9181804733727805,0.9146449704143697,-0.6097633136095797,4.377071005917126
4.926177514792899,-0.5,-0.6421425622677808,4.3819389018852375
4.9341745562130175,-0.5,-0.7072347598733967,4.354042245768545
4.942171597633136,-0.5,-0.7723269574790127,4.326145589651852
4.950168639053254,-0.5,-0.8374191550846286,4.2982489335351595
4.958165680473373,-0.5,-0.9025113526902446,4.270352277418467
4.9661627218934905,-0.5,-0.9676035502958533,4.242455621301777
4.974159763313609,-0.5,-1.0326957479014693,4.214558965185084
4.9821568047337275,-0.5,-1.0977879455070854,4.186662309068392
4.990153846153846,-0.5,-1.1628801431127012,4.1587656529517
4.998150887573964,-0.5,-1.2279723407183174,4.130868996835007
5.006147928994083,-0.5,-1.2930645383239332,4.102972340718314
5.0141449704142005,1.4226477664347368,-1.994967163014503,1.694967163014503
5.022142011834319,1.5808310033162007,-1.9598153325963998,1.6598153325963998
5.030139053254437,1.739014240197665,-1.9246635021782967,1.6246635021782967
5.038136094674556,1.897197477079129,-1.8895116717601936,1.5895116717601936
5.046133136094674,2.0553807139605933,-1.8543598413420905,1.5543598413420905
5.054130177514793,2.2135639508420573,-1.8192080109239874,1.5192080109239874
5.062127218934911,2.371747187723521,-1.784056180505884,1.4840561805058843
5.070124260355029,2.529930424604968,-1.748904350087785,1.448904350087785
5.078121301775147,2.688113661486432,-1.713752519669682,1.4137525196696819
5.086118343195266,2.8462968983678962,-1.6786006892515788,1.3786006892515787
5.094115384615384,3.00448013524936,-1.6434488588334757,1.3434488588334756
5.102112426035503,3.162663372130824,-1.6082970284153726,1.3082970284153725
5.110109467455621,0.8350591715974551,0.4218934911242942,-2.287573964497177
5.118106508875739,-0.23187336058072608,0.6293051912401614,-3.0805892759104436
5.126103550295857,-0.38027206734581054,0.6622826816324023,-3.1712773744891063
5.134100591715976,-0.528670774110895,0.6952601720246434,-3.261965473067769
5.142097633136094,-0.6770694808759795,0.7282376624168844,-3.352653571646432
5.150094674556213,-0.825468187641064,0.7612151528091253,-3.4433416702250947
5.158091715976331,-0.9738668944061485,0.7941926432013664,-3.5340297688037574
5.16608875739645,-1.122265601171233,0.8271701335936074,-3.62471786738242
5.174085798816567,-1.2706643079363011,0.8601476239858448,-3.7154059659610725
5.182082840236686,-1.4190630147013856,0.8931251143780857,-3.8060940645397356
5.190079881656804,-1.5674617214664701,0.9261026047703267,-3.8967821631183983
5.198076923076923,-1.7158604282315546,0.9590800951625678,-3.987470261697061
5.206073964497041,-1.864259134996639,0.9920575855548088,-4.078158360275724
5.21407100591716,-1.3825443786981775,2.4535502958579904,-4.153550295857991
5.222068047337278,-0.4479196511990012,2.440479601370287,-4.252080348800999
5.230065088757396,-0.38899408284023984,2.37313609467456,-4.31100591715976
5.238062130177514,-0.33006851448147195,2.305792587978825,-4.369931485518528
5.246059171597633,-0.27114294612270406,2.23844908128309,-4.428857053877296
5.254056213017751,-0.21221737776393618,2.1711055745873558,-4.487782622236064
5.26205325443787,-0.15329180940516834,2.103762067891621,-4.546708190594832
5.270050295857988,-0.09436624104640046,2.036418561195886,-4.6056337589536
5.278047337278106,-0.03544067268763912,1.9690750545001587,-4.664559327312361
5.286044378698224,0.02348489567112877,1.901731547804424,-4.723484895671129
5.294041420118343,0.08241046402989671,1.8343880411086895,-4.782410464029897
5.302038461538461,0.14133603238866455,1.7670445344129546,-4.841336032388665
5.31003550295858,0.20532544378701695,1.6857988165679547,-4.9230769230770735
5.318032544378698,-1.6867973372779992,1.2016272189348964,-5.295118343195311
5.326029585798817,-3.0055944055943655,2.6628294782140842,-3.5256589564281686
5.334026627218934,-2.2697518325532173,2.4697518325532175,-3.196975183255322
5.342023668639053,-2.1503930053872704,2.3503930053872706,-3.1850393005387274
5.350020710059171,-2.031034178221323,2.231034178221323,-3.1731034178221327
5.35801775147929,-1.9116753510553761,2.1116753510553763,-3.161167535105538
5.366014792899408,-1.792316523889429,1.992316523889429,-3.149231652388943
5.374011834319527,-1.6729576967234818,1.872957696723482,-3.1372957696723485
5.382008875739644,-1.5535988695575482,1.753598869557548,-3.125359886955755
5.390005917159763,-1.4342400423916009,1.634240042391601,-3.1134240042391603
5.398002958579881,-1.314881215225654,1.5148812152256537,-3.1014881215225656
5.406,-2.7499999999997558,1.6999999999999111,-2.7500000000000666
5.413997041420118,-3.384058290318518,2.1,-1.9840582903185182
5.421994082840237,-3.341520835956186,2.1,-1.941520835956186
5.429991124260355,-3.2989833815938536,2.1,-1.8989833815938537
5.437988165680473,-3.2564459272315265,2.1,-1.8564459272315263
5.445985207100591,-3.213908472869194,2.1,-1.813908472869194
5.45398224852071,-3.171371018506862,2.1,-1.771371018506862
5.461979289940828,-3.1288335641445295,2.1,-1.7288335641445298
5.469976331360947,-3.0862961097821975,2.1,-1.6862961097821976
5.477973372781065,-3.0437586554198655,2.1,-1.6437586554198653
5.485970414201183,-3.001221201057538,2.1,-1.601221201057538
5.493967455621301,-2.958683746695206,2.1,-1.5586837466952057
5.50196449704142,-2.9161462923328734,2.1,-1.5161462923328735
5.509961538461538,-2.767307692307946,0.3557692307693153,-0.6557692307693154
5.517958579881657,-2.19410856701827,0.1848726524311815,-0.46218163107795374
5.525955621301775,-2.0724144584512496,0.16748777977874996,-0.41871944944687484
5.533952662721894,-1.9507203498842287,0.1501029071263184,-0.375257267815796
5.541949704142011,-1.8290262413172214,0.1327180344738888,-0.331795086184722
5.54994674556213,-1.7073321327502007,0.11533316182145725,-0.28833290455364313
5.557943786982248,-1.5856380241831798,0.0979482891690257,-0.24487072292256423
5.565940828402367,-1.4639439156161589,0.08056341651659416,-0.2014085412914854
5.573937869822485,-1.3422498070491382,0.0631785438641626,-0.15794635966040654
5.5819349112426035,-1.2205556984821175,0.04579367121173106,-0.1144841780293277
5.589931952662722,-1.0988615899150966,0.028408798559299536,-0.0710219963982488
5.59792899408284,-0.9771674813480893,0.011023925906869902,-0.027559814767174784
5.605926035502958,-0.28520710059163606,-0.7630177514790902,0.5778106508874541
5.613923076923077,-0.3702097902097995,-0.35370629370628986,1.8134265734265724
5.621920118343195,-0.1593786982248584,-0.44094674556212754,1.8352366863905318
5.6299171597633135,0.05145239376008259,-0.5281871974179653,1.8570467993544915
5.637914201183432,0.2622834857450237,-0.6154276492738029,1.8788569123184509
5.64591124260355,0.47311457772994137,-0.702668101129631,1.9006670252824078
5.653908284023668,0.6839456697148825,-0.7899085529854686,1.9224771382463672
5.6619053254437866,0.8947767616998235,-0.8771490048413062,1.9442872512103266
5.669902366863905,1.1056078536847647,-0.9643894566971438,1.966097364174286
5.6778994082840235,1.3164389456697057,-1.0516299085529817,1.9879074771382454
5.685896449704142,1.5272700376546466,-1.1388703604088193,2.009717590102205
5.6938934911242605,1.7381011296395878,-1.226110812264657,2.0315277030661645
5.701890532544378,1.9489322216245055,-1.313351264120485,2.053337816030121
5.7098875739644965,2.1597633136094463,-1.4005917159763226,2.0751479289940806
5.717884615384615,2.3705944055943875,-1.4878321678321604,2.09695804195804
5.7258816568047335,-1.1787573964496663,1.8811834319526666,3.9188165680473332
5.733878698224852,-1.9384763313609379,1.8012130177514802,3.9987869822485194
5.7418757396449704,-2.6981952662722093,1.7212426035502937,4.078757396449706
5.749872781065088,-1.4721893491124478,-0.3878698224851922,3.568047337278112
5.7578698224852065,-1.2624308856339301,-0.532078766126673,3.5156077214084824
5.765866863905325,-1.0526724221554125,-0.6762877097681539,3.4631681055388532
5.7738639053254435,-0.8429139586768948,-0.8204966534096347,3.410728489669224
5.781860946745562,-0.6331554951983771,-0.9647055970511156,3.3582888737995944
5.78985798816568,-0.42339703171985943,-1.1089145406925964,3.305849257929965
5.797855029585799,-0.21363856824134175,-1.2531234843340773,3.2534096420603356
5.8058520710059165,-0.0038801047628473917,-1.3973324279755424,3.200970026190712
5.813849112426035,0.9547337278104692,-1.6698224852069794,2.2150887573965106
5.8218461538461534,2.385576923076914,-1.7766608391608416,1.9922202797202806
5.829843195266272,2.485539940828396,-1.7493981979558921,1.983132732651964
5.83784023668639,2.5855029585798777,-1.7221355567509424,1.9740451855836474
5.845837278106509,2.6854659763313595,-1.6948729155459927,1.964957638515331
5.8538343195266265,2.7854289940828303,-1.6676102743410461,1.9558700914470153
5.861831360946745,2.885392011834312,-1.6403476331360967,1.9467825443786988
5.869828402366863,2.985355029585794,-1.613084991931147,1.9376949973103823
5.877825443786982,3.085318047337276,-1.5858223507261975,1.9286074502420658
5.8858224852071,3.185281065088758,-1.5585597095212478,1.919519903173749
5.893819526627219,3.28524408284024,-1.5312970683162983,1.9104323561054326
5.901816568047337,3.385207100591722,-1.5040344271113486,1.9013448090371161
5.909813609467455,2.2841715976332875,0.07514792899397282,0.8186390532545205
5.917810650887573,-1.0271597633135956,1.4181065088757303,-0.33168639053252813
5.925807692307692,-1.1471153846153728,1.498076923076915,-0.4716346153846014
5.93380473372781,-1.2670710059171497,1.5780473372780999,-0.6115828402366745
5.941801775147929,-1.3870266272189269,1.6580177514792847,-0.7515310650887479
5.949798816568047,-1.5069822485207038,1.7379881656804692,-0.891479289940821
5.957795857988166,-1.626937869822481,1.817958579881654,-1.0314275147928942
5.965792899408283,-1.7468934911242449,1.89792899408283,-1.171375739644952
5.973789940828402,-1.8668491124260218,1.9778994082840144,-1.3113239644970252
5.98178698224852,-1.986804733727799,2.0578698224851992,-1.4512721893490985
5.989784023668639,-2.106760355029576,2.137840236686384,-1.5912204142011717
5.997781065088757,-1.9328402366864412,3.090532544378529,-3.0357988165677936
6.005778106508876,-2.655077631113137,4.720419258584938,-4.644922368886863
6.013775147928993,-2.579891771607758,4.754594649269201,-4.720108228392242
6.021772189349112,-2.5047059121023705,4.7887700399534685,-4.79529408789763
6.02976923076923,-2.429520052596983,4.822945430637735,-4.870479947403017
6.037766272189349,-2.3543341930915958,4.8571208213220025,-4.945665806908404
6.045763313609467,-2.279148333586208,4.891296212006269,-5.020851666413792
6.053760355029586,-2.203962474080821,4.9254716026905365,-5.096037525919179
6.061757396449704,-2.1287766145754334,4.959646993374803,-5.171223385424566
6.069754437869822,-2.0535907550700543,4.993822384059066,-5.2464092449299455
6.07775147928994,-1.978404895564667,5.0279977747433335,-5.321595104435334
6.085748520710059,-1.9032190360592796,5.0621731654276,-5.396780963940721
6.093745562130177,-1.828033176553892,5.0963485561118675,-5.471966823446108
6.101742603550296,-1.7528473170485048,5.130523946796134,-5.547152682951495
6.109739644970414,-1.6776614575431172,5.1646993374804016,-5.622338542456883
6.117736686390532,-1.6024755980377383,5.198874728164665,-5.697524401962262
6.12573372781065,-4.850457235072342,4.588542227003662,-5.364712210866303
6.133730769230769,-4.963461538462506,4.548076923077318,-2.3346153846157436
6.141727810650887,-4.1040360328535215,4.088580764815003,-2.1653978627572226
6.149724852071006,-3.590793076039942,3.766311931466941,-2.129590214607438
6.157721893491124,-3.0775501192263626,3.4440430981188794,-2.0937825664576533
6.165718934911243,-2.564307162412783,3.121774264770818,-2.0579749183078686
6.17371597633136,-2.051064205599261,2.799505431422792,-2.022167270158088
6.181713017751479,-1.5378212487856815,2.4772365980747306,-1.9863596220083033
6.189710059171597,-1.024578291972102,2.154967764726669,-1.9505519738585186
6.197707100591716,-0.5113353351585221,1.8326989313786077,-1.914744325708734
6.205704142011834,0.8971893491124587,0.9,-1.6338017751479237
6.213701183431953,-3.174358974359135,1.6268244575937132,-2.043293885601572
6.22169822485207,-4.356491052969268,1.8322806016967248,-1.9919298495758189
6.229695266272189,-4.423935980608821,1.870820560347898,-1.9822948599130255
6.237692307692307,-4.491380908248375,1.9093605189990714,-1.9726598702502323
6.245689349112426,-4.558825835887928,1.9479004776502447,-1.9630248805874388
6.253686390532544,-4.626270763527481,1.986440436301418,-1.9533898909246454
6.261683431952663,-4.693715691167035,2.0249803949525913,-1.9437549012618522
6.269680473372781,-4.761160618806588,2.0635203536037645,-1.9341199115990588
6.277677514792899,-4.828605546446134,2.1020603122549337,-1.9244849219362665
6.285674556213017,-4.896050474085687,2.140600270906107,-1.9148499322734733
6.293671597633136,-4.963495401725241,2.17914022955728,-1.90521494261068
6.301668639053254,-3.8828402366863743,2.86686390532545,-1.1662721893491
6.309665680473373,-3.9914010307310575,3.0971336769103526,-0.6914010307310573
6.317662721893491,-3.9656041229242236,3.088534707641408,-0.6656041229242234
6.325659763313609,-3.9398072151173924,3.0799357383724644,-0.6398072151173926
6.333656804733727,-3.914010307310559,3.0713367691035196,-0.6140103073105587
6.341653846153846,-3.888213399503725,3.062737799834575,-0.5882133995037249
6.349650887573964,-3.8624164916968913,3.0541388305656305,-0.5624164916968911
6.357647928994083,-3.8366195838900574,3.0455398612966857,-0.5366195838900574
6.365644970414201,-3.8108226760832236,3.036940892027741,-0.5108226760832235
6.3736420118343196,-3.7850257682763897,3.0283419227587967,-0.4850257682763897
6.381639053254437,-3.759228860469559,3.0197429534898528,-0.4592288604695588
6.389636094674556,-3.733431952662725,3.0111439842209085,-0.433431952662725
6.397633136094674,-3.7076350448558912,3.0025450149519637,-0.4076350448558912
6.405630177514793,-1.30547337278114,1.5424556213019003,0.5890532544377196
6.413627218934911,-1.1238818700357156,1.1582067274374979,1.041793272562502
6.4216242603550295,-1.152700037315422,1.107774934698012,1.092225065301988
6.429621301775148,-1.181518204595128,1.057343141958526,1.142656858041474
6.437618343195266,-1.2103363718748312,1.0069113492190456,1.1930886507809544
6.445615384615384,-1.2391545391545375,0.9564795564795595,1.2435204435204406
6.453612426035503,-1.2679727064342439,0.9060477637400735,1.2939522362599265
6.461609467455621,-1.29679087371395,0.8556159710005875,1.3443840289994125
6.4696065088757395,-1.3256090409936563,0.8051841782611016,1.3948158217388984
6.477603550295858,-1.3544272082733626,0.7547523855216155,1.4452476144783843
6.485600591715976,-1.3832453755530656,0.7043205927821351,1.4956794072178647
6.493597633136094,-1.412063542832772,0.653888800042649,1.546111199957351
6.5015946745562125,-1.4408817101124782,0.6034570073031631,1.5965429926968369
6.509591715976331,-1.4696998773921846,0.553025214563677,1.6469747854363228
6.5175887573964495,-1.4985180446718909,0.5025934218241911,1.697406578175809
6.525585798816568,-0.24274010013656278,-0.754619936276733,2.4013199817933524
6.5335828402366865,0.39892751479290134,-1.159356508875741,2.579142011834321
6.541579881656804,0.721005917159791,-1.7949704142010448,3.0579881656804178
6.5495769230769225,0.8136538461538396,-2.001025641025635,3.1252564102564087
6.557573964497041,0.9336094674556158,-2.1076528599605475,3.1519132149901368
6.5655710059171595,1.053565088757392,-2.2142800788954595,3.178570019723865
6.573568047337278,1.1735207100591682,-2.320907297830372,3.205226824457593
6.581565088757396,1.2934763313609443,-2.427534516765284,3.2318836291913207
6.589562130177514,1.413431952662707,-2.5341617357001844,3.258540433925046
6.5975591715976325,1.5333875739644833,-2.6407889546350964,3.2851972386587738
6.605556213017751,1.4502958579877754,-2.9781065088753063,3.9443786982249387
6.6135532544378695,2.072053054983052,-3.9840303171331723,3.5880227378498795
6.621550295857988,2.00915497639785,-3.9480885579416283,3.5610664184562215
6.629547337278106,1.946256897812648,-3.9121467987500846,3.5341100990625636
6.637544378698225,1.8833588192274462,-3.8762050395585406,3.5071537796689056
6.6455414201183425,1.8204607406422513,-3.840263280367001,3.4801974602752503
6.653538461538461,1.7575626620570493,-3.804321521175457,3.4532411408815924
6.661535502958579,1.6946645834718475,-3.768379761983913,3.4262848214879345
6.669532544378698,1.6317665048866457,-3.732438002792369,3.3993285020942765
6.677529585798816,1.5688684263014436,-3.696496243600825,3.3723721827006186
6.685526627218935,1.5059703477162418,-3.660554484409281,3.3454158633069606
6.6935236686390525,1.4430722691310471,-3.6246127252177414,3.3184595439133058
6.701520710059171,2.3124260355025568,-2.643786982248722,2.343786982248722
6.709517751479289,5.4769502475546465,-0.9539004951092923,0.8400706436420801
6.717514792899408,5.436149015819348,-0.8722980316386955,0.7339874411303042
6.725511834319526,5.395347784084049,-0.7906955681680987,0.6279042386185283
6.733508875739645,5.354546552348751,-0.7090931046975019,0.5218210361067523
6.741505917159763,5.313745320613452,-0.627490641226905,0.4157378335949765
6.749502958579881,5.272944088878159,-0.5458881777563173,0.30965463108321245
6.757499999999999,5.23214285714286,-0.4642857142857204,0.2035714285714365
6.765497041420118,5.191341625407562,-0.38268325081512367,0.09748822605966068
6.773494082840236,5.150540393672263,-0.3010807873445268,-0.008594976452115266
6.781491124260355,5.1097391619369645,-0.21947832387392996,-0.11467817896389121
6.789488165680473,5.068937930201667,-0.1378758604033331,-0.22076138147566693
6.797485207100592,5.028136698466368,-0.05627339693273625,-0.32684458398744287
6.805482248520709,0.46715976331458475,1.0976331360945402,-2.541124260354525
6.813479289940828,-3.6028447883477455,2.507111970869363,-4.908534365043236
6.821476331360946,-3.6182237141556657,2.5455592853891638,-4.954671142466997
6.829473372781065,-3.6336026399635855,2.584006599908964,-5.000807919890757
6.837470414201183,-3.6489815657715057,2.6224539144287644,-5.046944697314517
6.845467455621302,-3.664360491579426,2.6609012289485645,-5.093081474738278
6.853464497041419,-3.6797394173873443,2.6993485434683606,-5.139218252162033
6.861461538461538,-3.6951183431952646,2.737795857988161,-5.185355029585794
6.869458579881656,-3.7104972690031843,2.7762431725079613,-5.2314918070095535
6.877455621301775,-3.7258761948111045,2.814690487027762,-5.277628584433314
6.885452662721893,-3.7412551206190248,2.853137801547562,-5.323765361857075
6.893449704142012,-3.756634046426945,2.8915851160673625,-5.3699021392808355
6.90144674556213,-3.772012972234865,2.930032430587163,-5.416038916704595
6.909443786982248,-3.7873918980427836,2.9684797451069587,-5.462175694128351
6.917440828402366,-3.6297202797203787,3.0654922001075464,-5.5
6.925437869822485,-2.6846153846154017,3.42899408284023,-5.5
6.933434911242603,0.8385038038884481,3.104099746407437,-5.169251901944224
6.941431952662722,0.495773457311939,3.126948436179204,-4.99788672865597
6.94942899408284,0.15304311073542987,3.1497971259509714,-4.826521555367715
6.957426035502958,-0.1896872358410412,3.172645815722736,-4.65515638207948
6.965423076923076,-0.5324175824175504,3.195494505494503,-4.483791208791225
6.973420118343195,-0.8751479289940595,3.2183431952662707,-4.312426035502971
6.981417159763313,-1.2178782755705688,3.2411918850380377,-4.141060862214716
6.989414201183432,-1.560608622147078,3.264040574809805,-3.9696956889264614
6.99741124260355,-1.9033389687235869,3.286889264581572,-3.798330515638207
7.005408284023669,-2.515502958579867,3.531005917159734,-2.4873372781064895
7.013405325443786,-1.6028611207796684,1.9004768534632779,-1.299523146536722
7.021402366863905,-1.6593108249216812,1.9098851374869468,-1.2901148625130532
7.029399408284023,-1.7157605290636941,1.9192934215106157,-1.2807065784893843
7.037396449704142,-1.772210233205707,1.9287017055342843,-1.2712982944657156
7.04539349112426,-1.8286599373477197,1.9381099895579532,-1.2618900104420467
7.053390532544379,-1.8851096414897326,1.947518273581622,-1.2524817264183778
7.061387573964496,-1.941559345631739,1.9569265576052899,-1.24307344239471
7.069384615384615,-1.998009049773752,1.9663348416289586,-1.2336651583710414
7.077381656804733,-2.054458753915765,1.9757431256526274,-1.2242568743473725
7.085378698224852,-2.1109084580577777,1.985151409676296,-1.2148485903237036
7.09337573964497,-2.1673581621997906,1.994559693699965,-1.205440306300035
7.101372781065089,-2.8,1.931360946745574,-1.062721893491148
7.109369822485207,-2.6992888029130633,1.7992888029130634,-0.5989332043695949
7.117366863905325,-2.683909877105145,1.783909877105145,-0.5758648156577172
7.125363905325443,-2.6685309512972246,1.7685309512972247,-0.552796426945837
7.133360946745562,-2.653152025489305,1.7531520254893045,-0.5297280382339568
7.14135798816568,-2.6377730996813846,1.7377730996813845,-0.5066596495220765
7.149355029585799,-2.6223941738734644,1.7223941738734643,-0.4835912608101964
7.157352071005917,-2.607015248065544,1.7070152480655443,-0.4605228720983162
7.165349112426036,-2.591636322257624,1.691636322257624,-0.437454483386436
7.173346153846153,-2.5762573964497055,1.6762573964497056,-0.41438609467455834
7.181343195266272,-2.5608784706417853,1.6608784706417854,-0.3913177059626781
7.18934023668639,-2.5454995448338655,1.6454995448338654,-0.3682493172507979
7.197337278106509,-2.5301206190259453,1.6301206190259452,-0.34518092853891774
7.205334319526627,-2.514741693218025,1.6147416932180252,-0.3221125398270375
7.2133313609467455,-2.4502958579881753,1.5171597633136253,-0.3
7.221328402366863,-2.4032400057728376,-0.40324000577283753,0.4097200173185126
7.229325443786982,-2.422744984846297,-0.4227449848462973,0.46823495453889175
7.2373224852071,-2.442249963919757,-0.442249963919757,0.526749891759271
7.245319526627219,-2.461754942993217,-0.46175494299321673,0.5852648289796503
7.253316568047337,-2.4812599220666764,-0.48125992206667645,0.6437797662000294
7.2613136094674555,-2.500764901140136,-0.5007649011401362,0.7022947034204086
7.269310650887574,-2.520269880213596,-0.5202698802135959,0.7608096406407878
7.277307692307692,-2.5397748592870535,-0.5397748592870535,0.8193245778611605
7.28530473372781,-2.5592798383605135,-0.5592798383605132,0.8778395150815397
7.2933017751479285,-2.578784817433973,-0.5787848174339729,0.9363544523019189
7.301298816568047,-2.5982897965074327,-0.5982897965074327,0.9948693895222982
7.3092958579881655,1.9976642790408,-2.4997404754489776,3.902076196408178
7.317292899408284,1.9345297415135487,-2.492725526834839,3.95819578532129
7.325289940828402,1.8713952039863047,-2.4857105782207003,4.014315374234396
7.33328698224852,1.8082606664590535,-2.4786956296065616,4.070434963147508
7.3412840236686385,1.745126128931802,-2.4716806809924226,4.12655455206062
7.349281065088757,1.681991591404551,-2.4646657323782835,4.182674140973733
7.3572781065088755,1.6188570538772997,-2.4576507837641444,4.2387937298868446
7.365275147928994,1.5557225163500485,-2.4506358351500053,4.294913318799957
7.373272189349112,1.4925879788227974,-2.443620886535866,4.351032907713069
7.38126923076923,1.429453441295553,-2.436605937921728,4.407152496626175
7.3892662721893485,1.366318903768302,-2.429590989307589,4.463272085539288
7.397263313609467,1.3031843662410507,-2.42257604069345,4.519391674452399
7.4052603550295855,1.2400498287137995,-2.415561092079311,4.575511263365511
7.413257396449704,1.1769152911865484,-2.408546143465172,4.631630852278624
7.421254437869822,1.1137807536592972,-2.401531194851033,4.687750441191736
7.42925147928994,0.41286982248505244,-2.650295857988042,3.9871301775149472
7.4372485207100585,0.617466314963997,-2.8,3.747601055108009
7.445245562130177,0.6367362942895837,-2.8,3.6897911171312487
7.453242603550295,0.6560062736151703,-2.8,3.631981179154489
7.461239644970414,0.675276252940757,-2.8,3.574171241177729
7.469236686390532,0.6945462322663436,-2.8,3.516361303200969
7.477233727810651,0.7138162115919302,-2.8,3.458551365224209
7.4852307692307685,0.7330861909175148,-2.8,3.4007414272474557
7.493227810650887,0.7523561702431014,-2.8,3.342931489270696
7.501224852071005,0.7716261495686881,-2.8,3.285121551293936
7.509221893491124,0.7908961288942747,-2.8,3.227311613317176
7.517218934911242,-0.2656804733726455,-2.4343195266273545,1.346745562130494
7.525215976331361,-0.1,-1.0851200835363732,-0.2198398886181692
7.5332130177514784,-0.1,-1.05689523146537,-0.2574730247128402
7.541210059171597,-0.1,-1.0286703793943635,-0.2951061608075154
7.549207100591715,-0.1,-1.000445527323357,-0.3327392969021906
7.557204142011834,-0.1,-0.9722206752523507,-0.37037243299686584
7.565201183431952,-0.1,-0.9439958231813443,-0.40800556909154106
7.573198224852071,-0.1,-0.9157709711103379,-0.4456387051862163
7.581195266272189,-0.1,-0.8875461190393314,-0.48327184128089146
7.589192307692307,-0.1,-0.8593212669683282,-0.5209049773755625
7.597189349112425,-0.1,-0.8310964148973218,-0.5585381134702376
7.605186390532544,-0.1,-0.8028715628263154,-0.596171249564913
7.613183431952662,0.33183431952662085,0.49550295857986265,-1.7795857988165522
7.621180473372781,0.41180473372780735,0.7354142011834222,-1.9795118343195184
7.629177514792899,0.4917751479289938,0.9753254437869815,-2.1794378698224848
7.637174556213018,0.5174989175927264,1.087494587963632,-2.304993505556358
7.645171597633135,0.5370038966661838,1.1850194833309187,-2.4220233799971025
7.653168639053254,0.5565088757396432,1.2825443786982162,-2.5390532544378597
7.661165680473372,0.5760138548131027,1.380069274065514,-2.656083128878617
7.669162721893491,0.5955188338865622,1.4775941694328116,-2.7731130033193736
7.677159763313609,-0.5893491124260222,2.4319526627219332,-3.894674556213011
7.685156804733728,-0.3915462217479868,3.0,-3.7746386652439603
7.693153846153845,-0.37843631778058096,3.0,-3.7353089533417427
7.701150887573964,-0.3653264138131736,3.0,-3.6959792414395207
7.709147928994082,-0.35221650984576625,3.0,-3.6566495295372987
7.717144970414201,-0.3391066058783589,3.0,-3.6173198176350763
7.725142011834319,-0.32599670191095154,3.0,-3.5779901057328543
7.733139053254438,-0.3128867979435442,3.0,-3.5386603938306322
7.741136094674556,-0.2997768939761368,3.0,-3.4993306819284102
7.749133136094674,-0.2866669900087309,3.0,-3.4600009700261927
7.757130177514792,-0.27355708604132356,3.0,-3.4206712581239707
7.765127218934911,-0.2604471820739162,3.0,-3.3813415462217487
7.773124260355029,-0.24733727810650885,3.0,-3.3420118343195266
7.781121301775148,-0.2342273741391015,3.0,-3.3026821224173046
7.789118343195266,-0.22111747017169414,3.0,-3.2633524105150826
7.797115384615384,-0.20800756620428826,3.0,-3.224022698612865
7.805112426035502,-2.424852071004225,2.911834319526162,-4.91005917159831
7.813109467455621,-6.27629710370602,4.456972905636876,-1.9569729056368765
7.821106508875739,-6.082684521955783,4.389629398941142,-1.8896293989411417
7.829103550295858,-5.889071940205545,4.322285892245407,-1.822285892245407
7.837100591715976,-5.695459358455308,4.254942385549672,-1.7549423855496722
7.845097633136095,-5.5018467767050705,4.187598878853938,-1.6875988788539376
7.853094674556212,-5.308234194954855,4.12025537215821,-1.6202553721582102
7.861091715976331,-5.114621613204617,4.052911865462476,-1.5529118654624754
7.869088757396449,-4.92100903145438,3.985568358766741,-1.4855683587667408
7.877085798816568,-4.727396449704143,3.918224852071006,-1.4182248520710061
7.885082840236686,-4.533783867953905,3.8508813453752717,-1.3508813453752713
7.893079881656805,-4.340171286203668,3.783537838679537,-1.2835378386795366
7.901076923076922,-4.146558704453452,3.7161943319838096,-1.2161943319838093
7.909073964497041,-1.3593195266275058,2.288905325443865,-0.8963017751479551
7.917071005917159,-2.908061334860335,3.3976967614684757,-1.098848380734238
7.925068047337278,-2.968254119742947,3.3804988229305866,-1.0902494114652934
7.933065088757396,-3.0284469046255595,3.363300884392697,-1.0816504421963486
7.941062130177515,-3.0886396895081716,3.346102945854808,-1.073051472927404
7.949059171597633,-3.148832474390784,3.328905007316919,-1.0644525036584596
7.957056213017751,-3.2090252592733894,3.3117070687790315,-1.055853534389516
7.965053254437869,-3.269218044156002,3.2945091302411424,-1.0472545651205711
7.973050295857988,-3.329410829038614,3.2773111917032534,-1.0386555958516266
7.981047337278106,-3.389603613921226,3.260113253165364,-1.030056626582682
7.989044378698225,-3.4497963988038385,3.2429153146274747,-1.0214576573137375
7.997041420118343,-3.5099891836864505,3.2257173760895856,-1.0128586880447927
8.005038461538462,-3.570181968569063,3.2085194375516966,-1.0042597187758482
8.01303550295858,-3.5103221564760103,3.1551610782380055,-0.9551610782380052
8.021032544378699,-1.399112426035517,2.6985207100591952,-0.600887573964483
8.029029585798817,-1.181011296395907,2.335018827326512,-0.818988703604093
8.037026627218934,-1.1065280872973164,2.167359563513418,-0.913056174594633
8.045023668639052,-1.1169138553753926,2.1154307231230383,-0.9338277107507849
8.05302071005917,-1.1272996234534685,2.0635018827326586,-0.9545992469069368
8.06101775147929,-1.1376853915315444,2.011573042342279,-0.9753707830630887
8.069014792899408,-1.1480711596096203,1.959644201951899,-0.9961423192192406
8.077011834319526,-1.1584569276876961,1.907715361561519,-1.0169138553753925
8.085008875739645,-1.168842695765772,1.8557865211711393,-1.0376853915315443
8.093005917159763,-1.1792284638438482,1.8038576807807596,-1.0584569276876963
8.101002958579882,-1.189614231921924,1.7519288403903799,-1.0792284638438483
8.109,-1.2,1.7,-1.1
8.116997041420118,-0.8864039806347438,-0.3011330016137713,0.6135960193652563
8.124994082840237,-0.7773534158149475,-0.3102205486820877,0.7226465841850525
8.132991124260355,-0.6683028509951513,-0.3193080957504041,0.8316971490048488
8.140988165680472,-0.5592522861753793,-0.3283956428187184,0.9407477138246207
8.14898520710059,-0.45020172135558306,-0.33748318988703474,1.049798278644417
8.156982248520709,-0.34115115653578687,-0.3465707369553511,1.1588488434642135
8.164979289940828,-0.23210059171599062,-0.35565828402366745,1.2678994082840096
8.172976331360946,-0.12305002689619438,-0.36474583109198383,1.3769499731038057
8.180973372781065,-0.013999462076398128,-0.37383337816030016,1.486000537923602
8.188970414201183,0.09505110274339801,-0.38292092522861654,1.5950511027433985
8.196967455621301,0.20410166756319426,-0.39200847229693286,1.7041016675631946
8.20496449704142,1.0233727810648916,-0.8340236686389351,2.089349112425957
8.212961538461538,-1.0977453580901861,0.1797082228116745,4.1
8.220958579881657,-1.088553356457866,0.09698020812079347,4.1
8.228955621301775,-1.0793613548255458,0.014252193429912435,4.1
8.236952662721894,-1.0701693531932257,-0.06847582126096857,4.1
8.24494970414201,-1.0609773515609078,-0.15120383595183123,4.1
8.252946745562129,-1.0517853499285876,-0.23393185064271227,4.1
8.260943786982248,-1.0425933482962675,-0.3166598653335933,4.1
8.268940828402366,-1.0334013466639473,-0.3993878800244744,4.1
8.276937869822484,-1.0242093450316272,-0.4821158947153554,4.1
8.284934911242603,-1.015017343399307,-0.5648439094062365,4.1
8.292931952662721,-1.005825341766987,-0.6475719240971174,4.1
8.30092899408284,-0.422583826430047,-1.5464497041419718,3.8380670611440375
8.308926035502958,0.5852071005918137,-2.381508875739767,2.4184911242602327
8.316923076923077,0.6314407814407837,-2.41886446886447,2.374847374847373
8.324920118343195,0.66317507279046,-2.437905043674276,2.349459941767632
8.332917159763314,0.6949093641401362,-2.456945618484082,2.324072508687891
8.340914201183432,0.7266436554898124,-2.4759861932938874,2.2986850756081503
8.348911242603549,0.7583779468394816,-2.495026768103689,2.273297642528415
8.356908284023667,0.7901122381891577,-2.5140673429134948,2.2479102094486736
8.364905325443786,0.821846529538834,-2.5331079177233002,2.222522776368933
8.372902366863904,0.8535808208885101,-2.552148492533106,2.197135343289192
8.380899408284023,0.8853151122381864,-2.5711890673429116,2.171747910209451
8.388896449704141,0.9170494035878625,-2.5902296421527176,2.14636047712971
8.39689349112426,0.9487836949375388,-2.6092702169625235,2.1209730440499692
8.404890532544378,0.9805179862872149,-2.628310791772329,2.095585610970228
8.412887573964497,1.012252277636891,-2.647351366582135,2.070198177890487
8.420884615384615,1.0439865689865673,-2.6663919413919404,2.0448107448107464
8.428881656804734,1.0757208603362436,-2.6854325162017463,2.019423311731005
8.436878698224852,1.8514792899411203,-2.7,1.6242603550294399
8.44487573964497,3.1401744004983,-2.314450327000927,1.338150109000309
8.452872781065087,3.603161009031369,-2.06191217689198,1.25397072563066
8.460869822485206,4.6961052724543055,-1.3896140598781481,0.9935087874238426
8.468866863905324,4.660297624304521,-1.294126998145388,0.9338293738408675
8.476863905325443,4.624489976154735,-1.1986399364126277,0.8741499602578924
8.484860946745561,4.588682328004951,-1.1031528746798676,0.8144705466749173
8.49285798816568,4.552874679855165,-1.0076658129471072,0.7547911330919421
8.500855029585798,4.5170670317053805,-0.9121787512143471,0.6951117195089669
8.508852071005917,4.481259383555596,-0.8166916894815868,0.6354323059259918
8.516849112426035,4.44545173540581,-0.7212046277488265,0.5757528923430166
8.524846153846154,4.409644087256026,-0.6257175660160663,0.5160734787600415
8.532843195266272,-2.0804733727817197,1.1764792899408985,-1.552958579881797
8.54084023668639,-4.866333401346635,3.0333809426647664,-3.0333809426647664
8.54883727810651,-4.48026933278919,3.088532952458687,-3.088532952458687
8.556834319526626,-4.094205264231832,3.1436849622525953,-3.1436849622525953
8.564831360946744,-3.7081411956743864,3.198836972046516,-3.198836972046516
8.572828402366863,-3.322077127116941,3.253988981840437,-3.253988981840437
8.580825443786981,-2.9360130585594963,3.3091409916343575,-3.3091409916343575
8.5888224852071,-2.5499489900020516,3.3642930014282784,-3.3642930014282784
8.596819526627218,-2.645857988165372,2.9360946745564185,-3.3736686390525352
8.604816568047337,-4.876733727810654,2.433781065088741,-2.8127514792899513
8.612813609467455,-4.84474556213018,2.6177130177514663,-2.6927958579881737
8.620810650887574,-4.812757396449706,2.801644970414192,-2.572840236686396
8.628807692307692,-4.7807692307692315,2.985576923076918,-2.4528846153846184
8.63680473372781,-4.748781065088758,3.1695088757396435,-2.332928994082841
8.64480177514793,-4.716792899408284,3.353440828402369,-2.2129733727810637
8.652798816568048,-4.68480473372781,3.537372781065095,-2.0930177514792856
8.660795857988166,-4.652816568047336,3.7213047337278207,-1.9730621301775082
8.668792899408283,-4.620828402366869,3.9052366863905053,-1.8531065088757572
8.676789940828401,-4.588840236686394,4.089168639053231,-1.7331508875739796
8.68478698224852,-4.55685207100592,4.273100591715957,-1.613195266272202
8.692784023668638,-4.5248639053254465,4.4570325443786825,-1.4932396449704244
8.700781065088757,-3.5585798816570438,4.4218934911243055,-1.3236686390532737
8.708778106508875,1.6667159763313144,3.0889053254437715,-1.3556213017750858
8.716775147928994,1.0152076535973051,3.508925510147652,-2.2223137753691304
8.724772189349112,0.873204114361558,3.523873251119836,-2.2596831277995904
8.73276923076923,0.7312005751258108,3.53882099209202,-2.29705248023005
8.740766272189349,0.5891970358900636,3.553768733064204,-2.3344218326605097
8.748763313609468,0.4471934966543163,3.5687164740363877,-2.3717911850909696
8.756760355029586,0.305189957418569,3.5836642150085716,-2.4091605375214296
8.764757396449705,0.16318641818282176,3.598611955980756,-2.446529889951889
8.772754437869821,0.02118287894710602,3.613559696952936,-2.4838992423823405
8.78075147928994,-0.12082066028864125,3.62850743792512,-2.5212685948128004
8.788748520710058,-0.2628241995243883,3.643455178897304,-2.5586379472432603
8.796745562130177,-0.40482773876013556,3.6584029198694883,-2.5960072996737202
8.804742603550295,-0.5468312779958828,3.673350660841672,-2.6333766521041797
8.812739644970414,-0.6888348172316301,3.688298401813856,-2.6707460045346396
8.820736686390532,-2.980365788058022,3.7799085529854946,-2.893302850995165
8.82873372781065,-3.852770306616462,3.5618074233458845,-2.820602474448628
8.836730769230769,-2.8160256410257327,3.7243589743589576,-2.226923076923127
8.844727810650888,-2.363632948248335,3.7545411853104187,-1.9454494223725025
8.852724852071006,-2.3128580820888516,3.6910726026110643,-1.8692871231332775
8.860721893491124,-2.2620832159293682,3.6276040199117103,-1.7931248238940525
8.868718934911243,-2.211308349769885,3.564135437212356,-1.7169625246548275
8.87671597633136,-2.160533483610413,3.500666854513016,-1.6408002254156195
8.884713017751478,-2.1097586174509297,3.4371982718136618,-1.5646379261763945
8.892710059171597,-2.0589837512914464,3.373729689114308,-1.4884756269371695
8.900707100591715,-2.008208885131963,3.3102611064149534,-1.4123133276979445
8.908704142011834,-1.300782380013149,1.596088099934255,-0.396088099934255
8.916701183431952,-1.3096679815910586,1.551660092044708,-0.35166009204470783
8.92469822485207,-1.3185535831689679,1.5072320841551607,-0.3072320841551606
8.932695266272189,-1.3274391847468774,1.4628040762656136,-0.2628040762656135
8.940692307692307,-1.3363247863247867,1.4183760683760664,-0.2183760683760663
8.948689349112426,-1.3452103879026962,1.3739480604865193,-0.17394806048651912
8.956686390532544,-1.3540959894806055,1.3295200525969721,-0.12952005259697197
8.964683431952663,-1.362981591058515,1.2850920447074248,-0.08509204470742476
8.972680473372781,-1.3718671926364245,1.2406640368178776,-0.040664036817877613
8.980677514792898,-1.3807527942143318,1.1962360289283405,0.003763971071659711
8.988674556213017,-1.3896383957922414,1.1518080210387933,0.04819197896120686
8.996671597633135,-1.3985239973701507,1.1073800131492462,0.09261998685075401
9.004668639053254,2.745364891517961,0.7668639053252774,3.8337278106505543
9.012665680473372,2.708510268012544,0.44118517229377846,4.080395057431259
9.02066272189349,2.598746954403075,0.3706230421162627,4.056874347372087
9.028659763313609,2.4889836407936063,0.30006091193874695,4.033353637312915
9.036656804733727,2.3792203271841372,0.22949878176123112,4.009832927253743
9.044653846153846,2.2694570135746686,0.1589366515837154,3.9863122171945715
9.052650887573964,2.1596936999651994,0.08837452140619961,3.9627915071353996
9.060647928994083,2.0499303863557303,0.017812391228683833,3.9392707970762277
9.068644970414201,1.9401670727462614,-0.05274973894883195,3.915750087017056
9.07664201183432,1.8304037591367925,-0.12331186912634773,3.892229376957884
9.084639053254437,1.7206404455273479,-0.19387399930384785,3.8687086668987174
9.092636094674555,1.610877131917879,-0.26443612948136364,3.8451879568395455
9.100633136094674,1.5011138183084098,-0.3349982596588794,3.8216672467803736
9.108630177514792,-0.0494082840211183,0.7343195266252228,3.8
9.11662721893491,-0.4946383287042659,-0.6107233425914682,3.9865958217606647
9.124624260355029,-0.4783178360101464,-0.6433643279797072,3.9457945900253657
9.132621301775147,-0.4619973433160268,-0.6760053133679462,3.904993358290067
9.140618343195266,-0.4456768506219073,-0.7086462987561853,3.8641921265547685
9.148615384615384,-0.4293563579277878,-0.7412872841444244,3.8233908948194695
9.156612426035503,-0.4130358652336683,-0.7739282695326634,3.782589663084171
9.164609467455621,-0.3967153725395488,-0.8065692549209024,3.741788431348872
9.17260650887574,-0.3803948798454293,-0.8392102403091414,3.7009871996135733
9.180603550295858,-0.3640743871513098,-0.8718512256973805,3.6601859678782747
9.188600591715975,-0.34775389445719385,-0.9044922110856122,3.619384736142985
9.196597633136093,-0.33143340176307434,-0.9371331964738512,3.578583504407686
9.204594674556212,-0.31511290906895484,-0.9697741818620903,3.5377822726723873
9.21259171597633,-0.3147928994082672,-1.0029585798816534,3.4822485207100793
9.220588757396449,-0.5147189349112334,-1.0429437869822467,3.24233727810652
9.228585798816567,-0.7146449704141996,-1.08292899408284,3.0024260355029604
9.236582840236686,0.1957100591714735,-2.0748520710057683,1.362573964497116
9.244579881656804,0.3733536934529449,-2.212225615575491,1.2266463065470552
9.252576923076923,0.4507444168734471,-2.225124069478908,1.149255583126553
9.260573964497041,0.5281351402939493,-2.238022523382325,1.0718648597060507
9.26857100591716,0.6055258637144514,-2.250920977285742,0.9944741362855486
9.276568047337278,0.6829165871349536,-2.263819431189159,0.9170834128650465
9.284565088757397,0.7603073105554558,-2.2767178850925758,0.8396926894445442
9.292562130177513,0.8376980339759408,-2.28961633899599,0.7623019660240593
9.300559171597632,2.7710059171582717,-1.832248520710432,0.1542899408288374
9.30855621301775,7.1050788954635395,-0.9715236686390618,-0.48542899408281454
9.316553254437869,6.9384738658777385,-0.9215421597633214,-0.6353735207100359
9.324550295857987,6.771868836291937,-0.871560650887581,-0.7853180473372572
9.332547337278106,6.6052638067061356,-0.8215791420118406,-0.9352625739644785
9.340544378698224,6.438658777120334,-0.7715976331361001,-1.0852071005917
9.348541420118343,6.272053747534533,-0.7216161242603596,-1.2351516272189214
9.356538461538461,6.105448717948731,-0.6716346153846192,-1.3850961538461426
9.36453550295858,5.93884368836293,-0.6216531065088788,-1.5350406804733638
9.372532544378698,5.772238658777128,-0.5716715976331384,-1.6849852071005853
9.380529585798817,5.605633629191327,-0.5216900887573979,-1.8349297337278068
9.388526627218935,5.439028599605525,-0.4717085798816575,-1.9848742603550282
9.396523668639052,5.27242357001976,-0.4217270710059281,-2.134818786982216
9.40452071005917,-2.6475908706674156,0.9955198647504212,-4.23034657650028
9.412517751479289,-2.9883389306466666,3.1018657710965334,-4.699067114451734
9.420514792899407,-2.808225385148501,3.13068393837624,-4.68465803081188
9.428511834319526,-2.6281118396503347,3.1595021056559465,-4.670248947172027
9.436508875739644,-2.4479982941521694,3.188320272935653,-4.655839863532174
9.444505917159763,-2.2678847486540032,3.2171384402153596,-4.64143077989232
9.452502958579881,-2.0877712031558375,3.245956607495066,-4.627021696252467
9.4605,-1.907657657657672,3.2747747747747726,-4.6126126126126135
9.468497041420118,-1.7275441121595063,3.303592942054479,-4.5982035289727605
9.476494082840237,-1.5474305666613406,3.3324111093341857,-4.583794445332908
9.484491124260355,-1.3673170211631747,3.361229276613892,-4.569385361693054
9.492488165680474,-1.187203475665009,3.3900474438935984,-4.554976278053201
9.500485207100592,-1.0070899301668432,3.418865611173305,-4.540567194413348
9.508482248520709,-0.8269763846687175,3.447683778453005,-4.526158110773498
9.516479289940827,-0.6468628391705518,3.4765019457327115,-4.511749027133644
9.524476331360946,-1.4954142011830542,2.885798816567866,-5.6
9.532473372781064,-4.02979352889338,4.65565907088003,-3.881524612866679
9.540470414201183,-3.8681512023165165,4.553569180410432,-3.8389871585043465
9.548467455621301,-3.7065088757396527,4.451479289940834,-3.796449704142014
9.55646449704142,-3.544866549162789,4.349389399471235,-3.753912249779681
9.564461538461538,-3.383224222585925,4.247299509001637,-3.7113747954173486
9.572458579881657,-3.221581896009061,4.145209618532039,-3.668837341055016
9.580455621301775,-3.0599395694321974,4.0431197280624405,-3.6262998866926837
9.588452662721894,-2.8982972428553335,3.9410298375928425,-3.5837624323303507
9.596449704142012,-2.7366549162784697,3.838939947123244,-3.5412249779680183
9.60444674556213,-2.575012589701606,3.736850056653646,-3.498687523605686
9.612443786982247,-2.413370263124778,3.63476016618407,-3.4561500692433627
9.620440828402366,-2.251727936547914,3.532670275714472,-3.41361261488103
9.628437869822484,-1.4090371167295501,2.8079074771383565,-2.955083378160372
9.636434911242603,-0.6957100591714734,1.7869822485206548,-2.2
9.644431952662721,-1.50388841927307,2.301944209636535,-1.60388841927307
9.65242899408284,-1.3393688362919105,2.1803155818540447,-1.3704733727810672
9.660426035502958,-1.410453648915186,2.144773175542407,-1.3171597633136105
9.668423076923077,-1.4815384615384615,2.1092307692307695,-1.2638461538461538
9.676420118343195,-1.552623274161737,2.073688362919132,-1.2105325443786974
9.684417159763314,-1.6237080867850124,2.0381459566074938,-1.1572189349112407
9.692414201183432,-1.694792899408288,2.002603550295856,-1.1039053254437843
9.70041124260355,-2.7828689607629093,1.5871517205721823,-0.5914344803814549
9.708408284023669,-2.7518124892284686,1.5638593669213519,-0.5759062446142345
9.716405325443786,-2.720756017694035,1.5405670132705265,-0.5603780088470175
9.724402366863904,-2.689699546159594,1.5172746596196958,-0.5448497730797971
9.732399408284023,-2.6586430746251533,1.4939823059688653,-0.5293215373125768
9.740396449704141,-2.6275866030907125,1.4706899523180346,-0.5137933015453564
9.74839349112426,-2.596530131556272,1.447397598667204,-0.498265065778136
9.756390532544378,-2.5654736600218313,1.4241052450163734,-0.4827368300109156
9.764387573964497,-2.5344171884873905,1.4008128913655429,-0.4672085942436952
9.772384615384615,-2.5033607169529497,1.3775205377147124,-0.45168035847647486
9.780381656804733,-2.472304245418509,1.3542281840638817,-0.4361521227092545
9.788378698224852,-2.441247773884068,1.3309358304130512,-0.4206238869420341
9.79637573964497,-2.4101913023496273,1.3076434767622205,-0.4050956511748137
9.804372781065089,-1.1565088757396595,0.050295857988182514,0.8434911242603403
9.812369822485207,-0.4830726965342363,-0.7145091172563689,1.5241818620939482
9.820366863905324,-0.4259509721048307,-0.7634705953387165,1.6057843255645277
9.828363905325443,-0.36882924767541236,-0.812432073421075,1.6873867890351253
9.836360946745561,-0.3117075232459941,-0.8613935515034337,1.7689892525057227
9.84435798816568,-0.25458579881657584,-0.9103550295857922,1.8505917159763203
9.852355029585798,-0.19746407438715752,-0.9593165076681507,1.9321941794469177
9.860352071005916,-0.1403423499577392,-1.0082779857505093,2.0137966429175154
9.868349112426035,-0.08322062552832094,-1.0572394638328677,2.095399106388113
9.876346153846153,-0.026098901098902616,-1.1062009419152263,2.1770015698587106
9.884343195266272,0.031022823330515648,-1.155162419997585,2.2586040333293083
9.89234023668639,0.08814454775993397,-1.2041238980799434,2.3402064967999054
9.900337278106509,0.14526627218935229,-1.253085376162302,2.4218089602705035
9.908334319526627,0.20911780527166937,-1.2984803657880553,2.509117805271669
9.916331360946746,0.42721893491126184,-1.2621301775147897,2.727218934911262
9.924328402366863,0.6453200645508059,-1.2257799892415324,2.9453200645508057
9.932325443786981,0.4918639053254834,-1.3162721893490332,3.7732248520706495
9.9403224852071,0.39605228296388234,-1.5,4.307895434072235
9.948319526627218,0.3721805175306929,-1.5,4.355638964938614
9.956316568047336,0.34830875209750345,-1.5,4.403382495804993
9.964313609467455,0.32443698666431403,-1.5,4.451126026671372
9.972310650887573,0.3005652212311246,-1.5,4.498869557537751
9.980307692307692,0.2766934557979352,-1.5,4.54661308840413
9.98830473372781,0.2528216903647458,-1.5,4.594356619270509
9.996301775147929,0.22894992493155633,-1.5,4.642100150136887
10.004298816568047,0.20507815949836689,-1.5,4.689843681003266
10.012295857988166,-0.40068013330612723,-2.600680133306127,2.7976195334285547
10.020292899408284,-0.41906413657076746,-2.6190641365707674,2.7332755220023137
10.028289940828401,-0.4374481398354036,-2.6374481398354037,2.6689315105760874
10.03628698224852,-0.45583214310004383,-2.655832143100044,2.6045874991498463
10.044284023668638,-0.47421614636468407,-2.674216146364684,2.5402434877236058
10.052281065088756,-0.4926001496293243,-2.692600149629324,2.4758994762973647
10.060278106508875,-0.5109841528939645,-2.7109841528939644,2.411555464871124
10.068275147928993,-0.5293681561586048,-2.7293681561586047,2.347211453444883
10.076272189349112,-0.547752159423245,-2.747752159423245,2.2828674420186426
10.08426923076923,-0.5661361626878852,-2.7661361626878853,2.218523430592402
10.092266272189349,-0.5845201659525254,-2.784520165952525,2.154179419166161
10.100263313609467,-0.47366863905333456,-2.9263313609466652,1.657840236686671
10.108260355029586,2.311651314585494,-1.8906789483316044,-0.10699078875129658
10.116257396449704,2.3528731775757956,-1.8577014579393631,-0.13172390654547755
10.124254437869823,2.3940950405660972,-1.8247239675471219,-0.15645702433965855
10.13225147928994,2.43531690355639,-1.7917464771548879,-0.18119014213383403
10.140248520710058,2.4765387665466916,-1.7587689867626466,-0.20592325992801502
10.148245562130176,2.517760629536993,-1.7257914963704053,-0.230656377722196
10.156242603550295,2.558982492527295,-1.692814005978164,-0.25538949551637696
10.164239644970413,2.6002043555175964,-1.6598365155859227,-0.280122613310558
10.172236686390532,2.641426218507898,-1.6268590251936814,-0.30485573110473896
10.18023372781065,2.6826480814981997,-1.5938815348014401,-0.32958884889891993
10.188230769230769,2.7238699444885013,-1.5609040444091988,-0.3543219666931009
10.196227810650887,2.765091807478803,-1.5279265540169575,-0.37905508448728187
10.204224852071006,2.6162721893491145,-1.2550295857988198,-1.073668639053246
10.212221893491124,-1.1239615964728993,0.41306996171249044,-4.510891634760409
10.220218934911243,-1.2102042000231978,0.4601113818308351,-4.550092818192363
10.228215976331361,-1.2964468035734962,0.5071528019491798,-4.589294001624316
10.236213017751478,-1.3826894071237756,0.554194222067514,-4.628495185056262
10.244210059171596,-1.4689320106740742,0.6012356421858587,-4.667696368488215
10.252207100591715,-1.5551746142243728,0.6482770623042033,-4.70689755192017
10.260204142011833,-1.6414172177746713,0.695318482422548,-4.746098735352123
10.268201183431952,-1.7276598213249699,0.7423599025408927,-4.7852999187840775
10.27619822485207,-1.8139024248752684,0.7894013226592373,-4.824501102216031
10.284195266272189,-1.900145028425567,0.8364427427775819,-4.863702285647985
10.292192307692307,-1.9863876319758655,0.8834841628959266,-4.902903469079939
10.300189349112426,-2.072630235526164,0.9305255830142712,-4.942104652511893
10.308186390532544,-2.1588728390764627,0.9775670031326159,-4.9813058359438465
10.316183431952663,-1.2159105851412981,2.1868507560815216,-4.821104536489128
10.324180473372781,0.027071005917180653,2.10902366863906,-4.471449704142144
10.3321775147929,-1.7591715976332518,2.148520710059169,-5.582248520710024
10.340174556213018,-3.7334547109695206,2.153527537551233,-4.949817933545719
10.348171597633135,-3.856486117432852,2.350377787892563,-4.765270823850722
10.356168639053253,-3.979517523896211,2.5472280382339374,-4.580723714155684
10.364165680473372,-4.1025489303595695,2.744078288575311,-4.396176604460646
10.37216272189349,-4.2255803368229286,2.9409285389166855,-4.211629494765607
10.380159763313609,-4.348611743286288,3.1377787892580598,-4.027082385070569
10.388156804733727,-4.471643149749646,3.3346290395994336,-3.842535275375531
10.396153846153846,-4.594674556213005,3.5314792899408074,-3.657988165680493
10.404150887573964,-4.009467455621431,3.7,-3.0971893491125013
10.412147928994083,-0.6236036153195875,1.7094414461278349,-2.0047207230639175
10.420144970414201,-0.7114831913648462,1.7445932765459384,-2.0222966382729695
10.42814201183432,-0.7993627674101048,1.779745106964042,-2.039872553482021
10.436139053254438,-0.8872423434553636,1.8148969373821453,-2.0574484686910726
10.444136094674557,-0.9751219195006222,1.8500487678002489,-2.0750243839001246
10.452133136094673,-1.0630014955458613,1.8852005982183446,-2.0926002991091726
10.460130177514792,-1.15088107159112,1.920352428636448,-2.110176214318224
10.46812721893491,-1.2387606476363788,1.9555042590545515,-2.1277521295272757
10.476124260355029,-1.3266402236816375,1.990656089472655,-2.1453280447363277
10.484121301775147,-1.4145197997268961,2.0258079198907586,-2.162903959945379
10.492118343195266,-1.5023993757721548,2.060959750308862,-2.180479875154431
10.500115384615384,-1.5902789518174134,2.0961115807269657,-2.1980557903634828
10.508112426035503,-2.3443786982248747,2.544378698224875,-1.533136094674624
10.516109467455621,-2.2881175175450656,2.2881175175450656,-0.9821762763175984
10.52410650887574,-2.269519746800604,2.269519746800604,-0.9542796202009062
10.532103550295858,-2.2509219760561425,2.2509219760561425,-0.926382964084214
10.540100591715976,-2.232324205311681,2.232324205311681,-0.8984863079675216
10.548097633136095,-2.2137264345672194,2.2137264345672194,-0.8705896518508294
10.556094674556212,-2.195128663822762,2.195128663822762,-0.8426929957341432
10.56409171597633,-2.1765308930783007,2.1765308930783007,-0.814796339617451
10.572088757396449,-2.1579331223338394,2.1579331223338394,-0.7868996835007587
10.580085798816567,-2.1393353515893776,2.1393353515893776,-0.7590030273840664
10.588082840236686,-2.1207375808449163,2.1207375808449163,-0.7311063712673742
10.596079881656804,-2.1021398101004545,2.1021398101004545,-0.703209715150682
10.604076923076923,-1.8307692307692627,1.4461538461538939,-0.5307692307692626
10.612073964497041,-2.1918520710059193,0.6877781065088786,0.02851775147928325
10.62007100591716,-2.1758579881656823,0.6637869822485231,0.0844970414201128
10.628068047337278,-2.1598639053254454,0.6397958579881675,0.14047633136094234
10.636065088757396,-2.143869822485208,0.615804733727812,0.19645562130177188
10.644062130177515,-2.127875739644971,0.5918136094674565,0.2524349112426014
10.652059171597633,-2.111881656804734,0.567822485207101,0.308414201183431
10.66005621301775,-2.0958875739645006,0.5438313609467508,0.36439349112424807
10.668053254437869,-2.0798934911242637,0.5198402366863952,0.42037278106507764
10.676050295857987,-2.0638994082840267,0.4958491124260398,0.47635207100590715
10.684047337278106,-2.0479053254437893,0.47185798816568425,0.5323313609467367
10.692044378698224,-2.0319112426035524,0.44786686390532876,0.5883106508875663
10.700041420118342,-2.0159171597633154,0.4238757396449732,0.6442899408283959
10.708038461538461,-1.9384615384627408,0.3769230769235279,0.7384615384607869
10.71603550295858,0.45989480604860944,-0.5126890203813125,2.2472057856672967
10.724032544378698,1.248413125336214,-0.7096826250672428,2.6193652501344857
10.732029585798816,2.2867624683009304,-1.4044125105663563,2.6044125105663567
10.740026627218935,2.183943364327979,-1.4386855452240068,2.638685545224007
10.748023668639053,2.0811242603550277,-1.4729585798816573,2.6729585798816573
10.756020710059172,1.9783051563820762,-1.5072316145393079,2.707231614539308
10.764017751479289,1.8754860524091475,-1.5415046491969506,2.741504649196951
10.772014792899407,1.772666948436196,-1.5757776838546012,2.775777683854601
10.780011834319525,1.6698478444632445,-1.6100507185122517,2.810050718512252
10.788008875739644,1.5670287404902932,-1.6443237531699022,2.844323753169902
10.796005917159762,1.4642096365173418,-1.6785967878275527,2.8785967878275525
10.804002958579881,-1.2020710059164497,0.000887573964192756,3.3005917159761284
10.812,0.605607476635511,-1.800934579439252,2.7962616822429927
10.819997041420118,0.6504506995520634,-1.8084084499253439,2.766366200298624
10.827994082840236,0.6952939224686159,-1.815882320411436,2.736470718354256
10.835991124260355,0.7401371453851684,-1.823356190897528,2.7065752364098876
10.843988165680473,0.7849803683017209,-1.8308300613836201,2.6766797544655194
10.851985207100592,0.8298235912182734,-1.8383039318697123,2.646784272521151
10.85998224852071,0.8746668141348259,-1.8457778023558042,2.6168887905767826
10.867979289940827,0.9195100370513685,-1.8532516728418946,2.586993308632421
10.875976331360945,0.964353259967921,-1.8607255433279868,2.5570978266880524
10.883973372781064,1.0091964828844735,-1.868199413814079,2.527202344743684
10.891970414201182,1.054039705801026,-1.8756732843001709,2.497306862799316
10.8999674556213,1.0988829287175785,-1.883147154786263,2.4674113808549474
10.90796449704142,1.143726151634131,-1.8906210252723552,2.437515898910579
10.915961538461538,1.1885693745506836,-1.8980948957584471,2.407620416966211
10.923958579881656,0.7652859960551879,-1.3652859960551877,2.0
10.931955621301775,0.7909667255821117,-1.4,2.0
10.939952662721893,0.7805809575040357,-1.4,2.0
10.947949704142012,0.7701951894259597,-1.4,2.0
10.95594674556213,0.7598094213478838,-1.4,2.0
10.963943786982249,0.7494236532698078,-1.4,2.0
10.971940828402365,0.7390378851917341,-1.4,2.0
10.979937869822484,0.7286521171136582,-1.4,2.0
10.987934911242602,0.7182663490355822,-1.4,2.0
10.99593195266272,0.7078805809575063,-1.4,2.0
11.00392899408284,0.6,-1.0142011834322229,2.2928994082838887
11.011926035502958,1.4070107776838547,0.1175269442096369,2.6929892223161453
11.019923076923076,1.421291208791209,0.15322802197802293,2.678708791208791
11.027920118343195,1.4355716398985636,0.18892909974640898,2.6644283601014367
11.035917159763313,1.449852071005918,0.22463017751479497,2.650147928994082
11.043914201183432,1.4641325021132723,0.260331255283181,2.6358674978867276
11.05191124260355,1.4784129332206268,0.29603233305156706,2.6215870667793735
11.059908284023669,1.4926933643279812,0.3317334108199531,2.607306635672019
11.067905325443787,1.5069737954353357,0.36743448858833905,2.5930262045646644
11.075902366863906,1.52125422654269,0.4031355663567251,2.57874577345731
11.083899408284022,1.5355346576500413,0.43883664412510326,2.564465342349959
11.09189644970414,1.5498150887573958,0.4745377218934893,2.5501849112426043
11.09989349112426,1.5640955198647502,0.5102387996618752,2.5359044801352497
11.107890532544378,1.5783759509721047,0.5459398774302613,2.5216240490278956
11.115887573964496,1.592656382079459,0.5816409551986473,2.507343617920541
11.123884615384615,1.3723557692307695,1.7331730769230764,1.7834134615384618
11.131881656804733,1.1224482248520675,2.033062130177519,1.6334689349112406
11.139878698224852,0.7681952662721968,2.6075443786982073,1.3242603550295957
11.14787573964497,0.5541617357001996,3.0572978303747504,0.9739447731755488
11.155872781065089,0.5008481262327434,3.1239398422090705,0.8273323471400447
11.163869822485207,0.4475345167652874,3.1905818540433906,0.6807199211045404
11.171866863905326,0.3942209072978313,3.2572238658777106,0.5341074950690361
11.179863905325444,0.3409072978303752,3.323865877712031,0.3874950690335319
11.18786094674556,0.287593688362931,3.390507889546336,0.24088264299806028
11.19585798816568,0.23428007889547492,3.4571499013806566,0.094270216962556
11.203855029585798,-2.742011834318853,2.8579881656811468,-4.926035502956559
11.211852071005916,-2.2,2.3948925568358783,-2.538710682030541
11.219849112426035,-2.2,2.3864746184989114,-2.437695421986938
11.227846153846153,-2.2,2.3780566801619445,-2.336680161943335
11.235843195266272,-2.2,2.3696387418249776,-2.2356649018997317
11.24384023668639,-2.2,2.3612208034880107,-2.1346496418561287
11.251837278106509,-2.2,2.3528028651510438,-2.0336343818125258
11.259834319526627,-2.2,2.344384926814077,-1.9326191217689228
11.267831360946746,-2.2,2.33596698847711,-1.8316038617253199
11.275828402366864,-2.2,2.327549050140143,-1.7305886016817167
11.283825443786982,-2.2,2.319131111803176,-1.6295733416381135
11.2918224852071,-2.2,2.310713173466211,-1.528558081594533
11.299819526627218,-2.2,2.302295235129244,-1.4275428215509298
11.307816568047336,2.5733727810655136,2.1349112426025947,-0.8
11.315813609467455,2.4912206635197136,2.308779336480286,-0.8175586729605725
11.323810650887573,2.482235223721828,2.317764776278172,-0.8355295525563443
11.331807692307692,2.473249783923942,2.326750216076058,-0.8535004321521161
11.33980473372781,2.464264344126056,2.3357356558739437,-0.8714713117478878
11.347801775147929,2.45527890432817,2.34472109567183,-0.8894421913436596
11.355798816568047,2.4462934645302843,2.3537065354697155,-0.9074130709394314
11.363795857988165,2.437308024732398,2.3626919752676017,-0.9253839505352032
11.371792899408284,2.4283225849345125,2.3716774150654873,-0.943354830130975
11.379789940828402,2.419337145136627,2.380662854863373,-0.9613257097267467
11.387786982248521,2.4103517053387407,2.389648294661259,-0.9792965893225185
11.395784023668638,2.4013662655408567,2.398633734459143,-0.9972674689182863
11.403781065088756,0.7993208129662995,2.098641625932599,-0.7966040648314973
11.411778106508875,0.792366863905327,2.084733727810654,-0.7618343195266344
11.419775147928993,0.7854129148443543,2.0708258296887085,-0.7270645742217715
11.427772189349112,0.7784589657833817,2.0569179315667636,-0.6922948289169086
11.43576923076923,0.7715050167224091,2.0430100334448182,-0.6575250836120458
11.443766272189348,0.7645510676614365,2.0291021353228733,-0.6227553383071829
11.451763313609467,0.757597118600464,2.015194237200928,-0.58798559300232
11.459760355029585,0.7506431695394914,2.001286339078983,-0.5532158476974571
11.467757396449704,0.7436892204785188,1.9873784409570376,-0.5184461023925941
11.475754437869822,0.7367352714175462,1.9734705428350925,-0.4836763570877313
11.483751479289941,0.7297813223565737,1.9595626447131473,-0.44890661178286845
11.49174852071006,0.7228273732956011,1.9456547465912022,-0.41413686647800557
11.499745562130176,0.7158734242346301,1.9317468484692601,-0.3793671211731504
11.507742603550295,0.7089194751736575,1.917838950347315,-0.34459737586828754
11.515739644970413,0.7019655261126849,1.9039310522253698,-0.30982763056342466
11.523736686390532,1.3019096288326797,1.4980903711673204,0.10190962883267962
11.53173372781065,1.4266272189350195,1.3,0.3733727810649805
11.539730769230768,0.8677139761646886,1.3,0.4919284940411721
11.547727810650887,0.8226602216851476,1.3,0.4806650554212869
11.555724852071005,0.7776064672056068,1.3,0.4694016168014017
11.563721893491124,0.7325527127260658,1.3,0.4581381781815165
11.571718934911242,0.687498958246525,1.3,0.44687473956163126
11.57971597633136,0.6424452037669841,1.3,0.43561130094174605
11.58771301775148,0.5973914492874433,1.3,0.42434786232186084
11.595710059171598,0.5523376948079023,1.3,0.4130844237019756
11.603707100591715,0.5072839403283713,1.3,0.40182098508209285
11.611704142011833,0.29613108784707504,1.302321347291755,-0.7
11.619701183431951,0.2521912998244457,1.3286852201053325,-0.7
11.62769822485207,0.2082515118018164,1.3550490929189103,-0.7
11.635695266272188,0.16431172377918707,1.3814129657324878,-0.7
11.643692307692307,0.12037193575655772,1.4077768385460654,-0.7
11.651689349112425,0.0764321477339284,1.434140711359643,-0.7
11.659686390532544,0.032492359711299046,1.4605045841732207,-0.7
11.667683431952662,-0.011447428311330277,1.4868684569867983,-0.7
11.67568047337278,-0.0553872163339596,1.5132323298003758,-0.7
11.6836775147929,-0.09932700435658892,1.5395962026139534,-0.7
11.691674556213018,-0.1432667923792183,1.5659600754275311,-0.7
11.699671597633136,-0.18720658040184762,1.5923239482411087,-0.7
11.707668639053253,-0.24759087066782154,1.3,-1.004818258664357
11.715665680473371,0.3079318117779572,0.9960340941110214,-1.2
11.72366272189349,0.3460129613975692,0.9769935193012154,-1.2
11.731659763313608,0.38409411101718116,0.9579529444914094,-1.2
11.739656804733727,0.4221752606367931,0.9389123696816034,-1.2
11.747653846153845,0.46025641025640507,0.9198717948717975,-1.2
11.755650887573964,0.498337559876017,0.9008312200619915,-1.2
11.763647928994082,0.536418709495629,0.8817906452521855,-1.2
11.7716449704142,0.574499859115241,0.8627500704423795,-1.2
11.77964201183432,0.6125810087348529,0.8437094956325736,-1.2
11.787639053254438,0.650662158354465,0.8246689208227675,-1.2
11.795636094674556,0.6887433079740768,0.8056283460129616,-1.2
11.803633136094675,2.0755424063116283,0.5561143984220929,-0.8122287968441858
11.811630177514791,2.293459139612988,0.5065408603870117,-0.5934591396129882
11.81962721893491,2.2790500559731353,0.5209499440268648,-0.5790500559731352
11.827624260355028,2.264640972333282,0.5353590276667178,-0.5646409723332821
11.835621301775147,2.250231888693429,0.5497681113065709,-0.5502318886934291
11.843618343195265,2.235822805053576,0.5641771949464238,-0.535822805053576
11.851615384615384,2.221413721413723,0.5785862785862769,-0.5214137214137231
11.859612426035502,2.20700463777387,0.5929953622261299,-0.5070046377738701
11.86760946745562,2.192595554134017,0.607404445865983,-0.492595554134017
11.87560650887574,2.178186470494164,0.621813529505836,-0.478186470494164
11.883603550295858,2.163777386854311,0.636222613145689,-0.46377738685431097
11.891600591715976,2.149368303214458,0.650631696785542,-0.449368303214458
11.899597633136095,2.134959219574605,0.665040780425395,-0.4349592195746049
11.907594674556213,2.120550135934752,0.6794498640652481,-0.4205501359347519
11.915591715976332,2.106141052294899,0.6938589477051011,-0.4061410522948989
11.923588757396448,2.141715976331347,0.7834319526626934,-0.3582840236686533
11.931585798816567,2.5171597633133067,1.13786982248498,-0.14142011834334664
11.939582840236685,3.2,1.3867164051110583,0.27343281022211696
11.947579881656804,3.2,1.363536574907816,0.2270731498156324
11.955576923076922,3.2,1.3403567447045739,0.18071348940914783
11.96357396449704,3.2,1.3171769145013317,0.13435382900266327
11.97157100591716,3.2,1.2939970842980892,0.0879941685961787
11.979568047337278,3.2,1.270817254094847,0.041634508189694164
11.987565088757396,3.2,1.2476374238916048,-0.004725152216790429
11.995562130177515,3.2,1.2244575936883626,-0.05108481262327497
12.003559171597633,3.2,1.2012777634851202,-0.09744447302975956
12.011556213017752,0.49547268473922523,0.20323379661483912,-2.2935324067703218
12.01955325443787,0.43038048713361,0.24972822347599288,-2.200543553048014
12.027550295857987,0.3652882895280091,0.29622265033713635,-2.107554699325727
12.035547337278105,0.3001960919223938,0.34271707719829014,-2.0145658456034194
12.043544378698224,0.23510389431677853,0.3892115040594439,-1.921576991881112
12.051541420118342,0.17001169671116323,0.4357059309205977,-1.8285881381588047
12.05953846153846,0.10491949910554793,0.48220035778175147,-1.7355992844364971
12.06753550295858,0.03982730149993269,0.5286947846429052,-1.6426104307141896
12.075532544378698,-0.02526489610568261,0.575189211504059,-1.549621576991882
12.083529585798816,-0.09035709371129796,0.6216836383652128,-1.4566327232695744
12.091526627218935,-0.1554492913169132,0.6681780652263665,-1.3636438695472668
12.099523668639053,0.7284023668637603,0.5905325443787466,-0.39053254437874657
12.107520710059172,3.0863273395760302,-0.003418165105992489,-0.10683633021198498
12.11551775147929,3.05527086804159,-0.011182282989602547,-0.1223645659792051
12.123514792899408,3.0242143965071495,-0.018946400873212605,-0.1378928017464252
12.131511834319525,2.9931579249727163,-0.02671051875682094,-0.1534210375136419
12.139508875739644,2.962101453438276,-0.034474636640430996,-0.16894927328086198
12.147505917159762,2.931044981903836,-0.04223875452404105,-0.1844775090480821
12.15550295857988,2.8999885103693956,-0.05000287240765111,-0.2000057448153022
12.163499999999999,2.8689320388349553,-0.057766990291261165,-0.21553398058252232
12.171497041420118,2.8378755673005154,-0.06553110817487122,-0.23106221634974244
12.179494082840236,2.806819095766075,-0.07329522605848128,-0.24659045211696257
12.187491124260355,2.7757626242316347,-0.08105934394209134,-0.2621186878841827
12.195488165680473,2.7447061526971948,-0.0888234618257014,-0.27764692365140275
12.203485207100591,2.7136496811627544,-0.09658757970931145,-0.29317515941862293
12.21148224852071,2.4758875739645143,-0.06264792899408572,-0.26264792899408573
12.219479289940828,2.052071005917114,-0.02396449704144298,-0.12810650887567107
12.227476331360947,2.395425879788228,-0.30457412021177194,0.204574120211772
12.235473372781064,2.384903456867022,-0.3150965431329781,0.21509654313297807
12.243470414201182,2.3743810339458133,-0.32561896605418655,0.22561896605418655
12.2514674556213,2.3638586110246047,-0.336141388975395,0.236141388975395
12.259464497041419,2.3533361881033965,-0.34666381189660345,0.24666381189660344
12.267461538461538,2.342813765182188,-0.3571862348178119,0.2571862348178119
12.275458579881656,2.3322913422609797,-0.36770865773902034,0.2677086577390203
12.283455621301774,2.321768919339771,-0.3782310806602288,0.2782310806602288
12.291452662721893,2.3112464964185624,-0.3887535035814373,0.28875350358143725
12.299449704142011,2.300724073497354,-0.39927592650264576,0.2992759265026457
12.30744674556213,1.4731952662722225,-0.2089349112425925,0.2910650887574075
12.315443786982248,1.2,-0.291896971806473,0.2
12.323440828402367,1.2,-0.27308040375913556,0.2
12.331437869822485,1.2,-0.25426383571179817,0.2
12.339434911242602,1.2,-0.23544726766446494,0.2
12.34743195266272,1.2,-0.21663069961712755,0.2
12.355428994082839,1.2,-0.19781413156979016,0.2
12.363426035502957,1.2,-0.17899756352245275,0.2
12.371423076923076,1.2,-0.16018099547511533,0.2
12.379420118343194,1.2,-0.14136442742777794,0.2
12.387417159763313,1.2,-0.12254785938044052,0.2
12.395414201183431,1.2,-0.10373129133310313,0.2
12.40341124260355,1.4,-0.1,0.4117751479289989
12.411408284023668,1.1,-0.004898093359631485,0.2
12.419405325443787,1.1,-0.01378369493754092,0.2
12.427402366863905,1.1,-0.022669296515450355,0.2
12.435399408284024,1.1,-0.03155489809335979,0.2
12.44339644970414,1.1,-0.04044049967126725,0.2
12.451393491124259,1.1,-0.04932610124917668,0.2
12.459390532544377,1.1,-0.05821170282708612,0.2
12.467387573964496,1.1,-0.06709730440499555,0.2
12.475384615384614,1.1,-0.07598290598290498,0.2
12.483381656804733,1.1,-0.08486850756081442,0.2
12.491378698224851,1.1,-0.09375410913872385,0.2
12.49937573964497,0.7497041420122023,-0.16242603550305057,0.12485207100610111
12.507372781065088,0.2,-0.10428704025989038,-0.2957129597401096
12.515369822485207,0.2,-0.11212727694628102,-0.28787272305371897
12.523366863905325,0.2,-0.11996751363267168,-0.2800324863673283
12.531363905325444,0.2,-0.1278077503190623,-0.2721922496809377
12.539360946745562,0.2,-0.13564798700545294,-0.264352012994547
12.547357988165679,0.2,-0.14348822369184186,-0.25651177630815813
12.555355029585797,0.2,-0.1513284603782325,-0.24867153962176752
12.563352071005916,0.2,-0.15916869706462314,-0.24083130293537688
12.571349112426034,0.2,-0.16700893375101378,-0.23299106624898624
12.579346153846153,0.2,-0.17484917043740442,-0.2251508295625956
12.587343195266271,0.2,-0.18268940712379506,-0.21731059287620497
12.59534023668639,0.2,-0.19052964381018572,-0.20947035618981433
12.603337278106508,0.2,-0.19836988049657633,-0.2016301195034237
12.611334319526627,0.24002958579882064,-0.32668639053254706,-0.21334319526627354
12.619331360946745,0.47994082840238006,-0.48662721893492,-0.29331360946746
12.627328402366864,0.4718138370505216,-0.4530230617508693,-0.3
12.635325443786982,0.4410559854346818,-0.4017599757244696,-0.3
12.6433224852071,0.41029813381884195,-0.3504968896980699,-0.3
12.651319526627217,0.37954028220300895,-0.2992338036716815,-0.3
12.659316568047336,0.34878243058716907,-0.24797071764528178,-0.3
12.667313609467454,0.3180245789713293,-0.19670763161888205,-0.3
12.675310650887573,0.2872667273554894,-0.14544454559248232,-0.3
12.683307692307691,0.25650887573964964,-0.09418145956608259,-0.3
12.69130473372781,0.22575102412380976,-0.042918373539682864,-0.3
12.699301775147928,0.23017751479282952,0.0,-0.2
12.707298816568047,0.5,-0.1,-0.21402366863906716
12.715295857988165,0.46873203719357864,-0.11042265426880712,-0.2
12.723292899408284,0.4344590025359282,-0.12184699915469062,-0.2
12.731289940828402,0.4001859678782777,-0.1332713440405741,-0.2
12.73928698224852,0.36591293322062723,-0.14469568892645762,-0.2
12.747284023668639,0.3316398985629767,-0.1561200338123411,-0.2
12.755281065088758,0.2973668639053263,-0.16754437869822458,-0.2
12.763278106508874,0.26309382924768343,-0.17896872358410554,-0.2
12.771275147928993,0.2288207945900329,-0.19039306846998905,-0.2
12.779272189349111,0.1706417842512896,-0.1902139280837632,-0.2
12.78726923076923,-0.013905325443753669,-0.12869822485208213,-0.2
12.795266272189348,0.1,0.15325443786963644,-0.9931952662718638
12.803263313609467,0.09391911300051836,0.49391911300051833,-1.5817573390015551
12.811260355029585,0.08615499511690816,0.4861549951169082,-1.5584649853507246
12.819257396449704,0.07839087723329798,0.478390877233298,-1.535172631699894
12.827254437869822,0.07062675934968779,0.4706267593496878,-1.5118802780490634
12.83525147928994,0.06286264146607759,0.4628626414660776,-1.488587924398233
12.843248520710059,0.0550985235824674,0.4550985235824674,-1.4652955707474022
12.851245562130178,0.04733440569885721,0.44733440569885724,-1.4420032170965718
12.859242603550296,0.03957028781524702,0.43957028781524704,-1.418710863445741
12.867239644970413,0.03180616993163855,0.43180616993163856,-1.3954185097949157
12.875236686390531,0.024042052048028353,0.42404205204802836,-1.3721261561440852
12.88323372781065,0.016277934164418167,0.41627793416441816,-1.3488338024932545
12.891230769230768,0.008513816280807981,0.408513816280808,-1.325541448842424
12.899227810650887,0.0007496983971977816,0.4007496983971978,-1.3022490951915935
12.907224852071005,-0.1,-0.04082840236681626,-0.22958579881659186
12.915221893491124,-0.1,-0.1,-0.1942389875082195
12.923218934911242,-0.1,-0.1,-0.1868343195266282
12.93121597633136,-0.1,-0.1,-0.17942965154503696
12.939213017751479,-0.1,-0.1,-0.17202498356344567
12.947210059171598,-0.1,-0.1,-0.16462031558185442
12.955207100591716,-0.1,-0.1,-0.15721564760026313
12.963204142011834,-0.1,-0.1,-0.14981097961867187
12.971201183431951,-0.1,-0.1,-0.14240631163708226
12.97919822485207,-0.1,-0.1,-0.135001643655491
12.987195266272188,-0.1,-0.1,-0.12759697567389972
12.995192307692307,-0.1,-0.1,-0.12019230769230844
13.003189349112425,-0.1,-0.1,-0.11278763971071717
13.011186390532544,-0.1,-0.1,-0.1053829717291259
13.019183431952662,-0.17278106508874969,-0.3183431952662491,-0.02721893491125031
13.02718047337278,0.20300788954635432,0.09849605522682285,1.6015039447731771
13.035177514792899,0.3362919132149905,0.031854043392504736,1.6681459566074952
13.043174556213017,0.37840746786370116,-0.043185064272597704,1.6280248928790038
13.051171597633136,0.3370434605182606,-0.12591307896347875,1.490144868394202
13.059168639053254,0.2956794531728201,-0.20864109365435982,1.3522648439094003
13.067165680473373,0.2543154458273795,-0.2913691083452409,1.2143848194245985
13.07516272189349,0.21295143848194822,-0.37409712303610354,1.0765047949398274
13.083159763313608,0.17158743113650768,-0.4568251377269846,0.9386247704550256
13.091156804733727,0.13022342379106716,-0.5395531524178656,0.8007447459702238
13.099153846153845,-0.08076923076925696,-0.1,0.45769230769222913
13.107150887573964,-0.15754437869816296,-0.1,0.38491124260367404
13.115147928994082,-0.1,-0.1,0.1
13.1231449704142,-0.1,-0.1,0.1
13.131142011834319,-0.1,-0.1,0.1
13.139139053254437,-0.1,-0.1,0.1
13.147136094674556,-0.1,-0.1,0.1
13.155133136094674,-0.1,-0.1,0.1
13.163130177514793,-0.1,-0.1,0.1
13.171127218934911,-0.1,-0.1,0.1
13.179124260355028,-0.1,-0.1,0.1
13.187121301775147,-0.1,-0.1,0.1
13.195118343195265,-0.1,-0.1,0.1
13.203115384615383,-0.1,-0.1,0.023557692307704797
13.211112426035502,0.0,-0.09873587950511238,0.1
13.21910946745562,0.0,-0.08964833243679585,0.1
13.227106508875739,0.0,-0.0805607853684793,0.1
13.235103550295857,0.0,-0.07147323830016276,0.1
13.243100591715976,0.0,-0.06238569123184623,0.1
13.251097633136094,0.0,-0.053298144163529695,0.1
13.259094674556213,0.0,-0.04421059709521316,0.1
13.267091715976331,0.0,-0.03512305002689663,0.1
13.27508875739645,0.0,-0.02603550295858008,0.1
13.283085798816566,0.0,-0.01694795589026557,0.1
13.291082840236685,0.0,-0.007860408821949036,0.1
13.299079881656803,-0.053994082840151676,0.0,0.15399408284015167
13.307076923076922,-0.1,0.0,0.1980769230769239
13.31507396449704,-0.1,0.0,0.19067225509533275
13.323071005917159,-0.1,0.0,0.1832675871137416
13.331068047337277,-0.1,0.0,0.17586291913215046
13.339065088757396,-0.1,0.0,0.16845825115055932
13.347062130177514,-0.1,0.0,0.16105358316896817
13.355059171597633,-0.1,0.0,0.15364891518737703
13.363056213017751,-0.1,0.0,0.14624424720578588
13.37105325443787,-0.1,0.0,0.13883957922419474
13.379050295857988,-0.1,0.0,0.1314349112426036
13.387047337278105,-0.1,0.0,0.12403024326101408
13.395044378698223,-0.1,0.0,0.11662557527942294
13.403041420118342,-0.1,0.0,0.10922090729783179
13.41103846153846,-0.1,0.0,0.10181623931624065
13.419035502958579,0.0,0.0,0.1
13.427032544378697,0.0,0.0,0.1
13.435029585798816,0.0,0.0,0.1
13.443026627218934,0.0,0.0,0.10728496698396192
13.451023668639053,0.0,0.0,0.11887488208558306
13.459020710059171,0.0,0.0,0.13046479718720422
13.46701775147929,0.0,0.0,0.14205471228882535
13.475014792899408,0.0,0.0,0.1536446273904465
13.483011834319527,0.0,0.0,0.16523454249206762
13.491008875739643,0.0,0.0,0.1768244575936862
13.499005917159762,0.0,0.0,0.18841437269530734
13.50700295857988,-0.00029585798806424946,0.0,0.19970414201193576
13.515,-0.1,0.0,0.1
