accel_time_list,accel_x_list,accel_y_list,accel_z_list
0.0,2.9,5.5,6.8
0.00799740663900415,1.0011670124481324,7.69740663900415,8.698703319502075
0.0159948132780083,2.9871804309998664,4.4429047874001695,7.06769174140008
0.02399221991701245,2.858190001338509,4.606292664971222,7.145085999196895
0.0319896265560166,2.7291995716771518,4.769680542542274,7.222480256993709
0.039987033195020755,2.6002091420157942,4.933068420113327,7.299874514790524
0.0479844398340249,2.471218712354437,5.096456297684379,7.377268772587338
0.05598184647302905,2.34222828269308,5.259844175255433,7.454663030384152
0.0639792531120332,2.213237853031723,5.423232052826485,7.532057288180967
0.07197665975103736,2.084247423370365,5.5866199303975375,7.609451545977781
0.07997406639004151,1.9552569937090079,5.75000780796859,7.686845803774595
0.08797147302904565,1.8262665640476508,5.913395685539642,7.76424006157141
0.0959688796680498,1.6972761343862934,6.076783563110695,7.841634319368224
0.10396628630705396,1.894942946058094,6.003371369294604,7.9
0.1119636929460581,1.6014522821576764,6.597095435684647,7.602178423236514
0.11996109958506225,2.11370367720704,5.9794444841894405,7.613703677207039
0.1279585062240664,2.132088520055325,5.951867219917013,7.632088520055325
0.13595591286307054,2.1504733629036106,5.924289955644585,7.65047336290361
0.1439533195020747,2.1688582057518957,5.896712691372156,7.668858205751896
0.15195072614107885,2.1872430486001813,5.869135427099728,7.687243048600181
0.15994813278008302,2.205627891448467,5.8415581628273,7.705627891448467
0.16794553941908716,2.224012734296752,5.813980898554872,7.7240127342967515
0.1759429460580913,2.2423975771450375,5.786403634282444,7.742397577145037
0.18394035269709547,2.2607824199933226,5.7588263700100155,7.760782419993323
0.1919377593360996,2.279167262841608,5.731249105737588,7.779167262841608
0.19993516597510375,2.2975521056898933,5.70367184146516,7.797552105689894
0.2079325726141079,1.8966286307053961,5.513485477178415,7.603371369294604
0.21592997925311205,1.882946281176103,5.5085268594119485,7.608526859411948
0.2239273858921162,1.8657475572212554,5.517126221389372,7.617126221389372
0.23192479253112036,1.8485488332664077,5.525725583366796,7.625725583366796
0.2399221991701245,1.83135010931156,5.53432494534422,7.63432494534422
0.24791960580912867,1.8141513853567124,5.542924307321644,7.6429243073216435
0.2559170124481328,1.796952661401865,5.551523669299067,7.651523669299068
0.263914419087137,1.7797539374470173,5.5601230312764915,7.660123031276491
0.2719118257261411,1.7625552134921696,5.568722393253915,7.6687223932539155
0.27990923236514526,1.745356489537322,5.577321755231338,7.677321755231339
0.2879066390041494,1.7281577655824742,5.585921117208763,7.685921117208763
0.29590404564315353,1.7109590416276268,5.594520479186186,7.6945204791861865
0.3039014522821577,1.7,5.483941908713692,7.641970954356846
0.31189885892116187,1.468352351313969,5.552528526970953,7.584176175656984
0.31989626556016604,1.3350622406638994,5.352593360995849,7.51753112033195
0.32789367219917015,1.2809881541962254,5.287325436130817,7.5
0.3358910788381743,1.2551900682639539,5.270126712175969,7.5
0.3438884854771785,1.2293919823316823,5.2529279882211215,7.5
0.3518858921161826,1.203593896399411,5.235729264266274,7.5
0.35988329875518676,1.1777958104671395,5.218530540311426,7.5
0.36788070539419093,1.151997724534868,5.2013318163565785,7.5
0.37587811203319504,1.1261996386025965,5.184133092401731,7.5
0.3838755186721992,1.100401552670325,5.166934368446883,7.5
0.3918729253112034,1.0746034667380535,5.1497356444920355,7.5
0.3998703319502075,1.0488053808057822,5.132536920537188,7.5
0.40786773858921166,1.0230072948735107,5.11533819658234,7.5
0.4158651452282158,0.7837136929460385,4.840456431535246,7.5
0.42386255186721994,-0.7,2.778229913240286,6.585486608826857
0.4318599585062241,-0.7,2.6847537317454324,6.523169154496955
0.4398573651452283,-0.7,2.5912775502505783,6.460851700167052
0.4478547717842324,-0.7,2.497801368755725,6.39853424583715
0.45585217842323655,-0.7,2.4043251872608713,6.336216791507248
0.4638495850622407,-0.7,2.310849005766017,6.273899337177345
0.4718469917012449,-0.7,2.2173728242711634,6.211581882847442
0.479844398340249,-0.7,2.12389664277631,6.14926442851754
0.48784180497925317,-0.7,2.0304204612814565,6.086946974187637
0.49583921161825734,-0.7,1.9369442797866023,6.024629519857735
0.5038366182572614,-0.09816338174273856,0.08530705394190843,4.292653526970954
0.5118340248962656,-0.09016597510373439,0.02132780082987508,4.260663900414937
0.5198314315352698,-0.08216856846473022,-0.042651452282158275,4.228674273858921
0.527828838174274,-0.07417116182572606,-0.10663070539419164,4.196684647302904
0.5358262448132781,-0.06617375518672189,-0.17060995850622498,4.164695020746887
0.5438236514522822,-0.058176348547717825,-0.23458921161825744,4.132705394190872
0.5518210580912863,-0.05017894190871365,-0.29856846473029086,4.1007157676348545
0.5598184647302905,-0.04218153526970948,-0.3625477178423242,4.068726141078837
0.5678158713692947,-0.034184128630705315,-0.42652697095435754,4.036736514522821
0.5758132780082988,-0.026186721991701148,-0.4905062240663909,4.004746887966805
0.583810684647303,-0.01818931535269698,-0.5544854771784242,3.9727572614107878
0.5918080912863071,-0.010191908713692924,-0.6184647302904567,3.9407676348547716
0.5998054979253112,-0.0021945020746887423,-0.6824439834024901,3.908778008298755
0.6078029045643154,-1.280290456431542,-2.347925311203349,6.473236514522819
0.6158003112033196,-0.792555244620283,-6.1944164334652125,6.099069405577535
0.6237977178423237,-0.7181607642574535,-6.13862057319309,6.089770095532181
0.6317951244813279,-0.643766283894624,-6.082824712920968,6.080470785486828
0.6397925311203321,-0.5693718035317945,-6.027028852648846,6.071171475441474
0.6477899377593361,-0.49497732316896603,-5.9712329923767244,6.061872165396121
0.6557873443983403,-0.42058284280613656,-5.915437132104603,6.052572855350767
0.6637847510373445,-0.34618836244330703,-5.85964127183248,6.043273545305413
0.6717821576763486,-0.2717938820804775,-5.803845411560358,6.033974235260059
0.6797795643153528,-0.19739940171764803,-5.7480495512882355,6.024674925214706
0.687776970954357,-0.12300492135481855,-5.692253691016114,6.0153756151693525
0.695774377593361,-0.04861044099199008,-5.636457830743992,6.006076305123999
0.7037717842323652,-0.022821576763476487,-4.434232365145215,5.2570539419086915
0.7117691908713694,-1.8538381742738792,-2.9307745504840805,6.753838174273879
0.7197665975103735,-2.716159654540196,-2.516627665733861,7.416627665733862
0.7277640041493777,-3.0788327463089895,-2.5445255958699224,7.444525595869923
0.7357614107883819,-3.441505838077783,-2.5724235260059833,7.472423526005984
0.7437588174273859,-3.804178929846571,-2.600321456142044,7.500321456142045
0.7517562240663901,-4.166852021615364,-2.6282193862781047,7.5282193862781055
0.7597536307053943,-4.5295251133841585,-2.656117316414166,7.556117316414166
0.7677510373443984,-4.892198205152951,-2.684015246550227,7.584015246550227
0.7757484439834026,-5.254871296921745,-2.711913176686288,7.611913176686288
0.7837458506224068,-5.617544388690538,-2.7398111068223487,7.639811106822349
0.7917432572614109,-5.980217480459331,-2.76770903695841,7.66770903695841
0.799740663900415,-6.34289057222812,-2.7956069670944705,7.695606967094471
0.8077380705394192,-16.332977619846385,-6.7094221770989675,5.016488809923192
0.8157354771784233,-16.690308554780614,-6.811516729937319,5.195154277390307
0.8237328838174275,-17.047639489714843,-6.91361128277567,5.373819744857421
0.8317302904564317,-17.404970424649072,-7.015705835614021,5.552485212324536
0.8397276970954358,-17.7623013595833,-7.1178003884523715,5.73115067979165
0.8477251037344399,-18.119632294517526,-7.219894941290722,5.909816147258762
0.855722510373444,-18.476963229451755,-7.321989494129073,6.088481614725877
0.8637199170124482,-18.834294164385984,-7.424084046967424,6.267147082192991
0.8717173236514524,-19.191625099320213,-7.526178599805775,6.445812549660105
0.8797147302904565,-19.54895603425444,-7.628273152644126,6.6244780171272195
0.8877121369294607,-19.90628696918867,-7.730367705482477,6.803143484594334
0.8957095435684648,-20.263617904122892,-7.8324622583208265,6.981808952061446
0.9037069502074689,-19.242142116182507,-6.734439834024869,8.43187240663899
0.9117043568464731,-13.25639331731819,-3.3257206813714775,4.104951954575235
0.9197017634854773,-13.012261956759115,-3.1994458397029906,4.113370277353134
0.9276991701244814,-12.768130596200042,-3.0731709980345037,4.121788600131032
0.9356965767634856,-12.523999235640966,-2.9468961563660168,4.130206922908932
0.9436939834024898,-12.27986787508189,-2.82062131469753,4.138625245686831
0.9516913900414938,-12.03573651452282,-2.6943464730290447,4.14704356846473
0.959688796680498,-11.791605153963745,-2.568071631360558,4.15546189124263
0.9676862033195022,-11.547473793404672,-2.441796789692071,4.163880214020528
0.9756836099585063,-11.303342432845596,-2.3155219480235845,4.1722985367984275
0.9836810165975105,-11.059211072286523,-2.189247106355097,4.180716859576327
0.9916784232365147,-10.815079711727448,-2.0629722646866107,4.189135182354226
0.9996758298755187,-10.570948351168376,-1.9366974230181253,4.1975535051321256
1.007673236514523,-9.661810906935386,0.19448725548309048,3.632676348547704
1.0156706431535272,-9.607681117947251,-1.7288041923021924,2.1865580435923104
1.0236680497925312,-9.64445080364382,-1.8666905136643315,2.1222110936233123
1.0316654564315353,-9.681220489340392,-2.0045768350264703,2.057864143654314
1.0396628630705396,-9.717990175036963,-2.1424631563886134,1.993517193685314
1.0476602697095436,-9.754759860733534,-2.280349477750752,1.9291702437163156
1.055657676348548,-9.791529546430105,-2.418235799112895,1.8648232937473157
1.063655082987552,-9.828299232126675,-2.5561221204750337,1.8004763437783176
1.0716524896265562,-9.865068917823248,-2.694008441837177,1.7361293938093176
1.0796498962655603,-9.901838603519817,-2.8318947631993154,1.6717824438403195
1.0876473029045644,-9.938608289216388,-2.969781084561455,1.6074354938713213
1.0956447095435686,-9.97537797491296,-3.1076674059235976,1.5430885439023212
1.1036421161825727,-9.389470954356852,-5.1105290456431485,0.6715767634854812
1.111639522821577,-9.075308152306562,-5.020246521845249,0.6
1.119636929460581,-8.840090309982912,-4.8320722479863285,0.6
1.127634336099585,-8.294058543462071,-4.317824369613788,1.4653560219172252
1.1356317427385894,-8.28380545802745,-4.348583625917652,1.5781399616980547
1.1436291493775934,-8.27355237259283,-4.379342882221513,1.690923901478881
1.1516265560165977,-8.263299287158208,-4.410102138525375,1.8037078412597107
1.1596239626556017,-8.253046201723588,-4.440861394829237,1.9164917810405369
1.167621369294606,-8.242793116288967,-4.4716206511331,2.0292757208213663
1.17561877593361,-8.232540030854345,-4.5023799074369615,2.142059660602193
1.1836161825726141,-8.222286945419725,-4.533139163740823,2.254843600383019
1.1916135892116184,-8.212033859985103,-4.563898420044685,2.3676275401638485
1.1996109958506225,-8.201780774550484,-4.594657676348548,2.4804114799446753
1.2076084024896268,-8.873781120332005,-6.40420124481334,3.987059128630662
1.2156058091286308,-9.66417704011065,-6.569294605809128,2.1692946058091285
1.223603215767635,-9.601974988473948,-6.515978561549099,2.1159785615491
1.2316006224066391,-9.53977293683725,-6.462662517289072,2.062662517289073
1.2395980290456432,-9.477570885200553,-6.4093464730290455,2.0093464730290456
1.2475954356846475,-9.415368833563853,-6.356030428769016,1.9560304287690171
1.2555928423236515,-9.353166781927154,-6.30271438450899,1.90271438450899
1.2635902489626558,-9.290964730290455,-6.249398340248961,1.8493983402489613
1.2715876556016599,-9.228762678653757,-6.196082295988934,1.7960822959889342
1.2795850622406642,-9.166560627017056,-6.142766251728905,1.7427662517289055
1.2875824688796682,-9.104358575380358,-6.089450207468879,1.6894502074688784
1.2955798755186723,-9.04215652374366,-6.036134163208851,1.6361341632088513
1.3035772821576765,-6.669087136929402,-5.221135892116175,1.1422717842323507
1.3115746887966806,-6.524595101057423,-6.783623343595238,1.6245951010574229
1.3195720954356849,-6.567591910944543,-6.929812497211445,1.6675919109445427
1.327569502074689,-6.610588720831661,-7.076001650827648,1.7105887208316615
1.335566908713693,-6.65358553071878,-7.222190804443851,1.75358553071878
1.3435643153526973,-6.696582340605899,-7.368379958060059,1.7965823406058998
1.3515617219917013,-6.739579150493018,-7.514569111676263,1.8395791504930183
1.3595591286307056,-6.782575960380138,-7.66075826529247,1.8825759603801382
1.3675565352697097,-6.825572770267256,-7.806947418908673,1.9255727702672567
1.375553941908714,-6.868569580154377,-7.953136572524881,1.9685695801543766
1.383551348547718,-6.911566390041495,-8.099325726141084,2.0115663900414953
1.391548755186722,-6.9545631999286135,-8.245514879757287,2.0545631999286136
1.3995461618257263,-6.997560009815733,-8.391704033373495,2.0975600098157337
1.4075435684647304,-9.001624808910243,-7.885376719807817,3.2016248089102426
1.4155409751037347,-9.010043131688143,-7.809611814806724,3.210043131688142
1.4235383817427387,-9.01846145446604,-7.733846909805632,3.218461454466041
1.431535788381743,-9.02687977724394,-7.658082004804539,3.22687977724394
1.439533195020747,-9.035298100021839,-7.582317099803448,3.235298100021839
1.4475306016597511,-9.043716422799738,-7.5065521948023575,3.243716422799738
1.4555280082987554,-9.052134745577638,-7.430787289801264,3.2521347455776373
1.4635254149377595,-9.060553068355537,-7.355022384800173,3.260553068355536
1.4715228215767637,-9.068971391133436,-7.27925747979908,3.2689713911334355
1.4795202282157678,-9.077389713911334,-7.2034925747979885,3.2773897139113344
1.4875176348547718,-9.085808036689233,-7.127727669796897,3.2858080366892337
1.4955150414937761,-9.094226359467132,-7.051962764795804,3.2942263594671326
1.5035124481327802,-9.230248962655603,-5.763879668049785,4.136120331950216
1.5115098547717845,-9.390197095435688,-5.0441130705393995,4.855886929460601
1.5195072614107885,-8.6,-3.297095435684602,6.6768153526971235
1.5275046680497928,-8.535144844014136,-3.155590133702169,6.679554710311968
1.5355020746887968,-8.466031453306694,-3.2148301828799766,6.551201270426717
1.543499481327801,-8.396918062599251,-3.2740702320577846,6.422847830541467
1.5514968879668052,-8.327804671891807,-3.333310281235594,6.294494390656213
1.5594942946058092,-8.258691281184365,-3.392550330413402,6.166140950770963
1.5674917012448135,-8.18957789047692,-3.4517903795912113,6.037787510885709
1.5754891078838176,-8.120464499769477,-3.5110304287690193,5.909434071000458
1.5834865145228219,-8.051351109062033,-3.5702704779468286,5.781080631115205
1.591483921161826,-7.982237718354591,-3.6295105271246366,5.652727191229954
1.59948132780083,-7.913124327647148,-3.6887505763024446,5.5243737513447035
1.6074787344398342,-4.6015443046446265,-6.5020590728595025,4.398970463570249
1.6154761410788383,-4.627342390576898,-6.536456520769197,4.3817717396154015
1.6234735477178426,-4.6531404765091695,-6.570853968678893,4.364573015660554
1.6314709543568466,-4.678938562441441,-6.605251416588588,4.347374291705706
1.6394683609958507,-4.704736648373712,-6.639648864498283,4.330175567750859
1.647465767634855,-4.730534734305984,-6.674046312407978,4.312976843796011
1.655463174273859,-4.756332820238255,-6.708443760317674,4.295778119841164
1.6634605809128633,-4.782130906170527,-6.742841208227369,4.278579395886315
1.6714579875518674,-4.807928992102799,-6.777238656137064,4.261380671931468
1.6794553941908716,-4.8337270780350705,-6.811636104046761,4.24418194797662
1.6874528008298757,-4.859525163967342,-6.846033551956455,4.226983224021772
1.6954502074688798,-4.885323249899613,-6.88043099986615,4.209784500066926
1.703447614107884,-4.971047717842319,-6.055238589211596,3.7841908713692765
1.711445020746888,-5.712844628861228,-7.412844628861228,2.603211157215307
1.7194424273858924,-5.783932687874599,-7.483932687874599,2.62098317196865
1.7274398340248964,-5.855020746887969,-7.555020746887968,2.6387551867219923
1.7354372406639007,-5.92610880590134,-7.62610880590134,2.6565272014753347
1.7434346473029048,-5.997196864914709,-7.697196864914709,2.674299216228677
1.7514320539419088,-6.068284923928078,-7.7682849239280785,2.6920712309820196
1.759429460580913,-6.13937298294145,-7.839372982941449,2.7098432457353625
1.7674268672199172,-6.210461041954819,-7.910461041954819,2.7276152604887045
1.7754242738589214,-6.28154910096819,-7.98154910096819,2.7453872752420474
1.7834216804979255,-6.35263715998156,-8.05263715998156,2.76315928999539
1.7914190871369295,-6.423725218994929,-8.12372521899493,2.7809313047487323
1.7994164937759338,-6.4948132780083005,-8.194813278008299,2.7987033195020747
1.8074139004149379,-12.60044505420961,-10.215131843126763,3.799554945790389
1.8154113070539422,-12.609044416187034,-10.507510150359177,3.7909555838129654
1.8234087136929462,-12.617643778164458,-10.799888457591583,3.7823562218355415
1.8314061203319505,-12.626243140141883,-11.092266764823998,3.7737568598581177
1.8394035269709545,-12.634842502119305,-11.384645072056404,3.765157497880694
1.8474009336099586,-12.64344186409673,-11.677023379288812,3.75655813590327
1.8553983402489629,-12.652041226074154,-11.969401686521227,3.747958773925846
1.863395746887967,-12.660640588051576,-12.261779993753633,3.739359411948423
1.8713931535269712,-12.669239950029,-12.554158300986048,3.7307600499709985
1.8793905601659753,-12.677839312006425,-12.846536608218454,3.722160687993575
1.8873879668049796,-12.686438673983849,-13.138914915450869,3.713561326016151
1.8953853734439836,-12.695038035961272,-13.431293222683275,3.7049619640387275
1.9033827800829877,-12.294066390041468,-13.904450207468898,3.632344398340245
1.911380186721992,-10.050803941908374,-13.94792531120319,3.3619813278007973
1.919377593360996,-1.466097144251888,-14.171247254088355,2.0587991213082733
1.9273750000000003,-1.2214705882352865,-13.936029411764698,1.9835294117647035
1.9353724066390043,-0.9768440322186918,-13.70081156944105,1.908259702221136
1.9433698132780086,-0.7322174762020902,-13.465593727117396,1.8329899926775663
1.9513672199170127,-0.4875909201854953,-13.230375884793746,1.7577202831339986
1.9593646265560167,-0.24296436416890055,-12.995158042470097,1.682450573590431
1.967362033195021,0.001662191847700889,-12.759940200146442,1.6071808640468612
1.975359439834025,0.24628874786429567,-12.524722357822792,1.5319111545032937
1.9833568464730293,0.4909153038808971,-12.289504515499138,1.456641444959724
1.9913542531120334,0.7355418598974919,-12.05428667317549,1.3813717354161563
1.9993516597510375,0.9801684159140867,-11.81906883085184,1.3061020258725886
2.0073490663900415,3.337266597510377,-4.469566908713681,-0.537266597510377
2.015346473029046,8.174660505469642,-3.8946671067521685,-0.8786684270086738
2.02334387966805,8.429123443983414,-3.876491182572613,-0.8059647302904531
2.0313412863070544,8.683586382497186,-3.8583152583930582,-0.7332610335722325
2.039338692946058,8.938049321010945,-3.8401393342135037,-0.6605573368540159
2.0473360995850625,9.192512259524717,-3.821963410033949,-0.5878536401357952
2.0553335062240667,9.446975198038489,-3.803787485854394,-0.5151499434175746
2.0633309128630706,9.701438136552248,-3.7856115616748394,-0.44244624669935795
2.071328319502075,9.95590107506602,-3.7674356374952844,-0.3697425499811373
2.079325726141079,10.210364013579792,-3.7492597133157295,-0.29703885326291657
2.0873231327800834,10.464826952093564,-3.731083789136174,-0.22433515654469594
2.0953205394190872,10.719289890607323,-3.71290786495662,-0.1516314598264794
2.1033179460580915,10.886670124481235,-2.0523080912862963,0.7476919087137036
2.111315352697096,5.342341692224423,-3.2360364423597363,0.6
2.1193127593360996,5.203256359372182,-3.3229647753923865,0.6
2.127310165975104,5.064171026519934,-3.4098931084250417,0.6
2.135307572614108,4.925085693667686,-3.496821441457697,0.6
2.1433049792531125,4.786000360815438,-3.583749774490352,0.6
2.1513023858921163,4.646915027963197,-3.670678107523002,0.6
2.1592997925311206,4.507829695110948,-3.7576064405556573,0.6
2.167297199170125,4.368744362258701,-3.8445347735883124,0.6
2.1752946058091287,4.22965902940646,-3.9314631066209627,0.6
2.183292012448133,4.090573696554212,-4.018391439653618,0.6
2.1912894190871373,3.951488363701963,-4.105319772686273,0.6
2.1992868257261415,3.8124030308497154,-4.192248105718928,0.6
2.2072842323651454,5.182468879668042,-13.360373443983388,7.182468879668041
2.2152816390041496,0.9632418760781059,-36.418215884190396,11.7
2.223279045643154,0.33423236514518484,-36.265456431535256,11.7
2.2312764522821578,-0.2947771457877013,-36.11269697888013,11.7
2.239273858921162,-0.9237866567206223,-35.95993752622499,11.7
2.2472712655601663,-1.5527961676535436,-35.80717807356985,11.7
2.25526867219917,-2.1818056785864295,-35.654418620914726,11.7
2.2632660788381744,-2.810815189519351,-35.501659168259586,11.7
2.2712634854771787,-3.439824700452272,-35.348899715604446,11.7
2.279260892116183,-4.068834211385193,-35.19614026294931,11.7
2.287258298755187,-4.697843722318079,-35.04338081029418,11.7
2.295255705394191,-5.326853233251001,-34.89062135763904,11.7
2.3032531120331954,-4.235477178422979,-17.544398340248247,6.784854771783895
2.311250518672199,-3.027625573269274,-14.149979253112038,5.201307599912646
2.3192479253112035,-2.935024022712382,-13.830082987551865,5.0750327582441574
2.3272453319502078,-2.8424224721554903,-13.510186721991694,4.948757916575668
2.335242738589212,-2.7498209215985985,-13.190290456431521,4.822483074907179
2.343240145228216,-2.6572193710417116,-12.870394190871366,4.696208233238697
2.35123755186722,-2.56461782048482,-12.550497925311195,4.569933391570208
2.3592349585062244,-2.472016269927928,-12.230601659751024,4.44365854990172
2.3672323651452283,-2.379414719371041,-11.910705394190868,4.317383708233238
2.3752297717842326,-2.286813168814149,-11.590809128630696,4.191108866564749
2.383227178423237,-2.194211618257257,-11.270912863070524,4.06483402489626
2.391224585062241,-2.1016100677003653,-10.951016597510353,3.9385591832277704
2.399221991701245,-2.009008517143479,-10.631120331950198,3.8122843415592884
2.4072193983402492,-2.802193983402492,-1.9953926348547668,0.19758661825725882
2.4152168049792535,-2.8821680497925346,-1.8274470954356772,0.10961514522821182
2.4232142116182573,-2.962142116182573,-1.6595015560165967,0.02164367219916971
2.4312116182572616,-3.0421161825726157,-1.491556016597507,-0.06632780082987727
2.439209024896266,-3.122090248962658,-1.3236104771784172,-0.15429927385892428
2.44720643153527,-3.202064315352701,-1.1556649377593275,-0.2422707468879713
2.455203838174274,-3.282038381742739,-0.9877193983402472,-0.33024221991701336
2.4632012448132783,-3.362012448132782,-0.8197738589211574,-0.4182136929460604
2.4711986514522826,-3.441986514522825,-0.6518283195020678,-0.5061851659751073
2.4791960580912864,-3.5219605809128627,-0.48388278008298746,-0.5941566390041495
2.4871934647302907,-3.6019346473029055,-0.3159372406638976,-0.6821281120331966
2.495190871369295,-3.6819087136929483,-0.14799170124480798,-0.7700995850622434
2.5031882780082992,-3.761882780082991,0.019953838174281646,-0.8580710580912905
2.511185684647303,-1.9514522821574767,2.5107365145226344,-2.5185684647303153
2.5191830912863074,-1.5727697095435849,0.9046787809414704,-2.17021211904421
2.5271804979253116,-1.8393499308437269,0.7576000381551851,-2.1242500119234955
2.5351779045643155,-2.1059301521438543,0.610521295368908,-2.078287904802784
2.5431753112033197,-2.3725103734439963,0.4634425525826227,-2.03232579768207
2.551172717842324,-2.639090594744138,0.3163638097963375,-1.9863636905613555
2.5591701244813283,-2.90567081604428,0.1692850670100522,-1.9404015834406414
2.567167531120332,-3.1722510373444077,0.02220632422377511,-1.8944394763199297
2.5751649377593364,-3.4388312586445493,-0.12487241856251008,-1.8484773691992156
2.5831623443983407,-3.7054114799446913,-0.2719511613487955,-1.8025152620785014
2.5911597510373445,-3.9719917012448187,-0.41902990413507246,-1.75655315495779
2.599157157676349,-4.238571922544961,-0.5661086469213579,-1.7105910478370756
2.607154564315353,-5.506490812092418,-12.894442797866581,6.817160640190043
2.615151970954357,-10.708479396194017,-30.11731470882816,16.845582343682928
2.623149377593361,-10.368359803500732,-30.18166165879716,16.643349072351786
2.6311467842323655,-10.028240210807446,-30.24600860876616,16.441115801020644
2.6391441908713698,-9.688120618114162,-30.31035555873516,16.2388825296895
2.6471415975103736,-9.348001025420896,-30.374702508704157,16.03664925835837
2.655139004149378,-9.007881432727611,-30.439049458673157,15.834415987027228
2.663136410788382,-8.667761840034327,-30.503396408642157,15.632182715696086
2.671133817427386,-8.32764224734106,-30.567743358611153,15.429949444364954
2.6791312240663903,-7.987522654647776,-30.63209030858015,15.227716173033812
2.6871286307053945,-7.647403061954491,-30.69643725854915,15.02548290170267
2.695126037344399,-7.307283469261206,-30.76078420851815,14.823249630371528
2.7031234439834027,-3.2977800829875106,-21.582240663900084,10.103464730290316
2.711120850622407,1.650155601659883,-11.36887966804972,3.5326244813276872
2.719118257261411,2.797245907619362,-10.727910264009843,2.6983106105512706
2.727115663900415,3.1312035474898527,-10.534566367242716,2.584061944279787
2.7351130705394193,3.465161187360362,-10.34122247047558,2.469813278008297
2.7431104771784236,3.7991188272308714,-10.147878573708443,2.355564611736807
2.751107883817428,4.133076467101381,-9.954534676941305,2.241315945465317
2.7591052904564317,4.467034106971871,-9.761190780174179,2.1270672791938336
2.767102697095436,4.800991746842381,-9.567846883407043,2.0128186129223433
2.7751001037344403,5.13494938671289,-9.374502986639905,1.8985699466508534
2.783097510373444,5.468907026583381,-9.181159089872779,1.7843212803793698
2.7910949170124484,5.80286466645389,-8.987815193105643,1.6700726141078797
2.7990923236514527,6.136822306324399,-8.794471296338505,1.5558239478363898
2.807089730290457,10.3179460580914,-3.2371887966801056,5.0
2.8150871369294608,10.666554192695271,-1.819730062468651,4.892973416624868
2.823084543568465,10.622612397975466,-1.7142697551411217,4.752359673521496
2.8310819502074693,10.578670603255663,-1.6088094478135924,4.611745930418123
2.839079356846473,10.534728808535862,-1.503349140486069,4.471132187314759
2.8470767634854774,10.490787013816057,-1.39788883315854,4.330518444211386
2.8550741701244817,10.446845219096254,-1.2924285258310106,4.189904701108015
2.863071576763486,10.40290342437645,-1.1869682185034813,4.049290958004642
2.87106898340249,10.35896162965665,-1.081507911175958,3.908677214901277
2.879066390041494,10.315019834936844,-0.9760476038484287,3.768063471797905
2.8870637966804984,10.271078040217041,-0.8705872965208994,3.6274497286945326
2.8950612033195022,10.22713624549724,-0.7651269891933761,3.486835985591168
2.9030586099585065,8.770695020746755,0.9263744813279206,3.5322354771785696
2.911056016597511,6.882554767322535,1.7171351447820382,6.121806540846832
2.9190534232365146,6.848157319412841,1.5537472672109922,6.1648033507339495
2.927050829875519,6.813759871503145,1.3903593896399369,6.207800160621069
2.935048236514523,6.779362423593449,1.2269715120688818,6.250796970508189
2.9430456431535275,6.744964975683753,1.0635836344978267,6.293793780395308
2.9510430497925313,6.710567527774059,0.9001957569267803,6.336790590282426
2.9590404564315356,6.676170079864363,0.7368078793557251,6.379787400169546
2.96703786307054,6.641772631954668,0.57342000178467,6.422784210056665
2.9750352697095437,6.607375184044973,0.4100321242136238,6.465781019943783
2.983032676348548,6.572977736135278,0.24664424664256868,6.508777829830903
2.9910300829875522,6.538580288225582,0.08325636907151335,6.5517746397180225
2.9990274896265565,6.504182840315886,-0.08013150849954176,6.594771449605142
3.0070248962655604,11.152420470262962,-19.169709543569073,9.41493775933623
3.0150223029045646,-2.4427489626558883,-39.2,19.73048236514536
3.023019709543569,-6.494975363070539,-39.064334802904554,21.53467971991701
3.0310171161825727,-6.484978604771785,-38.79442232883817,21.404721862033195
3.039014522821577,-6.474981846473029,-38.524509854771786,21.274764004149375
3.0470119294605813,-6.464985088174274,-38.25459738070539,21.14480614626556
3.0550093360995856,-6.454988329875518,-37.984684906638996,21.01484828838174
3.0630067427385894,-6.444991571576764,-37.714772432572616,20.884890430497926
3.0710041493775937,-6.434994813278008,-37.44485995850622,20.754932572614106
3.079001556016598,-6.424998054979253,-37.174947484439826,20.624974714730286
3.086998962655602,-6.415001296680498,-36.905035010373446,20.495016856846476
3.094996369294606,-6.405004538381743,-36.63512253630705,20.365058998962656
3.1029937759336104,-8.297821576763559,-13.438278008297495,6.719294605808494
3.1109911825726146,-4.704424163503122,-8.489380462611457,2.0203534695859346
3.1189885892116185,-4.5512823342456015,-8.472364703805066,1.8927352785380018
3.1269859958506228,-4.398140504988073,-8.455348944998676,1.7651170874900615
3.134983402489627,-4.244998675730545,-8.438333186192283,1.6374988964421213
3.142980809128631,-4.091856846473026,-8.421317427385892,1.5098807053941883
3.150978215767635,-3.938715017215497,-8.4043016685795,1.3822625143462481
3.1589756224066394,-3.785573187957969,-8.387285909773109,1.254644323298308
3.1669730290456437,-3.632431358700441,-8.370270150966716,1.1270261322503676
3.1749704356846475,-3.479289529442921,-8.353254392160325,0.9994079412024346
3.182967842323652,-3.326147700185393,-8.336238633353933,0.8717897501544944
3.190965248962656,-3.173005870927865,-8.319222874547542,0.7441715591065541
3.19896265560166,-3.0198640416703446,-8.302207115741151,0.616553368058621
3.206960062240664,-2.2980031120332107,-2.33266770401107,-1.9306708160442807
3.2149574688796685,-2.526679565480912,-2.3466408690381755,-2.191106811506363
3.2229548755186728,-2.5805946664180195,-2.2388106671639605,-2.1731351111939934
3.2309522821576766,-2.6345097673551243,-2.1309804652897517,-2.1551634108816256
3.238949688796681,-2.688424868292232,-2.0231502634155367,-2.1371917105692564
3.246947095435685,-2.7423399692293393,-1.9153200615413215,-2.119220010256887
3.254944502074689,-2.7962550701664437,-1.8074898596671125,-2.101248309944519
3.2629419087136933,-2.850170171103551,-1.6996596577928975,-2.08327660963215
3.2709393153526976,-2.9040852720406587,-1.5918294559186825,-2.0653049093197806
3.2789367219917014,-2.9580003729777635,-1.4839992540444733,-2.0473332090074123
3.2869341286307057,-3.011915473914871,-1.3761690521702583,-2.029361508695043
3.29493153526971,-3.0658305748519785,-1.2683388502960433,-2.011389808382674
3.3029289419087142,-4.271576763485711,1.3289419087142782,-1.7
3.310926348547718,-3.3580736293811233,-0.30524079632735956,0.09433433389247262
3.3189237551867223,-3.2900105941555546,-0.31374867573055565,0.2474761631500016
3.3269211618257266,-3.2219475589299864,-0.3222565551337517,0.4006179924075306
3.3349185684647304,-3.1538845237044217,-0.33076443453694726,0.553759821665051
3.3429159751037347,-3.0858214884788535,-0.33927231394014334,0.7069016509225801
3.350913381742739,-3.017758453253285,-0.34778019334333937,0.860043480180109
3.3589107883817433,-2.9496954180277166,-0.35628807274653546,1.013185309437638
3.366908195020747,-2.881632382802152,-0.36479595214973104,1.1663271386951584
3.3749056016597514,-2.8135693475765837,-0.3733038315529271,1.3194689679526874
3.3829030082987557,-2.745506312351015,-0.38181171095612315,1.4726107972102165
3.3909004149377595,-2.6774432771254504,-0.39031959035931874,1.6257526264677369
3.398897821576764,-2.609380241899882,-0.3988274697625148,1.778894455725266
3.406895228215768,3.3224688796683473,-21.814439834026377,12.311410788382467
3.4148926348547723,0.24294605809107583,-23.51543914246205,14.275842842323769
3.422890041493776,-9.32246230138649,-25.353759740916942,10.892057990081952
3.4308874481327805,-9.107897733022961,-26.05597105556122,10.316634829470667
3.4388848547717847,-8.893333164659431,-26.7581823702055,9.741211668859382
3.4468822614107886,-8.678768596295914,-27.460393684849738,9.16578850824813
3.454879668049793,-8.464204027932384,-28.162604999494018,8.590365347636846
3.462877074688797,-8.249639459568854,-28.864816314138295,8.01494218702556
3.4708744813278014,-8.035074891205324,-29.567027628782576,7.439519026414277
3.4788718879668052,-7.820510322841806,-30.269238943426814,6.864095865803025
3.4868692946058095,-7.605945754478276,-30.971450258071094,6.28867270519174
3.494866701244814,-7.391381186114746,-31.673661572715375,5.713249544580456
3.5028641078838176,-6.007531120331441,-31.176659751036862,5.424668049792627
3.510861514522822,4.070772821576695,-10.353864107883478,5.1677126556012745
3.518858921161826,3.8922057714070157,-9.351909656733298,4.106469256884188
3.5268563278008305,3.883117809317238,-9.179238377027524,3.997413711806858
3.5348537344398343,3.874029847227461,-9.00656709732176,3.8883581667295326
3.5428511410788386,3.8649418851376836,-8.833895817615986,3.7793026216522017
3.550848547717843,3.855853923047906,-8.661224537910211,3.6702470765748707
3.5588459543568467,3.8467659609581286,-8.488553258204448,3.561191531497546
3.566843360995851,3.837677998868351,-8.315881978498673,3.452135986420215
3.5748407676348553,3.8285900367785737,-8.143210698792899,3.3430804413428836
3.582838174273859,3.8195020746887964,-7.970539419087134,3.234024896265559
3.5908355809128634,3.8104141125990187,-7.797868139381361,3.124969351188228
3.5988329875518676,3.801326150509241,-7.625196859675587,3.015913806110897
3.606830394190872,5.043744813277923,-2.8705290456430435,2.1633921161825604
3.6148278008298758,4.610728446288613,-2.2570862148455477,2.110728446288613
3.62282520746888,4.628500461041956,-2.1859981558321766,2.128500461041956
3.6308226141078843,4.646272475795298,-2.1149100968188055,2.1462724757952985
3.638820020746888,4.6640444905486405,-2.0438220378054384,2.1640444905486405
3.6468174273858924,4.681816505301983,-1.9727339787920672,2.1818165053019833
3.6548148340248967,4.699588520055325,-1.9016459197786961,2.199588520055326
3.662812240663901,4.717360534808669,-1.830557860765325,2.2173605348086687
3.670809647302905,4.73513254956201,-1.7594698017519579,2.2351325495620102
3.678807053941909,4.752904564315353,-1.6883817427385868,2.252904564315353
3.6868044605809134,4.770676579068696,-1.6172936837252156,2.270676579068696
3.694801867219917,4.788448593822038,-1.5462056247118485,2.2884485938220376
3.7027992738589215,7.6788381742745955,-0.9200726141078378,1.8204356846470267
3.7107966804979258,7.559177187251695,-3.235719961154767,0.5744857420323095
3.71879408713693,7.491114152026126,-3.2952751169771393,0.5319463450163292
3.726791493775934,7.423051116800562,-3.354830272799508,0.4894069480003513
3.734788900414938,7.3549880815749935,-3.4143854286218804,0.44686755098437103
3.7427863070539424,7.286925046349425,-3.473940584444253,0.4043281539683907
3.7507837136929463,7.218862011123861,-3.533495740266622,0.36178875695241286
3.7587811203319506,7.150798975898292,-3.5930508960889944,0.31924935993643255
3.766778526970955,7.082735940672723,-3.652606051911367,0.2767099629204523
3.774775933609959,7.014672905447155,-3.712161207733739,0.23417056590447205
3.782773340248963,6.94660987022159,-3.771716363556108,0.19163116888849413
3.7907707468879672,6.878546834996022,-3.8312715193784803,0.14909177187251388
3.7987681535269715,6.810483799770454,-3.8908266752008527,0.10655237485653357
3.8067655601659753,10.282780082987664,-12.631886370890813,0.3331631024577427
3.8147629668049796,14.281483402489833,-23.09003351420418,1.5635333546122565
3.822760373443984,4.673087396265542,-30.163226141078873,8.06239626556016
3.830757780082988,4.403174922199148,-30.723044605809175,7.982422199170117
3.838755186721992,4.133262448132768,-31.28286307053944,7.902448132780079
3.8467525933609963,3.8633499740663746,-31.84268153526974,7.822474066390036
3.8547500000000006,3.5934374999999803,-32.40250000000004,7.7424999999999935
3.8627474066390044,3.323525025933601,-32.96231846473031,7.662525933609956
3.8707448132780087,3.0536125518672073,-33.52213692946061,7.582551867219913
3.878742219917013,2.783700077800813,-34.081955394190906,7.5025778008298705
3.8867396265560172,2.5137876037344187,-34.641773858921205,7.422603734439828
3.894737033195021,2.24387512966804,-35.201592323651475,7.342629668049789
3.9027344398340253,-4.718049792531618,-21.4300829875495,-0.6016597510379416
3.9107318464730296,-6.363111060684654,-13.640543417185313,-2.4368889393153466
3.9187292531120335,-6.438086747925314,-13.33231003630704,-2.3619132520746855
3.9267266597510377,-6.513062435165979,-13.024076655428752,-2.2869375648340204
3.934724066390042,-6.588038122406644,-12.715843274550462,-2.2119618775933554
3.942721473029046,-6.663013809647305,-12.40760989367219,-2.1369861903526948
3.95071887966805,-6.7379894968879706,-12.0993765127939,-2.0620105031120297
3.9587162863070544,-6.812965184128635,-11.791143131915609,-1.9870348158713647
3.9667136929460587,-6.887940871369301,-11.482909751037319,-1.9120591286306996
3.9747110995850625,-6.962916558609962,-11.174676370159048,-1.8370834413900385
3.982708506224067,-7.037892245850626,-10.866442989280758,-1.7621077541493735
3.990705912863071,-7.112867933091292,-10.558209608402468,-1.6871320669087084
3.998703319502075,-7.187843620331952,-10.249976227524195,-1.6121563796680478
4.006700726141079,-4.954745850622334,-6.435036307053952,0.07956431535257369
4.014698132780083,-3.368679114799445,-5.758238819732593,-1.194779852466574
4.022695539419088,-3.3153630705394135,-5.687150760719217,-1.1858938450899021
4.030692946058092,-3.2620470262793875,-5.61606270170585,-1.1770078377132314
4.038690352697096,-3.208730982019356,-5.544974642692475,-1.1681218303365595
4.0466877593361,-3.1554149377593306,-5.473886583679107,-1.1592358229598885
4.054685165975104,-3.1020988934993046,-5.40279852466574,-1.1503498155832175
4.062682572614109,-3.0487828492392732,-5.331710465652364,-1.1414638082065456
4.0706799792531125,-2.9954668049792477,-5.260622406638997,-1.1325778008298746
4.078677385892116,-2.9421507607192217,-5.18953434762563,-1.1236917934532038
4.086674792531121,-2.8888347164591903,-5.118446288612254,-1.114805786076532
4.094672199170125,-2.8355186721991648,-5.047358229598887,-1.105919778699861
4.102669605809129,-2.4,-4.667842323651528,-0.6651970954355901
4.1106670124481335,-1.7343162680009823,-3.4519572247986248,0.4137265072003929
4.118664419087137,-1.7931207285818922,-3.3696309799853505,0.43724829143275695
4.126661825726141,-1.8519251891628024,-3.2873047351720768,0.46077007566512096
4.134659232365146,-1.9107296497437192,-3.2049784903587932,0.48429185989748763
4.14265663900415,-1.9695341103246293,-3.122652245545519,0.5078136441298516
4.1506540456431535,-2.0283385709055395,-3.040326000732245,0.5313354283622157
4.158651452282158,-2.0871430314864563,-2.9579997559189617,0.5548572125945823
4.166648858921162,-2.145947492067366,-2.8756735111056875,0.5783789968269464
4.174646265560167,-2.1676867219916742,-3.0908195020749334,0.9231327800832596
4.182643672199171,-2.7643672199170646,-4.497240663900477,1.9986203319502387
4.1906410788381745,-1.3134270086759727,-16.944756695586573,11.04326480573369
4.198638485477179,-1.3788603357223748,-17.16286778574125,11.254105526216541
4.206635892116183,-1.4442936627687697,-17.3809788758959,11.464946246699368
4.214633298755187,-1.5097269898151644,-17.599089966050546,11.675786967182196
4.222630705394192,-1.5751603168615664,-17.81720105620522,11.886627687665047
4.230628112033195,-1.6405936439079614,-18.03531214635987,12.097468408147876
4.238625518672199,-1.706026970954356,-18.253423236514518,12.308309128630704
4.246622925311204,-1.771460298000758,-18.471534326669193,12.519149849113553
4.254620331950208,-1.836893625047153,-18.689645416823844,12.729990569596382
4.262617738589212,-1.902326952093548,-18.90775650697849,12.94083129007921
4.270615145228216,-1.96776027913995,-19.125867597133166,13.151672010562061
4.27861255186722,-2.033193606186345,-19.343978687287816,13.36251273104489
4.286609958506225,-2.098626933232747,-19.562089777442488,13.57335345152774
4.294607365145229,-2.1640602602791414,-19.780200867597138,13.784194172010567
4.302604771784233,-1.480770228215532,-22.327852697095146,9.109284232365047
4.310602178423237,1.2104726682302214,-18.959418410607892,7.996072749413667
4.318599585062241,1.349558001082461,-18.420462745805462,7.943915749594077
4.326596991701245,1.488643333934701,-17.881507081003033,7.891758749774487
4.33459439834025,1.6277286667869562,-17.342551416200546,7.839601749954891
4.342591804979254,1.7668139996391958,-16.803595751398117,7.787444750135301
4.350589211618257,1.9058993324914357,-16.264640086595687,7.735287750315711
4.358586618257262,2.0449846653436907,-15.725684421793197,7.683130750496116
4.366584024896266,2.184069998195931,-15.186728756990767,7.630973750676526
4.37458143153527,2.3231553310481705,-14.647773092188338,7.578816750856936
4.3825788381742745,2.4622406639004257,-14.10881742738585,7.52665975103734
4.390576244813278,2.6013259967526654,-13.569861762583422,7.47450275121775
4.398573651452283,2.740411329604921,-13.030906097780932,7.422345751398155
4.406571058091287,4.135658713693025,-7.42868257261395,4.121706431534876
4.414568464730291,4.815228215767635,-5.654315352697094,1.8898478561549097
4.4225658713692955,4.841886237897651,-5.574341286307047,1.872075841401566
4.430563278008299,4.868544260027663,-5.494367219917009,1.854303826648224
4.438560684647303,4.895202282157676,-5.414393153526969,1.8365318118948821
4.446558091286308,4.9218603042876925,-5.334419087136922,1.8187597971415381
4.454555497925312,4.948518326417705,-5.254445020746884,1.8009877823881963
4.4625529045643155,4.975176348547718,-5.1744709543568455,1.7832157676348543
4.47055031120332,5.0018343706777335,-5.094496887966798,1.7654437528815106
4.478547717842324,5.028492392807746,-5.01452282157676,1.7476717381281688
4.486545124481328,5.055150414937759,-4.934548755186721,1.7298997233748268
4.494542531120333,5.081808437067775,-4.854574688796673,1.712127708621483
4.5025399377593365,5.176996887966816,-4.276996887966815,1.9309906639004466
4.51053734439834,3.7144808863776815,-4.667577469762512,1.6951730378741063
4.518534751037345,3.740004524587271,-4.786687781407264,1.6866651584709096
4.526532157676349,3.765528162796858,-4.905798093052002,1.6781572790677142
4.534529564315354,3.791051801006448,-5.024908404696754,1.6696493996645174
4.542526970954357,3.8165754392160345,-5.144018716341494,1.661141520261322
4.550524377593361,3.842099077425621,-5.263129027986232,1.6526336408581264
4.558521784232366,3.867622715635211,-5.382239339630984,1.6441257614549298
4.56651919087137,3.8931463538447977,-5.5013496512757225,1.6356178820517342
4.574516597510374,3.918669992054385,-5.620459962920462,1.6271100026485386
4.582514004149378,3.944193630263974,-5.739570274565214,1.618602123245342
4.590511410788382,3.9697172684735613,-5.858680586209952,1.6100942438421464
4.598508817427386,3.995240906683148,-5.977790897854691,1.6015863644389507
4.606506224066391,4.289165514061817,-5.566251728907275,1.7445827570309083
4.614503630705395,4.375423582296006,-4.026270746888016,2.474697441217139
4.622501037344398,4.996278526970963,-5.713783713692956,2.1175051867219934
4.630498443983403,5.216207209543593,-5.973699429460609,2.157492219917017
4.638495850622407,5.436135892116198,-6.233615145228233,2.197479253112036
4.646493257261412,5.656064574688828,-6.493530860995887,2.23746628630706
4.6544906639004155,5.875993257261433,-6.753446576763511,2.277453319502079
4.662488070539419,6.095921939834039,-7.013362292531135,2.3174403526970977
4.670485477178424,6.315850622406668,-7.273278008298789,2.3574273858921213
4.678482883817428,6.535779304979273,-7.533193724066413,2.3974144190871405
4.686480290456432,6.755707987551878,-7.793109439834037,2.4374014522821597
4.6944776970954365,6.9756366701245085,-8.053025155601691,2.4773884854771833
4.70247510373444,10.73257261410815,-25.593153526973357,6.73257261410815
4.710472510373444,2.8086181480672545,-32.25875191089755,7.036552740773098
4.718469917012449,2.5981600786197614,-31.70314260755617,7.120735968552095
4.726467323651453,2.3877020091722914,-31.14753330421485,7.204919196331083
4.734464730290457,2.1772439397248213,-30.59192400087353,7.289102424110071
4.742462136929461,1.9667858702773282,-30.036314697532145,7.373285651889069
4.750459543568465,1.7563278008298584,-29.480705394190824,7.457468879668056
4.75845695020747,1.545869731382365,-28.925096090849443,7.541652107447054
4.766454356846474,1.3354116619348952,-28.369486787508123,7.625835335226042
4.7744517634854775,1.1249535924874254,-27.813877484166802,7.71001856300503
4.782449170124482,0.9144955230399321,-27.258268180825418,7.794201790784027
4.790446576763486,0.7040374535924623,-26.702658877484097,7.878385018563015
4.79844398340249,0.49357938414499225,-26.147049574142777,7.962568246342003
4.806441390041495,-2.0513744813275094,-12.52793049792528,3.2189574688791818
4.8144387966804985,-1.913275869444327,-10.374310219446441,1.746896522222692
4.822436203319502,-1.9297653676690771,-10.093988749625689,1.6809385293236916
4.830433609958507,-1.946254865893829,-9.813667279804907,1.6149805364246839
4.838431016597511,-1.962744364118579,-9.533345809984155,1.5490225435256835
4.846428423236515,-1.9792338623433292,-9.253024340163403,1.483064550626683
4.854425829875519,-1.995723360568081,-8.97270287034262,1.4171065577276751
4.862423236514523,-2.0122128587928314,-8.692381400521867,1.3511485648286747
4.870420643153527,-2.0287023570175813,-8.412059930701115,1.2851905719296743
4.878418049792532,-2.0451918552423334,-8.131738460880333,1.2192325790306666
4.886415456431536,-2.0616813534670837,-7.8514169910595815,1.1532745861316662
4.89441286307054,-2.0781708516918354,-7.571095521238799,1.0873165932326585
4.902410269709544,-2.0946603499165857,-7.2907740514180475,1.021358600333658
4.910407676348548,-1.3961618257259467,-0.6815352697096213,-0.09616182572594667
4.918405082987553,-1.092037545174674,-0.7681501806986961,0.19203754517467403
4.926402489626557,-1.0834381831972506,-0.7337527327890022,0.18343818319725055
4.93439989626556,-1.0748388212198272,-0.6993552848793083,0.17483882121982708
4.942397302904565,-1.0662394592424027,-0.6649578369696105,0.16623945924240263
4.950394709543569,-1.057640097264979,-0.6305603890599166,0.15764009726497916
4.958392116182573,-1.0490407352875557,-0.5961629411502227,0.14904073528755568
4.9663895228215775,-1.0404413733101312,-0.5617654932405249,0.14044137331013123
4.974386929460581,-1.0318420113327078,-0.527368045330831,0.13184201133270776
4.982384336099585,-1.0232426493552842,-0.4929705974211371,0.12324264935528427
4.99038174273859,-1.01464328737786,-0.45857314951143935,0.11464328737785984
4.998379149377594,-1.0060439254004363,-0.42417570160174545,0.10604392540043636
5.0063765560165985,-1.1117219917007704,-0.2870331950204622,-1.8271784232378432
5.014373962655602,-4.041700662035533,-4.5393444915846795,-3.0331973518578685
5.022371369294606,-4.140545013753559,-4.395570889085733,-2.6378199449857664
5.030368775933611,-4.239389365471594,-4.251797286586771,-2.242442538113621
5.038366182572615,-4.33823371718962,-4.108023684087825,-1.8470651312415192
5.0463635892116185,-4.4370780689076454,-3.9642500815888786,-1.4516877243694173
5.054360995850623,-4.535922420625682,-3.8204764790899164,-1.0563103174972714
5.062358402489627,-4.634766772343707,-3.6767028765909706,-0.6609329106251698
5.070355809128631,-4.733611124061733,-3.5329292740920244,-0.26555550375306813
5.078353215767636,-4.832455475779769,-3.3891556715930626,0.12982190311907793
5.0863506224066395,-4.931299827497795,-3.2453820690941164,0.5251993099911796
5.094348029045643,-5.03014417921582,-3.10160846659517,0.9205767168632812
5.102345435684648,-10.403630705394464,-14.152645228219733,17.147199170128037
5.110342842323652,-8.617168049791529,-23.71996887966929,21.52002074688714
5.118340248962657,-7.161853699473114,-24.95979299734251,20.294843582451346
5.12633765560166,-6.793433843069568,-24.807033544687382,19.96236712667254
5.134335062240664,-6.4250139866660225,-24.654274092032253,19.62989067089373
5.142332468879669,-6.056594130262436,-24.501514639377106,19.29741421511488
5.150329875518673,-5.688174273858889,-24.348755186721977,18.96493775933607
5.158327282157677,-5.319754417455345,-24.195995734066848,18.63246130355726
5.166324688796681,-4.951334561051757,-24.043236281411705,18.299984847778415
5.174322095435685,-4.582914704648212,-23.890476828756576,17.967508391999605
5.182319502074689,-4.214494848244666,-23.737717376101447,17.635031936220795
5.190316908713694,-3.8460749918410797,-23.5849579234463,17.30255548044195
5.198314315352698,-3.4776551354375336,-23.43219847079117,16.97007902466314
5.2063117219917014,3.693516597510393,-14.496828689982182,10.969931831653799
5.214309128630706,6.634504220918601,-9.133645729002689,5.796487337244196
5.22230653526971,6.754005699432451,-8.903835193399132,5.4379829017026475
5.230303941908714,6.8735071779463,-8.674024657795576,5.079478466161099
5.238301348547719,6.993008656460163,-8.444214122191994,4.7209740306195105
5.246298755186722,7.112510134974013,-8.214403586588436,4.362469595077961
5.254296161825727,7.232011613487876,-7.984593050984854,4.003965159536373
5.262293568464731,7.351513092001725,-7.754782515381297,3.6454607239948245
5.270290975103735,7.471014570515575,-7.524971979777741,3.286956288453276
5.2782883817427395,7.590516049029437,-7.295161444174158,2.9284518529116874
5.286285788381743,7.710017527543288,-7.065350908570601,2.569947417370139
5.294283195020747,7.8295190060571365,-6.835540372967045,2.2114429818285903
5.302280601659752,9.064030082987594,-3.4352178423225475,0.32806016597518867
5.310278008298756,7.76457468879667,1.341701244813319,0.5822873443983351
5.31827541493776,7.464671939834027,2.541312240663893,0.43233596991701334
5.326272821576764,7.3920597195230835,2.8635222438153316,0.368238878092334
5.334270228215768,7.381936419980041,2.9445086401596745,0.32774567992016257
5.342267634854772,7.371813120436998,3.025495036504018,0.2872524817479911
5.350265041493777,7.361689820893954,3.1064814328483696,0.2467592835758152
5.3582624481327805,7.351566521350911,3.1874678291927125,0.20626608540364375
5.366259854771785,7.341443221807867,3.2684542255370643,0.1657728872314678
5.374257261410789,7.331319922264824,3.3494406218814072,0.12527968905929632
5.382254668049793,7.321196622721781,3.43042701822575,0.08478649088712487
5.390252074688798,7.3110733231787375,3.511413414570102,0.04429329271494892
5.3982494813278015,7.300950023635695,3.5923998109144453,0.0038000945427774657
5.406246887966805,2.998672645339755,-0.9079641279614713,1.605840360505079
5.41424429460581,2.9556758354526327,-1.1659449872842043,1.7950263240084166
5.422241701244814,2.9126790255655153,-1.4239258466069087,1.9842122875117332
5.430239107883818,2.869682215678398,-1.681906705929613,2.17339825101505
5.438236514522822,2.8266854057912756,-1.939887565252346,2.362584214518387
5.446233921161826,2.783688595904158,-2.1978684245750504,2.551770178021704
5.45423132780083,2.7406917860170408,-2.455849283897755,2.7409561415250203
5.462228734439835,2.6976949761299185,-2.713830143220488,2.9301421050283576
5.470226141078839,2.654698166242801,-2.971811002543192,3.1193280685316744
5.4782235477178425,2.6117013563556837,-3.2297918618658965,3.3085140320349913
5.486220954356847,2.568704546468562,-3.48777272118863,3.4976999955383286
5.494218360995851,2.5257077365814444,-3.7457535805113342,3.686885959041645
5.502215767634856,11.092531120335568,-23.536099585070033,11.81390041493945
5.51021317427386,-1.0014976659762809,-39.177664678423255,15.272095435683983
5.518210580912863,-3.0570491725092,-38.67174369246906,13.821654266227835
5.526207987551868,-3.2592824438403523,-37.99150450708245,13.334455930748241
5.534205394190872,-3.4615157151714824,-37.31126532169593,12.847257595268701
5.542202800829876,-3.663748986502612,-36.631026136309394,12.36005925978916
5.5502002074688805,-3.8659822578337644,-35.95078695092279,11.872860924309567
5.558197614107884,-4.0682155291648945,-35.270547765536264,11.385662588830026
5.566195020746888,-4.270448800496024,-34.59030858014974,10.898464253350486
5.574192427385893,-4.472682071827177,-33.910069394763134,10.411265917870892
5.582189834024897,-4.674915343158307,-33.2298302093766,9.924067582391352
5.590187240663901,-4.877148614489437,-32.549591023990075,9.436869246911812
5.598184647302905,-5.079381885820589,-31.86935183860347,8.949670911432216
5.606182053941909,-2.5452541493770884,-9.745124481326968,5.118075726140812
5.614179460580914,-1.0203718480689479,-7.09814075965526,4.170978295563329
5.622176867219918,-1.0467369249008287,-6.966315375495856,4.003999475628085
5.6301742738589216,-1.0731020017327095,-6.834489991336453,3.8370206556928403
5.638171680497926,-1.099467078564593,-6.702664607177035,3.6700418357575773
5.64616908713693,-1.1258321553964739,-6.570839223017631,3.503063015822333
5.654166493775934,-1.1521972322283545,-6.439013838858227,3.3360841958870884
5.662163900414939,-1.1785623090602382,-6.307188454698809,3.1691053759518253
5.6701613070539425,-1.2049273858921188,-6.175363070539406,3.002126556016581
5.678158713692946,-1.2312924627239996,-6.043537686380002,2.835147736081336
5.686156120331951,-1.2576575395558833,-5.911712302220584,2.668168916146073
5.694153526970955,-1.284022616387764,-5.77988691806118,2.5011900962108284
5.702150933609959,-0.9120746887967018,-2.5758506224065965,0.8969813278008245
5.7101483402489634,-1.5518672199170933,-1.2962655601658135,0.7370331950207266
5.718145746887967,-2.376032157676384,0.1676919087137536,0.3312551867219724
5.726143153526972,-2.832284313197181,0.98609150185915,0.051573530204228175
5.734140560165976,-2.894601767527081,1.1522713800722166,-0.0419026512906219
5.74213796680498,-2.9569192218569813,1.3184512582852836,-0.13537883278547194
5.750135373443984,-3.019236676186888,1.4846311364983689,-0.22885501428033242
5.758132780082988,-3.081554130516788,1.6508110147114357,-0.32233119577518243
5.766130186721992,-3.1438715848466883,1.8169908929245024,-0.4158073772700326
5.774127593360997,-3.206189039176595,1.9831707711375879,-0.509283558764893
5.782125000000001,-3.268506493506495,2.1493506493506547,-0.6027597402597431
5.7901224066390045,-3.3308239478363952,2.3155305275637215,-0.6962359217545931
5.798119813278009,-3.393141402166302,2.4817104057768065,-0.7897121032494535
5.806117219917013,-3.541390041493536,0.7117219917012928,-1.8531120331948288
5.814114626556017,-4.2124537184806945,1.0898388126396397,-0.5685253750398971
5.822112033195022,-4.544653686562432,0.9175869773379981,-0.5193105649537137
5.830109439834025,-4.876853654644132,0.7453351420363759,-0.47009575486753596
5.838106846473029,-5.209053622725833,0.5730833067347534,-0.4208809447813581
5.846104253112034,-5.54125359080757,0.40083147143311193,-0.37166613469517484
5.854101659751038,-5.8734535588892705,0.22857963613148957,-0.32245132460899706
5.8620990663900425,-6.205653526971007,0.05632780082984801,-0.2732365145228138
5.870096473029046,-6.537853495052708,-0.11592403447177424,-0.22402170443663594
5.87809387966805,-8.962448132779787,-22.278786307057718,14.415923236516226
5.886091286307055,-9.34334503670601,-35.12167251835301,13.069539312692834
5.894088692946059,-9.097270986275122,-34.99863549313756,13.021691580664607
5.902086099585063,-8.851196935844236,-34.87559846792212,12.97384384863638
5.910083506224067,-8.605122885413321,-34.752561442706664,12.925996116608145
5.918080912863071,-8.359048834982433,-34.62952441749122,12.878148384579918
5.926078319502075,-8.112974784551547,-34.50648739227577,12.83030065255169
5.93407572614108,-7.866900734120632,-34.38345036706032,12.782452920523456
5.9420731327800835,-7.620826683689745,-34.260413341844874,12.734605188495228
5.950070539419087,-7.374752633258858,-34.13737631662943,12.686757456467
5.958067946058092,-7.128678582827943,-34.01433929141397,12.638909724438767
5.966065352697096,-6.882604532397055,-33.89130226619853,12.59106199241054
5.974062759336101,-6.636530481966141,-33.76826524098307,12.543214260382305
5.9820601659751045,-6.390456431535254,-33.645228215767624,12.495366528354078
5.990057572614108,-6.144382381104367,-33.522191190552185,12.447518796325848
5.998054979253113,-5.8065352697081565,-32.77323651451351,12.41099585062257
6.006052385892117,2.1498348717080287,-10.940821089846716,8.243935769328468
6.014049792531121,2.2804047760182957,-10.785769328478274,8.097044626979418
6.022047199170125,2.410974680328577,-10.630717567109814,7.950153484630351
6.030044605809129,2.541544584638844,-10.475665805741373,7.803262342281301
6.038042012448133,2.672114488949111,-10.320614044372931,7.65637119993225
6.046039419087138,2.8026843932593923,-10.165562283004471,7.509480057583184
6.054036825726142,2.933254297569659,-10.01051052163603,7.362588915234134
6.0620342323651455,3.063824201879926,-9.855458760267588,7.2156977728850835
6.07003163900415,3.1943941061902072,-9.70040699889913,7.068806630536017
6.078029045643154,3.324964010500474,-9.545355237530687,6.921915488186967
6.086026452282159,3.4555339148107556,-9.390303476162227,6.7750243458379
6.094023858921163,3.586103819121022,-9.235251714793787,6.62813320348885
6.102021265560166,3.8361687413555234,-8.844683609958393,6.2957468879667156
6.110018672199171,5.798692946058041,-3.2968257261409564,3.7990663900414576
6.118016078838175,5.23887448132776,-1.9372665975102756,3.3991960580912575
6.126013485477179,3.863513768389282,-0.23223985558009566,2.1218152179770335
6.1340108921161836,3.7908100716710575,-0.09721870453196388,1.9660215821522662
6.142008298755187,3.718106374952841,0.03780244651615289,1.8102279463275162
6.150005705394191,3.6454026782346243,0.17282359756426968,1.654434310502766
6.158003112033196,3.572698981516399,0.30784474861240146,1.4986406746779986
6.1660005186722,3.4999952847981826,0.4428658996605182,1.3428470388532485
6.173997925311204,3.427291588079966,0.5778870507086351,1.1870534030284983
6.181995331950208,3.3545878913617413,0.7129082017567667,1.031259767203731
6.189992738589212,3.2818841946435247,0.8479293528048835,0.8754661313789807
6.197990145228216,3.209180497925308,0.9829505038530002,0.7196724955542306
6.205987551867221,3.9981327800830493,1.2093360995847526,0.8962655601660989
6.213984958506225,4.008585976888413,1.08838230045063,0.9171719537768261
6.221982365145229,4.017185338865837,0.9765905947441123,0.934370677731675
6.229979771784233,4.025784700843261,0.864798889037607,0.951569401686522
6.237977178423237,4.034384062820684,0.7530071833311017,0.9687681256413689
6.245974585062242,4.042983424798109,0.6412154776245841,0.9859668495962178
6.2539719917012455,4.0515827867755325,0.5294237719180788,1.0031655735510647
6.261969398340249,4.060182148752956,0.41763206621157356,1.0203642975059117
6.269966804979254,4.06878151073038,0.3058403605050559,1.0375630214607607
6.277964211618258,4.077380872707804,0.1940486547985507,1.0547617454156075
6.285961618257262,4.085980234685227,0.08225694909204528,1.0719604693704545
6.2939590248962665,4.094579596662651,-0.029534756614472357,1.0891591933253035
6.30195643153527,5.63464730290537,-8.182053941912017,2.317323651452685
6.309953838174274,5.828090282425351,-38.24251438897069,15.836410788381729
6.317951244813279,4.873561102931239,-38.32850800874493,15.303250345781414
6.325948651452283,3.9190319234372324,-38.41450162851917,14.770089903181159
6.333946058091287,2.96450274394312,-38.50049524829342,14.236929460580843
6.341943464730291,2.0099735644491137,-38.58648886806765,13.703769017980587
6.349940871369295,1.0554443849551074,-38.67248248784188,13.170608575380331
6.3579382780083,0.10091520546099542,-38.75847610761613,12.637448132780015
6.365935684647304,-0.8536139740330109,-38.84446972739036,12.10428769017976
6.3739330912863075,-1.8081431535270172,-38.9304633471646,11.571127247579504
6.381930497925312,-2.76267233302113,-39.01645696693884,11.037966804979188
6.389927904564316,-3.7172015125151363,-39.102450586713076,10.504806362378933
6.39792531120332,-4.671730692009143,-39.18844420648731,9.971645919778677
6.405922717842325,-3.1911654674671075,-6.604908073629384,0.7921470821929844
6.413920124481328,-3.114594552838347,-6.647447470645362,0.7240840469674193
6.421917531120332,-3.0380236382095864,-6.68998686766134,0.6560210117418543
6.429914937759337,-2.961452723580817,-6.732526264677324,0.5879579765162819
6.437912344398341,-2.8848818089520565,-6.775065661693302,0.5198949412907169
6.4459097510373455,-2.8083108943232875,-6.817605058709284,0.45183190606514434
6.453907157676349,-2.731739979694527,-6.860144455725263,0.3837688708395794
6.461904564315353,-2.655169065065766,-6.902683852741241,0.3157058356140144
6.469901970954358,-2.578598150436997,-6.945223249757223,0.24764280038844189
6.477899377593362,-2.5020272358082365,-6.987762646773201,0.17957976516287688
6.485896784232366,-2.425456321179476,-7.030302043789179,0.11151672993731188
6.49389419087137,-2.3488854065507065,-7.0728414408051625,0.04345369471173943
6.501891597510374,-2.1792531120332335,-5.322614107883683,0.5495331950207708
6.509889004149378,-2.890133702166951,-2.834532042415672,0.9938335638543442
6.517886410788383,-3.172977178423171,-1.0421680497924393,0.17676348547707355
6.5258838174273865,-3.0061820473764387,-0.769089763117806,-0.13091023688219403
6.53388122406639,-3.0163053469194816,-0.7184732654025917,-0.18152673459740834
6.541878630705395,-3.026428646462526,-0.6678567676873718,-0.23214323231262826
6.549876037344399,-3.0365519460055683,-0.6172402699721575,-0.2827597300278426
6.557873443983403,-3.0466752455486112,-0.5666237722569432,-0.33337622774305686
6.5658708506224075,-3.0567985450916555,-0.5160072745417232,-0.3839927254582768
6.573868257261411,-3.0669218446346984,-0.4653907768265089,-0.43460922317349115
6.581865663900416,-3.077045144177742,-0.41477427911128895,-0.4852257208887111
6.58986307053942,-3.087168443720785,-0.36415778139607463,-0.5358422186039254
6.597860477178424,-3.097291743263828,-0.31354128368086037,-0.5864587163191397
6.6058578838174284,-3.243153526971397,-1.5152489626570413,0.7152489626570414
6.613855290456432,-3.2915534511221156,-1.9618430152144135,1.2378619551153724
6.621852697095436,-3.2829540891446922,-2.2284232365145415,1.5818364342123117
6.629850103734441,-3.2743547271672675,-2.495003457814699,1.9258109133092889
6.637847510373445,-3.265755365189844,-2.761583679114827,2.269785392406228
6.6458449170124485,-3.2571560032124207,-3.0281639004149548,2.6137598715031674
6.653842323651453,-3.2485566412349964,-3.2947441217151123,2.957734350600145
6.661839730290457,-3.239957279257573,-3.56132434301524,3.301708829697084
6.669837136929461,-3.2313579172801496,-3.827904564315368,3.6456833087940232
6.677834543568466,-3.222758555302725,-4.094484785615526,3.9896577878910007
6.6858319502074695,-3.2141591933253015,-4.361065006915654,4.33363226698794
6.693829356846474,-3.2055598313478773,-4.627645228215811,4.677606746084917
6.701826763485478,-4.208137390502404,-8.815479483633887,8.229656523743987
6.709824170124482,-3.3195366528353456,-14.769104426003183,10.451158367911635
6.717821576763487,0.16294361728094847,-23.25163290212348,13.4460483280449
6.72581898340249,0.2946656089821882,-22.94114535025627,13.333143763729552
6.733816390041494,0.42638760068342785,-22.630657798389063,13.220239199414205
6.741813796680499,0.5581095923846822,-22.32017024652182,13.107334635098844
6.749811203319503,0.6898315840859218,-22.00968269465461,12.994430070783496
6.757808609958507,0.8215535757871615,-21.699195142787406,12.881525506468147
6.765806016597511,0.9532755674884157,-21.388707590920163,12.768620942152786
6.773803423236515,1.0849975591896555,-21.078220039052955,12.65571637783744
6.781800829875519,1.2167195508908952,-20.767732487185746,12.542811813522091
6.789798236514524,1.3484415425921494,-20.457244935318506,12.42990724920673
6.797795643153528,1.4801635342933892,-20.1467573834513,12.317002684891381
6.805793049792532,5.568957468879834,-10.355212655600829,6.293127593360497
6.813790456431536,5.616753669745239,-9.965448623566655,6.107854816401186
6.82178786307054,5.633952393700086,-9.724666488198798,6.013261834649528
6.829785269709545,5.651151117654934,-9.483884352830913,5.918668852897859
6.8377826763485485,5.668349841609781,-9.243102217463056,5.824075871146201
6.845780082987552,5.685548565564629,-9.0023200820952,5.729482889394542
6.853777489626557,5.702747289519477,-8.761537946727314,5.634889907642874
6.861774896265561,5.719946013474324,-8.520755811359457,5.540296925891215
6.869772302904565,5.737144737429171,-8.279973675991599,5.445703944139557
6.8777697095435695,5.75434346138402,-8.039191540623715,5.351110962387888
6.885767116182573,5.771542185338867,-7.798409405255859,5.25651798063623
6.893764522821577,5.788740909293714,-7.557627269888001,5.1619249988845715
6.901761929460582,5.855238589211638,-6.654279045642886,4.685710580912714
6.909759336099586,6.0,-4.5709128630703955,3.546846473028986
6.9177567427385895,6.0,-3.2113537344397143,2.9870280082987057
6.925754149377594,5.6228911547414295,-2.2228911547414305,1.3450612286205674
6.933751556016598,5.671655829369502,-2.271655829369503,1.228026009513194
6.941748962655603,5.7204205039975795,-2.3204205039975805,1.1109907904058076
6.949746369294607,5.769185178625652,-2.3691851786256524,0.9939555712984343
6.9577437759336105,5.817949853253724,-2.4179498532537247,0.8769203521910608
6.965741182572615,5.866714527881802,-2.4667145278818023,0.7598851330836744
6.973738589211619,5.915479202509874,-2.5154792025098747,0.642849913976301
6.981735995850623,5.964243877137946,-2.564243877137947,0.5258146948689276
6.989733402489628,6.013008551766024,-2.6130085517660246,0.4087794757615413
6.997730809128631,6.061773226394096,-2.661773226394097,0.2917442566541679
7.005728215767635,5.84076763485473,-1.9223029045641904,-0.9233402489628366
7.01372562240664,2.456637825348911,-3.996016243870268,2.2092918945680906
7.021723029045644,2.329406356092032,-4.277743068653358,2.236555780837422
7.029720435684648,2.202174886835153,-4.559469893436447,2.263819667106753
7.037717842323652,2.0749434175782597,-4.841196718219567,2.291083553376087
7.045715248962656,1.947711948321381,-5.122923543002657,2.3183474396454185
7.053712655601661,1.8204804790644875,-5.404650367785777,2.345611325914753
7.061710062240665,1.6932490098076085,-5.686377192568867,2.372875212184084
7.069707468879669,1.5660175405507295,-5.968104017351957,2.400139098453415
7.077704875518673,1.4387860712938363,-6.2498308421350774,2.4274029847227494
7.085702282157677,1.3115546020369573,-6.531557666918166,2.4546668709920807
7.093699688796681,1.184323132780078,-6.813284491701255,2.481930757261412
7.101697095435686,3.4307053941936427,-23.537759336109197,-0.48215767635088636
7.10969450207469,-6.875905421252024,-34.31165321125742,3.759842368753373
7.117691908713693,-6.823748421432434,-34.12041087858559,3.6729140357207233
7.125689315352698,-6.771591421612839,-33.92916854591374,3.5859857026880637
7.133686721991702,-6.719434421793249,-33.73792621324191,3.4990573696554135
7.141684128630706,-6.667277421973658,-33.54668388057008,3.4121290366227637
7.1496815352697105,-6.615120422154063,-33.35544154789823,3.325200703590104
7.157678941908714,-6.562963422334473,-33.164199215226404,3.2382723705574543
7.165676348547718,-6.510806422514883,-32.97295688255457,3.1513440375248045
7.173673755186723,-6.458649422695287,-32.78171454988272,3.064415704492145
7.181671161825727,-6.406492422875697,-32.590472217210895,2.977487371459495
7.1896685684647315,-6.354335423056101,-32.39922988453904,2.8905590384268356
7.197665975103735,-6.302178423236511,-32.20798755186721,2.803630705394186
7.205663381742739,-3.3667077282157645,-11.163933372233744,-0.013871779910098086
7.213660788381744,-3.2667401452282054,-11.055635157330556,-0.055524939488247646
7.221658195020748,-3.166772562240658,-10.947336942427379,-0.09717809906639258
7.2296556016597515,-3.06680497925311,-10.839038727524201,-0.13883125864453752
7.237653008298756,-2.966837396265551,-10.730740512621013,-0.18048441822268707
7.24565041493776,-2.866869813278003,-10.622442297717836,-0.22213757780083201
7.253647821576764,-2.766902230290455,-10.51414408281466,-0.26379073737897696
7.261645228215769,-2.6669346473028965,-10.405845867911472,-0.3054438969571265
7.2696426348547725,-2.5669670643153486,-10.297547653008294,-0.34709705653527145
7.277640041493776,-2.466999481327801,-10.189249438105117,-0.38875021611341637
7.285637448132781,-2.367031898340242,-10.080951223201929,-0.43040337569156595
7.293634854771785,-2.267064315352694,-9.972653008298753,-0.47205653526971086
7.30163226141079,-1.936773858921074,-9.215612033194793,-0.6052904564315704
7.309629668049793,-1.4518672199174407,-5.725829875515996,-0.8370331950206399
7.317627074688797,-1.010760638811157,-3.5569574447553722,-0.689239361188843
7.325624481327802,-1.0293592589018656,-3.4825629643925375,-0.6706407410981343
7.333621887966806,-1.047957878992572,-3.4081684840297117,-0.6520421210074279
7.34161929460581,-1.0665564990832785,-3.3337740036668855,-0.6334435009167213
7.349616701244814,-1.0851551191739872,-3.259379523304051,-0.6148448808260127
7.357614107883818,-1.1037537392646937,-3.184985042941225,-0.5962462607353062
7.365611514522822,-1.1223523593554003,-3.1105905625783987,-0.5776476406445997
7.373608921161827,-1.1409509794461088,-3.0361960822155645,-0.5590490205538912
7.381606327800831,-1.1595495995368155,-2.961801601852738,-0.5404504004631846
7.389603734439834,-1.178148219627522,-2.887407121489912,-0.521851780372478
7.397601141078839,-1.1967468397182306,-2.8130126411270777,-0.5032531602817695
7.405598547717843,-1.4808393845089867,-2.3616787690179737,-0.3
7.413595954356848,-1.4475168568464671,-2.295033713692934,-0.3
7.4215933609958515,-1.4141943291839512,-2.2283886583679027,-0.3
7.429590767634855,-0.10082051060396544,-2.1032820424158616,-0.49835897879206914
7.43758817427386,-0.11192801982480531,-2.1477120792992213,-0.4761439603503894
7.445585580912864,-0.12303552904564397,-2.192142116182576,-0.4539289419087121
7.453582987551868,-0.1341430382664826,-2.2365721530659304,-0.4317139234670348
7.4615803941908725,-0.1452505474873225,-2.28100218994929,-0.409498905025355
7.469577800829876,-0.15635805670816114,-2.3254322268326444,-0.38728388658367774
7.47757520746888,-0.1674655659289998,-2.369862263715999,-0.36506886814200046
7.485572614107885,-0.17857307514983967,-2.414292300599359,-0.3428538497003206
7.493570020746889,-0.1896805843706783,-2.458722337482713,-0.32063883125864334
7.5015674273858926,-0.15460580912862174,-2.761016597510425,-0.20921161825724344
7.509564834024897,-1.0778008298769262,-8.895383817428206,4.647251037346157
7.517562240663901,-3.2447425499811433,-11.841684741606953,7.152199641644667
7.525559647302905,-3.2992703225198055,-12.014356021312716,7.215815376273106
7.53355705394191,-3.3537980950584743,-12.187027301018501,7.279431110901553
7.5415544605809135,-3.4083258675971364,-12.359698580724265,7.343046845529992
7.549551867219918,-3.4628536401358048,-12.532369860430048,7.406662580158439
7.557549273858922,-3.5173814126744674,-12.705041140135814,7.470278314786879
7.565546680497926,-3.57190918521313,-12.877712419841577,7.533894049415318
7.573544087136931,-3.6264369577517983,-13.05038369954736,7.597509784043765
7.5815414937759344,-3.680964730290461,-13.223054979253126,7.661125518672204
7.589538900414938,-3.735492502829123,-13.39572625895889,7.724741253300643
7.597536307053943,-3.790020275367792,-13.568397538664673,7.78835698792909
7.605533713692947,-3.2595435684637,-18.913485477178767,11.06320020746858
7.613531120331951,-2.44896265560164,-18.94613840182036,10.74613840182036
7.621528526970955,-2.1823824343014824,-18.7827505242493,10.582750524249295
7.629525933609959,-1.9158022130013546,-18.61936264667825,10.41936264667825
7.637523340248963,-1.6492219917012267,-18.455974769107204,10.255974769107203
7.645520746887968,-1.3826417704010692,-18.29258689153614,10.09258689153614
7.653518153526972,-1.1160615491009414,-18.129199013965092,9.929199013965093
7.661515560165976,-0.8494813278007838,-17.96581113639403,9.765811136394028
7.66951296680498,-0.582901106500656,-17.802423258822984,9.602423258822983
7.677510373443984,-0.31632088520052815,-17.639035381251936,9.439035381251937
7.685507780082989,-0.049740663900370574,-17.47564750368087,9.275647503680872
7.693505186721993,0.21683955739975724,-17.312259626109824,9.112259626109825
7.701502593360996,2.3884725103737727,-14.648703319501637,7.7869164937757365
7.709500000000001,4.471428571428603,-10.349999999999676,4.821428571428279
7.717497406639005,4.608229192091775,-8.901249694898695,3.5259372711740213
7.725494813278009,4.6270466194776665,-8.675440566267998,3.356580424700999
7.7334922199170135,4.64586404686356,-8.449631437637276,3.1872235782279574
7.741489626556017,4.664681474249451,-8.22382230900658,3.017866731754935
7.749487033195021,4.6834989016353425,-7.998013180375883,2.8485098852819126
7.757484439834026,4.702316329021237,-7.772204051745161,2.679153038808871
7.76548184647303,4.721133756407128,-7.546394923114465,2.509796192335849
7.7734792531120345,4.739951183793021,-7.320585794483743,2.3404393458628077
7.781476659751038,4.758768611178913,-7.094776665853047,2.1710824993897853
7.789474066390042,4.777586038564804,-6.86896753722235,2.001725652916763
7.797471473029047,4.796403465950697,-6.643158408591628,1.8323688064437216
7.805468879668051,6.697007151054994,-2.497007151054994,1.0039904652600082
7.8134662863070545,6.645959874635821,-2.4459598746358204,1.0720535004855727
7.821463692946059,6.594912598216641,-2.3949125982166417,1.1401165357111447
7.829461099585063,6.543865321797468,-2.3438653217974683,1.208179570936709
7.837458506224067,6.492818045378295,-2.292818045378295,1.2762426061622731
7.845455912863072,6.441770768959116,-2.241770768959116,1.3443056413878451
7.8534533195020755,6.3907234925399425,-2.190723492539943,1.4123686766134096
7.861450726141079,6.339676216120769,-2.13967621612077,1.4804317118389738
7.869448132780084,6.28862893970159,-2.0886289397015907,1.5484947470645456
7.877445539419088,6.237581663282417,-2.0375816632824173,1.61655778229011
7.885442946058092,6.186534386863244,-1.9865343868632444,1.6846208175156745
7.893440352697096,6.135487110444065,-1.9354871104440652,1.7526838527412463
7.9014377593361,5.03734439833981,-1.6124481327799367,1.5248962655598735
7.909435165975105,5.133027831729503,-5.150067868809098,2.6330278317295037
7.917432572614109,5.192582987551873,-5.600985477178467,2.692582987551873
7.925429979253113,5.252138143374242,-6.051903085547835,2.7521381433742422
7.933427385892117,5.311693299196618,-6.502820693917252,2.811693299196618
7.941424792531121,5.371248455018987,-6.95373830228662,2.8712484550189874
7.949422199170125,5.430803610841357,-7.404655910655988,2.930803610841357
7.95741960580913,5.490358766663733,-7.8555735190254055,2.990358766663733
7.965417012448134,5.549913922486102,-8.306491127394773,3.0499139224861023
7.973414419087137,5.6094690783084715,-8.757408735764141,3.1094690783084715
7.981411825726142,5.669024234130847,-9.20832634413356,3.1690242341308474
7.989409232365146,5.728579389953216,-9.659243952502926,3.2285793899532167
7.99740663900415,5.788134545775586,-10.110161560872296,3.288134545775586
8.005404045643154,-4.571919087136917,-33.329491701244436,6.424341286306804
8.013401452282158,-4.4119709543568195,-28.3710995850614,3.1454045643147985
8.021398858921163,-4.259069353882597,-27.233689611736622,2.847151007705974
8.029396265560166,-4.106737798853972,-26.405386781268476,2.7900266745702393
8.03739367219917,-3.954406243825314,-25.577083950800144,2.7329023414344924
8.045391078838176,-3.8020746887966546,-24.74878112033181,2.6757780082987455
8.053388485477178,-3.6497431337680295,-23.920478289863663,2.618653675163011
8.061385892116183,-3.4974115787393707,-23.092175459395328,2.561529342027264
8.069383298755188,-3.345080023710712,-22.263872628926997,2.504405008891517
8.077380705394193,-3.192748468682053,-21.435569798458666,2.4472806757557697
8.085378112033196,-3.040416913653428,-20.607266967990515,2.3901563426200356
8.0933755186722,-2.8880853586247692,-19.778964137522184,2.3330320094842882
8.101372925311205,-2.743784578146581,-16.99516770400983,2.018922890732906
8.109370331950208,-0.48890041493754754,-8.770435684646102,0.48890041493754754
8.117367738589213,-0.3,-7.473300351101134,0.2433250877752834
8.125365145228217,-0.3,-7.227226300670222,0.1818065751675555
8.13336255186722,-0.3,-6.981152250239365,0.12028806255984126
8.141359958506225,-0.3,-6.735078199808454,0.058769549952113365
8.14935736514523,-0.3,-6.489004149377542,-0.0027489626556145286
8.157354771784233,-0.3,-6.242930098946685,-0.06426747526332877
8.165352178423237,-0.3,-5.996856048515774,-0.12578598787105666
8.173349585062242,-0.3,-5.750781998084862,-0.18730450047878455
8.181346991701245,-0.3,-5.504707947654005,-0.24882301308649885
8.18934439834025,-0.3,-5.258633897223094,-0.31034152569422674
8.197341804979255,-0.3,-5.012559846792182,-0.37186003830195463
8.205339211618258,-2.6374481327803476,-0.06343360995829839,-2.1678423236515276
8.213336618257262,-3.403540330692821,1.3035403306928213,-2.8964596693071787
8.221334024896267,-3.4156576134791923,1.3156576134791922,-2.8843423865208075
8.22933143153527,-3.4277748962655603,1.3277748962655604,-2.8722251037344395
8.237328838174275,-3.4398921790519315,1.3398921790519314,-2.8601078209480684
8.24532624481328,-3.4520094618383026,1.3520094618383025,-2.8479905381616972
8.253323651452282,-3.4641267446246706,1.3641267446246708,-2.835873255375329
8.261321058091287,-3.4762440274110418,1.3762440274110417,-2.823755972588958
8.269318464730292,-3.488361310197413,1.3883613101974126,-2.811638689802587
8.277315871369295,-3.5315871369295344,1.1473029045637237,-2.7210321576761634
8.2853132780083,-11.201457107015345,-9.83254205667605,6.7179709865225945
8.293310684647304,-11.238654347196762,-10.663280420727705,7.176736948760077
8.301308091286307,-11.275851587378172,-11.494018784779177,7.635502910997456
8.309305497925312,-11.313048827559589,-12.324757148830834,8.094268873234938
8.317302904564317,-11.350246067741006,-13.155495512882489,8.55303483547242
8.325300311203321,-11.387443307922425,-13.986233876934147,9.0118007977099
8.333297717842324,-11.424640548103833,-14.816972240985617,9.470566759947282
8.341295124481329,-11.461837788285251,-15.647710605037274,9.929332722184764
8.349292531120334,-11.499035028466668,-16.47844896908893,10.388098684422244
8.357289937759337,-11.536232268648078,-17.3091873331404,10.846864646659625
8.365287344398341,-11.573429508829495,-18.139925697192055,11.305630608897108
8.373284751037346,-11.610626749010914,-18.970664061243713,11.764396571134588
8.381282157676349,-11.647823989192322,-19.801402425295187,12.22316253337197
8.389279564315354,-11.68502122937374,-20.632140789346842,12.68192849560945
8.397276970954358,-11.722218469555157,-21.462879153398497,13.140694457846932
8.405274377593361,-11.759415709736567,-22.293617517449967,13.599460420084313
8.413271784232366,-11.796612949917984,-23.124355881501625,14.058226382321793
8.42126919087137,-6.556431535268565,-28.185079529735226,13.692323651451424
8.429266597510374,-3.331959150092949,-22.52483903276565,11.306209758191414
8.437264004149378,-2.7390479682357007,-21.201130347689006,10.975282586922251
8.445261410788383,-2.1461367863784524,-19.877421662612356,10.64435541565309
8.453258817427386,-1.5532256045213355,-18.553712977536005,10.313428244384001
8.46125622406639,-0.9603144226640872,-17.230004292459355,9.98250107311484
8.469253630705396,-0.36740324080683884,-15.90629560738271,9.651573901845678
8.477251037344399,0.22550794105027805,-14.582586922306357,9.32064673057659
8.485248443983403,1.1229771784248912,-12.753423236511724,8.689445020745296
8.493245850622408,7.997892708950792,-1.6976585655008793,1.2
8.501243257261411,7.929343509187909,-1.6214927879865657,1.2
8.509240663900416,7.860794309425012,-1.5453270104722354,1.2
8.51723807053942,7.792245109662114,-1.4691612329579051,1.2
8.525235477178423,7.723695909899233,-1.3929954554435917,1.2
8.533232883817428,7.655146710136335,-1.3168296779292612,1.2
8.541230290456433,7.586597510373438,-1.240663900414931,1.2
8.549227697095436,7.518048310610555,-1.1644981229006173,1.2
8.55722510373444,7.4494991108476585,-1.088332345386287,1.2
8.565222510373445,7.380949911084761,-1.0121665678719567,1.2
8.57321991701245,7.312400711321864,-0.9360007903576262,1.2
8.581217323651453,7.243851511558981,-0.8598350128433128,1.2
8.589214730290458,7.175302311796084,-0.7836692353289824,1.2
8.597212136929462,7.106753112033187,-0.707503457814652,1.2
8.605209543568465,8.109825133372851,1.9,0.30327504445761727
8.61320695020747,8.13430699043103,1.9,0.31143566347700996
8.621204356846475,8.158788847489207,1.9,0.3195962824964026
8.629201763485478,8.18327070454738,1.9,0.32775690151579345
8.637199170124482,8.207752561605558,1.9,0.33591752053518614
8.645196576763487,8.232234418663737,1.9,0.3440781395545788
8.65319398340249,8.256716275721908,1.9,0.35223875857396963
8.661191390041495,8.281198132780087,1.9,0.36039937759336227
8.6691887966805,8.305679989838264,1.9,0.36855999661275496
8.677186203319502,8.330161846896438,1.9,0.3767206156321458
8.685183609958507,8.354643703954615,1.9,0.38488123465153845
8.693181016597512,8.379125561012794,1.9,0.39304185367093114
8.701178423236515,7.575103734439416,0.7804979253106361,0.635684647303024
8.70917582987552,3.764834024896022,-2.1879149377599445,1.1644709543572924
8.717173236514524,4.1210219590658,-5.934841950673873,4.106423376381216
8.725170643153527,5.091493775933588,-7.5433091286306695,4.402956431535263
8.733168049792532,6.061965592801592,-9.151776306587823,4.699489486689375
8.741165456431537,7.032437409669596,-10.76024348454498,4.996022541843487
8.74916286307054,8.002909226537383,-12.368710662501776,5.292555596997534
8.757160269709544,8.973381043405388,-13.977177840458928,5.589088652151647
8.765157676348549,9.943852860273392,-15.585645018416084,5.885621707305758
8.773155082987552,10.914324677141181,-17.194112196372878,6.182154762459805
8.781152489626557,11.884796494009183,-18.802579374330037,6.478687817613917
8.789149896265561,12.855268310877188,-20.41104655228719,6.775220872768029
8.797147302904566,13.825740127745192,-22.01951373024434,7.071753927922142
8.805144709543569,14.79621194461298,-23.62798090820114,7.368286983076189
8.813142116182574,0.17452282157635435,-38.99289419087131,10.546099585061576
8.821139522821579,-0.03488070539469036,-21.95121887965876,6.081405601658053
8.829136929460581,-0.47545228215767543,-12.948149377593348,4.344531120331944
8.837134336099586,-0.4434626556016562,-12.489631396957073,4.141930152143823
8.845131742738591,-0.41147302904563704,-12.031113416320798,3.939329183955701
8.853129149377594,-0.3794834024896249,-11.572595435684624,3.7367282157676245
8.861126556016599,-0.34749377593360575,-11.11407745504835,3.534127247579503
8.869123962655603,-0.31550414937758653,-10.655559474412074,3.3315262793913814
8.877121369294606,-0.28351452282157447,-10.1970414937759,3.1289253112033046
8.885118775933611,-0.2515248962655553,-9.738523513139626,2.9263243430151835
8.893116182572616,-0.21953526970953607,-9.28000553250335,2.7237233748270615
8.901113589211619,-0.4490871369294789,-8.377282157676303,1.4791078838173453
8.909110995850623,-1.7338151722893786,-4.3154620692765535,0.08647393108424851
8.917108402489628,-1.82074350532204,-4.0981412366949,0.05170259787118403
8.925105809128631,-1.9076718383546818,-3.8808204041132957,0.016931264658127276
8.933103215767636,-1.9946001713873431,-3.6634995715316427,-0.017840068554937222
8.94110062240664,-2.081528504420004,-3.44617873894999,-0.05261140176800169
8.949098029045643,-2.1684568374526463,-3.228857906368385,-0.08738273498105847
8.957095435684648,-2.255385170485307,-3.011537073786732,-0.12215406819412294
8.965092842323653,-2.3423135035179685,-2.7942162412050786,-0.15692540140718744
8.973090248962656,-2.4292418365506103,-2.576895408623474,-0.1916967346202442
8.98108765560166,-2.5161701695832717,-2.3595745760418207,-0.22646806783330867
8.989085062240665,-2.603098502615933,-2.142253743460168,-0.2612394010463732
8.997082468879668,-2.690026835648575,-1.9249329108785629,-0.2960107342594299
9.005079875518673,-4.553993775933654,1.8539937759336538,-3.007987551867308
9.013077282157678,-4.286256352277492,1.4587690568324767,-2.963350272739979
9.02107468879668,-4.259298801808943,1.3778964054268292,-2.891463471490515
9.029072095435685,-4.2323412513403875,1.297023754021164,-2.8195766702410348
9.03706950207469,-4.205383700871833,1.2161511026154985,-2.747689868991554
9.045066908713695,-4.178426150403277,1.135278451209833,-2.675803067742074
9.053064315352698,-4.151468599934729,1.0544057998041858,-2.6039162664926097
9.061061721991702,-4.124511049466173,0.9735331483985205,-2.5320294652431294
9.069059128630707,-4.097553498997618,0.892660496992855,-2.460142663993649
9.07705653526971,-4.0705959485290695,0.8117878455872076,-2.3882558627441846
9.085053941908715,-4.043638398060514,0.7309151941815423,-2.3163690614947043
9.09305134854772,-4.016680847591959,0.6500425427758769,-2.244482260245224
9.101048755186723,-4.121939834024754,-3.3146265560165027,-0.03661825726182043
9.109046161825727,-3.596991701244741,-7.9070020746889655,7.904564315352808
9.117043568464732,-3.0758123921860085,-9.120091845773945,8.69531912909709
9.125040975103735,-2.554633083127392,-10.333181616858656,9.486073942841198
9.13303838174274,-2.0334537740686596,-11.546271387943637,10.276828756585482
9.141035788381744,-1.5122744650099271,-12.759361159028618,11.067583570329765
9.149033195020747,-0.9910951559513106,-13.972450930113329,11.858338384073873
9.157030601659752,-0.46991584689257815,-15.18554070119831,12.649093197818157
9.165028008298757,0.051263462166154294,-16.398630472283287,13.43984801156244
9.17302541493776,0.5724427712247713,-17.611720243367998,14.230602825306548
9.181022821576764,1.0936220802835037,-18.82481001445298,15.02135763905083
9.18902022821577,1.6148013893422353,-20.03789978553796,15.812112452795114
9.197017634854772,2.1359806984008523,-21.25098955662267,16.60286726653922
9.205015041493777,-1.0573703319505992,-31.000300829875535,20.14443464730261
9.213012448132782,4.50019038320726,-19.69887234561854,12.29963387844758
9.221009854771784,4.622503661215538,-18.97440139126181,12.064416036123966
9.22900726141079,4.744816939223845,-18.24993043690492,11.8291981938003
9.237004668049794,4.867130217232151,-17.52545948254803,11.593980351476633
9.245002074688797,4.98944349524043,-16.800988528191297,11.358762509153019
9.252999481327802,5.111756773248736,-16.07651757383441,11.123544666829353
9.260996887966806,5.234070051257042,-15.352046619477516,10.888326824505688
9.26899429460581,5.356383329265322,-14.627575665120785,10.653108982182074
9.276991701244814,5.478696607273628,-13.903104710763895,10.417891139858408
9.284989107883819,5.601009885281934,-13.178633756407002,10.182673297534741
9.292986514522823,5.723323163290241,-12.454162802050114,9.947455455211076
9.300983921161826,6.696784232365242,-9.355627593360827,5.371706431534619
9.308981327800831,6.295719002364697,-4.092975059117436,2.1871570070940924
9.316978734439836,6.287119640387273,-3.8779910096818253,2.161358921161819
9.324976141078839,6.27852027840985,-3.6630069602462623,2.1355608352295516
9.332973547717843,6.269920916432426,-3.4480229108106513,2.1097627492972784
9.340970954356848,6.261321554455002,-3.2330388613750403,2.083964663365005
9.348968360995851,6.252722192477579,-3.0180548119394772,2.058166577432737
9.356965767634856,6.244122830500155,-2.803070762503866,2.032368491500464
9.36496317427386,6.2355234685227305,-2.5880867130682557,2.0065704055681906
9.372960580912864,6.226924106545308,-2.373102663632692,1.980772319635923
9.380957987551868,6.218324744567884,-2.1581186141970816,1.9549742337036498
9.388955394190873,6.209725382590459,-1.9431345647614706,1.9291761477713765
9.396952800829876,6.201126020613036,-1.7281505153259076,1.9033780618391087
9.40495020746888,7.887551867220319,1.9124481327796812,0.10248962655593627
9.412947614107885,7.882908356757235,1.8743625351358515,0.1683665729710626
9.420945020746888,7.86570963280239,1.848564449203584,0.2371614687904428
9.428942427385893,7.84851090884754,1.8227663632713107,0.3059563646098383
9.436939834024898,7.831312184892692,1.7969682773390374,0.3747512604292338
9.4449372406639,7.814113460937847,1.7711701914067697,0.44354615624861404
9.452934647302905,7.796914736982998,1.7453721054744964,0.5123410520680095
9.46093205394191,7.779716013028149,1.719574019542223,0.581135947887405
9.468929460580913,7.762517289073304,1.6937759336099556,0.6499308437067851
9.476926867219918,7.745318565118455,1.6679778476776823,0.7187257395261807
9.484924273858923,7.728119841163606,1.642179761745409,0.7875206353455761
9.492921680497926,7.710921117208761,1.6163816758131415,0.8563155311649563
9.50091908713693,6.132365145228031,-0.7650414937764194,1.445954356846496
9.508916493775935,16.262497241105333,-17.74580041052364,5.466659309614221
9.51691390041494,16.39011543215328,-19.268710823695823,5.806974485742083
9.524911307053943,16.517733623201202,-20.79162123686767,6.147289661869871
9.532908713692947,16.64535181424915,-22.314531650039857,6.487604837997734
9.540906120331952,16.772970005297097,-23.83744206321204,6.8279200141255965
9.548903526970955,16.90058819634502,-25.360352476383888,7.168235190253384
9.55690093360996,17.028206387392967,-26.88326288955607,7.508550366381247
9.564898340248964,17.155824578440914,-28.40617330272826,7.84886554250911
9.572895746887967,17.283442769488836,-29.929083715900106,8.189180718636896
9.580893153526972,17.411060960536783,-31.45199412907229,8.529495894764759
9.588890560165977,17.53867915158473,-32.974904542244474,8.869811070892622
9.59688796680498,17.666297342632653,-34.497814955416324,9.210126247020408
9.604885373443985,8.871939834023852,-34.50764177040106,11.2617911479947
9.61288278008299,1.428941908712267,-20.99232365144684,7.4820539419078065
9.620880186721992,0.12628371369294877,-15.84132088520057,6.593520919778704
9.628877593360997,0.040597213989326364,-15.308160442600252,6.469751531317916
9.636875000000002,-0.04508928571429602,-14.774999999999936,6.345982142857128
9.644872406639005,-0.13077578541789942,-14.241839557399738,6.2222127543963675
9.65286981327801,-0.21646228512152177,-13.70867911479942,6.09844336593558
9.660867219917014,-0.3021487848251441,-13.175518672199102,5.974673977474792
9.668864626556017,-0.38783528452874755,-12.642358229598903,5.850904589014031
9.676862033195022,-0.47352178423236996,-12.109197786998585,5.727135200553244
9.684859439834026,-0.5592082839359924,-11.57603734439827,5.603365812092456
9.69285684647303,-0.6448947836395957,-11.04287690179807,5.479596423631695
9.700854253112034,0.08542531120341729,-6.73468188105072,3.0492565698473015
9.708851659751039,0.2724032927318778,-4.96320439030917,0.9877347967697234
9.716849066390042,0.19500903493507507,-4.8600120465801,0.9533373488600334
9.724846473029046,0.11761477713825516,-4.756819702851007,0.9189399009503356
9.732843879668051,0.040220519341435224,-4.653627359121914,0.8845424530406378
9.740841286307054,-0.03717373845536748,-4.550435015392843,0.8501450051309478
9.748838692946059,-0.11456799625218739,-4.44724267166375,0.81574755722125
9.756836099585064,-0.1919622540490073,-4.3440503279346565,0.7813501093115522
9.764833506224068,-0.26935651184582726,-4.240857984205563,0.7469526614018545
9.772830912863071,-0.3467507696426299,-4.137665640476493,0.7125552134921644
9.780828319502076,-0.4241450274394499,-4.0344732967474,0.6781577655824667
9.78882572614108,-0.5015392852362697,-3.9312809530183066,0.6437603176727689
9.796823132780084,-0.5789335430330724,-3.828088609289236,0.6093628697630789
9.804820539419088,-0.7769190871367158,-0.6,-0.7
9.812817946058093,-0.563344376031753,-0.6659801231428446,-0.663344376031753
9.820815352697096,-0.5203475661446404,-0.7433743809396474,-0.6203475661446404
9.8288127593361,-0.4773507562575182,-0.8207686387364672,-0.5773507562575182
9.836810165975105,-0.43435394637039604,-0.8981628965332872,-0.534353946370396
9.844807572614108,-0.3913571364832834,-0.9755571543300898,-0.4913571364832834
9.852804979253113,-0.34836032659616123,-1.05295141212691,-0.4483603265961612
9.860802385892118,-0.30536351670903905,-1.1303456699237298,-0.40536351670903903
9.86879979253112,-0.2623667068219264,-1.2077399277205325,-0.3623667068219264
9.876797199170126,-0.21936989693480424,-1.2851341855173524,-0.3193698969348042
9.88479460580913,-0.17637308704768206,-1.3625284433141722,-0.27637308704768204
9.892792012448133,-0.13337627716056943,-1.4399227011109752,-0.2333762771605694
9.900789419087138,0.25788381742764255,-2.215767634855285,0.4262966804983744
9.908786825726143,0.32797602581842467,-11.424479022591122,6.644586791148114
9.916784232365146,0.6123282618718632,-11.67328722913788,7.097773167358282
9.92478163900415,0.8966804979253649,-11.922095435684694,7.55095954356855
9.932779045643155,1.1810327339788667,-12.170903642231508,8.004145919778818
9.940776452282158,1.4653849700323052,-12.419711848778267,8.457332295988985
9.948773858921163,1.749737206085807,-12.66852005532508,8.910518672199254
9.956771265560167,2.0340894421393085,-12.917328261871894,9.363705048409521
9.96476867219917,2.318441678192747,-13.166136468418653,9.81689142461969
9.972766078838175,2.6027939142462486,-13.414944674965467,10.270077800829958
9.98076348547718,2.8871461502997504,-13.66375288151228,10.723264177040226
9.988760892116183,3.171498386353189,-13.91256108805904,11.176450553250394
9.996758298755188,3.455850622406691,-14.161369294605855,11.629636929460663
10.004755705394192,-0.9221473029039734,-20.01932918395629,12.188053250345034
10.012753112033197,2.1528123559244197,-18.078188105117437,10.04718764407558
10.0207505186722,2.2416724296911172,-17.704975795297308,9.958327570308882
10.028747925311205,2.330532503457835,-17.331763485477094,9.869467496542164
10.03674533195021,2.4193925772245524,-16.95855117565688,9.780607422775446
10.044742738589212,2.5082526509912504,-16.58533886583675,9.69174734900875
10.052740145228217,2.5971127247579675,-16.212126556016536,9.602887275242033
10.060737551867222,2.685972798524685,-15.838914246196323,9.514027201475315
10.068734958506225,2.774832872291383,-15.465701936376192,9.425167127708617
10.07673236514523,2.8636929460581007,-15.092489626555977,9.3363070539419
10.084729771784234,2.952553019824818,-14.719277316735765,9.247446980175182
10.092727178423237,3.041413093591516,-14.346065006915634,9.158586906408484
10.100724585062242,4.144917012448383,-10.411644190870181,7.2101659751032345
10.108721991701247,4.608004283228486,-5.275987150314541,5.7439700174005965
10.11671939834025,4.625203007183331,-5.224390978450006,5.623578949716681
10.124716804979254,4.64240173113818,-5.172794806585459,5.503187882032739
10.132714211618259,4.659600455093028,-5.121198634720913,5.382796814348797
10.140711618257262,4.676799179047874,-5.069602462856378,5.262405746664881
10.148709024896267,4.693997903002723,-5.018006290991831,5.14201467898094
10.156706431535271,4.711196626957571,-4.966410119127285,5.021623611296997
10.164703838174274,4.728395350912416,-4.91481394726275,4.901232543613082
10.172701244813279,4.745594074867266,-4.863217775398203,4.78084147592914
10.180698651452284,4.762792798822114,-4.8116216035336565,4.660450408245198
10.188696058091287,4.779991522776959,-4.7600254316691215,4.540059340561283
10.196693464730291,4.797190246731808,-4.708429259804575,4.419668272877341
10.204690871369296,9.55816044260142,-6.621818810511723,5.412724757953108
10.212688278008299,9.357231940777075,-4.015274306865331,2.8114090201810815
10.220685684647304,9.23000047152018,-4.060714117314221,2.5478581195775147
10.228683091286308,9.102769002263285,-4.1061539277631125,2.2843072189739475
10.236680497925313,8.97553753300639,-4.151593738212004,2.0207563183703803
10.244677904564316,8.848306063749524,-4.197033548660884,1.7572054177668717
10.25267531120332,8.721074594492631,-4.242473359109775,1.4936545171633044
10.260672717842326,8.593843125235736,-4.287913169558666,1.2301036165597372
10.268670124481329,8.46661165597887,-4.333352980007547,0.9665527159562286
10.276667531120333,8.339380186721975,-4.378792790456438,0.7030018153526614
10.284664937759338,8.21214871746508,-4.424232600905329,0.43945091474909415
10.292662344398341,8.084917248208214,-4.4696724113542095,0.17590001414558554
10.300659751037346,6.19211618257237,-2.7680497925310155,-1.2099585062241538
10.30865715767635,8.197147302905158,-8.964773513141244,-0.5914289419087632
10.316654564315353,10.59636929460595,-15.229408713693315,-0.7913641078838293
10.324651970954358,10.392054827446568,-16.927745800020453,-1.1359401882401063
10.332649377593363,10.070207974901253,-18.419944843639644,-1.4870458455622693
10.340646784232366,9.748361122356009,-19.912143887258505,-1.8381515028843545
10.34864419087137,9.426514269810692,-21.404342930877696,-2.189257160206518
10.356641597510375,9.104667417265377,-22.89654197449689,-2.5403628175286808
10.364639004149378,8.782820564720131,-24.388741018115752,-2.8914684748507655
10.372636410788383,8.460973712174816,-25.880940061734947,-3.242574132172929
10.380633817427388,8.1391268596295,-27.373139105354138,-3.5936797894950923
10.38863122406639,7.817280007084255,-28.865338148973,-3.9447854468171766
10.396628630705395,7.495433154538939,-30.35753719259219,-4.29589110413934
10.4046260373444,2.8504149377601515,-22.336566390039657,0.6634336099603413
10.412623443983403,1.9379052126556033,-17.13092258817428,0.5724023167358238
10.420620850622408,1.8629295254149343,-16.806027943464713,0.5390797890733041
10.428618257261412,1.787953838174265,-16.481133298755147,0.5057572614107844
10.436615663900415,1.7129781509336124,-16.15623865404565,0.47243473374827216
10.44461307053942,1.6380024636929433,-15.831344009336087,0.4391122060857525
10.452610477178425,1.563026776452274,-15.50644936462652,0.4057896784232329
10.460607883817428,1.4880510892116214,-15.181554719917026,0.3724671507607207
10.468605290456432,1.4130754019709522,-14.85666007520746,0.339144623098201
10.476602697095437,1.338099714730283,-14.531765430497892,0.30582209543568134
10.484600103734442,1.2631240274896138,-14.206870785788325,0.2724995677731617
10.492597510373445,1.1881483402489614,-13.881976141078832,0.23917704011064944
10.50059491701245,1.1131726530082922,-13.557081496369266,0.2058545124481298
10.508592323651454,-0.15923236514540318,-6.964989626554879,0.8796161825727016
10.516589730290457,-0.2,-6.606194344724691,0.8658888526271604
10.524587136929462,-0.2,-6.507349993006656,0.8299454520024203
10.532584543568467,-0.2,-6.40850564128862,0.7940020513776801
10.54058195020747,-0.2,-6.309661289570607,0.758058650752948
10.548579356846474,-0.2,-6.210816937852571,0.7221152501282078
10.556576763485479,-0.2,-6.111972586134536,0.6861718495034677
10.564574170124482,-0.2,-6.013128234416522,0.6502284488787354
10.572571576763487,-0.2,-5.914283882698487,0.6142850482539953
10.580568983402491,-0.2,-5.815439530980451,0.5783416476292551
10.588566390041494,-0.2,-5.716595179262438,0.542398247004523
10.596563796680499,-0.2,-5.617750827544402,0.5064548463797829
10.604561203319504,-0.4,-3.5888485477178285,0.09553941908713132
10.612558609958507,-0.4,-3.531724214582093,0.07268968583283728
10.620556016597511,-0.4,-3.4745998814463457,0.04983995257853817
10.628553423236516,-0.4,-3.417475548310598,0.026990219324239048
10.63655082987552,-0.4,-3.3603512151748625,0.004140486069945007
10.644548236514524,-0.4,-3.3032268820391146,-0.0187092471843541
10.652545643153529,-0.4,-3.246102548903367,-0.04155898043865322
10.660543049792532,-0.4,-3.188978215767632,-0.06440871369294726
10.668540456431536,-0.4,-3.131853882631884,-0.08725844694724638
10.676537863070541,-0.7537863070541121,-3.5844657676352805,-0.553786307054112
10.684535269709544,-1.1228215767634593,-5.780290456431486,0.09211618257259446
10.692532676348549,-1.4582178613574976,-6.370693117362675,0.38316837336785387
10.700530082987553,-1.5609368457116868,-6.495423312649906,0.529909779588124
10.708527489626556,-1.663655830065853,-6.620153507937108,0.6766511858083616
10.716524896265561,-1.7663748144200422,-6.744883703224337,0.8233925920286318
10.724522302904566,-1.8690937987742313,-6.869613898511567,0.9701339982489019
10.73251970954357,-1.9718127831284202,-6.994344093798796,1.116875404469172
10.740517116182573,-2.0745317674825867,-7.119074289085998,1.2636168106894095
10.748514522821578,-2.177250751836776,-7.243804484373228,1.4103582169096798
10.756511929460583,-2.279969736190965,-7.368534679660457,1.5570996231299499
10.764509336099586,-2.382688720545131,-7.493264874947659,1.7038410293501873
10.77250674273859,-2.48540770489932,-7.617995070234889,1.8505824355704577
10.780504149377595,-2.5881266892535093,-7.742725265522118,1.9973238417907277
10.788501556016598,-2.690845673607676,-7.867455460809321,2.144065248010965
10.796498962655603,-2.7935646579618645,-7.9921856560965505,2.2908066542312353
10.804496369294608,-2.684716106359543,-17.206987255483202,11.412736578033714
10.81249377593361,-2.6357523922431985,-17.549733254297614,11.453539673130669
10.820491182572615,-2.5867886781268434,-17.892479253112096,11.49434276822763
10.82848858921162,-2.5378249640104884,-18.235225251926583,11.535145863324594
10.836485995850623,-2.4888612498941445,-18.577971250740994,11.575948958421547
10.844483402489628,-2.439897535777789,-18.920717249555477,11.616752053518509
10.852480809128632,-2.390933821661434,-19.263463248369963,11.657555148615472
10.860478215767635,-2.34197010754509,-19.606209247184374,11.698358243712425
10.86847562240664,-2.293006393428735,-19.948955245998857,11.739161338809389
10.876473029045645,-2.24404267931238,-20.291701244813343,11.77996443390635
10.884470435684648,-2.1950789651960356,-20.634447243627754,11.820767529003303
10.892467842323653,-2.1461152510796806,-20.977193242442237,11.861570624100267
10.900465248962657,-1.867375518671435,-21.881561203321414,11.853475103734286
10.90846265560166,6.10514061779623,-14.685606270170556,5.791775011526032
10.916460062240665,6.194000691562949,-14.43679806362374,5.649598893499281
10.92445746887967,6.282860765329668,-14.187989857076927,5.50742277547253
10.932454875518673,6.371720839096367,-13.939181650530168,5.365246657445811
10.940452282157677,6.460580912863087,-13.690373443983354,5.22307053941906
10.948449688796682,6.549440986629806,-13.44156523743654,5.080894421392309
10.956447095435685,6.638301060396506,-13.192757030889782,4.93871830336559
10.96444450207469,6.727161134163225,-12.943948824342968,4.796542185338839
10.972441908713694,6.8160212079299445,-12.695140617796154,4.654366067312088
10.9804393153527,6.904881281696664,-12.44633241124934,4.512189949285338
10.988436721991702,6.993741355463364,-12.197524204702582,4.3700138312586185
10.996434128630707,7.082601429230083,-11.948715998155768,4.227837713231867
11.004431535269712,7.052282157676288,-1.3284232365144324,0.8522821576762883
11.012428941908714,6.880736281411719,-1.123116462305938,0.7154109748706252
11.02042634854772,6.835807030630794,-1.1770315632430481,0.7513543754953653
11.028423755186724,6.790877779849868,-1.2309466641801583,0.7872977761201055
11.036421161825727,6.745948529068953,-1.2848617651172567,0.8232411767448377
11.044418568464732,6.701019278288028,-1.3387768660543669,0.8591845773695779
11.052415975103736,6.656090027507103,-1.392691966991477,0.895127977994318
11.06041338174274,6.611160776726187,-1.4466070679285754,0.9310713786190502
11.068410788381744,6.566231525945263,-1.5005221688656856,0.9670147792437904
11.076408195020749,6.521302275164337,-1.5544372698027957,1.0029581798685305
11.084405601659752,6.476373024383422,-1.608352370739894,1.0389015804932629
11.092403008298756,6.4314437736024965,-1.6622674716770043,1.074844981118003
11.100400414937761,6.240041493776095,-1.87966804979124,1.640041493776095
11.108397821576764,6.012306938681415,-0.9068118948824256,1.7
11.116395228215769,5.701296680497879,-0.3736514522820784,1.7
11.124392634854773,4.986951404404719,-0.052194382381124026,1.2956504681349064
11.132390041493776,4.956192148100861,-0.17523140759655492,1.2853973827002871
11.140387448132781,4.925432891796997,-0.2982684328120131,1.2751442972656657
11.148384854771786,4.894673635493132,-0.4213054580274713,1.264891211831044
11.156382261410789,4.863914379189275,-0.5443424832429022,1.2546381263964248
11.164379668049794,4.83315512288541,-0.6673795084583605,1.2443850409618034
11.172377074688798,4.802395866581546,-0.7904165336738187,1.2341319555271817
11.180374481327801,4.771636610277688,-0.9134535588892495,1.2238788700925625
11.188371887966806,4.740877353973823,-1.0364905841047078,1.213625784657941
11.19636929460581,4.710118097669959,-1.1595276093201659,1.2033726992233196
11.204366701244815,7.712033195023127,-11.84341286307624,5.56602697095629
11.212364107883818,11.922008812080248,-27.443722462249223,12.326883261325232
11.220361514522823,11.658176840484215,-28.268197373486828,12.079540787953952
11.228358921161828,11.394344868888181,-29.092672284724433,11.832198314582671
11.23635632780083,11.130512897292206,-29.917147195961853,11.584855841211445
11.244353734439835,10.866680925696173,-30.741622107199458,11.337513367840163
11.25235114107884,10.602848954100141,-31.566097018437063,11.090170894468882
11.260348547717843,10.339016982504166,-32.390571929674486,10.842828421097655
11.268345954356848,10.075185010908132,-33.21504684091209,10.595485947726374
11.276343360995853,9.811353039312099,-34.039521752149696,10.348143474355092
11.284340767634855,9.547521067716124,-34.86399666338711,10.100801000983866
11.29233817427386,9.28368909612009,-35.68847157462472,9.853458527612585
11.300335580912865,9.019857124524057,-36.51294648586232,9.606116054241303
11.308332987551868,4.73392116182449,-36.985632780078156,10.44974066390096
11.316330394190873,-0.1634360798261336,-13.481057350326,6.7334802904563995
11.324327800829877,-0.31576763485479564,-13.195435684647258,6.333609958506162
11.33232520746888,-0.4680991898834238,-12.90981401896858,5.9337396265560125
11.340322614107885,-0.6204307449120858,-12.624192353289839,5.533869294605775
11.34832002074689,-0.7727622999407479,-12.338570687611098,5.133998962655537
11.356317427385893,-0.9250938549693761,-12.05294902193242,4.7341286307053885
11.364314834024897,-1.0774254099980383,-11.767327356253677,4.334258298755151
11.372312240663902,-1.2297569650267002,-11.481705690574938,3.934387966804912
11.380309647302905,-1.3820885200553286,-11.196084024896258,3.534517634854763
11.38830705394191,-1.5344200750839905,-10.910462359217517,3.134647302904525
11.396304460580915,-1.6867516301126526,-10.624840693538776,2.734776970954287
11.404301867219917,-4.198715458638649,-0.49582524057560845,-1.1996788646596621
11.412299273858922,-4.164683941025863,-0.3852228083340531,-1.1911709852564656
11.420296680497927,-4.130652423413077,-0.27462037609249773,-1.182663105853269
11.42829408713693,-4.096620905800298,-0.16401794385096696,-1.1741552264500743
11.436291493775935,-4.0625893881875115,-0.0534155116094116,-1.1656473470468778
11.44428890041494,-4.028557870574725,0.05718692063214381,-1.1571394676436813
11.452286307053944,-3.994526352961939,0.16778935287369912,-1.1486315882404847
11.460283713692947,-3.96049483534916,0.27839178511523,-1.14012370883729
11.468281120331952,-3.9264633177363737,0.3889942173567853,-1.1316158294340934
11.476278526970956,-3.8924318001235876,0.4995966495983407,-1.123107950030897
11.48427593360996,-3.8584002825108086,0.6101990818398715,-1.1146000706277022
11.492273340248964,-3.8243687648980225,0.7208015140814268,-1.1060921912245056
11.500270746887969,-3.703008298755209,0.46991701244791245,-1.1210580912864614
11.508268153526972,-3.7918683725219045,-0.41868372521904784,-1.7430786076533336
11.516265560165976,-3.5743331357438795,-2.077000592768361,-1.4238885595731325
11.524262966804981,-3.530182972554123,-2.420731890216491,-1.2320883117532235
11.532260373443984,-3.5687246912963055,-2.5748987651852224,-1.1453694445833122
11.540257780082989,-3.607266410038497,-2.729065640153988,-1.0586505774133819
11.548255186721994,-3.6458081287806885,-2.8832325151227534,-0.9719317102434513
11.556252593360997,-3.684349847522871,-3.037399390091484,-0.88521284307354
11.564250000000001,-3.7228915662650626,-3.19156626506025,-0.7984939759036094
11.572247406639006,-3.7614332850072536,-3.345733140029015,-0.7117751087336789
11.580244813278009,-3.7999750037494366,-3.4999000149977464,-0.6250562415637676
11.588242219917014,-3.8385167224916277,-3.654066889966512,-0.538337374393837
11.596239626556018,-3.877058441233819,-3.8082337649352773,-0.4516185072239065
11.604237033195021,-4.038148340248943,-11.644061203320817,3.6555497925317098
11.612234439834026,-0.7752789303826755,-28.530541724296945,13.242344398340254
11.62023184647303,-0.9174550484094264,-28.96595608575387,13.322318464730301
11.628229253112034,-1.0596311664361455,-29.4013704472107,13.402292531120331
11.636226659751038,-1.2018072844628964,-29.836784808667623,13.482266597510378
11.644224066390043,-1.343983402489647,-30.272199170124548,13.562240663900425
11.652221473029046,-1.4861595205163665,-30.707613531581373,13.642214730290455
11.66021887966805,-1.6283356385431174,-31.1430278930383,13.722188796680504
11.668216286307056,-1.7705117565698683,-31.578442254495226,13.802162863070551
11.676213692946058,-1.9126878745965874,-32.01385661595205,13.88213692946058
11.684211099585063,-2.0548639926233383,-32.44927097740898,13.962110995850628
11.692208506224068,-2.1970401106500894,-32.8846853388659,14.042085062240675
11.700205912863073,1.2359024896283999,-31.5417116182524,13.143506224064268
11.708203319502076,8.20158137390503,-11.095029967727045,4.394578146611322
11.71620072614108,8.263783425541734,-10.899537805440263,4.181313969571196
11.724198132780085,8.325985477178438,-10.70404564315348,3.96804979253107
11.732195539419088,8.388187528815127,-10.508553480866741,3.754785615490991
11.740192946058093,8.45038958045183,-10.313061318579958,3.5415214384508644
11.748190352697097,8.512591632088535,-10.117569156293177,3.328257261410738
11.7561877593361,8.574793683725224,-9.922076994006439,3.1149930843706595
11.764185165975105,8.636995735361928,-9.726584831719656,2.901728907330533
11.77218257261411,8.699197786998631,-9.531092669432873,2.6884647302904066
11.780179979253113,8.76139983863532,-9.335600507146134,2.475200553250328
11.788177385892117,8.823601890272025,-9.140108344859351,2.2619363762102016
11.796174792531122,8.885803941908728,-8.94461618257257,2.0486721991700754
11.804172199170125,10.698912426293948,1.002900196549472,1.599818737715658
11.81216960580913,10.648402489626548,1.137593360995869,1.5914004149377583
11.820167012448135,10.59789255295915,1.272286525442266,1.5829820921598585
11.828164419087138,10.547382616291761,1.4069796898886329,1.5745637693819605
11.836161825726142,10.496872679624364,1.54167285433503,1.5661454466040607
11.844159232365147,10.446362742956964,1.6763660187814269,1.557727123826161
11.85215663900415,10.395852806289577,1.8110591832277938,1.549308801048263
11.860154045643155,10.345342869622177,1.945752347674191,1.5408904782703632
11.86815145228216,10.29483293295478,2.080445512120588,1.5324721554924632
11.876148858921162,10.24432299628739,2.215138676566955,1.5240538327145654
11.884146265560167,10.193813059619993,2.3498318410133514,1.5156355099366656
11.892143672199172,10.143303122952593,2.4845250054597487,1.5072171871587656
11.900141078838175,9.917427385891932,2.7141078838175425,1.454356846472983
11.90813848547718,8.637842323651377,3.5138485477178896,1.1344605809128443
11.916135892116184,4.89237181387077,1.046602697095388,0.12034182967794751
11.924133298755189,4.8638096473028956,0.8466675311202689,0.19650760719227855
11.932130705394192,4.835247480735028,0.6467323651451944,0.27267338470659264
11.940128112033197,4.8066853141671535,0.44679719917007543,0.3488391622209237
11.948125518672201,4.778123147599279,0.24686203319495648,0.42500493973525477
11.956122925311204,4.749560981031411,0.04692686721988193,0.5011707172495689
11.964120331950209,4.720998814463537,-0.15300829875523703,0.5773364947638999
11.972117738589214,4.692436647895663,-0.352943464730356,0.6535022722782309
11.980115145228217,4.663874481327795,-0.5528786307054305,0.729668049792545
11.988112551867221,4.635312314759921,-0.7528137966805495,0.805833827306876
11.996109958506226,4.606750148192047,-0.9527489626556682,0.8819996048212071
12.004107365145229,10.0882355213206,-39.2,14.498172508166308
12.012104771784234,9.21192394279137,-39.2,14.362046437715165
12.020102178423238,8.335612364262142,-39.2,14.225920367264022
12.028099585062241,7.459300785733106,-39.2,14.08979429681291
12.036096991701246,6.582989207203877,-39.2,13.953668226361767
12.04409439834025,5.7066776286746475,-39.2,13.817542155910624
12.052091804979254,4.830366050145612,-39.2,13.681416085459512
12.060089211618259,3.9540544716163826,-39.2,13.545290015008371
12.068086618257263,3.0777428930871524,-39.2,13.409163944557228
12.076084024896266,2.2014313145581177,-39.2,13.273037874106116
12.084081431535271,1.3251197360288884,-39.2,13.136911803654973
12.092078838174276,0.4488081574996574,-39.2,13.00078573320383
12.100076244813279,-2.585632780081719,-33.60383817425948,8.60264522821247
12.108073651452283,-1.1966949984384054,-7.2471199750144875,1.9768649890688386
12.116071058091288,-1.188095636460981,-7.109530183375697,1.9166694552268675
12.124068464730291,-1.1794962744835584,-6.971940391736936,1.8564739213849097
12.132065871369296,-1.1708969125061341,-6.834350600098145,1.7962783875429387
12.1400632780083,-1.1622975505287096,-6.696760808459355,1.7360828537009676
12.148060684647303,-1.1536981885512871,-6.559171016820594,1.6758873198590098
12.156058091286308,-1.1450988265738626,-6.421581225181804,1.615691786017039
12.164055497925313,-1.1364994645964384,-6.2839914335430125,1.555496252175068
12.172052904564318,-1.1279001026190139,-6.146401641904221,1.4953007183330969
12.18005031120332,-1.1193007406415914,-6.008811850265461,1.435105184491139
12.188047717842325,-1.1107013786641668,-5.87122205862667,1.374909650649168
12.19604512448133,-1.1021020166867426,-5.733632266987879,1.3147141168071972
12.204042531120333,-2.839004149377792,-2.9393672199166403,1.4609958506222083
12.212039937759338,-3.5239096228262534,-1.6590120751549937,0.7590120751549938
12.220037344398342,-3.586810573919549,-1.5511818732807732,0.6511818732807734
12.228034751037345,-3.6497115250128305,-1.4433516714065768,0.5433516714065768
12.23603215767635,-3.7126124761061257,-1.3355214695323563,0.4355214695323563
12.244029564315355,-3.775513427199421,-1.2276912676581357,0.32769126765813583
12.252026970954358,-3.8384143782927023,-1.1198610657839394,0.21986106578393927
12.260024377593362,-3.9013153293859975,-1.0120308639097186,0.11203086390971884
12.268021784232367,-3.9642162804792926,-0.9042006620354983,0.004200662035498293
12.27601919087137,-4.027117231572574,-0.7963704601613018,-0.10362953983869827
12.284016597510375,-4.09001818266587,-0.6885402582870814,-0.2114597417129187
12.29201400414938,-4.152919133759164,-0.5807100564128609,-0.31928994358713925
12.300011410788382,-4.240228215767649,-0.21840248962645714,-0.6212551867220695
12.308008817427387,-4.399559128630633,0.901432831950443,-1.5011021784234175
12.316006224066392,-3.999066390041324,2.202178423236911,-2.5006224066391174
12.324003630705395,-3.375788883683577,0.6175369763084004,-2.103155534734309
12.3320010373444,-3.337091754785167,0.16607047249361317,-1.9483670191406675
12.339998443983404,-3.2983946258867567,-0.28539603132117397,-1.7935785035470262
12.347995850622407,-3.259697496988355,-0.736862535135861,-1.6387899879534191
12.355993257261412,-3.2210003680899444,-1.188329038950648,-1.4840014723597779
12.363990663900417,-3.1823032391915342,-1.6397955427654352,-1.3292129567661366
12.37198807053942,-3.1436061102931325,-2.0912620465801224,-1.1744244411725295
12.379985477178424,-3.104908981394722,-2.5427285503949095,-1.0196359255788883
12.387982883817429,-2.397432572614376,-29.63923755187357,15.15977697095856
12.395980290456432,-2.503448209620416,-29.810837367450446,15.000492738589198
12.403977697095437,-2.6071182956815875,-29.92191245965884,14.80055757261408
12.411975103734441,-2.710788381742759,-30.03298755186724,14.600622406638964
12.419972510373446,-2.8144584678039313,-30.14406264407564,14.400687240663846
12.42796991701245,-2.91812855386508,-30.255137736284013,14.200752074688774
12.435967323651454,-3.021798639926252,-30.36621282849241,14.000816908713656
12.443964730290459,-3.1254687259874236,-30.47728792070081,13.80088174273854
12.451962136929462,-3.2291388120485722,-30.588363012909184,13.600946576763468
12.459959543568466,-3.332808898109744,-30.699438105117583,13.40101141078835
12.467956950207471,-3.436478984170916,-30.81051319732598,13.201076244813233
12.475954356846474,-3.540149070232065,-30.921588289534355,13.00114107883816
12.483951763485479,-3.6438191562932367,-31.032663381742754,12.801205912863043
12.491949170124483,-3.7474892423544084,-31.143738473951153,12.601270746887927
12.499946576763486,3.998495850624014,-21.92971991700881,8.73472510373389
12.507943983402491,6.220903047338611,-14.762374514790501,7.464464819524362
12.515941390041496,6.306896667112856,-14.60758599919686,7.318275665908146
12.523938796680499,6.392890286887081,-14.452797483603256,7.172086512291964
12.531936203319503,6.478883906661325,-14.298008968009617,7.025897358675748
12.539933609958508,6.564877526435569,-14.143220452415976,6.879708205059533
12.547931016597511,6.650871146209795,-13.988431936822371,6.733519051443349
12.555928423236516,6.736864765984039,-13.83364342122873,6.587329897827134
12.56392582987552,6.822858385758283,-13.678854905635092,6.4411407442109185
12.571923236514523,6.908852005532508,-13.524066390041485,6.294951590594736
12.579920643153528,6.994845625306753,-13.369277874447846,6.1487624369785205
12.587918049792533,7.080839245080997,-13.214489358854205,6.002573283362305
12.595915456431536,7.166832864855222,-13.0597008432606,5.856384129746122
12.60391286307054,6.608713692945865,-6.808921161823322,2.139211618256396
12.611910269709545,6.23632434301514,-2.253405947439046,1.572648686030279
12.619907676348548,6.240633390285581,-0.93181962411517,1.4512399316573037
12.627905082987553,6.287676958750314,-0.6213320722479311,1.3947876494996239
12.635902489626558,6.334720527215047,-0.310844520380692,1.338335367341944
12.64389989626556,6.381764095679769,-0.0003569685135218492,1.2818830851842766
12.651897302904565,6.428807664144503,0.3101305833537171,1.225430803026597
12.65989470954357,6.475851232609236,0.6206181352209561,1.168978520868917
12.667892116182575,6.522894801073969,0.9311056870881951,1.1125262387112373
12.675889522821578,6.569938369538692,1.241593238955365,1.05607395655357
12.683886929460582,6.616981938003425,1.5520807908226042,0.9996216743958901
12.691884336099587,6.664025506468159,1.8625683426898434,0.9431693922382103
12.69988174273859,8.005739972337732,3.994260027662267,1.1293914246196761
12.707879149377595,8.801911194299118,2.1066891800469123,-0.28375484845749926
12.7158765560166,8.81929686090565,2.167539013169775,-0.13597668230197518
12.723873962655603,8.83668252751218,2.2283888462926242,0.011801483853516037
12.731871369294607,8.85406819411871,2.289238679415487,0.15957965000904006
12.739868775933612,8.871453860725243,2.35008851253835,0.3073578161645641
12.747866182572615,8.888839527331772,2.410938345661199,0.4551359823200553
12.75586358921162,8.906225193938305,2.4717881787840623,0.6029141484755793
12.763860995850624,8.923610860544835,2.5326380119069247,0.7506923146311033
12.771858402489627,8.940996527151365,2.5934878450297743,0.8984704807865946
12.779855809128632,8.958382193757897,2.654337678152637,1.0462486469421186
12.787853215767637,8.975767860364428,2.7151875112755,1.1940268130976428
12.79585062240664,8.993153526970957,2.776037344398349,1.341804979253134
12.803848029045644,15.869320539423567,-18.91706431536252,-3.6364885892149106
12.81184543568465,17.917235069233556,-39.2,-14.755240337544834
12.819842842323652,16.560371695649916,-39.2,-14.62943843535827
12.827840248962657,15.203508322065977,-39.2,-14.503636533171681
12.835837655601662,13.846644948482036,-39.2,-14.37783463098509
12.843835062240665,12.489781574898396,-39.2,-14.252032728798527
12.85183246887967,11.132918201314457,-39.2,-14.126230826611938
12.859829875518674,9.776054827730515,-39.2,-14.000428924425346
12.867827282157677,8.419191454146874,-39.2,-13.874627022238784
12.875824688796682,7.062328080562935,-39.2,-13.748825120052192
12.883822095435686,5.705464706978994,-39.2,-13.623023217865603
12.891819502074691,4.348601333395052,-39.2,-13.497221315679012
12.899816908713694,-6.21268153527096,-35.728137966797895,-5.915482365142811
12.907814315352699,-4.467188685138074,-11.43027595591841,-2.320507071788703
12.915811721991703,-4.398393789318679,-11.284086802302193,-2.3635038816758254
