accel_time_list,vertical_Accel_x,vertical_Accel_y,vertical_Accel_z
0.0,5.795,7.682,2.938
0.008,5.225,5.718,2.922
0.016,5.216833333333333,5.957416666666667,2.895916666666667
0.024,5.208666666666666,6.196833333333333,2.8698333333333332
0.032,5.2005,6.436249999999999,2.84375
0.04,5.192333333333333,6.675666666666666,2.8176666666666668
0.048,5.184166666666666,6.9150833333333335,2.7915833333333335
0.056,5.176,7.1545,2.7655000000000003
0.064,5.167833333333333,7.393916666666666,2.7394166666666666
0.07200000000000001,5.159666666666666,7.633333333333333,2.7133333333333334
0.08,5.1514999999999995,7.87275,2.68725
0.088,5.1433333333333335,8.112166666666665,2.661166666666667
0.096,5.135166666666667,8.351583333333332,2.635083333333333
0.10400000000000001,5.127000000000009,8.590999999999989,2.6090000000000066
0.112,5.627,7.891,2.609
0.12,5.3595,7.9296428571428565,2.434071428571429
0.128,5.2387,8.005871428571428,2.3957857142857146
0.136,5.1179,8.0821,2.3575000000000004
0.14400000000000002,4.9971,8.158328571428571,2.3192142857142857
0.152,4.8763,8.234557142857142,2.280928571428572
0.16,4.7555,8.310785714285714,2.242642857142857
0.168,4.6347,8.387014285714285,2.204357142857143
0.176,4.5139000000000005,8.463242857142857,2.1660714285714286
0.184,4.3931000000000004,8.539471428571428,2.1277857142857144
0.192,3.758238532110092,8.238715596330277,2.377137614678899
0.2,3.7281467889908257,8.236440366972477,2.3622385321100916
0.20800000000000002,3.6980550458715595,8.23416513761468,2.3473394495412845
0.216,3.6679633027522938,8.231889908256882,2.332440366972477
0.224,3.6378715596330276,8.229614678899082,2.31754128440367
0.232,3.6077798165137613,8.227339449541285,2.3026422018348622
0.24,3.5776880733944956,8.225064220183487,2.287743119266055
0.248,3.5475963302752294,8.222788990825688,2.272844036697248
0.256,3.517504587155963,8.22051376146789,2.2579449541284404
0.264,3.487412844036697,8.218238532110092,2.243045871559633
0.272,3.457321100917431,8.215963302752295,2.2281467889908257
0.28,3.427229357798165,8.213688073394495,2.2132477064220186
0.28800000000000003,3.3971376146788987,8.211412844036698,2.198348623853211
0.296,3.367045871559633,8.2091376146789,2.183449541284404
0.304,2.4234999999999998,7.6965,1.862
0.312,1.9700000000000002,7.632714285714285,1.6957142857142857
0.32,1.8774285714285714,7.618673469387755,1.7079591836734695
0.328,1.7848571428571427,7.604632653061224,1.7202040816326531
0.336,1.6922857142857142,7.590591836734694,1.7324489795918367
0.34400000000000003,1.5997142857142856,7.5765510204081625,1.7446938775510206
0.352,1.5071428571428576,7.562510204081632,1.756938775510204
0.36,1.414571428571429,7.548469387755102,1.7691836734693878
0.368,1.3220000000000003,7.534428571428571,1.7814285714285714
0.376,1.2294285714285715,7.520387755102041,1.793673469387755
0.384,1.136857142857143,7.50634693877551,1.8059183673469388
0.392,1.0442857142857143,7.492306122448979,1.8181632653061224
0.4,0.9517142857142857,7.478265306122449,1.830408163265306
0.40800000000000003,-0.8829999999999769,6.8729999999999976,3.9349999999999694
0.41600000000000004,1.7536551724137919,5.553816091954022,-0.5030804597701151
0.424,1.5682758620689654,5.369080459770115,-0.5154022988505748
0.432,1.3828965517241376,5.184344827586206,-0.5277241379310345
0.44,1.19751724137931,4.999609195402298,-0.5400459770114943
0.448,1.0121379310344825,4.8148735632183906,-0.5523678160919541
0.456,0.8267586206896547,4.630137931034482,-0.5646896551724139
0.464,0.6413793103448269,4.445402298850574,-0.5770114942528736
0.47200000000000003,0.4559999999999993,4.2606666666666655,-0.5893333333333334
0.48,0.27062068965517283,4.075931034482759,-0.6016551724137931
0.488,0.08524137931034526,3.891195402298851,-0.6139770114942529
0.496,-0.10013793103448254,3.706459770114943,-0.6262988505747127
0.504,-0.28044444444444444,1.9715555555555555,0.9742222222222222
0.512,-0.5,1.52,2.36
0.52,-1.2025647058823525,-1.4809529411764708,5.012011764705882
0.528,-0.7236941176470578,-1.8728588235294126,5.042035294117647
0.536,-0.2448235294117631,-2.264764705882354,5.072058823529412
0.544,0.23404705882353172,-2.6566705882352957,5.102082352941176
0.552,0.7129176470588263,-3.0485764705882374,5.132105882352941
0.56,1.1917882352941211,-3.4404823529411788,5.162129411764706
0.5680000000000001,1.670658823529416,-3.832388235294121,5.192152941176471
0.5760000000000001,2.1495294117647106,-4.224294117647062,5.222176470588235
0.584,2.628399999999999,-4.616199999999998,5.2522
0.592,3.107270588235293,-5.0081058823529405,5.282223529411764
0.6,3.586141176470588,-5.400011764705882,5.312247058823529
0.608,12.053,-9.079,18.332
0.616,12.524063829787236,-8.296276595744681,17.783574468085106
0.624,12.99512765957447,-7.51355319148936,17.235148936170212
0.632,13.466191489361705,-6.73082978723404,16.686723404255318
0.64,13.937255319148939,-5.94810638297872,16.138297872340424
0.648,14.408319148936174,-5.1653829787234,15.58987234042553
0.656,14.879382978723408,-4.38265957446808,15.041446808510635
0.664,15.350446808510643,-3.59993617021276,14.49302127659574
0.672,15.821510638297877,-2.8172127659574393,13.944595744680846
0.68,16.292574468085114,-2.0344893617021196,13.396170212765952
0.6880000000000001,16.763638297872347,-1.251765957446799,12.847744680851058
0.6960000000000001,17.23470212765958,-0.46904255319147836,12.299319148936164
0.704,13.112,0.8825,9.062000000000001
0.712,10.93375,1.8944583333333334,7.1587499999999995
0.72,10.39175,2.168125,6.41675
0.728,9.84975,2.4417916666666666,5.6747499999999995
0.736,9.434285714285714,1.7746428571428572,4.616714285714286
0.744,9.433142857142858,1.8188714285714287,4.427457142857143
0.752,9.432,1.8631,4.2382
0.76,9.430857142857143,1.9073285714285715,4.048942857142857
0.768,9.429714285714287,1.9515571428571428,3.859685714285715
0.776,9.428571428571429,1.9957857142857143,3.670428571428572
0.784,9.427428571428573,2.040014285714286,3.481171428571429
0.792,9.426285714285715,2.084242857142857,3.2919142857142862
0.8,9.425142857142857,2.1284714285714283,3.1026571428571432
0.808,10.551333333333334,0.009666666666666657,4.163333333333333
0.8160000000000001,10.932771739130436,-0.048728260869565165,3.7611086956521738
0.8240000000000001,10.940510869565218,0.011010869565217518,3.6458043478260866
0.8320000000000001,10.94825,0.0707500000000002,3.5304999999999995
0.84,10.955989130434784,0.13048913043478202,3.415195652173914
0.848,10.963728260869566,0.1902282608695647,3.299891304347827
0.856,10.971467391304348,0.2499673913043474,3.18458695652174
0.864,10.979206521739131,0.30970652173913005,3.069282608695653
0.872,10.986945652173914,0.3694456521739128,2.9539782608695657
0.88,10.994684782608696,0.4291847826086954,2.8386739130434786
0.888,11.00242391304348,0.48892391304347815,2.723369565217392
0.896,11.010163043478261,0.5486630434782608,2.608065217391305
0.904,10.123999999999999,0.368,2.247
0.912,9.820333333333332,-0.41400000000000003,2.408333333333333
0.92,9.859431818181818,-0.503193181818182,2.4549431818181815
0.928,9.877068181818181,-0.5445568181818184,2.466306818181818
0.936,9.894704545454545,-0.5859204545454548,2.4776704545454544
0.9440000000000001,9.91234090909091,-0.6272840909090913,2.4890340909090907
0.9520000000000001,9.929977272727273,-0.6686477272727278,2.5003977272727274
0.96,9.947613636363636,-0.7100113636363636,2.5117613636363636
0.968,9.96525,-0.7513750000000001,2.523125
0.976,9.982886363636364,-0.7927386363636366,2.534488636363636
0.984,10.000522727272728,-0.8341022727272731,2.5458522727272728
0.992,10.01815909090909,-0.8754659090909096,2.557215909090909
1.0,10.035795454545456,-0.9168295454545461,2.5685795454545453
1.008,10.73,-1.028,2.471
1.016,8.399831460674156,-0.7064606741573051,3.3033595505617974
1.024,8.343382022471909,-0.8330224719101139,3.2856516853932582
1.032,8.286932584269662,-0.9595842696629228,3.267943820224719
1.04,8.230483146067415,-1.0861460674157315,3.2502359550561795
1.048,8.174033707865167,-1.2127078651685403,3.2325280898876403
1.056,8.11758426966292,-1.3392696629213492,3.214820224719101
1.064,8.061134831460674,-1.465831460674158,3.1971123595505615
1.072,8.004685393258427,-1.5923932584269669,3.1794044943820223
1.08,7.948235955056179,-1.7189550561797757,3.161696629213483
1.088,7.891786516853933,-1.8455168539325846,3.143988764044944
1.096,7.835337078651685,-1.9720786516853934,3.1262808988764044
1.104,7.652599999999997,-2.0846000000000005,3.1406000000000005
1.112,7.246583333333329,-2.050999999999999,3.2532500000000018
1.12,6.912999999999993,-2.0170000000000057,3.5230000000000192
1.1280000000000001,7.017974025974025,-2.502701298701299,4.3779220779220775
1.1360000000000001,6.8539220779220775,-2.7081038961038963,4.533766233766234
1.1440000000000001,6.689870129870129,-2.9135064935064943,4.68961038961039
1.1520000000000001,6.525818181818181,-3.1189090909090917,4.845454545454546
1.16,6.361766233766237,-3.324311688311684,5.001298701298698
1.168,6.197714285714289,-3.529714285714282,5.157142857142854
1.176,6.03366233766234,-3.7351168831168793,5.31298701298701
1.184,5.869610389610393,-3.9405194805194768,5.468831168831166
1.192,5.705558441558444,-4.145922077922075,5.624675324675322
1.2,5.541506493506496,-4.351324675324673,5.780519480519478
1.208,4.687,-6.096,6.2
1.216,5.572978494623656,-6.505107526881719,6.47741935483871
1.224,5.582096774193548,-6.643516129032257,6.451612903225807
1.232,5.591215053763441,-6.781924731182794,6.425806451612903
1.24,5.600333333333333,-6.920333333333333,6.4
1.248,5.609451612903226,-7.05874193548387,6.3741935483870975
1.256,5.618569892473118,-7.197150537634408,6.348387096774194
1.264,5.627688172043011,-7.335559139784946,6.322580645161291
1.272,5.6368064516129035,-7.473967741935484,6.296774193548387
1.28,5.645924731182796,-7.612376344086021,6.270967741935484
1.288,5.655043010752689,-7.750784946236559,6.245161290322581
1.296,5.664161290322581,-7.889193548387097,6.219354838709678
1.304,5.917857142857147,-8.399571428571436,6.142857142857142
1.312,8.009500000000033,-11.525000000000047,5.449999999999995
1.32,11.197704545454545,-10.211045454545454,6.201590909090909
1.328,11.311977272727272,-10.337772727272727,5.937045454545454
1.336,11.426250000000001,-10.464500000000001,5.6724999999999985
1.344,11.540522727272728,-10.591227272727274,5.407954545454543
1.352,11.654795454545456,-10.717954545454546,5.143409090909088
1.36,11.769068181818184,-10.84468181818182,4.878863636363633
1.368,11.883340909090911,-10.971409090909093,4.614318181818177
1.3760000000000001,11.997613636363639,-11.098136363636366,4.349772727272722
1.3840000000000001,12.111886363636366,-11.224863636363638,4.085227272727266
1.3920000000000001,12.226159090909093,-11.351590909090913,3.8206818181818116
1.4000000000000001,12.340431818181822,-11.478318181818185,3.5561363636363565
1.408,24.750000000000014,-14.850000000000218,1.9500000000000042
1.416,23.77967391304349,-12.683478260869569,1.8045652173913058
1.424,22.821586956521745,-12.449739130434784,1.6817826086956533
1.432,21.863500000000005,-12.216000000000001,1.5590000000000008
1.44,20.905413043478266,-11.982260869565218,1.4362173913043483
1.448,19.947326086956522,-11.748521739130435,1.3134347826086958
1.456,18.989239130434783,-11.514782608695652,1.1906521739130433
1.464,18.03115217391304,-11.281043478260868,1.067869565217391
1.472,17.0730652173913,-11.047304347826085,0.9450869565217385
1.48,16.114978260869556,-10.813565217391302,0.8223043478260861
1.488,15.156891304347816,-10.579826086956519,0.6995217391304336
1.496,14.198804347826075,-10.346086956521736,0.5767391304347811
1.504,7.431181818181792,-3.329363636363609,3.360272727272731
1.512,5.352636363636359,-1.172272727272722,3.6584545454545463
1.52,4.8911999999999995,0.0030000000000000027,2.0949999999999998
1.528,7.168080000000001,1.9788133333333333,-1.6218
1.536,7.5604000000000005,2.002066666666667,-1.697
1.544,7.952720000000001,2.0253200000000002,-1.7722000000000002
1.552,8.345040000000001,2.0485733333333336,-1.8474000000000004
1.56,8.737360000000002,2.071826666666667,-1.9226000000000005
1.568,9.129680000000002,2.0950800000000003,-1.9978000000000005
1.576,9.522000000000004,2.1183333333333336,-2.0730000000000004
1.584,9.914320000000004,2.141586666666667,-2.1482000000000006
1.592,10.306640000000005,2.1648400000000003,-2.2234000000000007
1.6,10.698960000000005,2.1880933333333337,-2.298600000000001
1.608,0.6819999999999999,4.829,0.256
1.616,0.6811397849462366,4.842677419354838,0.24249462365591395
1.624,0.6802795698924732,4.856354838709677,0.22898924731182793
1.6320000000000001,0.6794193548387097,4.870032258064516,0.2154838709677419
1.6400000000000001,0.6785591397849463,4.883709677419355,0.20197849462365586
1.6480000000000001,0.6776989247311829,4.897387096774193,0.1884731182795698
1.6560000000000001,0.6768387096774194,4.9110645161290325,0.17496774193548378
1.6640000000000001,0.675978494623656,4.924741935483871,0.16146236559139776
1.672,0.6751182795698926,4.938419354838709,0.1479569892473121
1.68,0.6742580645161291,4.952096774193548,0.13445161290322605
1.688,0.6733978494623657,4.965774193548388,0.12094623655914
1.696,0.6725376344086023,4.979451612903226,0.10744086021505397
1.704,1.7603999999999933,4.561600000000016,-0.11020000000000353
1.712,2.3551978021977984,0.9348901098901113,3.6992857142857125
1.72,2.6127802197802166,0.8220109890109903,3.829571428571427
1.728,2.8703626373626343,0.7091318681318693,3.959857142857141
1.736,3.1279450549450525,0.5962527472527483,4.0901428571428555
1.744,3.38552747252747,0.4833736263736273,4.22042857142857
1.752,3.643109890109888,0.37049450549450635,4.350714285714284
1.76,3.900692307692306,0.25761538461538525,4.480999999999999
1.768,4.158274725274724,0.14473626373626425,4.611285714285714
1.776,4.415857142857142,0.03185714285714325,4.741571428571428
1.784,4.67343956043956,-0.08102197802197775,4.871857142857142
1.792,4.9310219780219775,-0.19390109890109886,5.002142857142857
1.8,5.188604395604395,-0.30678021978021974,5.132428571428571
1.808,26.766333333333282,-17.606833333333448,15.831833333333197
1.816,23.94682954545453,-22.642863636363632,9.956136363636372
1.824,22.890374999999985,-22.354499999999998,10.596500000000008
1.832,21.83392045454544,-22.06613636363636,11.236863636363646
1.84,20.777465909090893,-21.777772727272726,11.877227272727282
1.848,19.72101136363635,-21.48940909090909,12.517590909090918
1.856,18.664556818181804,-21.20104545454545,13.157954545454555
1.864,17.60810227272726,-20.912681818181817,13.798318181818193
1.872,16.551647727272712,-20.62431818181818,14.438681818181827
1.8800000000000001,15.495193181818166,-20.33595454545454,15.079045454545465
1.8880000000000001,14.43873863636362,-20.047590909090907,15.719409090909101
1.8960000000000001,13.382284090909076,-19.75922727272727,16.359772727272738
1.9040000000000001,11.019249999999937,-17.519249999999925,15.314999999999948
1.9120000000000001,6.47858333333327,-12.026583333333257,11.461666666666613
1.92,7.335333333333355,-6.203333333333368,5.682000000000019
1.928,6.785925000000003,-5.468550000000004,5.4425875
1.936,6.492125000000003,-5.161750000000003,5.4546875
1.944,6.198325000000002,-4.854950000000002,5.466787500000001
1.952,5.904525000000001,-4.5481500000000015,5.4788875
1.96,5.610725,-4.241350000000001,5.4909875
1.968,5.3169249999999995,-3.9345499999999993,5.5030875
1.976,5.0231249999999985,-3.6277499999999985,5.515187500000001
1.984,4.729324999999998,-3.3209499999999976,5.5272875
1.992,4.435524999999997,-3.0141499999999968,5.5393875
2.0,4.1417249999999965,-2.707349999999996,5.5514875
2.008,0.5449999999999999,-1.794,1.532
2.016,-1.4794831460674158,-1.232123595505618,-2.6670449438202244
2.024,-1.6184494382022474,-1.234370786516854,-2.715134831460674
2.032,-1.757415730337079,-1.2366179775280899,-2.7632247191011237
2.04,-1.8963820224719106,-1.238865168539326,-2.811314606741573
2.048,-2.0353483146067424,-1.2411123595505618,-2.8594044943820225
2.056,-2.174314606741574,-1.2433595505617978,-2.907494382022472
2.064,-2.3132808988764055,-1.2456067415730339,-2.9555842696629218
2.072,-2.4522471910112373,-1.2478539325842697,-3.003674157303371
2.08,-2.5912134831460687,-1.2501011235955057,-3.0517640449438206
2.088,-2.7301797752809005,-1.2523483146067416,-3.09985393258427
2.096,-2.8691460674157323,-1.2545955056179776,-3.14794382022472
2.104,-2.8525,-1.63,-3.058
2.112,6.326,-8.307,9.404
2.12,6.751872340425533,-8.499936170212766,9.734382978723405
2.128,7.177744680851066,-8.692872340425533,10.06476595744681
2.136,7.603617021276598,-8.885808510638299,10.395148936170216
2.144,8.029489361702131,-9.078744680851067,10.72553191489362
2.152,8.455361702127664,-9.271680851063833,11.055914893617025
2.16,8.881234042553197,-9.464617021276599,11.38629787234043
2.168,9.30710638297873,-9.657553191489365,11.716680851063835
2.176,9.732978723404264,-9.850489361702131,12.047063829787241
2.184,10.158851063829797,-10.043425531914897,12.377446808510644
2.192,10.584723404255328,-10.236361702127663,12.70782978723405
2.2,11.010595744680863,-10.429297872340431,13.038212765957455
2.208,17.774000000000314,-16.62300000000035,16.975000000000065
2.216,18.65034831460674,-10.462932584269662,12.08991011235955
2.224,18.533044943820226,-9.754797752808988,11.26573033707865
2.232,18.415741573033706,-9.046662921348313,10.44155056179775
2.24,18.29843820224719,-8.338528089887637,9.617370786516851
2.248,18.181134831460675,-7.630393258426963,8.793191011235951
2.2560000000000002,18.063831460674155,-6.9222584269662875,7.969011235955051
2.2640000000000002,17.94652808988764,-6.214123595505613,7.144831460674151
2.2720000000000002,17.829224719101123,-5.505988764044938,6.320651685393251
2.2800000000000002,17.711921348314604,-4.797853932584262,5.496471910112351
2.2880000000000003,17.594617977528088,-4.089719101123587,4.6722921348314514
2.2960000000000003,17.477314606741572,-3.3815842696629126,3.8481123595505515
2.3040000000000003,11.815999999999619,1.2455000000001966,1.880499999999908
2.312,6.3662448979591835,4.4755510204081626,-0.45740816326530614
2.32,6.242734693877551,4.566653061224489,-0.43022448979591843
2.328,6.119224489795919,4.657755102040816,-0.40304081632653077
2.336,5.995714285714286,4.748857142857142,-0.37585714285714306
2.344,5.872204081632654,4.839959183673469,-0.34867346938775534
2.352,5.7486938775510215,4.9310612244897944,-0.3214897959183677
2.36,5.625183673469389,5.022163265306121,-0.29430612244897997
2.368,5.501673469387757,5.113265306122448,-0.26712244897959225
2.376,5.378163265306124,5.204367346938774,-0.2399387755102046
2.384,5.254653061224492,5.2954693877551,-0.21275510204081693
2.392,5.13114285714286,5.386571428571426,-0.18557142857142922
2.4,5.007632653061227,5.477673469387753,-0.1583877551020415
2.408,2.327,4.731,0.5075
2.416,0.19502247191011238,7.030134831460674,1.442179775280899
2.424,0.2150674157303371,6.982404494382022,1.4505393258426966
2.432,0.23511235955056187,6.934674157303371,1.4588988764044943
2.44,0.25515730337078657,6.886943820224719,1.467258426966292
2.448,0.27520224719101133,6.839213483146067,1.4756179775280898
2.456,0.2952471910112361,6.791483146067415,1.4839775280898877
2.464,0.3152921348314608,6.743752808988764,1.4923370786516854
2.472,0.33533707865168555,6.696022471910112,1.5006966292134831
2.48,0.3553820224719103,6.64829213483146,1.5090561797752808
2.488,0.375426966292135,6.600561797752809,1.5174157303370788
2.496,0.39547191011235977,6.552831460674156,1.5257752808988765
2.504,0.9460000000000001,5.4885,1.4845000000000002
2.512,17.0390101010101,6.922010101010101,3.6719999999999997
2.52,18.2970303030303,6.660030303030304,4.551999999999999
2.528,19.555050505050502,6.398050505050506,5.431999999999998
2.536,20.8130707070707,6.136070707070708,6.311999999999998
2.544,22.071090909090902,5.87409090909091,7.191999999999997
2.552,23.329111111111104,5.612111111111113,8.071999999999996
2.56,24.587131313131305,5.350131313131315,8.951999999999995
2.568,25.845151515151507,5.088151515151517,9.831999999999994
2.576,27.103171717171705,4.82617171717172,10.711999999999993
2.584,28.361191919191906,4.564191919191922,11.591999999999992
2.592,29.619212121212108,4.302212121212124,12.47199999999999
2.6,30.877232323232306,4.040232323232326,13.35199999999999
2.608,34.047,0.11650000000000027,14.743
2.616,24.903333333333332,-11.814666666666666,9.116666666666667
2.624,17.216,-9.378,6.564
2.632,16.187179487179485,-8.919128205128203,6.7699487179487186
2.64,15.158358974358968,-8.460256410256408,6.975897435897437
2.648,14.129538461538454,-8.001384615384612,7.1818461538461555
2.656,13.100717948717937,-7.542512820512815,7.387794871794874
2.664,12.071897435897423,-7.083641025641019,7.5937435897435925
2.672,11.043076923076907,-6.624769230769223,7.799692307692311
2.68,10.01425641025639,-6.165897435897427,8.00564102564103
2.688,8.985435897435874,-5.707025641025631,8.211589743589748
2.696,7.9566153846153576,-5.248153846153834,8.417538461538467
2.704,6.3403333333332705,-4.49399999999997,6.691999999999861
2.712,2.314011111111107,-4.053133333333331,2.9787111111111066
2.72,2.2100999999999957,-3.9901999999999975,2.872399999999996
2.728,2.106188888888885,-3.9272666666666645,2.766088888888885
2.736,2.002277777777774,-3.8643333333333314,2.6597777777777742
2.744,1.8983666666666634,-3.801399999999998,2.5534666666666634
2.7520000000000002,1.7944555555555524,-3.738466666666665,2.4471555555555526
2.7600000000000002,1.6905444444444417,-3.6755333333333318,2.340844444444442
2.7680000000000002,1.5866333333333307,-3.6125999999999987,2.2345333333333306
2.7760000000000002,1.4827222222222198,-3.549666666666665,2.1282222222222202
2.7840000000000003,1.378811111111109,-3.486733333333332,2.021911111111109
2.7920000000000003,1.2748999999999981,-3.423799999999999,1.9155999999999982
2.8000000000000003,1.1709888888888873,-3.360866666666666,1.8092888888888874
2.8080000000000003,-0.2510000000000031,-2.9829999999999974,0.4229999999999994
2.816,-0.30682795698924736,-2.9328494623655916,0.4124193548387097
2.824,-0.3626559139784948,-2.8826989247311827,0.4018387096774193
2.832,-0.41848387096774214,-2.8325483870967743,0.391258064516129
2.84,-0.47431182795698956,-2.7823978494623653,0.3806774193548387
2.848,-0.5301397849462369,-2.732247311827957,0.3700967741935483
2.856,-0.5859677419354843,-2.682096774193548,0.359516129032258
2.864,-0.6417956989247318,-2.6319462365591395,0.3489354838709676
2.872,-0.697623655913979,-2.5817956989247306,0.3383548387096773
2.88,-0.7534516129032265,-2.531645161290322,0.327774193548387
2.888,-0.8092795698924738,-2.4814946236559132,0.3171935483870966
2.896,-0.8651075268817212,-2.4313440860215048,0.3066129032258063
2.904,0.43300000000000005,-1.867,4.933
2.912,0.9201770833333363,1.367052083333334,8.497260416666673
2.92,1.134093750000003,1.4059687500000004,9.027843750000008
2.928,1.3480104166666695,1.4448854166666671,9.55842708333334
2.936,1.561927083333336,1.4838020833333339,10.089010416666675
2.944,1.775843750000003,1.5227187500000006,10.619593750000007
2.952,1.9897604166666696,1.5616354166666673,11.15017708333334
2.96,2.203677083333336,1.600552083333334,11.680760416666674
2.968,2.4175937500000027,1.6394687500000005,12.211343750000008
2.976,2.6315104166666696,1.6783854166666672,12.74192708333334
2.984,2.845427083333336,1.717302083333334,13.272510416666673
2.992,3.0593437500000027,1.7562187500000006,13.803093750000007
3.0,3.2732604166666697,1.795135416666667,14.333677083333342
3.008,15.51928571428569,-0.966428571428527,27.09071428571422
3.016,14.528428571428563,0.8998571428571578,24.385571428571406
3.024,14.028555555555554,1.7583827160493826,22.551222222222222
3.032,14.019666666666666,1.6091481481481478,21.587666666666667
3.04,14.010777777777777,1.459913580246913,20.62411111111111
3.048,14.001888888888889,1.3106790123456782,19.66055555555555
3.056,13.993,1.1614444444444434,18.696999999999996
3.064,13.98411111111111,1.0122098765432086,17.733444444444437
3.072,13.975222222222222,0.8629753086419739,16.76988888888888
3.08,13.966333333333333,0.7137407407407392,15.806333333333324
3.088,13.957444444444445,0.5645061728395044,14.842777777777766
3.096,13.948555555555554,0.41527160493826965,13.879222222222209
3.104,9.408,3.313,6.528
3.112,6.5109139784946235,2.7448602150537638,2.8783010752688174
3.12,6.40674193548387,2.7945806451612905,2.7509032258064514
3.128,6.302569892473118,2.8443010752688176,2.623505376344086
3.136,6.198397849462365,2.8940215053763443,2.49610752688172
3.144,6.094225806451612,2.9437419354838714,2.3687096774193543
3.152,5.9900537634408595,2.993462365591398,2.2413118279569884
3.16,5.885881720430107,3.0431827956989252,2.113913978494623
3.168,5.781709677419354,3.0929032258064524,1.986516129032257
3.176,5.677537634408601,3.142623655913979,1.8591182795698913
3.184,5.573365591397849,3.192344086021506,1.7317204301075255
3.192,5.4691935483870955,3.242064516129033,1.6043225806451598
3.2,5.365021505376343,3.29178494623656,1.476924731182794
3.208,2.939571428571405,3.5655714285714692,-1.34600000000004
3.216,2.1952840909090896,6.947000000000004,-2.6735909090909105
3.224,2.0973749999999987,7.195000000000004,-2.7685000000000013
3.232,1.999465909090908,7.443000000000003,-2.863409090909092
3.24,1.901556818181817,7.691000000000003,-2.958318181818183
3.248,1.803647727272726,7.939000000000004,-3.0532272727272742
3.2560000000000002,1.705738636363635,8.187000000000005,-3.148136363636365
3.2640000000000002,1.6078295454545444,8.435000000000004,-3.243045454545456
3.2720000000000002,1.5099204545454534,8.683000000000003,-3.3379545454545467
3.2800000000000002,1.4120113636363625,8.931000000000004,-3.4328636363636376
3.2880000000000003,1.3141022727272715,9.179000000000004,-3.527772727272729
3.2960000000000003,1.2161931818181806,9.427000000000003,-3.6226818181818197
3.3040000000000003,0.6600000000002292,9.676499999999782,-4.854000000000139
3.3120000000000003,13.461333333333481,6.399043010752648,8.885774193548425
3.3200000000000003,16.11200000000015,5.6871290322580235,9.5673225806452
3.3280000000000003,18.76266666666682,4.9752150537633995,10.248870967741976
3.336,21.413333333333345,4.263301075268814,10.930419354838712
3.344,24.064000000000014,3.5513870967741896,11.611967741935487
3.352,26.714666666666687,2.839473118279565,12.293516129032263
3.36,29.365333333333357,2.1275591397849407,12.975064516129038
3.368,32.01600000000003,1.4156451612903167,13.656612903225813
3.376,34.6666666666667,0.7037311827956918,14.338161290322589
3.384,37.317333333333366,-0.008182795698933099,15.019709677419362
3.392,39.96800000000003,-0.7200967741935571,15.701258064516137
3.4,42.61866666666671,-1.4320107526881811,16.38280645161291
3.408,24.762624999999968,-12.603999999999994,30.813374999999958
3.416,22.428291666666635,-12.179999999999994,27.93170833333329
3.424,20.093958333333305,-11.755999999999993,25.050041666666626
3.432,8.63509333333334,-6.624520000000007,15.072613333333335
3.44,7.995840000000006,-6.116680000000004,14.98952
3.448,7.3565866666666695,-5.6088400000000025,14.906426666666666
3.456,6.717333333333333,-5.101,14.823333333333334
3.464,6.078079999999996,-4.5931599999999975,14.74024
3.472,5.43882666666666,-4.085319999999996,14.657146666666666
3.48,4.799573333333324,-3.5774799999999933,14.574053333333332
3.488,4.160319999999989,-3.0696399999999913,14.49096
3.496,3.521066666666652,-2.561799999999989,14.407866666666665
3.504,2.881813333333316,-2.0539599999999867,14.324773333333331
3.512,2.8715,-2.0185,4.279999999999999
3.52,3.001829545454544,-1.4923977272727265,3.152954545454546
3.528,2.9239204545454536,-1.436852272727272,3.1700454545454546
3.536,2.8460113636363626,-1.3813068181818173,3.187136363636364
3.544,2.7681022727272717,-1.3257613636363628,3.204227272727273
3.552,2.690193181818181,-1.2702159090909082,3.221318181818182
3.56,2.61228409090909,-1.2146704545454539,3.2384090909090912
3.568,2.534374999999999,-1.1591249999999993,3.2555
3.576,2.456465909090908,-1.1035795454545447,3.2725909090909093
3.584,2.378556818181817,-1.0480340909090902,3.2896818181818186
3.592,2.300647727272726,-0.9924886363636356,3.3067727272727274
3.6,2.2227386363636352,-0.9369431818181811,3.3238636363636367
3.608,-1.2994623655913975,-1.7074516129032258,4.217032258064515
3.616,-1.3191612903225804,-1.7110645161290323,4.297290322580644
3.624,-1.3388602150537632,-1.7146774193548386,4.377548387096773
3.632,-1.358559139784946,-1.7182903225806452,4.457806451612902
3.64,-1.3782580645161289,-1.7219032258064517,4.538064516129031
3.648,-1.3979569892473116,-1.725516129032258,4.61832258064516
3.656,-1.4176559139784946,-1.7291290322580646,4.6985806451612895
3.664,-1.4373548387096773,-1.7327419354838711,4.7788387096774185
3.672,-1.45705376344086,-1.7363548387096774,4.859096774193548
3.68,-1.476752688172043,-1.739967741935484,4.939354838709677
3.688,-1.4964516129032257,-1.7435806451612905,5.019612903225806
3.696,-1.5161505376344087,-1.7471935483870968,5.099870967741935
3.704,-3.007166666666571,1.9021666666668569,2.583666666666643
3.712,1.4718000000000038,12.43071111111116,5.05382222222224
3.72,1.5662000000000036,13.636400000000046,5.484400000000017
3.728,1.6606000000000034,14.842088888888933,5.914977777777794
3.736,1.755000000000003,16.047777777777817,6.3455555555555705
3.744,1.8494000000000028,17.253466666666704,6.776133333333346
3.7520000000000002,1.9438000000000026,18.45915555555559,7.206711111111123
3.7600000000000002,2.0382000000000025,19.664844444444476,7.6372888888889
3.7680000000000002,2.132600000000002,20.870533333333363,8.067866666666678
3.7760000000000002,2.227000000000002,22.07622222222225,8.498444444444454
3.7840000000000003,2.3214000000000015,23.281911111111135,8.92902222222223
3.7920000000000003,2.4158000000000013,24.487600000000022,9.359600000000007
3.8000000000000003,2.510200000000001,25.693288888888908,9.790177777777783
3.8080000000000003,3.6180833333333635,27.69608333333335,13.717500000000026
3.8160000000000003,4.068499999999959,24.977499999999335,10.972499999999274
3.8240000000000003,3.2888999999999773,17.983899999999846,4.246599999999868
3.8320000000000003,3.526466666666699,15.85626666666664,2.7409333333333317
3.84,4.316013333333321,15.199093333333344,2.699226666666667
3.848,5.105559999999986,14.541920000000012,2.6575200000000008
3.856,5.895106666666652,13.884746666666679,2.615813333333334
3.864,6.684653333333317,13.227573333333346,2.574106666666667
3.872,7.474199999999984,12.570400000000014,2.532400000000001
3.88,8.263746666666648,11.913226666666683,2.490693333333334
3.888,9.053293333333315,11.25605333333335,2.4489866666666678
3.896,9.84283999999998,10.598880000000019,2.407280000000001
3.904,11.428,7.121,1.478
3.912,6.740780219780224,2.5638021978022016,-4.194703296703292
3.92,6.595901098901103,2.4350109890109928,-4.373516483516479
3.928,6.451021978021982,2.3062197802197844,-4.552329670329665
3.936,6.306142857142862,2.1774285714285755,-4.731142857142852
3.944,6.1612637362637415,2.048637362637367,-4.909956043956038
3.952,6.01638461538462,1.9198461538461582,-5.088769230769225
3.96,5.8715054945055,1.7910549450549498,-5.267582417582411
3.968,5.726626373626379,1.662263736263741,-5.4463956043955974
3.976,5.581747252747258,1.5334725274725323,-5.6252087912087845
3.984,5.436868131868137,1.4046813186813236,-5.8040219780219715
3.992,5.291989010989017,1.275890109890115,-5.982835164835158
4.0,5.1471098901098955,1.1470989010989063,-6.161648351648344
4.008,5.003,-2.075,-6.027
4.016,4.865537634408602,-2.128935483870968,-5.8713870967741935
4.024,4.728075268817204,-2.182870967741936,-5.715774193548387
4.032,4.590612903225806,-2.2368064516129036,-5.56016129032258
4.04,4.453150537634408,-2.2907419354838714,-5.404548387096773
4.048,4.31568817204301,-2.344677419354839,-5.248935483870967
4.056,4.178225806451612,-2.398612903225807,-5.09332258064516
4.064,4.040763440860214,-2.452548387096775,-4.937709677419353
4.072,3.903301075268816,-2.5064838709677426,-4.782096774193547
4.08,3.7658387096774177,-2.5604193548387104,-4.62648387096774
4.088,3.6283763440860195,-2.614354838709678,-4.470870967741933
4.096,3.4909139784946217,-2.6682903225806456,-4.315258064516127
4.104,7.351,2.316,-2.336
4.112,28.94266666666672,7.691827956989294,-5.6600860215053945
4.12,29.908000000000058,8.51548387096779,-5.980258064516147
4.128,30.87333333333339,9.339139784946285,-6.300430107526901
4.136,31.838666666666725,10.16279569892478,-6.620602150537653
4.144,32.80400000000006,10.986451612903275,-6.940774193548407
4.152,33.76933333333339,11.810107526881772,-7.2609462365591595
4.16,34.734666666666726,12.633763440860267,-7.581118279569912
4.168,35.70000000000007,13.457419354838763,-7.901290322580666
4.176,36.6653333333334,14.281075268817258,-8.22146236559142
4.184,37.630666666666734,15.104731182795753,-8.541634408602171
4.192,38.59600000000007,15.928387096774248,-8.861806451612924
4.2,39.5613333333334,16.752043010752743,-9.181978494623678
4.208,36.23099999999976,20.33400000000024,-4.650999999999683
4.216,15.71249999999855,11.212999999999177,4.33199999999971
4.224,12.024083333333301,9.50375000000001,3.35833333333331
4.232,11.54074999999997,9.669178571428581,2.990714285714264
4.24,11.05741666666664,9.834607142857152,2.6230952380952184
4.248,10.57408333333331,10.000035714285723,2.2554761904761724
4.256,10.090749999999979,10.165464285714293,1.887857142857127
4.264,9.607416666666648,10.330892857142864,1.520238095238081
4.272,9.124083333333317,10.496321428571434,1.1526190476190354
4.28,8.640749999999986,10.661750000000005,0.7849999999999899
4.288,8.157416666666656,10.827178571428576,0.41738095238094397
4.296,7.674083333333325,10.992607142857146,0.04976190476189846
4.304,3.672,5.996,0.62
4.312,1.3520000000000003,3.0891914893617023,0.29122340425531956
4.32,1.3200000000000003,3.0782978723404257,0.2451808510638299
4.328,1.288,3.0674042553191487,0.19913829787234022
4.336,1.2559999999999998,3.056510638297872,0.15309574468085052
4.344,1.2239999999999995,3.0456170212765956,0.10705319148936082
4.352,1.1919999999999993,3.034723404255319,0.06101063829787112
4.36,1.159999999999999,3.023829787234042,0.014968085106381424
4.368,1.1279999999999988,3.0129361702127655,-0.031074468085108276
4.376,1.0959999999999985,3.002042553191489,-0.07711702127659797
4.384,1.0639999999999983,2.9911489361702124,-0.12315957446808767
4.392,1.031999999999998,2.9802553191489354,-0.16920212765957737
4.4,0.9999999999999978,2.969361702127659,-0.21524468085106702
4.408,-0.8532857142857857,1.874857142857104,1.3212857142857704
4.416,-0.4714772727272639,0.9974318181818286,2.277113636363625
4.424,-0.3653863636363548,1.1231590909091014,2.1415681818181707
4.432,-0.2592954545454457,1.248886363636374,2.006022727272716
4.44,-0.1532045454545366,1.3746136363636468,1.8704772727272614
4.448,-0.04711363636362753,1.5003409090909197,1.7349318181818068
4.456,0.05897727272728159,1.6260681818181923,1.5993863636363521
4.464,0.1650681818181906,1.7517954545454653,1.4638409090908975
4.472,0.27115909090909973,1.877522727272738,1.328295454545443
4.48,0.37725000000000886,2.0032500000000106,1.1927499999999884
4.488,0.48334090909091787,2.1289772727272833,1.0572045454545338
4.496,0.589431818181827,2.254704545454556,0.9216590909090794
4.5040000000000004,1.952000000000134,4.312000000000896,-3.3850000000017966
4.5120000000000005,6.019560439560455,17.913549450549457,-18.02342857142857
4.5200000000000005,6.893054945054968,18.38968131868133,-18.048571428571428
4.5280000000000005,7.76654945054948,18.865813186813202,-18.073714285714285
4.5360000000000005,8.640043956043993,19.341945054945075,-18.098857142857145
4.5440000000000005,9.513538461538506,19.818076923076948,-18.124000000000002
4.5520000000000005,10.387032967033019,20.29420879120882,-18.14914285714286
4.5600000000000005,11.260527472527532,20.77034065934069,-18.174285714285716
4.5680000000000005,12.134021978022044,21.246472527472562,-18.199428571428573
4.5760000000000005,13.007516483516557,21.722604395604435,-18.22457142857143
4.5840000000000005,13.881010989011072,22.198736263736308,-18.249714285714287
4.5920000000000005,14.754505494505585,22.67486813186818,-18.274857142857147
4.6000000000000005,15.628000000000505,23.151000000000366,-18.299999999999557
4.6080000000000005,19.619625000000003,15.943374999999984,-9.542093749999989
4.616,19.81329166666665,15.032375000000076,-8.854343750000059
4.624,20.00695833333332,14.121375000000068,-8.166593750000052
4.632,20.200624999999988,13.21037500000006,-7.4788437500000455
4.64,20.394291666666657,12.299375000000051,-6.791093750000039
4.648,20.587958333333326,11.388375000000043,-6.1033437500000325
4.656,20.78162499999999,10.477375000000034,-5.415593750000027
4.664,20.97529166666666,9.566375000000026,-4.72784375000002
4.672,21.16895833333333,8.655375000000017,-4.040093750000014
4.68,21.362624999999998,7.7443750000000104,-3.3523437500000073
4.688,21.556291666666667,6.833375000000002,-2.6645937500000008
4.696,21.749958333333332,5.9223749999999935,-1.9768437499999942
4.704,13.871,-3.6469999999999994,2.253
4.712,8.551483870967745,-10.966053763440858,3.197430107526888
4.72,8.421419354838713,-11.0502688172043,2.9671505376344145
4.728,8.29135483870968,-11.13448387096774,2.7368709677419414
4.736,8.161290322580648,-11.21869892473118,2.506591397849468
4.744,8.031225806451616,-11.302913978494622,2.2763118279569943
4.752,7.901161290322583,-11.387129032258063,2.046032258064521
4.76,7.771096774193551,-11.471344086021503,1.8157526881720474
4.768,7.641032258064518,-11.555559139784945,1.585473118279574
4.776,7.510967741935486,-11.639774193548385,1.3551935483871007
4.784,7.3809032258064535,-11.723989247311826,1.1249139784946274
4.792,7.250838709677422,-11.808204301075268,0.8946344086021538
4.8,7.120774193548389,-11.892419354838708,0.6643548387096803
4.808,0.43800000000046957,-9.53100000000041,-2.54050000000006
4.816,-1.4479120879120886,-7.083879120879122,-1.6590549450549457
4.824,-1.4045714285714292,-6.981285714285716,-1.6191428571428577
4.832,-1.3612307692307701,-6.878692307692309,-1.5792307692307699
4.84,-1.3178901098901108,-6.776098901098902,-1.539318681318682
4.848,-1.2745494505494515,-6.673505494505497,-1.499406593406594
4.856,-1.2312087912087921,-6.57091208791209,-1.4594945054945063
4.864,-1.1878681318681328,-6.468318681318683,-1.4195824175824185
4.872,-1.1445274725274737,-6.365725274725277,-1.3796703296703305
4.88,-1.1011868131868143,-6.263131868131871,-1.3397582417582428
4.888,-1.057846153846155,-6.160538461538464,-1.2998461538461548
4.896,-1.0145054945054957,-6.0579450549450575,-1.259934065934067
4.904,-0.30699999999999994,-4.833,-1.147
4.912,17.85847826086958,-2.0570869565217347,2.989043478260862
4.92,19.001086956521746,-1.6626521739130409,2.3518260869565175
4.928,20.143695652173914,-1.268217391304347,1.7146086956521727
4.936,21.286304347826082,-0.8737826086956533,1.0773913043478283
4.944,22.428913043478254,-0.4793478260869597,0.4401739130434832
4.952,23.57152173913042,-0.08491304347826611,-0.19704347826086144
4.96,24.71413043478259,0.3095217391304277,-0.8342608695652056
4.968,25.856739130434757,0.7039565217391215,-1.4714782608695507
4.976,26.999347826086925,1.0983913043478153,-2.1086956521738958
4.984,28.141956521739097,1.492826086956509,-2.74591304347824
4.992,29.28456521739126,1.8872608695652024,-3.383130434782585
5.0,30.427173913043433,2.2816956521738962,-4.02034782608693
5.008,33.1016666666667,8.498000000000086,-8.84444444444451
5.016,17.04633333333335,14.303160919540241,-6.529356321839077
5.024,16.315666666666683,13.887804597701159,-6.6467816091954
5.032,15.585000000000013,13.472448275862076,-6.7642068965517215
5.04,14.854333333333344,13.057091954022995,-6.881632183908044
5.048,14.123666666666674,12.641735632183913,-6.999057471264367
5.056,13.393000000000004,12.22637931034483,-7.1164827586206885
5.064,12.662333333333336,11.811022988505748,-7.233908045977011
5.072,11.931666666666665,11.395666666666667,-7.351333333333334
5.08,11.200999999999997,10.980310344827585,-7.4687586206896555
5.088,10.470333333333327,10.564954022988502,-7.586183908045978
5.096,9.739666666666658,10.149597701149421,-7.703609195402301
5.104,6.242,4.876,-5.608
5.112,3.3489999999999736,2.0610000000000044,-1.7352857142856903
5.12,2.838103448275858,2.1407241379310347,-1.3177586206896534
5.128,2.70624137931034,2.1510229885057477,-1.2627701149425268
5.136,2.5743793103448223,2.1613218390804603,-1.2077816091954001
5.144,2.4425172413793046,2.171620689655173,-1.1527931034482735
5.152,2.310655172413787,2.1819195402298854,-1.0978045977011468
5.16,2.1787931034482693,2.1922183908045985,-1.0428160919540201
5.168,2.0469310344827516,2.202517241379311,-0.9878275862068936
5.176,1.9150689655172335,2.2128160919540236,-0.932839080459767
5.184,1.7832068965517158,2.223114942528736,-0.8778505747126404
5.192,1.6513448275861982,2.2334137931034492,-0.8228620689655137
5.2,1.5194827586206803,2.243712643678162,-0.7678735632183871
5.208,-2.9855000000001333,2.703499999999975,0.724500000000059
5.216,-4.841011363636362,2.068136363636365,1.873420454545453
5.224,-4.710374999999998,2.156500000000001,1.7598749999999983
5.232,-4.5797386363636345,2.244863636363638,1.646329545454544
5.24,-4.449102272727271,2.333227272727274,1.5327840909090893
5.248,-4.318465909090907,2.4215909090909102,1.4192386363636347
5.256,-4.187829545454544,2.509954545454547,1.3056931818181803
5.264,-4.05719318181818,2.598318181818183,1.1921477272727257
5.272,-3.9265568181818162,2.6866818181818197,1.078602272727271
5.28,-3.7959204545454526,2.775045454545456,0.9650568181818167
5.288,-3.665284090909089,2.8634090909090926,0.851511363636362
5.296,-3.5346477272727252,2.9517727272727288,0.7379659090909076
5.304,2.367,4.767,-1.633
5.312,6.750000000000135,8.290333333333379,-5.58700000000009
5.32,10.387333333333512,9.517444444444505,-8.033666666666786
5.328,13.0342564102565,10.206435897435906,-9.266538461538461
5.336,14.690769230769316,10.3573076923077,-9.285615384615385
5.344,16.347282051282132,10.508179487179495,-9.304692307692308
5.352,18.00379487179495,10.659051282051289,-9.323769230769232
5.36,19.66030769230776,10.809923076923084,-9.342846153846155
5.368,21.316820512820577,10.960794871794878,-9.361923076923077
5.376,22.973333333333393,11.111666666666672,-9.381
5.384,24.62984615384621,11.262538461538467,-9.400076923076924
5.392,26.286358974359025,11.41341025641026,-9.419153846153847
5.4,27.94287179487184,11.564282051282056,-9.438230769230769
5.408,23.36999999999949,8.0915999999996,-5.749999999999951
5.416,17.420337078651666,3.578134831460673,-5.071438202247178
5.424,17.057011235955038,3.5624044943820214,-4.818314606741561
5.432,16.69368539325841,3.5466741573033698,-4.565191011235944
5.44,16.330359550561784,3.5309438202247185,-4.3120674157303265
5.448,15.967033707865156,3.515213483146067,-4.05894382022471
5.456,15.603707865168527,3.499483146067415,-3.8058202247190924
5.464,15.240382022471898,3.4837528089887635,-3.552696629213475
5.472,14.877056179775272,3.468022471910112,-3.2995730337078584
5.48,14.513730337078645,3.45229213483146,-3.0464494382022416
5.488,14.150404494382016,3.436561797752809,-2.7933258426966243
5.496,13.787078651685388,3.420831460674157,-2.540202247191007
5.5040000000000004,9.156749999999688,-0.7532500000000675,-1.8744999999999281
5.5120000000000005,4.979000000000431,-1.2660000000011573,-0.14699999999918198
5.5200000000000005,5.409931034482755,-2.613172413793107,0.6311034482758502
5.5280000000000005,5.348137931034478,-2.663655172413797,0.4677931034482634
5.5360000000000005,5.286344827586202,-2.714137931034487,0.3044827586206766
5.5440000000000005,5.2245517241379265,-2.7646206896551764,0.14117241379308976
5.5520000000000005,5.16275862068965,-2.8151034482758663,-0.022137931034497016
5.5600000000000005,5.100965517241374,-2.8655862068965563,-0.1854482758620839
5.5680000000000005,5.039172413793097,-2.9160689655172463,-0.3487586206896707
5.5760000000000005,4.977379310344821,-2.966551724137936,-0.5120689655172574
5.5840000000000005,4.9155862068965455,-3.0170344827586257,-0.6753793103448444
5.5920000000000005,4.853793103448269,-3.0675172413793157,-0.8386896551724312
5.6000000000000005,4.791999999999091,-3.1180000000004133,-1.001999999999972
5.6080000000000005,0.8759999999996518,-5.255000000000116,-0.6059999999996429
5.6160000000000005,0.11972043010753022,-5.976236559139783,0.87696774193549
5.6240000000000006,0.17916129032258404,-5.932709677419353,0.9869032258064578
5.632,0.2386021505376313,-5.889182795698927,1.0968387096774135
5.64,0.29804301075268513,-5.845655913978497,1.2067741935483813
5.648,0.35748387096773904,-5.802129032258067,1.3167096774193492
5.656,0.41692473118279283,-5.758602150537636,1.4266451612903173
5.664,0.4763655913978466,-5.715075268817206,1.5365806451612851
5.672,0.5358064516129005,-5.6715483870967764,1.646516129032253
5.68,0.5952473118279543,-5.6280215053763465,1.7564516129032208
5.688,0.6546881720430081,-5.584494623655916,1.8663870967741887
5.696,0.714129032258062,-5.540967741935486,1.9763225806451565
5.704,0.7735698924731158,-5.497440860215056,2.0862580645161244
5.712,3.166999999999966,-3.6076666666666877,-0.7666666666666395
5.72,4.093,-3.041,-1.5
5.728,8.093538461538339,-3.948230769230749,-2.3148461538461014
5.736,9.699589743589634,-4.21120512820511,-3.0013076923076456
5.744,11.30564102564093,-4.474179487179471,-3.68776923076919
5.752,12.911692307692224,-4.7371538461538325,-4.374230769230734
5.76,14.517743589743521,-5.000128205128194,-5.060692307692279
5.768,16.123794871794818,-5.263102564102555,-5.747153846153823
5.776,17.72984615384611,-5.526076923076917,-6.433615384615368
5.784,19.335897435897408,-5.789051282051278,-7.120076923076912
5.792,20.941948717948705,-6.052025641025639,-7.806538461538456
5.8,22.548,-6.315,-8.493
5.808,30.781500000000175,10.401999999999196,-18.22600000000003
5.816,28.882333333333307,12.994266666666654,-16.44593333333333
5.824,27.71744444444443,12.394622222222214,-16.344511111111107
5.832,26.552555555555546,11.794977777777774,-16.243088888888888
5.84,25.387666666666668,11.195333333333334,-16.141666666666666
5.848,24.222777777777786,10.595688888888894,-16.040244444444443
5.856,23.057888888888904,9.996044444444454,-15.938822222222223
5.864,21.893000000000026,9.396400000000014,-15.837400000000002
5.872,20.728111111111147,8.796755555555574,-15.73597777777778
5.88,19.563222222222265,8.197111111111134,-15.63455555555556
5.888,18.398333333333383,7.597466666666694,-15.533133333333337
5.896,17.2334444444445,6.997822222222254,-15.431711111111117
5.904,11.081,4.972,-10.378333333333334
5.912,2.4106067415730252,5.017932584269659,-2.2592359550561834
5.92,2.2074606741572955,4.937393258426963,-2.3411235955056213
5.928,2.0043146067415663,4.856853932584267,-2.423011235955059
5.936,1.8011685393258365,4.77631460674157,-2.504898876404497
5.944,1.598022471910107,4.695775280898874,-2.586786516853935
5.952,1.3948764044943773,4.6152359550561775,-2.6686741573033728
5.96,1.1917303370786478,4.534696629213482,-2.7505617977528107
5.968,0.9885842696629183,4.454157303370785,-2.8324494382022487
5.976,0.7854382022471886,4.373617977528089,-2.9143370786516867
5.984,0.5822921348314591,4.293078651685392,-2.996224719101124
5.992,0.3791460674157294,4.212539325842696,-3.078112359550562
6.0,0.17600000000000016,4.132,-3.16
6.008,-4.053505376344078,4.734806451612901,-2.292774193548387
6.016,-3.865548387096766,4.669258064516127,-2.298967741935484
6.024,-3.677591397849454,4.603709677419352,-2.3051612903225807
6.032,-3.489634408602142,4.538161290322578,-2.3113548387096774
6.04,-3.3016774193548297,4.472612903225803,-2.317548387096774
6.048,-3.113720430107518,4.407064516129029,-2.3237419354838713
6.056,-2.925763440860206,4.341516129032255,-2.329935483870968
6.064,-2.7378064516128937,4.275967741935481,-2.336129032258065
6.072,-2.5498494623655814,4.210419354838706,-2.3423225806451615
6.08,-2.3618924731182696,4.144870967741932,-2.3485161290322583
6.088,-2.1739354838709577,4.079322580645158,-2.354709677419355
6.096,-1.9859784946236454,4.013774193548383,-2.3609032258064517
6.104,-1.4341666666666644,3.2845000000000018,-2.794666666666635
6.112,-1.5548333333333355,3.1864999999999983,-4.501333333333365
6.12,6.311654320987672,-4.539530864197546,-19.002876543209894
6.128,6.740888888888905,-4.887777777777791,-19.449888888888903
6.136,7.1701234567901375,-5.236024691358036,-19.896901234567913
6.144,7.59935802469137,-5.584271604938282,-20.343913580246927
6.152,8.028592592592602,-5.932518518518528,-20.790925925925936
6.16,8.457827160493835,-6.280765432098773,-21.237938271604946
6.168,8.887061728395068,-6.629012345679019,-21.684950617283956
6.176,9.3162962962963,-6.977259259259264,-22.131962962962966
6.184,9.745530864197534,-7.32550617283951,-22.57897530864198
6.192,10.174765432098766,-7.6737530864197545,-23.02598765432099
6.2,10.604,-8.022,-23.473
6.208,8.304,-4.022,-27.273
6.216,12.386500000000032,-3.448500000000042,-25.608499999999903
6.224,13.527166666666698,-4.955833333333375,-22.08516666666657
6.232,14.667833333333364,-6.463166666666709,-18.561833333333237
6.24,14.70181818181817,-6.685999999999994,-17.19209090909089
6.248,14.366909090909079,-6.48066666666666,-16.5402121212121
6.256,14.031999999999988,-6.275333333333325,-15.88833333333331
6.264,13.697090909090894,-6.069999999999991,-15.23645454545452
6.272,13.362181818181803,-5.864666666666658,-14.584575757575731
6.28,13.027272727272711,-5.659333333333324,-13.93269696969694
6.288,12.69236363636362,-5.45399999999999,-13.28081818181815
6.296,12.357454545454527,-5.248666666666655,-12.62893939393936
6.304,11.92820000000011,-4.881999999999922,-8.115199999999714
6.312,8.965822222222204,-3.010311111111129,-2.3439333333333177
6.32,8.749111111111095,-3.2275555555555715,-2.151666666666652
6.328,8.532399999999985,-3.4448000000000145,-1.9593999999999872
6.336,8.315688888888875,-3.6620444444444575,-1.767133333333322
6.344,8.098977777777765,-3.8792888888889,-1.5748666666666566
6.352,7.8822666666666565,-4.096533333333343,-1.3825999999999914
6.36,7.665555555555548,-4.313777777777786,-1.1903333333333261
6.368,7.448844444444438,-4.531022222222229,-0.9980666666666609
6.376,7.232133333333328,-4.748266666666671,-0.8057999999999956
6.384,7.0154222222222185,-4.965511111111114,-0.6135333333333306
6.392,6.798711111111109,-5.182755555555557,-0.42126666666666535
6.4,6.582,-5.4,-0.2290000000000001
6.408,6.397000000000375,-4.4779999999999935,2.8328333333334963
6.416,7.920606741573001,-6.276067415730326,4.355820224719106
6.424,7.567977528089855,-6.165775280898866,4.409932584269668
6.432,7.215348314606711,-6.055483146067406,4.464044943820229
6.44,6.862719101123566,-5.945191011235946,4.518157303370791
6.448,6.510089887640421,-5.834898876404486,4.572269662921353
6.456,6.157460674157276,-5.724606741573025,4.6263820224719145
6.464,5.804831460674132,-5.614314606741565,4.680494382022476
6.472,5.4522022471909874,-5.504022471910105,4.734606741573038
6.48,5.099573033707842,-5.393730337078645,4.7887191011236
6.488,4.746943820224697,-5.283438202247185,4.8428314606741605
6.496,4.394314606741553,-5.173146067415724,4.896943820224722
6.5040000000000004,2.045923076923067,-3.5406153846153274,3.6522307692307683
6.5120000000000005,1.9296153846153736,-2.8710769230768602,3.6411538461538453
6.5200000000000005,1.6909999999999767,-2.6191666666666666,3.1732499999999453
6.5280000000000005,1.3354999999999633,-2.23549999999983,2.0474999999997885
6.5360000000000005,1.7719859154930013,-1.7923661971830935,1.5569999999999988
6.5440000000000005,2.3651126760563845,-1.7230704225352058,1.5409999999999988
6.5520000000000005,2.9582394366197677,-1.6537746478873183,1.5249999999999986
6.5600000000000005,3.5513661971831505,-1.5844788732394306,1.5089999999999986
6.5680000000000005,4.144492957746534,-1.5151830985915429,1.4929999999999986
6.5760000000000005,4.737619718309917,-1.4458873239436554,1.4769999999999985
6.5840000000000005,5.3307464788733006,-1.3765915492957677,1.4609999999999983
6.5920000000000005,5.923873239436683,-1.30729577464788,1.4449999999999983
6.6000000000000005,6.51700000000864,-1.238000000001397,1.4290000000005614
6.6080000000000005,36.60574193548383,9.19288172043007,-10.022440860215065
6.6160000000000005,35.59567741935479,8.255935483870928,-10.265967741935496
6.6240000000000006,34.58561290322576,7.318989247311787,-10.509494623655925
6.632000000000001,33.57554838709673,6.382043010752646,-10.753021505376356
6.640000000000001,32.5654838709677,5.445096774193505,-10.996548387096786
6.648000000000001,31.555419354838662,4.508150537634364,-11.240075268817217
6.656000000000001,30.545354838709628,3.5712043010752232,-11.483602150537648
6.664,29.535290322580707,2.634258064516186,-11.72712903225805
6.672,28.525225806451672,1.6973118279570452,-11.970655913978481
6.68,27.515161290322638,0.7603655913979033,-12.21418279569891
6.688,26.505096774193603,-0.17658064516123773,-12.457709677419341
6.696,25.49503225806457,-1.1135268817203787,-12.701236559139772
6.704,15.452333333333444,-0.9820000000000975,-9.325000000000014
6.712,8.460337078651701,0.4111123595505749,-7.88920224719102
6.72,8.215033707865183,0.2200112359550681,-7.770820224719109
6.728,7.969730337078665,0.028910112359561313,-7.652438202247198
6.736,7.724426966292147,-0.16219101123594554,-7.534056179775287
6.744,7.479123595505628,-0.35329213483145233,-7.415674157303376
6.752,7.23382022471911,-0.5443932584269591,-7.297292134831465
6.76,6.988516853932591,-0.735494382022466,-7.178910112359554
6.768,6.743213483146073,-0.9265955056179727,-7.060528089887644
6.776,6.497910112359555,-1.1176966292134796,-6.942146067415733
6.784,6.252606741573036,-1.3087977528089862,-6.823764044943822
6.792,6.007303370786518,-1.4998988764044932,-6.705382022471911
6.8,5.762,-1.6909999999999998,-6.587
6.808,1.8219569892473175,0.9572150537634424,-2.5137096774193535
6.816,1.741612903225812,0.9349354838709693,-2.5353870967741923
6.824,1.6612688172043066,0.9126559139784961,-2.557064516129031
6.832,1.580924731182801,0.890376344086023,-2.5787419354838694
6.84,1.5005806451612955,0.8680967741935498,-2.6004193548387082
6.848,1.42023655913979,0.8458172043010767,-2.622096774193547
6.856,1.3398924731182846,0.8235376344086035,-2.643774193548386
6.864,1.2595483870967792,0.8012580645161304,-2.6654516129032246
6.872,1.1792043010752735,0.7789784946236572,-2.687129032258063
6.88,1.0988602150537683,0.756698924731184,-2.708806451612902
6.888,1.0185161290322626,0.7344193548387109,-2.7304838709677406
6.896,0.9381720430107572,0.7121397849462378,-2.7521612903225794
6.904,0.7640000000000099,0.6346666666666716,-2.717000000000003
6.912,0.49599999999999994,0.502,-2.625
6.92,-0.20290909090908393,0.5245454545454543,-2.8919090909090883
6.928,-1.6945753424657428,-1.5843835616438515,-4.66164383561644
6.936,-1.4351780821917715,-1.9714520547945347,-4.690794520547946
6.944,-1.1757808219178,-2.3585205479452176,-4.719945205479453
6.952,-0.9163835616438286,-2.7455890410959007,-4.74909589041096
6.96,-0.6569863013698571,-3.132657534246584,-4.778246575342467
6.968,-0.3975890410958858,-3.519726027397267,-4.807397260273974
6.976,-0.1381917808219142,-3.90679452054795,-4.8365479452054805
6.984,0.12120547945205717,-4.293863013698633,-4.865698630136987
6.992,0.38060273972602876,-4.6809315068493165,-4.894849315068494
7.0,0.6399999999999999,-5.068,-4.924
7.008,12.334139784946261,-24.966279569892457,-8.515139784946236
7.016,12.927258064516154,-24.600516129032243,-8.508258064516129
7.024,13.520376344086047,-24.234752688172026,-8.50137634408602
7.032,14.11349462365594,-23.868989247311813,-8.494494623655914
7.04,14.706612903225835,-23.503225806451596,-8.487612903225806
7.048,15.299731182795728,-23.137462365591382,-8.480731182795699
7.056,15.892849462365621,-22.771698924731165,-8.47384946236559
7.064,16.485967741935514,-22.40593548387095,-8.466967741935484
7.072,17.079086021505407,-22.040172043010735,-8.460086021505376
7.08,17.6722043010753,-21.67440860215052,-8.453204301075269
7.088,18.265322580645194,-21.308645161290304,-8.44632258064516
7.096,18.85844086021509,-20.942881720430087,-8.439440860215054
7.104,14.8535,-12.0785,-1.5385
7.112,12.263826086956524,-4.994478260869571,-0.1371304347826075
7.12,12.09074782608696,-4.604843478260876,-0.22053913043478135
7.128,11.917669565217395,-4.215208695652181,-0.30394782608695514
7.136,11.744591304347828,-3.825573913043485,-0.38735652173912904
7.144,11.571513043478264,-3.43593913043479,-0.47076521739130284
7.152,11.3984347826087,-3.0463043478260947,-0.5541739130434766
7.16,11.225356521739133,-2.656669565217399,-0.6375826086956504
7.168,11.052278260869569,-2.267034782608704,-0.7209913043478243
7.176,10.879200000000004,-1.8774000000000086,-0.8043999999999981
7.184,10.706121739130438,-1.4877652173913134,-0.887808695652172
7.192,10.533043478260874,-1.0981304347826182,-0.9712173913043458
7.2,10.35996521739131,-0.708495652173923,-1.0546260869565196
7.208,10.186886956521743,-0.31886086956522686,-1.1380347826086934
7.216,10.013808695652179,0.07077391304346836,-1.2214434782608674
7.224,6.246499999999904,2.8950000000005165,1.9035000000001627
7.232,7.600277777777761,6.556999999999985,2.0830555555555597
7.24,7.296833333333316,6.294999999999986,2.1531666666666704
7.248,6.993388888888871,6.032999999999985,2.2232777777777817
7.256,6.689944444444428,5.770999999999986,2.293388888888893
7.264,6.386499999999983,5.508999999999985,2.3635000000000037
7.272,6.083055555555538,5.246999999999986,2.433611111111115
7.28,5.779611111111095,4.984999999999985,2.503722222222226
7.288,5.47616666666665,4.722999999999986,2.573833333333337
7.296,5.172722222222205,4.460999999999986,2.643944444444448
7.304,1.149166666666771,3.217666666666724,2.750833333333229
7.312,5.4573820224719185,4.021584269662904,-0.7207191011235917
7.32,5.660438202247199,3.5942584269662765,-0.6304719101123561
7.328,5.863494382022479,3.1669325842696487,-0.5402247191011205
7.336,6.066550561797759,2.739606741573021,-0.4499775280898849
7.344,6.269606741573039,2.312280898876393,-0.35973033707864926
7.352,6.472662921348319,1.8849550561797659,-0.26948314606741364
7.36,6.675719101123599,1.4576292134831381,-0.17923595505617806
7.368,6.878775280898879,1.0303033707865104,-0.08898876404494238
7.376,7.0818314606741595,0.6029775280898826,0.0012584269662931913
7.384,7.28488764044944,0.17565168539325526,0.09150561797752887
7.392,7.48794382022472,-0.2516741573033725,0.18175280898876445
7.4,7.691,-0.6790000000000003,0.272
7.408,38.81089247311825,-12.660129032258098,-3.691677419354791
7.416,38.06603225806449,-13.461161290322616,-2.5530967741934996
7.424,37.32117204301072,-14.262193548387133,-1.4145161290322084
7.432,36.57631182795696,-15.06322580645165,-0.2759354838709167
7.44,35.831451612903194,-15.864258064516166,0.8626451612903749
7.448,35.08659139784943,-16.665290322580685,2.0012258064516666
7.456,34.34173118279566,-17.4663225806452,3.1398064516129573
7.464,33.5968709677419,-18.267354838709718,4.278387096774249
7.472,32.85201075268814,-19.068387096774234,5.416967741935542
7.48,32.10715053763437,-19.86941935483875,6.555548387096833
7.488,31.362290322580606,-20.67045161290327,7.6941290322581235
7.496,30.617430107526843,-21.471483870967788,8.832709677419416
7.5040000000000004,9.95749999999964,-9.22849999999973,3.0169999999994244
7.5120000000000005,5.985021505376325,-9.884150537634396,-0.34561290322580046
7.5200000000000005,5.794655913978476,-9.751591397849449,-0.2841935483870907
7.5280000000000005,5.604290322580626,-9.619032258064504,-0.22277419354838096
7.5360000000000005,5.413924731182776,-9.486473118279557,-0.1613548387096712
7.5440000000000005,5.223559139784927,-9.35391397849461,-0.09993548387096146
7.5520000000000005,5.033193548387077,-9.221354838709663,-0.03851612903225171
7.5600000000000005,4.842827956989227,-9.088795698924718,0.02290322580645804
7.5680000000000005,4.6524623655913775,-8.956236559139771,0.08432258064516779
7.5760000000000005,4.462096774193528,-8.823677419354825,0.1457419354838776
7.5840000000000005,4.271731182795678,-8.691118279569878,0.20716129032258723
7.5920000000000005,4.081365591397828,-8.558559139784933,0.268580645161297
7.6000000000000005,3.8909999999989693,-8.425999999998846,0.32999999999978996
7.6080000000000005,-2.2682500000000134,-2.630499999999997,-1.747500000000016
7.6160000000000005,-2.7409166666666973,-2.5144999999999924,-2.3275000000000374
7.6240000000000006,-2.7959518072289153,-2.5181325301204835,-2.372759036144576
7.632000000000001,-2.791325301204819,-2.5388554216867485,-2.3416265060240944
7.640000000000001,-2.7866987951807225,-2.5595783132530134,-2.3104939759036123
7.648000000000001,-2.782072289156626,-2.5803012048192784,-2.2793614457831306
7.656000000000001,-2.7774457831325297,-2.6010240963855433,-2.2482289156626485
7.664000000000001,-2.7728192771084332,-2.6217469879518083,-2.217096385542167
7.672000000000001,-2.768192771084337,-2.6424698795180737,-2.1859638554216847
7.68,-2.763566265060241,-2.6631927710843364,-2.1548313253012066
7.688,-2.7589397590361444,-2.6839156626506013,-2.1236987951807245
7.696,-2.7543132530120484,-2.7046385542168663,-2.092566265060243
7.704,-2.186000000000276,-2.5949999999994846,-3.0255000000000667
7.712,0.34742857142856876,-6.676122448979586,-0.1440000000000065
7.72,0.44514285714285473,-6.896612244897954,0.09599999999999406
7.728,0.5428571428571407,-7.117102040816322,0.33599999999999464
7.736,0.6405714285714266,-7.337591836734689,0.5759999999999953
7.744,0.7382857142857125,-7.5580816326530575,0.8159999999999958
7.752,0.8359999999999985,-7.778571428571425,1.0559999999999965
7.76,0.9337142857142844,-7.999061224489793,1.295999999999997
7.768,1.0314285714285703,-8.219551020408161,1.5359999999999976
7.776,1.1291428571428563,-8.440040816326528,1.7759999999999982
7.784,1.2268571428571422,-8.660530612244896,2.0159999999999987
7.792,1.324571428571428,-8.881020408163263,2.2559999999999993
7.8,1.422285714285714,-9.101510204081631,2.4959999999999996
7.808,1.52,-9.322,2.736
7.816,20.302232558139522,-20.475813953488416,16.901837209302386
7.824,20.448093023255804,-19.858325581395388,16.04453488372098
7.832,20.593953488372083,-19.24083720930236,15.18723255813958
7.84,20.739813953488365,-18.62334883720933,14.329930232558178
7.848,20.885674418604644,-18.005860465116303,13.472627906976776
7.856,21.031534883720926,-17.388372093023275,12.615325581395375
7.864,21.177395348837205,-16.770883720930247,11.758023255813972
7.872,21.323255813953487,-16.15339534883722,10.90072093023257
7.88,21.469116279069766,-15.53590697674419,10.043418604651169
7.888,21.61497674418605,-14.918418604651162,9.186116279069765
7.896,21.760837209302327,-14.300930232558134,8.328813953488364
7.904,15.807500000000001,-5.909,5.5705
7.912,9.651296703296712,1.102989010989005,1.8880219780219814
7.92,9.465890109890118,1.220967032967028,1.8200659340659369
7.928,9.280483516483523,1.338945054945051,1.7521098901098924
7.936,9.095076923076927,1.4569230769230739,1.6841538461538479
7.944,8.909670329670332,1.574901098901097,1.6161978021978034
7.952,8.724263736263737,1.69287912087912,1.5482417582417587
7.96,8.538857142857143,1.810857142857143,1.4802857142857142
7.968,8.353450549450548,1.928835164835166,1.4123296703296697
7.976,8.168043956043952,2.046813186813189,1.3443736263736252
7.984,7.982637362637358,2.164791208791212,1.2764175824175807
7.992,7.7972307692307625,2.282769230769235,1.208461538461536
8.0,6.889499999999669,3.0360000000002887,0.9369999999999059
8.008000000000001,3.8423157894736173,5.177578947368486,0.25147368421050753
8.016,3.1324210526315954,5.8761052631578785,0.050631578947373135
8.024000000000001,2.5981282051282046,6.441820512820527,-0.07617948717947905
8.032,2.590641025641026,6.609102564102562,0.01910256410256246
8.040000000000001,2.5831538461538455,6.776384615384633,0.11438461538462513
8.048,2.5756666666666668,6.943666666666667,0.20966666666666664
8.056000000000001,2.5681794871794863,7.110948717948738,0.30494871794872935
8.064,2.5606923076923076,7.278230769230772,0.40023076923077083
8.072000000000001,2.553205128205127,7.445512820512844,0.4955128205128335
8.08,2.5457179487179484,7.612794871794878,0.5907948717948751
8.088000000000001,2.5382307692307684,7.780076923076949,0.6860769230769377
8.096,2.5307435897435897,7.947358974358983,0.7813589743589793
8.104000000000001,3.4543333333333144,6.868333333333186,0.3450000000000154
8.112,3.038606060606044,2.9583838383838525,2.300808080808078
8.120000000000001,3.275454545454555,2.753454545454537,2.3392727272727285
8.128,3.512303030303013,2.548525252525267,2.3777373737373706
8.136000000000001,3.7491515151515244,2.3435959595959517,2.4162020202020216
8.144,3.9859999999999824,2.1386666666666816,2.4546666666666637
8.152000000000001,4.222848484848494,1.9337373737373662,2.493131313131314
8.16,4.459696969696951,1.7288080808080963,2.5315959595959563
8.168000000000001,4.696545454545463,1.523878787878781,2.5700606060606073
8.176,4.9333939393939215,1.3189494949495109,2.6085252525252494
8.184000000000001,5.170242424242431,1.1140202020201955,2.6469898989899
8.192,5.40709090909089,0.9090909090909256,2.685454545454542
8.2,5.643939393939348,0.7041616161616555,2.723919191919184
8.208,5.88078787878786,0.4992323232323401,2.762383838383835
8.216,33.603499999999705,-17.34649999999673,10.58900000000172
8.224,32.93151807228921,-20.674867469879537,9.43321686746984
8.232,31.781253012048374,-20.270144578313314,10.326036144578174
8.24,30.630987951807285,-19.865421686747005,11.218855421686705
8.248,29.480722891566447,-19.460698795180786,12.111674698795039
8.256,28.330457831325358,-19.055975903614478,13.004493975903571
8.264,27.180192771084524,-18.651253012048258,13.897313253011905
8.272,26.02992771084343,-18.246530120481946,14.790132530120434
8.28,24.879662650602597,-17.841807228915727,15.682951807228768
8.288,23.729397590361508,-17.437084337349418,16.5757710843373
8.296,22.579132530120674,-17.0323614457832,17.468590361445635
8.304,7.1555,-5.3945,7.2225
8.312,5.324150537634417,-3.453376344086027,5.805075268817206
8.32,5.2555913978494635,-3.4139784946236564,5.790795698924732
8.328,5.187032258064525,-3.3745806451612954,5.7765161290322595
8.336,5.118473118279571,-3.335182795698925,5.762236559139785
8.344,5.049913978494632,-3.295784946236564,5.747956989247314
8.352,4.981354838709678,-3.256387096774194,5.733677419354839
8.36,4.912795698924739,-3.2169892473118327,5.719397849462367
8.368,4.844236559139786,-3.1775913978494628,5.705118279569892
8.376,4.775677419354847,-3.1381935483871013,5.690838709677421
8.384,4.707118279569893,-3.0987956989247314,5.676559139784946
8.392,4.638559139784954,-3.05939784946237,5.662279569892474
8.4,4.57,-3.02,5.648
8.408,0.5171666666667416,-2.716250000000003,1.2962500000000832
8.416,-1.5055000000007448,-2.772500000000092,-0.8600000000007478
8.424,-2.3513294117647052,-2.864058823529412,-1.7827058823529365
8.432,-2.3597058823529413,-2.8504117647058815,-1.874941176470593
8.44,-2.3680823529411756,-2.836764705882354,-1.967176470588229
8.448,-2.3764588235294117,-2.823117647058823,-2.0594117647058856
8.456,-2.384835294117646,-2.8094705882352953,-2.1516470588235213
8.464,-2.393211764705882,-2.7958235294117646,-2.2438823529411778
8.472,-2.4015882352941165,-2.7821764705882366,-2.336117647058814
8.48,-2.4099647058823526,-2.768529411764706,-2.4283529411764704
8.488,-2.418341176470587,-2.754882352941178,-2.520588235294106
8.496,-2.426717647058823,-2.741235294117647,-2.612823529411763
8.504,-2.094,-1.978,-3.04
8.512,-0.8084999999998397,-1.7834999999999366,0.8605000000011906
8.52,-0.6937356321839052,-1.4921839080459867,2.6181034482758436
8.528,-0.768862068965523,-1.24096551724136,3.0947931034483123
8.536,-0.8439885057471241,-0.9897471264367892,3.571482758620675
8.544,-0.9191149425287419,-0.7385287356321626,4.048172413793143
8.552,-0.9942413793103432,-0.4873103448275917,4.524862068965506
8.56,-1.069367816091961,-0.23609195402296512,5.0015517241379746
8.568,-1.144494252873562,0.015126436781605523,5.478241379310337
8.576,-1.21962068965518,0.2663448275862321,5.954931034482806
8.584,-1.2947471264367811,0.517563218390803,6.431620689655169
8.592,-1.369873563218399,0.7687816091954296,6.908310344827637
8.6,-1.4450000000000003,1.0200000000000002,7.385
8.608,7.313857142857417,-3.6951428571429155,28.526999999999894
8.616,11.69941379310344,-4.548804597701157,26.50511494252877
8.624,11.844241379310354,-4.426413793103441,25.86134482758617
8.632,11.989068965517236,-4.304022988505753,25.21757471264371
8.64,12.133896551724149,-4.181632183908038,24.573804597701105
8.648,12.278724137931029,-4.0592413793103495,23.930034482758646
8.656,12.423551724137942,-3.9368505747126346,23.286264367816045
8.664,12.568379310344824,-3.8144597701149463,22.642494252873583
8.672,12.713206896551736,-3.692068965517231,21.99872413793098
8.68,12.858034482758617,-3.569678160919543,21.354954022988522
8.688,13.00286206896553,-3.447287356321828,20.711183908045918
8.696,13.147689655172412,-3.32489655172414,20.06741379310346
8.704,8.305200000000424,2.777999999999888,9.680999999999122
8.712,8.185422222222247,1.4720444444444256,4.285688888888918
8.72,7.999111111111115,1.608222222222219,4.07244444444445
8.728,7.812800000000024,1.744399999999982,3.859200000000029
8.736,7.626488888888892,1.880577777777775,3.64595555555556
8.744,7.4401777777778015,2.0167555555555383,3.432711111111139
8.752,7.253866666666669,2.1529333333333316,3.21946666666667
8.76,7.067555555555578,2.289111111111094,3.0062222222222488
8.768,6.881244444444446,2.4252888888888875,2.79297777777778
8.776,6.694933333333355,2.5614666666666506,2.5797333333333587
8.784,6.508622222222224,2.697644444444444,2.36648888888889
8.792,6.322311111111132,2.833822222222207,2.1532444444444687
8.8,6.136,2.9699999999999998,1.94
8.808,3.9510000000000507,4.982833333333216,0.22383333333338917
8.816,3.5146999999999995,7.003900000000061,-0.5929000000000204
8.824,3.894,10.617,-1.766
8.832,3.9335789473684253,10.36289473684208,-1.8355789473684283
8.84,3.9731578947368416,10.108789473684213,-1.9051578947368413
8.848,4.012736842105267,9.854684210526292,-1.9747368421052696
8.856,4.052315789473683,9.600578947368428,-2.0443157894736825
8.864,4.091894736842108,9.346473684210505,-2.113894736842111
8.872,4.131473684210524,9.09236842105264,-2.183473684210524
8.88,4.17105263157895,8.838263157894719,-2.253052631578952
8.888,4.210631578947366,8.584157894736855,-2.322631578947365
8.896,4.250210526315791,8.330052631578932,-2.3922105263157936
8.904,3.9305,6.0065,-3.5460000000000003
8.912,9.289808510638338,3.37819148936171,-1.025680851063819
8.92,10.529553191489274,3.610446808510622,-0.701255319148959
8.928,11.769297872340484,3.8427021276595856,-0.37682978723402705
8.936,13.009042553191419,4.074957446808497,-0.05240425531916704
8.944,14.248787234042629,4.307212765957461,0.2720212765957648
8.952,15.488531914893564,4.539468085106373,0.5964468085106247
8.96,16.728276595744774,4.7717234042553365,0.9208723404255565
8.968,17.968021276595707,5.0039787234042485,1.2452978723404164
8.976,19.207765957446917,5.236234042553212,1.5697234042553487
8.984,20.447510638297857,5.468489361702124,1.8941489361702086
8.992,21.687255319149067,5.700744680851088,2.2185744680851407
9.0,22.927,5.933,2.543
9.008000000000001,29.67199999999613,-11.864500000001064,17.84349999999982
9.016,24.621739583333365,-12.334145833333368,17.521718750000005
9.024000000000001,23.827156249999945,-11.502312499999942,17.381968749999988
9.032,23.0325729166667,-10.6704791666667,17.242218750000006
9.040000000000001,22.237989583333277,-9.838645833333274,17.10246874999999
9.048,21.443406250000034,-9.006812500000034,16.962718750000004
9.056000000000001,20.64882291666661,-8.174979166666608,16.82296874999999
9.064,19.854239583333367,-7.3431458333333675,16.683218750000005
9.072000000000001,19.059656249999946,-6.511312499999942,16.54346874999999
9.08,18.2650729166667,-5.679479166666701,16.403718750000007
9.088000000000001,17.470489583333276,-4.847645833333274,16.26396874999999
9.096,16.675906250000033,-4.015812500000035,16.124218750000008
9.104000000000001,15.88132291666661,-3.1839791666666084,15.98446874999999
9.112,3.394,-1.079,4.838
9.120000000000001,3.3293777777777707,-0.9781999999999885,4.7444888888888785
9.128,3.2647555555555554,-0.8773999999999995,4.650977777777777
9.136000000000001,3.2001333333333255,-0.776599999999988,4.557466666666656
9.144,3.1355111111111107,-0.6757999999999991,4.463955555555555
9.152000000000001,3.070888888888881,-0.5749999999999875,4.370444444444433
9.16,3.0062666666666655,-0.4741999999999985,4.276933333333332
9.168000000000001,2.941644444444436,-0.3733999999999871,4.183422222222211
9.176,2.877022222222221,-0.27259999999999807,4.0899111111111095
9.184000000000001,2.8123999999999914,-0.17179999999998663,3.9963999999999875
9.192,2.747777777777776,-0.07099999999999751,3.902888888888887
9.200000000000001,2.6831555555555466,0.029800000000013815,3.809377777777765
9.208,2.685000000000002,-0.42445454545459704,3.1969090909090276
9.216000000000001,2.0669999999992594,-1.3219999999998153,2.4799999999994653
9.224,0.4322345679012382,-0.8854814814814834,1.3529753086419751
9.232,0.36270370370371463,-0.8484444444444502,1.3569259259259252
9.24,0.29317283950617556,-0.8114074074074089,1.3608765432098764
9.248,0.22364197530865193,-0.7743703703703757,1.3648271604938267
9.256,0.15411111111111286,-0.7373333333333343,1.3687777777777776
9.264,0.08458024691358929,-0.7002962962963011,1.372728395061728
9.272,0.01504938271605022,-0.6632592592592597,1.376679012345679
9.28,-0.054481481481473415,-0.6262222222222265,1.3806296296296292
9.288,-0.12401234567901248,-0.589185185185185,1.3845802469135802
9.296,-0.19354320987653612,-0.5521481481481519,1.3885308641975305
9.304,-0.289,-0.532,1.668
9.312,0.1810769230769192,3.8344945054944533,5.421813186813207
9.32,0.2093846153846149,4.21647252747252,5.2730659340659365
9.328,0.2376923076923043,4.5984505494505035,5.124318681318699
9.336,0.266,4.980428571428571,4.9755714285714285
9.344,0.2943076923076894,5.362406593406554,4.826824175824191
9.352,0.3226153846153851,5.744384615384622,4.678076923076921
9.36,0.35092307692307445,6.126362637362604,4.529329670329683
9.368,0.37923076923077015,6.508340659340671,4.380582417582412
9.376,0.4075384615384596,6.8903186813186545,4.231835164835175
9.384,0.43584615384615527,7.272296703296723,4.083087912087905
9.392,0.4641538461538447,7.654274725274705,3.9343406593406667
9.4,0.4924615384615404,8.036252747252773,3.7855934065933963
9.408,13.916182795698923,16.11715053763444,12.891978494623688
9.416,13.933645161290324,15.646354838709655,12.443806451612884
9.424,13.951107526881719,15.175559139784976,11.99563440860218
9.432,13.96856989247312,14.704763440860193,11.547462365591379
9.44,13.986032258064515,14.233967741935512,11.099290322580675
9.448,14.003494623655914,13.76317204301073,10.651118279569872
9.456,14.020956989247312,13.29237634408605,10.202946236559168
9.464,14.03841935483871,12.821580645161266,9.754774193548364
9.472,14.055881720430108,12.350784946236587,9.306602150537662
9.48,14.073344086021507,11.879989247311801,8.858430107526859
9.488,14.090806451612902,11.409193548387123,8.410258064516155
9.496,14.108268817204303,10.938397849462339,7.962086021505352
9.504,10.670000000000403,6.411500000000409,2.2015000000005505
9.512,9.035773195876288,4.910649484536076,0.48974226804123056
9.52,9.024804123711341,4.715515463917541,0.28273195876290186
9.528,9.013835051546392,4.520381443298961,0.0757216494845272
9.536,9.002865979381443,4.325247422680425,-0.13128865979380155
9.544,8.991896907216494,4.130113402061845,-0.33829896907217616
9.552,8.980927835051547,3.934979381443309,-0.5453092783505049
9.56,8.969958762886597,3.7398453608247295,-0.7523195876288795
9.568,8.95898969072165,3.5447113402061934,-0.9593298969072082
9.576,8.9480206185567,3.3495773195876137,-1.1663402061855828
9.584,8.937051546391753,3.1544432989690776,-1.3733505154639114
9.592,8.926082474226803,2.959309278350498,-1.5803608247422862
9.6,8.915113402061856,2.764175257731962,-1.7873711340206149
9.608,7.759500000000294,1.074499999999957,-4.530500000000702
9.616,8.144384615384613,1.0979230769230741,-5.434307692307688
9.624,8.205395604395608,1.1801208791208861,-5.564945054945066
9.632,8.266406593406591,1.26231868131868,-5.695582417582416
9.64,8.327417582417588,1.344516483516492,-5.826219780219794
9.648,8.388428571428571,1.4267142857142858,-5.956857142857143
9.656,8.449439560439567,1.5089120879120979,-6.087494505494521
9.664,8.51045054945055,1.5911098901098915,-6.218131868131871
9.672,8.571461538461547,1.6733076923077035,-6.348769230769249
9.68,8.63247252747253,1.7555054945054973,-6.479406593406598
9.688,8.693483516483527,1.8377032967033093,-6.6100439560439765
9.696,8.75449450549451,1.9199010989011032,-6.740681318681325
9.704,5.526,0.895,-4.083
9.712,5.5709574468085075,2.0686595744680862,-3.6913191489361723
9.72,5.408234042553172,2.1228723404255385,-3.791744680851076
9.728,5.245510638297873,2.1770851063829784,-3.892170212765957
9.736,5.082787234042538,2.2312978723404306,-3.9925957446808606
9.744,4.920063829787239,2.285510638297871,-4.093021276595742
9.752,4.757340425531903,2.339723404255323,-4.193446808510646
9.76,4.594617021276604,2.393936170212763,-4.293872340425527
9.768,4.431893617021268,2.4481489361702153,-4.394297872340431
9.776,4.26917021276597,2.5023617021276556,-4.4947234042553115
9.784,4.1064468085106345,2.556574468085108,-4.595148936170215
9.792,3.9437234042553353,2.6107872340425478,-4.695574468085097
9.8,3.781,2.665,-4.796
9.808,28.573021276595636,23.690361702127685,22.946446808510597
9.816,27.20910638297848,24.007808510638355,22.4242340425531
9.824,25.845191489361625,24.325255319148955,21.902021276595715
9.832,24.48127659574447,24.642702127659625,21.379808510638217
9.84,23.117361702127614,24.960148936170224,20.857595744680836
9.848,21.753446808510457,25.277595744680895,20.335382978723334
9.856,20.389531914893603,25.595042553191494,19.813170212765954
9.864,19.025617021276446,25.912489361702164,19.290957446808456
9.872,17.661702127659595,26.229936170212763,18.76874468085107
9.88,16.297787234042435,26.547382978723434,18.246531914893573
9.888,14.933872340425582,26.864829787234033,17.72431914893619
9.896,13.569957446808425,27.182276595744703,17.20210638297869
9.904,9.567,16.233,14.267
9.912,5.213835164835159,8.085175824175822,8.056065934065929
9.92,4.869395604395634,8.002978021978029,7.8082417582417785
9.928,4.524956043956032,7.920780219780217,7.560417582417573
9.936,4.180516483516507,7.838582417582423,7.312593406593423
9.944,3.8360769230769054,7.756384615384611,7.064769230769217
9.952,3.4916373626373804,7.674186813186817,6.816945054945068
9.96,3.1471978021977787,7.591989010989005,6.569120879120861
9.968,2.8027582417582533,7.509791208791212,6.321296703296712
9.976,2.458318681318652,7.4275934065934,6.073472527472505
9.984,2.1138791208791265,7.3453956043956055,5.825648351648356
9.992,1.7694395604395252,7.263197802197794,5.5778241758241505
10.0,1.4249999999999998,7.181,5.33
10.008000000000001,-0.13732323232324106,0.5030303030303087,3.852494949494946
10.016,-0.24261616161615857,0.5711515151515132,3.810474747474749
10.024000000000001,-0.3479090909090994,0.6392727272727328,3.768454545454542
10.032,-0.4532020202020169,0.7073939393939372,3.7264343434343448
10.040000000000001,-0.5584949494949577,0.7755151515151568,3.684414141414138
10.048,-0.6637878787878752,0.8436363636363613,3.6423939393939406
10.056000000000001,-0.769080808080816,0.9117575757575809,3.6003737373737343
10.064,-0.8743737373737336,0.9798787878787854,3.558353535353537
10.072000000000001,-0.9796666666666743,1.048000000000005,3.51633333333333
10.08,-1.084959595959592,1.1161212121212096,3.474313131313133
10.088000000000001,-1.1902525252525327,1.184242424242429,3.4322929292929265
10.096,-1.2955454545454501,1.2523636363636337,3.390272727272729
10.104000000000001,-1.400838383838391,1.320484848484853,3.3482525252525224
10.112,-2.141,2.582,3.094
10.120000000000001,-2.0278965517241248,2.7573563218391004,2.869816091953997
10.128,-1.914793103448275,2.932712643678162,2.6456321839080443
10.136000000000001,-1.8016896551724,3.108068965517263,2.4214482758620415
10.144,-1.68858620689655,3.2834252873563243,2.1972643678160884
10.152000000000001,-1.5754827586206748,3.458781609195425,1.9730804597700857
10.16,-1.4623793103448248,3.634137931034487,1.7488965517241328
10.168000000000001,-1.34927586206895,3.8094942528735873,1.5247126436781302
10.176,-1.2361724137931,3.984850574712649,1.3005287356321773
10.184000000000001,-1.123068965517225,4.16020689655175,1.0763448275861744
10.192,-1.009965517241375,4.335563218390812,0.8521609195402218
10.200000000000001,-1.1653333333336344,4.412499999999909,0.5164999999998348
10.208,17.067,20.567,-8.133
10.216000000000001,16.912573033707886,26.74877528089888,-8.861786516853895
10.224,17.437337078651655,26.83380898876404,-7.932168539325893
10.232000000000001,17.96210112359554,26.91884269662922,-7.002550561797685
10.24,18.486865168539314,27.003876404494378,-6.072932584269683
10.248,19.011629213483083,27.08891011235954,-5.143314606741682
10.256,19.53639325842697,27.173943820224718,-4.213696629213474
10.264,20.06115730337074,27.25897752808988,-3.284078651685472
10.272,20.585921348314628,27.34401123595506,-2.354460674157264
10.28,21.1106853932584,27.42904494382022,-1.4248426966292627
10.288,21.635449438202286,27.5140786516854,-0.4952247191010546
10.296,22.160213483146055,27.59911235955056,0.4343932584269474
10.304,16.576,11.8115,-1.6099999999999999
10.312,13.395812500000046,6.778437500000097,-1.8868125000000031
10.32,12.281312499999922,4.47493749999984,-1.8123124999999947
10.328,11.976243589743596,3.691435897435917,-1.5392435897436
10.336,11.786807692307676,3.125076923076875,-1.2378076923076664
10.344,11.597371794871798,2.558717948717959,-0.9363717948718
10.352,11.407935897435877,1.9923589743589165,-0.6349358974358665
10.36,11.2185,1.4260000000000002,-0.3334999999999999
10.368,11.02906410256408,0.8596410256409581,-0.03206410256406644
10.376,10.839628205128202,0.29328205128204177,0.26937179487179996
10.384,10.650192307692281,-0.27307692307700027,0.5708076923077336
10.392,10.460756410256405,-0.8394358974359166,0.8722435897435998
10.4,7.984,-3.704,0.809
10.408,6.992406249999999,-6.1760312499999985,-0.7584687500000001
10.416,6.924156249999991,-6.064114583333319,-0.7677187500000011
10.424,6.8559062499999985,-5.952197916666665,-0.7769687500000001
10.432,6.7876562499999915,-5.840281249999986,-0.7862187500000012
10.44,6.719406249999999,-5.728364583333332,-0.7954687500000002
10.448,6.651156249999992,-5.616447916666653,-0.8047187500000011
10.456,6.582906249999999,-5.5045312499999985,-0.8139687500000001
10.464,6.514656249999991,-5.3926145833333194,-0.8232187500000011
10.472,6.446406249999999,-5.280697916666665,-0.8324687500000001
10.48,6.378156249999991,-5.168781249999986,-0.8417187500000012
10.488,6.309906249999999,-5.056864583333332,-0.8509687500000002
10.496,6.241656249999991,-4.944947916666653,-0.8602187500000011
10.504,4.885857142857032,-5.393142857142901,-1.1814285714285981
10.512,3.6485000000001966,-3.0119999999994937,1.0515000000006913
10.52,3.7445697674418668,-2.3485581395348887,1.6771395348837286
10.528,3.601220930232549,-2.2417674418604583,1.502441860465105
10.536,3.457872093023263,-2.134976744186052,1.3277441860465202
10.544,3.314523255813945,-2.028186046511622,1.1530465116278967
10.552,3.171174418604659,-1.921395348837215,0.9783488372093118
10.56,3.027825581395341,-1.8146046511627851,0.8036511627906882
10.568,2.8844767441860553,-1.7078139534883787,0.6289534883721033
10.576,2.7411279069767374,-1.6010232558139483,0.4542558139534798
10.584,2.5977790697674514,-1.494232558139542,0.27955813953489494
10.592,2.4544302325581335,-1.3874418604651118,0.10486046511627123
10.6,2.315500000000012,-0.26550000000091356,-0.7034999999994178
10.608,39.02202127659573,5.222659574468173,-10.78465957446811
10.616,38.79810638297873,6.2492978723404065,-11.08729787234042
10.624,38.57419148936168,7.2759361702128675,-11.389936170212795
10.632,38.35027659574469,8.302574468085101,-11.692574468085105
10.64,38.12636170212764,9.329212765957562,-11.995212765957481
10.648,37.90244680851064,10.355851063829796,-12.29785106382979
10.656,37.67853191489359,11.382489361702257,-12.600489361702166
10.664,37.45461702127659,12.40912765957449,-12.903127659574476
10.672,37.23070212765955,13.435765957446954,-13.205765957446852
10.68,37.00678723404255,14.462404255319186,-13.50840425531916
10.688,36.7828723404255,15.489042553191648,-13.811042553191538
10.696,36.5589574468085,16.51568085106388,-14.113680851063846
10.704,20.609363636362794,13.823727272726476,2.9668181818175823
10.712,14.64427272727309,8.181545454545796,-1.274636363636107
10.72,8.979258823529374,3.6730470588235113,-1.435905882352954
10.728,8.751776470588226,3.5611411764705836,-1.5157176470588267
10.736,8.524294117647026,3.449235294117631,-1.5955294117647174
10.744,8.296811764705877,3.337329411764703,-1.67534117647059
10.752,8.069329411764677,3.225423529411751,-1.7551529411764806
10.76,7.841847058823529,3.1135176470588233,-1.8349647058823535
10.768,7.614364705882329,3.0016117647058707,-1.914776470588244
10.776,7.386882352941179,2.889705882352943,-1.9945882352941169
10.784,7.15939999999998,2.7777999999999903,-2.0744000000000073
10.792,6.931917647058831,2.6658941176470625,-2.15421176470588
10.8,6.704435294117631,2.55398823529411,-2.2340235294117705
10.808,-0.44900000000000007,2.7305,-1.548
10.816,-1.8754111111111131,3.409011111111116,-0.9652666666666527
10.824,-1.8861666666666677,3.4341666666666684,-0.8889999999999944
10.832,-1.8969222222222244,3.459322222222227,-0.8127333333333191
10.84,-1.9076777777777787,3.4844777777777796,-0.7364666666666606
10.848,-1.9184333333333354,3.5096333333333383,-0.6601999999999852
10.856,-1.92918888888889,3.5347888888888908,-0.583933333333327
10.864,-1.9399444444444467,3.5599444444444495,-0.5076666666666516
10.872,-1.950700000000001,3.5851000000000024,-0.43139999999999323
10.88,-1.961455555555558,3.6102555555555607,-0.35513333333331787
10.888,-1.9722111111111122,3.6354111111111136,-0.2788666666666595
10.896,-1.982966666666669,3.660566666666672,-0.20259999999998413
10.904,-1.726,2.96,4.249
10.912,-0.9252340425531673,5.156010638297926,3.68387234042547
10.92,-0.7837872340425465,5.470308510638313,3.320297872340408
10.928,-0.6423404255318941,5.78460638297877,2.956723404255266
10.936,-0.5008936170212732,6.098904255319157,2.593148936170204
10.944,-0.35944680851062094,6.413202127659613,2.2295744680850613
10.952,-0.21799999999999997,6.7275,1.8659999999999997
10.96,-0.0765531914893477,7.041797872340457,1.5024255319148572
10.968,0.06489361702127328,7.356095744680843,1.1388510638297955
10.976,0.20634042553192544,7.6703936170213005,0.775276595744653
10.984,0.3477872340425465,7.984691489361687,0.41170212765959135
10.992,0.4892340425531987,8.298989361702144,0.04812765957444887
11.0,2.4555,9.239,-5.654
11.008000000000001,20.315042105263213,15.841631578947345,-27.576378947368347
11.016,20.995210526315766,15.564157894736852,-26.697894736842137
11.024000000000001,21.67537894736847,15.286684210526296,-25.81941052631573
11.032,22.35554736842102,15.009210526315803,-24.940926315789515
11.040000000000001,23.035715789473723,14.731736842105246,-24.062442105263106
11.048,23.715884210526276,14.454263157894752,-23.183957894736892
11.056000000000001,24.396052631578982,14.176789473684197,-22.305473684210487
11.064,25.07622105263153,13.899315789473704,-21.426989473684273
11.072000000000001,25.756389473684237,13.621842105263148,-20.548505263157864
11.08,26.436557894736787,13.344368421052653,-19.67002105263165
11.088000000000001,27.116726315789492,13.066894736842098,-18.791536842105245
11.096,27.79689473684204,12.789421052631605,-17.913052631579028
11.104000000000001,18.716499999999733,5.036999999999775,-13.422999999999792
11.112,15.094500000000268,2.001000000000225,-10.619000000000208
11.120000000000001,12.901999999999925,-0.9126000000001278,-7.968599999999884
11.128,11.992421052631585,-2.397894736842101,-6.402421052631603
11.136000000000001,11.889263157894728,-2.495684210526324,-5.869263157894693
11.144,11.786105263157896,-2.5934736842105255,-5.336105263157901
11.152000000000001,11.682947368421042,-2.6912631578947486,-4.80294736842099
11.16,11.579789473684208,-2.78905263157895,-4.269789473684198
11.168000000000001,11.476631578947353,-2.886842105263173,-3.736631578947287
11.176,11.37347368421052,-2.9846315789473743,-3.203473684210495
11.184000000000001,11.270315789473665,-3.0824210526315974,-2.6703157894735843
11.192,11.167157894736832,-3.1802105263157987,-2.1371578947367924
11.200000000000001,11.063999999997971,-3.278000000000375,-1.603999999999055
11.208,-0.06899999999999995,-9.144,1.129
11.216000000000001,-0.01459999999999382,-9.178222222222226,1.003222222222208
11.224,0.039800000000000293,-9.212444444444445,0.8774444444444438
11.232000000000001,0.09420000000000647,-9.246666666666671,0.7516666666666518
11.24,0.1486000000000006,-9.280888888888889,0.6258888888888876
11.248000000000001,0.2030000000000068,-9.315111111111115,0.5001111111110955
11.256,0.25740000000000085,-9.349333333333334,0.3743333333333314
11.264,0.31179999999999497,-9.383555555555553,0.2485555555555673
11.272,0.3662000000000012,-9.41777777777778,0.12277777777777521
11.28,0.42059999999999526,-9.451999999999996,-0.0029999999999887894
11.288,0.4750000000000015,-9.486222222222223,-0.128777777777781
11.296,0.5293999999999957,-9.520444444444442,-0.254555555555545
11.304,0.0645416666666551,-6.773572916666671,-0.4384375000000089
11.312,0.23687499999997252,-6.706156250000011,-0.3059375000000212
11.32,0.4092083333333282,-6.638739583333336,-0.17343750000000402
11.328,0.5815416666666456,-6.571322916666675,-0.04093750000001628
11.336,0.7538750000000013,-6.503906249999999,0.09156250000000093
11.344,0.9262083333333186,-6.436489583333339,0.22406249999998867
11.352,1.0985416666666743,-6.3690729166666635,0.35656250000000583
11.36,1.2708749999999918,-6.301656250000003,0.48906249999999357
11.368,1.4432083333333474,-6.234239583333328,0.6215625000000107
11.376,1.6155416666666647,-6.166822916666668,0.7540624999999983
11.384,1.7878750000000203,-6.099406249999992,0.8865625000000155
11.392,1.9602083333333378,-6.031989583333331,1.0190625000000033
11.4,3.4035000000011477,-4.924499999999068,0.6449999999995648
11.408,38.054935483871056,5.485075268817123,-22.108666666666654
11.416,37.43067741935485,6.0653763440860065,-22.21533333333333
11.424,36.806419354838795,6.64567741935476,-22.321999999999985
11.432,36.1821612903226,7.225978494623642,-22.428666666666665
11.44,35.557903225806534,7.8062795698923955,-22.53533333333332
11.448,34.933645161290336,8.386580645161278,-22.641999999999996
11.456,34.30938709677427,8.966881720430031,-22.74866666666665
11.464,33.685129032258075,9.547182795698912,-22.85533333333333
11.472,33.06087096774202,10.127483870967666,-22.961999999999986
11.48,32.436612903225814,10.70778494623655,-23.068666666666665
11.488,31.81235483870976,11.288086021505304,-23.17533333333332
11.496,31.188096774193557,11.868387096774185,-23.281999999999996
11.504,26.692500000000003,13.478250000000001,-18.356749999999998
11.512,17.83783333333268,8.670916666666312,-13.588083333332982
11.52,6.264641975308656,3.332135802469154,-4.727234567901228
11.528,6.1632098765432115,3.200679012345682,-4.772172839506172
11.536,6.06177777777779,3.0692222222222387,-4.817111111111106
11.544,5.960345679012346,2.9377654320987663,-4.86204938271605
11.552,5.8589135802469245,2.806308641975323,-4.906987654320983
11.56,5.757481481481481,2.6748518518518507,-4.951925925925926
11.568,5.656049382716059,2.5433950617284076,-4.9968641975308605
11.576,5.554617283950615,2.411938271604935,-5.041802469135804
11.584,5.453185185185194,2.280481481481492,-5.086740740740737
11.592,5.351753086419749,2.14902469135802,-5.131679012345681
11.6,5.036200000000081,2.0208000000000044,-5.057600000000041
11.608,-0.3995000000006754,3.5375000000000467,-2.0324999999990174
11.616,-1.3316555555555478,3.549322222222224,-0.8565444444444477
11.624,-1.5278333333333478,3.5028333333333297,-0.7771666666666608
11.632,-1.7240111111111043,3.4563444444444458,-0.6977888888888917
11.64,-1.9201888888889043,3.4098555555555516,-0.6184111111111048
11.648,-2.1163666666666607,3.363366666666668,-0.5390333333333357
11.656,-2.3125444444444607,3.316877777777774,-0.45965555555554893
11.664,-2.508722222222217,3.27038888888889,-0.3802777777777797
11.672,-2.704900000000017,3.223899999999996,-0.30089999999999295
11.68,-2.9010777777777736,3.177411111111112,-0.22152222222222384
11.688,-3.0972555555555736,3.130922222222218,-0.14214444444443697
11.696,-3.29343333333333,3.084433333333334,-0.06276666666666786
11.704,-3.8129999999999717,3.2530000000000285,2.493000000000085
11.712,-0.6543406593406591,1.3461318681318675,0.07014285714285463
11.72,-0.620582417582414,1.2904835164835105,-0.18814285714288545
11.728,-0.5868241758241762,1.2348351648351654,-0.4464285714285682
11.736,-0.5530659340659312,1.1791868131868082,-0.7047142857143083
11.744,-0.5193076923076935,1.1235384615384634,-0.9629999999999912
11.752,-0.4855494505494483,1.0678901098901061,-1.2212857142857312
11.76,-0.4517912087912107,1.0122417582417613,-1.4795714285714139
11.768,-0.41803296703296555,0.9565934065934041,-1.737857142857154
11.776,-0.3842747252747279,0.9009450549450593,-1.9961428571428368
11.784,-0.3505164835164828,0.845296703296702,-2.254428571428577
11.792,-0.31675824175824513,0.7896483516483572,-2.51271428571426
11.8,-0.283,0.734,-2.771
11.808,7.255000000000001,-4.69,-30.719
11.816,7.885153846153921,-3.9170769230768308,-30.36330769230765
11.824,8.515307692307703,-3.1441538461538334,-30.00761538461538
11.832,9.145461538461625,-2.371230769230664,-29.65192307692303
11.84,9.775615384615406,-1.598307692307666,-29.296230769230757
11.848,10.405769230769327,-0.8253846153844964,-28.940538461538406
11.856,11.035923076923108,-0.05246153846149859,-28.584846153846136
11.864,11.66607692307703,0.720461538461671,-28.229153846153785
11.872,12.296230769230812,1.4933846153846684,-27.873461538461513
11.88,12.926384615384734,2.266307692307838,-27.51776923076916
11.888,13.556538461538516,3.0392307692308353,-27.162076923076892
11.896,14.186692307692436,3.812153846154005,-26.80638461538454
11.904,16.297583333333556,2.8290833333331826,-24.219249999999708
11.912,15.849999999997273,-1.2000000000019957,-17.049999999996682
11.92,10.70909756097561,-3.86610975609756,-6.71314634146341
11.928,10.704024390243902,-3.77840243902438,-6.2495365853658
11.936,10.698951219512196,-3.69069512195122,-5.785926829268295
11.944,10.693878048780487,-3.6029878048780404,-5.322317073170686
11.952,10.688804878048781,-3.51528048780488,-4.858707317073181
11.96,10.683731707317074,-3.4275731707317,-4.395097560975572
11.968,10.678658536585367,-3.33986585365854,-3.931487804878066
11.976,10.67358536585366,-3.2521585365853602,-3.4678780487804572
11.984,10.668512195121952,-3.1644512195122,-3.004268292682952
11.992,10.663439024390245,-3.07674390243902,-2.540658536585343
12.0,9.3905,-2.9665,-1.5274999999999999
12.008000000000001,3.960967741935469,-4.8712795698924864,2.5757956989247397
12.016,3.7888387096774236,-5.024397849462362,2.6749784946236534
12.024000000000001,3.61670967741934,-5.177516129032272,2.7741612903225894
12.032,3.4445806451612944,-5.3306344086021475,2.873344086021503
12.040000000000001,3.27245161290321,-5.483752688172057,2.972526881720439
12.048,3.100322580645165,-5.636870967741933,3.071709677419353
12.056000000000001,2.928193548387081,-5.789989247311842,3.170892473118289
12.064,2.756064516129036,-5.943107526881718,3.2700752688172026
12.072000000000001,2.5839354838709516,-6.096225806451628,3.3692580645161385
12.08,2.411806451612906,-6.2493440860215035,3.4684408602150523
12.088000000000001,2.2396774193548223,-6.402462365591413,3.5676236559139882
12.096,2.067548387096777,-6.555580645161289,3.666806451612902
12.104000000000001,2.3515000000000956,-5.50700000000022,4.601999999999624
12.112,2.623855072463763,-5.746072463768116,4.047942028985512
12.120000000000001,2.8122608695652356,-5.73586956521739,3.8993043478260727
12.128,3.0006666666666666,-5.725666666666666,3.7506666666666666
12.136000000000001,3.1890724637681394,-5.71546376811594,3.6020289855072276
12.144,3.3774782608695704,-5.705260869565217,3.453391304347822
12.152000000000001,3.5658840579710436,-5.695057971014491,3.304753623188383
12.16,3.754289855072474,-5.684855072463767,3.156115942028977
12.168000000000001,3.9426956521739474,-5.674652173913041,3.0074782608695383
12.176,13.369499999999999,-4.5665,1.955
12.184000000000001,34.99499999999937,0.8446666666672222,0.16499999999892934
12.192,30.74943243243243,4.286702702702733,-7.415702702702668
12.200000000000001,30.7662972972973,3.6601081081080626,-8.117108108108159
12.208,30.78316216216216,3.033513513513531,-8.818513513513494
12.216000000000001,30.800027027027028,2.40691891891886,-9.519918918918986
12.224,30.816891891891892,1.780324324324328,-10.221324324324321
12.232000000000001,30.83375675675676,1.1537297297296574,-10.922729729729811
12.24,30.850621621621624,0.5271351351351257,-11.624135135135147
12.248000000000001,30.867486486486488,-0.09945945945954549,-12.325540540540636
12.256,30.884351351351352,-0.7260540540540772,-13.026945945945972
12.264000000000001,30.90121621621622,-1.3526486486487483,-13.728351351351463
12.272,30.918081081081084,-1.97924324324328,-14.429756756756799
12.280000000000001,30.93494594594595,-2.605837837837951,-15.13116216216229
12.288,30.951810810810812,-3.232432432432483,-15.832567567567626
12.296,30.968675675675676,-3.8590270270270146,-16.53397297297296
12.304,23.844,-1.549,-13.824
12.312,17.02209000000002,-1.2997899999999925,-11.174540000000007
12.32,16.541049999999963,-1.4995500000000155,-11.016299999999989
12.328,16.060010000000016,-1.6993099999999943,-10.858060000000005
12.336,15.57896999999996,-1.8990700000000174,-10.699819999999987
12.344,15.09793000000001,-2.098829999999996,-10.541580000000003
12.352,14.616889999999955,-2.298590000000019,-10.383339999999986
12.36,14.135850000000005,-2.4983499999999976,-10.225100000000003
12.368,13.65480999999995,-2.698110000000021,-10.066859999999984
12.376,13.173770000000001,-2.8978699999999993,-9.90862
12.384,12.692729999999946,-3.0976300000000228,-9.750379999999982
12.392,12.211689999999997,-3.2973900000000014,-9.59214
12.4,11.73064999999994,-3.4971500000000244,-9.433899999999982
12.408,6.878,-2.813,-6.161
12.416,3.725066666666663,-1.4209666666666687,-4.480966666666666
12.424,3.479911111111134,-1.5568777777777651,-4.454211111111113
12.432,3.2347555555555507,-1.6927888888888916,-4.427455555555555
12.44,2.989600000000022,-1.828699999999988,-4.400700000000002
12.448,2.7444444444444387,-1.9646111111111146,-4.373944444444444
12.456,2.49928888888891,-2.100522222222211,-4.347188888888891
12.464,2.254133333333326,-2.2364333333333377,-4.320433333333333
12.472,2.0089777777777975,-2.3723444444444337,-4.29367777777778
12.48,1.7638222222222142,-2.5082555555555603,-4.266922222222221
12.488,1.518666666666685,-2.644166666666657,-4.240166666666669
12.496,1.2735111111111017,-2.780077777777783,-4.21341111111111
12.504,0.9950000000000568,-2.7035000000001737,-3.8855000000002704
12.512,0.7194090909090745,-1.769984848484852,-1.7464242424242173
12.52,0.6106818181818149,-1.793863636363637,-1.5818181818181767
12.528,0.5019545454545311,-1.8177424242424274,-1.4172121212120996
12.536,0.3932272727272716,-1.8416212121212123,-1.252606060606059
12.544,0.2844999999999879,-1.8655000000000026,-1.0879999999999819
12.552,0.1757727272727283,-1.8893787878787875,-0.9233939393939411
12.56,0.06704545454544464,-1.9132575757575778,-0.7587878787878639
12.568,-0.041681818181814934,-1.9371363636363628,-0.5941818181818233
12.576,-0.1504090909090987,-1.961015151515153,-0.42957575757574595
12.584,1.2293999999998566,-2.550599999999909,0.9725999999998545
12.592,1.0801818181818117,-4.0652727272727605,0.9409999999999961
12.6,0.8887843137254935,-4.973960784313714,0.8150784313725524
12.608,0.8303529411764675,-5.1578823529411855,0.7552352941176439
12.616,0.7719215686274545,-5.341803921568616,0.6953921568627487
12.624,0.7134901960784286,-5.525725490196087,0.6355490196078403
12.632,0.6550588235294156,-5.709647058823517,0.5757058823529451
12.64,0.5966274509803896,-5.893568627450988,0.5158627450980366
12.648,0.5381960784313766,-6.0774901960784184,0.4560196078431414
12.656,0.47976470588235065,-6.26141176470589,0.3961764705882329
12.664,0.4213333333333376,-6.44533333333332,0.3363333333333377
12.672,0.3629019607843117,-6.629254901960791,0.2764901960784293
12.68,0.3044705882352987,-6.813176470588221,0.21664705882353408
12.688,0.24603921568627274,-6.997098039215691,0.15680392156862566
12.696,0.18760784313725964,-7.1810196078431225,0.09696078431373045
12.704,-3.152912621359218,-11.000922330097092,0.7940194174757301
12.712,-2.8086796116505175,-11.31804854368929,0.9247378640776578
12.72,-2.46444660194174,-11.63517475728156,1.0554563106796144
12.728,-2.120213592233039,-11.95230097087376,1.1861747572815422
12.736,-1.7759805825242623,-12.269427184466029,1.3168932038834988
12.744,-1.4317475728155615,-12.586553398058227,1.4476116504854264
12.752,-1.0875145631067844,-12.903679611650496,1.5783300970873833
12.76,-0.7432815533980834,-13.220805825242696,1.7090485436893108
12.768,-0.3990485436893061,-13.537932038834965,1.8397669902912672
12.776,-0.05481553398060557,-13.855058252427163,1.970485436893195
12.784,0.2894174757281718,-14.172184466019432,2.1012038834951516
12.792,0.6336504854368723,-14.48931067961163,2.2319223300970794
12.8,0.9778834951456501,-14.806436893203902,2.362640776699036
12.808,2.4113333333330553,-14.825666666666537,2.8953333333335607
12.816,5.089,-15.031,2.219
12.824,5.451506024096353,-14.553024096385586,2.245602409638552
12.832,5.814012048192786,-14.075048192771066,2.2722048192771096
12.84,6.176518072289138,-13.597072289156651,2.298807228915661
12.848,6.539024096385571,-13.11909638554213,2.325409638554219
12.856,6.901530120481924,-12.641120481927716,2.352012048192771
12.864,7.264036144578357,-12.163144578313196,2.3786144578313286
12.872,7.6265421686747095,-11.685168674698781,2.40521686746988
12.88,7.9890481927711425,-11.20719277108426,2.431819277108438
12.888,8.351554216867495,-10.729216867469844,2.45842168674699
12.896,8.714060240963928,-10.251240963855324,2.4850240963855477
12.904,9.534,-6.811,2.757
12.912,8.456355555555565,-5.510177777777737,2.7767777777777716
12.92,8.50906666666667,-5.266533333333319,2.7403333333333313
12.928,8.561777777777786,-5.022888888888847,2.7038888888888826
12.936,8.614488888888893,-4.779244444444428,2.667444444444442
12.944,8.667200000000008,-4.535599999999956,2.6309999999999936
12.952,8.719911111111115,-4.291955555555539,2.594555555555553
12.96,8.772622222222232,-4.048311111111067,2.558111111111104
12.968,8.825333333333337,-3.8046666666666487,2.521666666666664
12.976,8.878044444444454,-3.5610222222221766,2.485222222222215
12.984,8.93075555555556,-3.3173777777777587,2.448777777777775
12.992,8.983466666666676,-3.0737333333332866,2.412333333333326
13.0,8.325,-2.61,2.176
13.008000000000001,10.395583333333587,-3.3466666666667018,1.263416666666579
13.016,11.534988372093027,-3.505011627906977,0.8602790697674407
13.024000000000001,11.732290697674443,-3.5317093023255848,0.7730232558139429
13.032,11.929593023255816,-3.558406976744186,0.6857674418604645
13.040000000000001,12.126895348837232,-3.5851046511627938,0.5985116279069667
13.048,12.324197674418606,-3.6118023255813956,0.5112558139534882
13.056000000000001,12.521500000000023,-3.638500000000003,0.42399999999999033
13.064,12.718802325581395,-3.6651976744186046,0.3367441860465118
13.072000000000001,12.916104651162811,-3.691895348837212,0.249488372093014
13.08,13.113406976744185,-3.718593023255814,0.16223255813953552
13.088000000000001,13.310709302325602,-3.745290697674421,0.07497674418603772
13.096,13.508011627906974,-3.771988372093023,-0.012279069767440753
13.104000000000001,14.784999999999446,-4.752000000000934,-1.221000000000032
13.112,12.338466666666664,-7.286066666666668,-1.5633333333333301
13.120000000000001,12.113044444444416,-7.33424444444445,-1.3402222222221936
13.128,11.887622222222218,-7.382422222222223,-1.1171111111111067
13.136000000000001,11.66219999999997,-7.430600000000006,-0.8939999999999704
13.144,11.436777777777772,-7.478777777777779,-0.6708888888888834
13.152000000000001,11.211355555555524,-7.526955555555562,-0.44777777777774697
13.16,10.985933333333326,-7.575133333333334,-0.22466666666666013
13.168000000000001,10.760511111111079,-7.623311111111118,-0.0015555555555237799
13.176,10.535088888888883,-7.671488888888891,0.22155555555556328
13.184000000000001,10.309666666666633,-7.719666666666673,0.44466666666669963
13.192,10.084244444444437,-7.767844444444446,0.6677777777777865
13.200000000000001,8.007999999999315,-6.385999999999946,0.5590000000004175
13.208,4.747,-5.657,2.599
13.216000000000001,4.958764044943817,-6.0056179775280905,2.9864943820224794
13.224,4.882449438202252,-6.015775280898876,3.173820224719091
13.232000000000001,4.806134831460668,-6.025932584269664,3.361146067415744
13.24,4.729820224719103,-6.03608988764045,3.5484719101123554
13.248000000000001,4.65350561797752,-6.046247191011237,3.7357977528090083
13.256,4.577191011235954,-6.056404494382023,3.92312359550562
13.264000000000001,4.500876404494371,-6.066561797752811,4.110449438202273
13.272,4.424561797752806,-6.0767191011235955,4.297775280898884
13.280000000000001,4.348247191011223,-6.086876404494384,4.485101123595538
13.288,4.271932584269657,-6.097033707865169,4.672426966292148
13.296000000000001,4.195617977528074,-6.107191011235957,4.859752808988802
13.304,4.174142857142858,-5.465999999999869,6.216428571428833
13.312000000000001,6.8554659090908565,-5.503727272727235,10.140977272727296
13.32,6.515193181818163,-5.261545454545441,10.292795454545463
13.328,6.174920454545471,-5.019363636363648,10.444613636363629
13.336,5.834647727272702,-4.7771818181818,10.596431818181829
13.344,5.49437500000001,-4.535000000000006,10.748249999999995
13.352,5.154102272727241,-4.292818181818159,10.900068181818195
13.36,4.813829545454547,-4.050636363636365,11.051886363636362
13.368,4.4735568181817795,-3.8084545454545182,11.203704545454563
13.376,4.133284090909086,-3.5662727272727244,11.35552272727273
13.384,3.793011363636318,-3.324090909090877,11.50734090909093
13.392,3.452738636363625,-3.081909090909083,11.659159090909096
13.4,1.806,-0.6040000000000001,11.951
13.408,1.084615384615452,0.13076923076928393,11.242307692307762
13.416,0.5910769230769315,-0.2581538461538395,10.739538461538471
13.424,-0.14234615384615418,0.8298846153846179,10.10903846153846
13.432,-0.18060256410256814,1.1255769230769541,10.013141025641016
13.44,-0.2188589743589736,1.421269230769225,9.917243589743592
13.448,-0.2571153846153876,1.7169615384615613,9.821346153846147
13.456,-0.295371794871793,2.012653846153832,9.725448717948723
13.464,-0.333628205128207,2.3083461538461685,9.629551282051278
13.472,-0.3718846153846125,2.604038461538439,9.533653846153854
13.48,-0.41014102564102645,2.899730769230775,9.437756410256409
13.488,-0.44839743589743186,3.195423076923046,9.341858974358985
13.496,-0.4866538461538458,3.4911153846153824,9.24596153846154
13.504,-0.255,3.81,8.952
13.512,-0.906,4.911,7.357
13.52,-0.9178490566037724,5.043150943396212,7.206660377358507
13.528,-0.9296981132075472,5.175301886792453,7.056320754716981
13.536,-0.9415471698113195,5.307452830188665,6.905981132075488
13.544,-0.9533962264150945,5.439603773584906,6.7556415094339615
13.552,-0.9652452830188667,5.571754716981118,6.605301886792468
13.56,-0.9770943396226417,5.70390566037736,6.454962264150942
13.568,-0.9889433962264139,5.836056603773572,6.304622641509448
13.576,-1.0007924528301888,5.968207547169813,6.154283018867922
13.584,-1.0126415094339611,6.100358490566025,6.003943396226429
13.592,-1.0244905660377361,6.232509433962267,5.8536037735849025
13.6,-1.0363396226415085,6.364660377358479,5.70326415094341
13.608,-1.0481886792452833,6.49681132075472,5.552924528301883
13.616,-1.0600377358490556,6.628962264150932,5.40258490566039
13.624,-0.342,7.395,4.237
13.632,-0.2723783783783859,7.36883783783784,4.2864054054054
13.64,-0.20275675675675636,7.342675675675675,4.335810810810811
13.648,-0.13313513513514225,7.316513513513516,4.385216216216211
13.656,-0.0635135135135127,7.290351351351351,4.4346216216216225
13.664,0.006108108108101418,7.264189189189191,4.484027027027023
13.672,0.07572972972973097,7.238027027027026,4.533432432432433
13.68,0.14535135135134508,7.211864864864867,4.582837837837833
13.688,0.21497297297297463,7.185702702702701,4.632243243243244
13.696,0.28459459459458875,7.159540540540542,4.681648648648644
13.704,0.763,7.745,4.61
13.712,1.7181000000000004,7.867166666666667,4.279
13.72,1.7503666666666708,7.888944444444447,4.270999999999999
13.728,1.782633333333334,7.910722222222223,4.263
13.736,1.8149000000000042,7.932500000000003,4.254999999999999
13.744,1.8471666666666673,7.954277777777778,4.247
13.752,1.8794333333333377,7.976055555555559,4.238999999999999
13.76,1.9117000000000008,7.997833333333333,4.231
13.768,1.9439666666666713,8.019611111111114,4.222999999999999
13.776,1.9762333333333344,8.04138888888889,4.215
13.784,2.0085000000000046,8.06316666666667,4.206999999999999
13.792,2.0407666666666677,8.084944444444444,4.199
13.8,1.912,8.118,4.263
13.808,1.6933333333333334,8.156666666666666,4.520333333333333
13.816,1.057,8.586,4.529
13.824,1.0926781609195364,8.602643678160918,4.513919540229886
13.832,1.1283563218390806,8.61928735632184,4.49883908045977
13.84,1.164034482758617,8.635931034482757,4.483758620689657
13.848,1.1997126436781613,8.652574712643679,4.46867816091954
13.856,1.2353908045976978,8.669218390804597,4.453597701149427
13.864,1.2710689655172422,8.685862068965518,4.43851724137931
13.872,1.3067471264367787,8.702505747126436,4.423436781609197
13.88,1.342425287356323,8.719149425287357,4.40835632183908
13.888,1.3781034482758594,8.735793103448275,4.3932758620689665
13.896,1.4137816091954036,8.752436781609196,4.37819540229885
13.904,1.494,8.7405,4.268000000000001
13.912,1.094460674157313,8.785056179775276,3.8161123595505657
13.92,1.212303370786513,8.733280898876407,3.864561797752807
13.928,1.330146067415739,8.681505617977525,3.9130112359550595
13.936,1.4479887640449391,8.629730337078653,3.9614606741573013
13.944,1.5658314606741652,8.577955056179771,4.009910112359553
13.952,1.6836741573033651,8.526179775280902,4.0583595505617955
13.96,1.8015168539325912,8.47440449438202,4.1068089887640475
13.968,1.9193595505617913,8.422629213483148,4.15525842696629
13.976,2.0372022471910176,8.370853932584266,4.203707865168542
13.984,2.1550449438202173,8.319078651685397,4.252157303370783
13.992,2.2728876404494436,8.267303370786514,4.300606741573036
14.0,2.472,8.3195,4.281499999999999
14.008000000000001,2.0149999999997763,8.147000000000105,3.6539999999993835
14.016,1.9925222222222176,8.164155555555556,3.3316555555555545
14.024000000000001,2.110833333333342,8.11633333333333,3.3598333333333352
14.032,2.2291444444444406,8.068511111111112,3.38801111111111
14.040000000000001,2.347455555555565,8.020688888888884,3.416188888888891
14.048,2.465766666666663,7.972866666666667,3.444366666666666
14.056000000000001,2.5840777777777877,7.92504444444444,3.4725444444444467
14.064,2.702388888888886,7.8772222222222235,3.5007222222222216
14.072000000000001,2.8207000000000106,7.829399999999996,3.5289000000000024
14.08,2.939011111111109,7.781577777777779,3.5570777777777773
14.088000000000001,3.0573222222222336,7.733755555555551,3.585255555555558
14.096,3.175633333333332,7.685933333333335,3.613433333333333
14.104000000000001,3.9400000000000177,7.836000000000007,4.748000000000217
14.112,3.8916129032258038,7.905677419354841,4.97316129032258
14.120000000000001,3.8004301075268687,7.987913978494635,4.948043010752684
14.128,3.709247311827954,8.070150537634412,4.922924731182795
14.136000000000001,3.618064516129019,8.152387096774206,4.8978064516129
14.144,3.5268817204301044,8.234623655913982,4.87268817204301
14.152000000000001,3.4356989247311693,8.316860215053776,4.847569892473115
14.16,3.3445161290322547,8.399096774193552,4.822451612903225
14.168000000000001,3.2533333333333196,8.481333333333346,4.79733333333333
14.176,3.162150537634405,8.563569892473122,4.77221505376344
14.184000000000001,3.07096774193547,8.645806451612916,4.747096774193545
14.192,2.9797849462365553,8.728043010752693,4.721978494623655
14.200000000000001,2.898636363636362,8.843272727272776,4.6894545454545336
14.208,2.887727272727273,9.189454545454524,4.605090909090914
14.216000000000001,2.718999999999951,9.216666666666649,4.363333333333268
14.224,2.653692307692307,9.169461538461539,4.258230769230769
14.232000000000001,2.6739120879120897,9.14941758241758,4.264208791208792
14.24,2.694131868131868,9.129373626373626,4.270186813186813
14.248000000000001,2.7143516483516503,9.109329670329668,4.276164835164836
14.256,2.734571428571429,9.089285714285714,4.2821428571428575
14.264000000000001,2.7547912087912114,9.069241758241755,4.288120879120879
14.272,2.7750109890109895,9.049197802197801,4.294098901098901
14.280000000000001,2.795230769230772,9.029153846153843,4.300076923076924
14.288,2.81545054945055,9.009109890109888,4.306054945054945
14.296000000000001,2.8356703296703327,8.98906593406593,4.312032967032968
14.304,2.855890109890111,8.969021978021976,4.318010989010989
14.312000000000001,2.6629999999999705,8.755999999999895,4.377333333333312
14.32,2.531,8.372,4.368
14.328000000000001,2.531,8.372,4.368
14.336,2.531,8.372,4.368
14.344,2.531,8.372,4.368
14.352,2.531,8.372,4.368
14.36,2.531,8.372,4.368
14.368,2.531,8.372,4.368
14.376,2.531,8.372,4.368
14.384,2.531,8.372,4.368
14.392,2.531,8.372,4.368
14.4,2.501499999999974,8.573500000000179,4.3364999999999725
14.408,2.455499999999975,8.677500000000022,4.252500000000094
14.416,2.427749999999999,8.670022727272725,3.985431818181818
14.424,2.4047500000000013,8.635386363636366,3.987340909090909
14.432,2.3817499999999985,8.600749999999998,3.98925
14.44,2.358750000000001,8.566113636363637,3.9911590909090906
14.448,2.335749999999998,8.531477272727269,3.993068181818182
14.456,2.3127500000000007,8.49684090909091,3.9949772727272728
14.464,2.289749999999998,8.462204545454542,3.9968863636363636
14.472,2.26675,8.427568181818181,3.9987954545454545
14.48,2.2437499999999972,8.392931818181813,4.000704545454545
14.488,2.22075,8.358295454545454,4.002613636363637
14.496,2.197749999999997,8.323659090909086,4.004522727272727
14.504,2.218,8.394,4.326
14.512,2.2641098901098915,8.883912087912089,4.070593406593405
14.52,2.280285714285714,8.888571428571428,4.057142857142857
14.528,2.2964615384615397,8.893230769230769,4.043692307692306
14.536,2.312637362637362,8.89789010989011,4.0302417582417585
14.544,2.328813186813188,8.90254945054945,4.016791208791208
14.552,2.3449890109890097,8.90720879120879,4.00334065934066
14.56,2.3611648351648356,8.911868131868133,3.9898901098901094
14.568,2.377340659340658,8.916527472527472,3.976439560439562
14.576,2.3935164835164837,8.921186813186813,3.962989010989011
14.584,2.409692307692306,8.925846153846154,3.9495384615384634
14.592,2.425868131868132,8.930505494505494,3.9360879120879124
14.6,2.4737333333333167,8.921333333333338,3.938666666666661
14.608,2.6166666666666774,8.870666666666663,3.989333333333337
14.616,2.4270000000001244,8.701999999999982,4.357999999999912
14.624,2.2821,8.888599999999997,4.4174000000000015
14.632,2.292333333333331,8.951733333333335,4.398933333333334
14.64,2.3120666666666665,8.938506666666667,4.397226666666667
14.648,2.331799999999998,8.925280000000003,4.39552
14.656,2.3515333333333337,8.912053333333334,4.393813333333334
14.664,2.371266666666665,8.898826666666668,4.392106666666667
14.672,2.391000000000001,8.8856,4.3904000000000005
14.68,2.410733333333332,8.872373333333334,4.388693333333333
14.688,2.4304666666666677,8.859146666666666,4.386986666666667
14.696,2.4501999999999993,8.845920000000001,4.385280000000001
14.704,2.2864999999999203,8.89900000000003,4.320999999999971
14.712,0.5750000000000002,9.944,2.616
