accel_time_list,accel_x_list,accel_y_list,accel_z_list
0.0,-3.3,1.5,9.8
0.007997422680412371,-2.2249033505154636,1.3,9.75006443298969
0.015994845360824742,-3.166701030927835,1.5,9.205549828178693
0.023992268041237115,-3.113384879725086,1.5,9.214435853379152
0.031989690721649484,-3.060068728522337,1.5,9.22332187857961
0.039987113402061854,-3.006752577319588,1.5,9.232207903780068
0.04798453608247423,-2.9534364261168387,1.5,9.241093928980527
0.0559819587628866,-2.9001202749140895,1.5,9.249979954180985
0.06397938144329897,-2.8468041237113404,1.5,9.258865979381444
0.07197680412371134,-2.7934879725085913,1.5,9.2677520045819
0.07997422680412371,-2.740171821305842,1.5,9.27663802978236
0.08797164948453608,-2.686855670103093,1.5,9.285524054982819
0.09596907216494846,-2.633539518900344,1.5,9.294410080183276
0.10396649484536083,-2.1083762886597914,1.5,9.2
0.1119639175257732,-2.285339120998372,1.5633478024959306,9.192669560499185
0.11996134020618557,-2.2685024416711883,1.5212561041779709,9.184251220835593
0.12795876288659794,-2.2516657623440044,1.4791644058600109,9.175832881172001
0.1359561855670103,-2.2348290830168205,1.437072707542051,9.167414541508409
0.14395360824742268,-2.2179924036896366,1.3949810092240913,9.158996201844818
0.15195103092783505,-2.2011557243624527,1.3528893109061315,9.150577862181226
0.15994845360824742,-2.1843190450352687,1.3107976125881717,9.142159522517634
0.16794587628865978,-2.167482365708085,1.2687059142702117,9.133741182854042
0.17594329896907215,-2.150645686380901,1.226614215952252,9.12532284319045
0.18394072164948452,-2.133809007053717,1.1845225176342922,9.116904503526857
0.19193814432989692,-2.116972327726533,1.1424308193163322,9.108486163863265
0.1999355670103093,-2.100135648399349,1.1003391209983722,9.100067824199675
0.20793298969072166,-2.496944802405498,1.4969448024054983,9.212220790378007
0.21593041237113403,-2.488614153780069,1.4886141537800688,9.245543384879724
0.2239278350515464,-2.480283505154639,1.4802835051546392,9.278865979381443
0.23192525773195877,-2.4719528565292097,1.4719528565292095,9.31218857388316
0.23992268041237114,-2.46362220790378,1.46362220790378,9.34551116838488
0.2479201030927835,-2.4552915592783506,1.4552915592783504,9.378833762886597
0.2559175257731959,-2.446960910652921,1.4469609106529209,9.412156357388316
0.26391494845360824,-2.4386302620274916,1.4386302620274913,9.445478951890033
0.2719123711340206,-2.430299613402062,1.4302996134020618,9.478801546391752
0.279909793814433,-2.421968964776632,1.4219689647766323,9.512124140893471
0.28790721649484535,-2.4136383161512027,1.4136383161512027,9.545446735395188
0.2959046391752577,-2.405307667525773,1.4053076675257732,9.578769329896907
0.3039020618556701,-2.9755154639175245,1.1097938144329902,9.895103092783506
0.31189948453608246,-3.3748958104847553,1.306276047378811,9.668619763105944
0.31989690721649483,-3.34086422461066,1.314783943847335,9.626080280763325
0.3278943298969072,-3.306832638736565,1.3232918403158587,9.583540798420705
0.33589175257731957,-3.27280105286247,1.3317997367843826,9.541001316078086
0.34388917525773194,-3.2387694669883746,1.3403076332529062,9.498461833735467
0.3518865979381443,-3.2047378811142795,1.3488155297214302,9.455922351392848
0.3598840206185567,-3.1707062952401843,1.3573234261899538,9.41338286905023
0.36788144329896905,-3.136674709366089,1.3658313226584777,9.37084338670761
0.3758788659793814,-3.102643123491994,1.3743392191270014,9.328303904364992
0.38387628865979384,-3.0686115376178984,1.3828471155955253,9.285764422022373
0.3918737113402062,-3.0345799517438032,1.391355012064049,9.243224939679754
0.3998711340206186,-3.000548365869708,1.399862908532573,9.200685457337135
0.40786855670103095,-2.3,1.1970427250504836,9.197042725050483
0.4158659793814433,-2.3,1.188797959400574,9.188797959400572
0.4238634020618557,-2.3,1.1805531937506641,9.180553193750663
0.43186082474226806,-2.3,1.1723084281007545,9.172308428100754
0.4398582474226804,-2.3,1.164063662450845,9.164063662450845
0.4478556701030928,-2.3,1.1558188968009353,9.155818896800934
0.45585309278350516,-2.3,1.1475741311510257,9.147574131151025
0.46385051546391753,-2.3,1.139329365501116,9.139329365501116
0.4718479381443299,-2.3,1.1310845998512065,9.131084599851206
0.4798453608247423,-2.3,1.1228398342012966,9.122839834201296
0.48784278350515464,-2.3,1.114595068551387,9.114595068551386
0.495840206185567,-2.3,1.1063503029014774,9.106350302901477
0.5038376288659794,-2.2081185567010313,1.0081185567010311,9.283762886597938
0.5118350515463918,-2.2952597533858903,1.1905195067717809,9.504740246614109
0.5198324742268041,-2.287419142914898,1.1748382858297959,9.512580857085101
0.5278298969072165,-2.2795785324439053,1.1591570648878107,9.520421467556094
0.5358273195876289,-2.271737921972913,1.1434758439458257,9.528262078027087
0.5438247422680412,-2.2638973115019203,1.1277946230038407,9.53610268849808
0.5518221649484536,-2.256056701030928,1.1121134020618557,9.543943298969072
0.559819587628866,-2.2482160905599353,1.0964321811198707,9.551783909440065
0.5678170103092783,-2.240375480088943,1.0807509601778855,9.559624519911058
0.5758144329896907,-2.2325348696179503,1.0650697392359005,9.56746513038205
0.5838118556701031,-2.2246942591469576,1.0493885182939156,9.575305740853041
0.5918092783505154,-2.2168536486759653,1.0337072973519306,9.583146351324034
0.5998067010309278,-2.209013038204973,1.0180260764099454,9.590986961795027
0.6078041237113402,-2.2011724277339804,1.0023448554679604,9.59882757226602
0.6158015463917526,-2.497929257020974,1.1082829719161038,9.402070742979026
0.6237989690721649,-2.488736817158431,1.1450527313662757,9.41126318284157
0.6317963917525773,-2.479544377295888,1.1818224908164474,9.420455622704113
0.6397938144329897,-2.470351937433345,1.2185922502666193,9.429648062566654
0.647791237113402,-2.461159497570802,1.255362009716791,9.438840502429198
0.6557886597938144,-2.4519670577082593,1.292131769166963,9.448032942291741
0.6637860824742268,-2.4427746178457164,1.3289015286171346,9.457225382154284
0.6717835051546391,-2.4335821779831734,1.3656712880673065,9.466417822016826
0.6797809278350515,-2.4243897381206305,1.4024410475174784,9.47561026187937
0.6877783505154639,-2.4151972982580876,1.4392108069676501,9.484802701741913
0.6957757731958762,-2.4060048583955442,1.475980566417822,9.493995141604456
0.7037731958762886,-2.3886597938144325,1.2113402061855671,9.4
0.711770618556701,-2.4,1.12229381443299,9.4
0.7197680412371134,-2.4,1.1129618904204797,9.4
0.7277654639175257,-2.4,1.1309336267809569,9.4
0.7357628865979381,-2.4,1.148905363141434,9.4
0.7437603092783505,-2.4,1.1668770995019113,9.4
0.7517577319587628,-2.4,1.1848488358623885,9.4
0.7597551546391752,-2.4,1.2028205722228658,9.4
0.7677525773195877,-2.4,1.2207923085833432,9.4
0.77575,-2.4,1.2387640449438204,9.4
0.7837474226804124,-2.4,1.2567357813042976,9.4
0.7917448453608248,-2.4,1.2747075176647749,9.4
0.7997422680412372,-2.4,1.292679254025252,9.4
0.8077396907216495,-2.5031144872490505,1.4,9.197664134563212
0.8157371134020619,-2.5367878459034183,1.4,9.172409115572435
0.8237345360824743,-2.570461204557786,1.4,9.14715409658166
0.8317319587628866,-2.604134563212154,1.4,9.121899077590884
0.839729381443299,-2.637807921866522,1.4,9.096644058600107
0.8477268041237114,-2.6714812805208896,1.4,9.071389039609333
0.8557242268041237,-2.705154639175258,1.4,9.046134020618556
0.8637216494845361,-2.7388279978296257,1.4,9.020879001627781
0.8717190721649485,-2.7725013564839935,1.4,8.995623982637005
0.8797164948453609,-2.8061747151383614,1.4,8.970368963646228
0.8877139175257732,-2.839848073792729,1.4,8.945113944655454
0.8957113402061856,-2.873521432447097,1.4,8.919858925664677
0.903708762886598,-2.64368556701031,1.5708762886597936,8.9
0.9117061855670103,-2.7801844818231145,1.9099077590884426,8.065322843190451
0.9197036082474227,-2.7465111231687462,1.9267444384156267,8.006394465545306
0.9277010309278351,-2.7128377645143784,1.9435811177428106,7.947466087900162
0.9356984536082474,-2.6791644058600106,1.9604177970699945,7.888537710255019
0.9436958762886598,-2.6454910472056428,1.9772544763971784,7.829609332609875
0.9516932989690722,-2.611817688551275,1.9940911557243624,7.770680954964732
0.9596907216494845,-2.578144329896907,2.0109278350515463,7.711752577319587
0.9676881443298969,-2.5444709712425393,2.02776451437873,7.652824199674444
0.9756855670103093,-2.5107976125881715,2.0446011937059145,7.5938958220293005
0.9836829896907217,-2.4771242539338036,2.0614378730330984,7.534967444384156
0.991680412371134,-2.443450895279436,2.0782745523602824,7.476039066739013
0.9996778350515464,-2.4097775366250676,2.0951112316874663,7.417110689093869
1.0076752577319588,-3.203410392585651,0.9945433718629587,6.997953764448609
1.015672680412371,-3.243801416224097,0.9299177340414456,6.973719150265542
1.0236701030927835,-3.2841924398625433,0.8652920962199308,6.949484536082474
1.031667525773196,-3.32458346350099,0.8006664583984159,6.925249921899406
1.0396649484536082,-3.364974487139436,0.7360408205769028,6.901015307716339
1.0476623711340207,-3.405365510777883,0.6714151827553879,6.876780693533271
1.055659793814433,-3.4457565344163283,0.6067895449338748,6.852546079350203
1.0636572164948455,-3.486147558054775,0.54216390711236,6.828311465167135
1.0716546391752577,-3.5265385816932207,0.47753826929084686,6.8040768509840674
1.0796520618556702,-3.5669296053316675,0.412912631469332,6.779842236801
1.0876494845360825,-3.6073206289701134,0.3482869936478189,6.755607622617933
1.095646907216495,-3.6477116526085602,0.28366135582630403,6.731373008434864
1.1036443298969072,-3.6881026762470057,0.21903571800479105,6.707138394251797
1.1116417525773197,-4.109252577319587,0.3364175257731958,6.827164948453609
1.119639175257732,-4.607432270438743,0.49628386478062825,6.598513545912251
1.1276365979381444,-4.700425557420283,0.44978722128985804,6.579914888515943
1.1356340206185567,-4.793418844401821,0.40329057779908917,6.561316231119635
1.1436314432989692,-4.886412131383362,0.35679393430831896,6.542717573723327
1.1516288659793814,-4.9794054183649,0.3102972908175501,6.52411891632702
1.159626288659794,-5.07239870534644,0.2638006473267799,6.505520258930712
1.1676237113402061,-5.165391992327978,0.21730400383601095,6.486921601534404
1.1756211340206186,-5.258385279309518,0.17080736034524074,6.468322944138096
1.1836185567010309,-5.351378566291056,0.12431071685447187,6.449724286741789
1.1916159793814434,-5.444371853272596,0.07781407336370166,6.431125629345481
1.1996134020618556,-5.537365140254134,0.031317429872932734,6.412526971949173
1.207610824742268,-6.605412371134051,-1.5162371134021528,6.194587628865949
1.2156082474226804,-7.385342895562528,-3.706095921111609,5.224383684446437
1.2236056701030928,-7.5070428059166305,-3.714788771851188,5.259155087404752
1.231603092783505,-7.62874271627073,-3.7234816225907665,5.293926490363066
1.2396005154639176,-7.7504426266248325,-3.7321744733303452,5.32869789332138
1.2475979381443298,-7.872142536978932,-3.740867324069924,5.363469296279695
1.2555953608247423,-7.9938424473330345,-3.7495601748095027,5.39824069923801
1.2635927835051546,-8.115542357687135,-3.758253025549081,5.433012102196324
1.271590206185567,-8.237242268041237,-3.7669458762886596,5.467783505154639
1.2795876288659793,-8.358942178395337,-3.7756387270282383,5.502554908112954
1.2875850515463918,-8.48064208874944,-3.784331577767817,5.5373263110712685
1.295582474226804,-8.602341999103539,-3.7930244285073957,5.572097714029582
1.3035798969072165,-8.6,-3.455025773195849,5.2
1.3115773195876288,-8.945773195876288,-3.295422680412371,5.072536082474227
1.3195747422680413,-9.025747422680414,-3.2874252577319587,5.024551546391752
1.3275721649484535,-9.105721649484536,-3.2794278350515462,4.976567010309278
1.335569587628866,-9.18569587628866,-3.2714304123711337,4.928582474226803
1.3435670103092783,-9.265670103092784,-3.2634329896907217,4.88059793814433
1.3515644329896908,-9.345644329896908,-3.2554355670103092,4.832613402061855
1.359561855670103,-9.42561855670103,-3.247438144329897,4.784628865979382
1.3675592783505155,-9.505592783505156,-3.2394407216494847,4.736644329896907
1.3755567010309278,-9.585567010309278,-3.2314432989690722,4.688659793814433
1.3835541237113402,-9.665541237113402,-3.2234458762886598,4.640675257731958
1.3915515463917525,-9.745515463917526,-3.2154484536082477,4.592690721649485
1.399548969072165,-9.82548969072165,-3.2074510309278352,4.54470618556701
1.4075463917525772,-9.954639175257727,-3.3092783505154526,4.226804123711369
1.4155438144329897,-10.313843025128866,-4.5110744201030935,2.986156974871134
1.423541237113402,-10.345082957474228,-4.536066365979382,2.954917042525773
1.4315386597938144,-10.376322889819589,-4.56105831185567,2.923677110180412
1.4395360824742267,-10.407562822164948,-4.586050257731959,2.8924371778350517
1.4475335051546392,-10.438802754510311,-4.611042203608248,2.8611972454896906
1.4555309278350514,-10.47004268685567,-4.636034149484536,2.8299573131443303
1.463528350515464,-10.501282619201032,-4.661026095360825,2.798717380798969
1.4715257731958762,-10.532522551546393,-4.686018041237113,2.7674774484536084
1.4795231958762887,-10.563762483891754,-4.711009987113402,2.7362375161082473
1.487520618556701,-10.595002416237113,-4.736001932989691,2.704997583762887
1.4955180412371134,-10.626242348582474,-4.76099387886598,2.673757651417526
1.5035154639175257,-10.657482280927836,-4.7859858247422675,2.642517719072165
1.5115128865979381,-10.688722213273197,-4.810977770618557,2.611277786726804
1.5195103092783504,-10.719962145618556,-4.835969716494845,2.5800378543814437
1.5275077319587629,-10.751202077963917,-4.8609616623711345,2.5487979220360826
1.5355051546391754,-10.78244201030928,-4.885953608247423,2.5175579896907214
1.5435025773195876,-10.776649484536083,-4.923350515463918,2.429948453608248
1.5515,-10.723333333333333,-4.9766666666666675,2.2699999999999974
1.5594974226804124,-10.104218092057499,-4.789454769856251,1.9084361841149988
1.5674948453608248,-10.126746043269929,-4.733134891825177,1.953492086539858
1.575492268041237,-10.149273994482359,-4.676815013794105,1.9985479889647157
1.5834896907216496,-10.171801945694787,-4.620495135763031,2.0436038913895747
1.5914871134020618,-10.194329896907217,-4.564175257731959,2.0886597938144327
1.5994845360824743,-10.216857848119647,-4.507855379700885,2.1337156962392916
1.6074819587628866,-10.239385799332075,-4.451535501669813,2.1787715986641496
1.615479381443299,-10.261913750544505,-4.395215623638739,2.2238275010890085
1.6234768041237113,-10.284441701756935,-4.338895745607667,2.2688834035138665
1.6314742268041238,-10.5,-3.978865979381415,2.74742268041239
1.639471649484536,-10.281961595105926,-3.56392319021185,2.757910388580491
1.6474690721649485,-10.25559646539028,-3.5111929307805587,2.6963917525773184
1.6554664948453608,-10.229231335674635,-3.458462671349269,2.634873116574147
1.6634639175257733,-10.202866205958989,-3.4057324119179784,2.5733544805709743
1.6714613402061855,-10.176501076243344,-3.3530021524866886,2.5118358445678033
1.679458762886598,-10.1501359465277,-3.3002718930553976,2.4503172085646305
1.6874561855670103,-10.123770816812055,-3.2475416336241083,2.3887985725614596
1.6954536082474227,-10.097405687096408,-3.1948113741928172,2.327279936558287
1.703451030927835,-10.071040557380764,-3.1420811147615275,2.265761300555116
1.7114484536082475,-10.04467542766512,-3.089350855330237,2.204242664551943
1.7194458762886597,-10.018310297949474,-3.036620595898947,2.1427240285487716
1.7274432989690722,-10.267010309278344,-2.8556701030927814,2.221649484536093
1.7354407216494845,-8.846634756995583,-2.5077724594992636,2.7
1.743438144329897,-8.91518409425626,-2.51919734904271,2.7
1.7514355670103092,-8.983733431516937,-2.530622238586156,2.7
1.7594329896907217,-9.052282768777616,-2.5420471281296027,2.7
1.767430412371134,-9.120832106038291,-2.5534720176730485,2.7
1.7754278350515464,-9.18938144329897,-2.564896907216495,2.7
1.7834252577319587,-9.257930780559645,-2.576321796759941,2.7
1.7914226804123712,-9.326480117820324,-2.5877466863033876,2.7
1.7994201030927834,-9.395029455081001,-2.5991715758468334,2.7
1.807417525773196,-9.5208762886598,-2.458247422680402,3.7
1.8154149484536082,-9.585584385497508,-2.2783765782462644,3.6495453492412837
1.8234123711340207,-9.567612649137033,-2.251418973705548,3.5866442719796123
1.831409793814433,-9.549640912776555,-2.2244613691648327,3.5237431947179427
1.8394072164948454,-9.531669176416077,-2.1975037646241162,3.460842117456272
1.8474046391752577,-9.513697440055601,-2.1705461600834006,3.397941040194602
1.8554020618556701,-9.495725703695124,-2.1435885555426846,3.335039962932931
1.8633994845360824,-9.477753967334646,-2.116630951001969,3.2721388856712617
1.8713969072164949,-9.459782230974168,-2.089673346461253,3.2092378084095903
1.8793943298969071,-9.441810494613692,-2.0627157419205373,3.1463367311479207
1.8873917525773196,-9.423838758253215,-2.0357581373798213,3.0834356538862497
1.8953891752577319,-9.405867021892737,-2.0088005328391056,3.02053457662458
1.9033865979381444,-9.04089347079037,-1.730670103092778,2.9102233676975926
1.9113840206185566,-9.09431257038898,-1.4,2.8056874296110195
1.919381443298969,-9.080871523867279,-1.4,2.819128476132721
1.9273788659793814,-9.067430477345578,-1.4,2.8325695226544223
1.9353762886597938,-9.053989430823876,-1.4,2.846010569176124
1.943373711340206,-9.040548384302175,-1.4,2.859451615697825
1.9513711340206186,-9.027107337780473,-1.4,2.872892662219527
1.9593685567010308,-9.013666291258772,-1.4,2.886333708741228
1.9673659793814433,-9.00022524473707,-1.4,2.89977475526293
1.9753634020618556,-8.98678419821537,-1.4,2.9132158017846312
1.983360824742268,-8.973343151693667,-1.4,2.9266568483063327
1.9913582474226803,-8.959902105171967,-1.4,2.940097894828034
1.9993556701030928,-8.946461058650264,-1.4,2.9535389413497355
2.007353092783505,-8.933020012128564,-1.4,2.966979987871437
2.0153505154639175,-8.919578965606862,-1.4,2.9804210343931383
2.02334793814433,-8.906137919085161,-1.4,2.99386208091484
2.031345360824742,-8.7,-1.8672680412371043,2.3327319587628956
2.0393427835051545,-8.720683897197617,-1.8793161028023817,2.3206838971976183
2.047340206185567,-8.743211848410047,-1.8567881515899523,2.3432118484100477
2.0553376288659795,-8.765739799622477,-1.8342602003775228,2.365739799622477
2.063335051546392,-8.788267750834907,-1.8117322491650933,2.3882677508349066
2.071332474226804,-8.810795702047335,-1.789204297952665,2.4107957020473347
2.0793298969072165,-8.833323653259765,-1.7666763467402355,2.433323653259764
2.087327319587629,-8.855851604472194,-1.744148395527806,2.4558516044721936
2.0953247422680414,-8.878379555684624,-1.7216204443153766,2.478379555684623
2.1033221649484535,-8.803350515464007,-1.7161082474226654,2.5
2.111319587628866,-8.2519882179676,-1.8759941089838,2.2240058910162
2.1193170103092784,-8.226546391752576,-1.8853092783505152,2.2073453608247426
2.127314432989691,-8.133553104771035,-1.866710620954207,2.2166446895228966
2.135311855670103,-8.0405598177895,-1.8481119635579,2.22594401822105
2.1433092783505154,-7.9475665308079595,-1.8295133061615918,2.235243346919204
2.151306701030928,-7.854573243826419,-1.8109146487652836,2.244542675617358
2.1593041237113404,-7.761579956844878,-1.7923159913689755,2.253842004315512
2.1673015463917524,-7.668586669863343,-1.7737173339726684,2.2631413330136656
2.175298969072165,-7.575593382881802,-1.7551186765763604,2.2724406617118196
2.1832963917525774,-7.482600095900262,-1.7365200191800523,2.2817399904099736
2.19129381443299,-7.389606808918721,-1.717921361783744,2.291039319108128
2.199291237113402,-7.329123711340197,-1.7,2.2417525773196063
2.2072886597938144,-7.006701030927857,-1.7355670103092857,2.0644329896907143
2.215286082474227,-6.892165502715885,-1.7078344972841146,2.1391724864205734
2.2232835051546394,-6.8835661234896355,-1.7164338765103646,2.1821693825518236
2.2312809278350514,-6.874966744263386,-1.7250332557366141,2.225166278683071
2.239278350515464,-6.866367365037136,-1.7336326349628641,2.268163174814321
2.2472757731958763,-6.857767985810886,-1.742232014189114,2.311160070945571
2.255273195876289,-6.8491686065846356,-1.750831393415364,2.354156967076821
2.263270618556701,-6.840569227358387,-1.7594307726416136,2.3971538632080684
2.2712680412371133,-6.831969848132136,-1.7680301518678636,2.440150759339318
2.279265463917526,-6.823370468905886,-1.7766295310941136,2.4831476554705683
2.2872628865979383,-6.8147710896796365,-1.7852289103203636,2.526144551601818
2.2952603092783503,-6.806171710453387,-1.793828289546613,2.5691414477330654
2.303257731958763,-6.6,-2.377319587628874,2.1484536082474173
2.3112551546391753,-6.6,-2.6151149054982823,1.992442547250859
2.319252577319588,-6.6,-2.6317762027491414,1.9841118986254291
2.32725,-6.6,-2.6484375,1.97578125
2.3352474226804123,-6.6,-2.665098797250859,1.9674506013745703
2.343244845360825,-6.6,-2.6817600945017186,1.9591199527491407
2.3512422680412373,-6.6,-2.6984213917525777,1.950789304123711
2.3592396907216493,-6.6,-2.7150826890034363,1.942458655498282
2.3672371134020618,-6.6,-2.7317439862542954,1.9341280068728521
2.3752345360824743,-6.6,-2.748405283505155,1.9257973582474224
2.3832319587628867,-6.6,-2.765066580756014,1.9174667096219928
2.3912293814432988,-6.6,-2.7817278780068726,1.9091360609965635
2.3992268041237113,-6.6,-2.7983891752577317,1.900805412371134
2.4072242268041237,-7.233453608247427,-2.5110309278350487,2.6444845360824756
2.415221649484536,-7.417851793109525,-2.4,2.682148206890475
2.4232190721649483,-7.445193409110934,-2.4,2.6548065908890663
2.4312164948453607,-7.472535025112344,-2.4,2.627464974887656
2.439213917525773,-7.4998766411137545,-2.4,2.600123358886246
2.4472113402061857,-7.527218257115164,-2.4,2.572781742884836
2.4552087628865977,-7.554559873116573,-2.4,2.545440126883427
2.46320618556701,-7.581901489117984,-2.4,2.518098510882017
2.4712036082474227,-7.609243105119393,-2.4,2.4907568948806067
2.479201030927835,-7.636584721120804,-2.4,2.4634152788791965
2.487198453608247,-7.663926337122212,-2.4,2.4360736628777877
2.4951958762886597,-7.6912679531236225,-2.4,2.4087320468763775
2.503193298969072,-7.718609569125032,-2.4,2.3813904308749674
2.5111907216494846,-7.745951185126443,-2.4,2.354048814873557
2.5191881443298967,-7.773292801127852,-2.4,2.3267071988721484
2.527185567010309,-7.841752577319531,-2.413917525773177,2.295360824742274
2.5351829896907216,-8.5108959576777,-2.8015565653825285,2.4968868692349426
2.543180412371134,-8.584556429734132,-2.8120794899620187,2.475841020075962
2.551177835051546,-8.658216901790558,-2.822602414541508,2.454795170916983
2.5591752577319586,-8.731877373846988,-2.8331253391209983,2.433749321758003
2.567172680412371,-8.80553784590342,-2.8436482637004885,2.4127034725990226
2.5751701030927836,-8.87919831795985,-2.8541711882799783,2.3916576234400426
2.583167525773196,-8.95285879001628,-2.8646941128594685,2.3706117742810626
2.591164948453608,-9.026519262072707,-2.8752170374389583,2.3495659251220835
2.5991623711340206,-9.100179734129139,-2.885739962018448,2.328520075963103
2.607159793814433,-9.173840206185568,-2.8962628865979383,2.307474226804123
2.6151572164948456,-8.955025773195878,-3.1157216494845366,2.768556701030927
2.6231546391752576,-9.941924398625426,-3.505154639175256,2.2632302405498295
2.63115206185567,-10.084065788075247,-3.605311403974918,2.2265570198745888
2.6391494845360826,-10.059331491125517,-3.6135561696248275,2.2677808481241377
2.647146907216495,-10.034597194175788,-3.6218009352747376,2.3090046763736867
2.655144329896907,-10.00986289722606,-3.6300457009246467,2.350228504623233
2.6631417525773196,-9.985128600276331,-3.6382904665745563,2.391452332872782
2.671139175257732,-9.960394303326602,-3.6465352322244664,2.432676161122331
2.6791365979381445,-9.935660006376873,-3.654779997874376,2.47389998937188
2.6871340206185566,-9.910925709427145,-3.663024763524285,2.5151238176214266
2.695131443298969,-9.886191412477416,-3.6712695291741952,2.556347645870975
2.7031288659793815,-9.861457115527687,-3.679514294824105,2.597571474120524
2.711126288659794,-9.836722818577957,-3.687759060474015,2.638795302370073
2.719123711340206,-9.81198852162823,-3.696003826123924,2.6800191306196197
2.7271211340206185,-11.10298969072165,-3.5014948453608246,2.8014948453608244
2.735118556701031,-11.124316151202748,-3.512158075601375,2.8121580756013747
2.7431159793814435,-11.145642611683849,-3.5228213058419247,2.8228213058419245
2.7511134020618555,-11.166969072164948,-3.533484536082474,2.833484536082474
2.759110824742268,-11.188295532646048,-3.544147766323024,2.8441477663230237
2.7671082474226805,-11.209621993127149,-3.5548109965635737,2.8548109965635735
2.775105670103093,-11.230948453608248,-3.565474226804124,2.865474226804124
2.783103092783505,-11.252274914089346,-3.5761374570446733,2.876137457044673
2.7911005154639175,-11.273601374570447,-3.586800687285223,2.886800687285223
2.79909793814433,-11.294927835051547,-3.597463917525773,2.897463917525773
2.8070953608247424,-10.934278350515456,-3.312371134020608,3.456185567010304
2.8150927835051545,-10.784247866090237,-2.6887484757787403,2.895499390311496
2.823090206185567,-10.724052211506487,-2.6457515796474906,2.878300631858996
2.8310876288659794,-10.663856556922738,-2.6027546835162405,2.861101873406496
2.839085051546392,-10.603660902338987,-2.559757787384991,2.843903114953996
2.847082474226804,-10.543465247755242,-2.5167608912537434,2.826704356501497
2.8550798969072164,-10.48326959317149,-2.4737639951224932,2.809505598048997
2.863077319587629,-10.423073938587741,-2.4307670989912435,2.792306839596497
2.8710747422680414,-10.36287828400399,-2.3877702028599934,2.7751080811439977
2.8790721649484534,-10.302682629420245,-2.344773306728746,2.7579093226914986
2.887069587628866,-10.242486974836494,-2.3017764105974963,2.7407105642389986
2.8950670103092784,-10.182291320252745,-2.258779514466246,2.7235118057864987
2.903064432989691,-10.122095665668994,-2.2157826183349965,2.7063130473339987
2.911061855670103,-10.293202673615045,-2.1954684490766967,2.518126203693214
2.9190592783505154,-10.266837543899399,-2.177891695932933,2.5884332162682684
2.927056701030928,-10.240472414183754,-2.1603149427891695,2.6587402288433233
2.9350541237113403,-10.214107284468108,-2.1427381896454056,2.7290472414183777
2.9430515463917524,-10.187742154752465,-2.125161436501643,2.799354253993428
2.951048969072165,-10.161377025036819,-2.1075846833578793,2.869661266568483
2.9590463917525773,-10.135011895321174,-2.0900079302141155,2.9399682791435375
2.96704381443299,-10.108646765605528,-2.072431177070352,3.0102752917185924
2.975041237113402,-10.082281635889885,-2.054854423926589,3.080582304293643
2.9830386597938143,-10.055916506174238,-2.0372776707828257,3.1508893168686978
2.991036082474227,-10.029551376458594,-2.019700917639062,3.2211963294437522
2.9990335051546393,-10.003186246742947,-2.002124164495298,3.2915033420188067
3.0070309278350513,-9.379690721649487,-2.4406185567010277,3.5406185567010278
3.015028350515464,-9.299866585809584,-2.599899939357187,3.7000667070952087
3.0230257731958763,-9.262231655548819,-2.5716737416616136,3.718884172225591
3.0310231958762888,-9.224596725288054,-2.5434475439660402,3.7377016373559733
3.039020618556701,-9.186961795027292,-2.5152213462704682,3.7565191024863545
3.0470180412371133,-9.149326864766527,-2.4869951485748945,3.775336567616737
3.0550154639175258,-9.111691934505762,-2.458768950879321,3.794154032747119
3.0630128865979382,-9.074057004244997,-2.430542753183748,3.8129714978775016
3.0710103092783507,-9.036422073984232,-2.402316555488174,3.8317889630078836
3.0790077319587628,-8.99878714372347,-2.3740903577926025,3.8506064281382653
3.0870051546391752,-8.961152213462706,-2.3458641600970287,3.8694238932686473
3.0950025773195877,-8.92351728320194,-2.3176379624014554,3.88824135839903
3.103,-8.8,-2.7,4.6
3.1109974226804122,-9.56810155735907,-2.7,5.205316407106822
3.1189948453608247,-9.517054178547927,-2.7,5.213824303575346
3.126992268041237,-9.466006799736784,-2.7,5.222332200043869
3.1349896907216497,-9.41495942092564,-2.7,5.230840096512393
3.1429871134020617,-9.3639120421145,-2.7,5.239347992980917
3.150984536082474,-9.312864663303356,-2.7,5.247855889449441
3.1589819587628867,-9.261817284492214,-2.7,5.256363785917965
3.166979381443299,-9.210769905681069,-2.7,5.264871682386488
3.174976804123711,-9.15972252686993,-2.7,5.273379578855011
3.1829742268041237,-9.108675148058786,-2.7,5.281887475323535
3.190971649484536,-9.057627769247642,-2.7,5.2903953717920595
3.1989690721649486,-9.006580390436499,-2.7,5.298903268260584
3.2069664948453607,-8.477512886597964,-2.612918814432994,6.693298969072098
3.214963917525773,-10.26696735395189,-1.8099097938144333,6.306606529209622
3.2229613402061856,-10.200322164948453,-1.8299033505154645,6.31993556701031
3.230958762886598,-10.133676975945015,-1.8498969072164957,6.333264604810997
3.23895618556701,-10.067031786941582,-1.8698904639175258,6.346593642611683
3.2469536082474226,-10.000386597938144,-1.889884020618557,6.359922680412371
3.254951030927835,-9.933741408934708,-1.9098775773195882,6.373251718213059
3.2629484536082476,-9.86709621993127,-1.9298711340206194,6.386580756013746
3.2709458762886596,-9.800451030927837,-1.9498646907216495,6.399909793814433
3.278943298969072,-9.733805841924399,-1.9698582474226805,6.4132388316151205
3.2869407216494846,-9.667160652920963,-1.9898518041237117,6.426567869415807
3.294938144329897,-9.600515463917525,-2.009845360824743,6.439896907216495
3.302935567010309,-9.53387027491409,-2.029838917525773,6.453225945017182
3.3109329896907216,-9.467225085910654,-2.0498324742268044,6.466554982817869
3.318930412371134,-9.400579896907216,-2.0698260309278353,6.479884020618557
3.3269278350515465,-9.33393470790378,-2.0898195876288668,6.4932130584192445
3.3349252577319586,-10.570103092783443,-2.1462628865979307,5.429896907216556
3.342922680412371,-11.211062203173867,-2.5944688984130666,5.760842117456271
3.3509201030927835,-11.229033939534345,-2.5854830302328278,5.859686667438897
3.358917525773196,-11.247005675894822,-2.576497162052589,5.958531217421523
3.366914948453608,-11.264977412255298,-2.5675112938723506,6.057375767404144
3.3749123711340205,-11.282949148615776,-2.5585254256921117,6.15622031738677
3.382909793814433,-11.300920884976254,-2.5495395575118733,6.255064867369396
3.3909072164948455,-11.318892621336731,-2.5405536893316345,6.353909417352022
3.3989046391752575,-11.336864357697207,-2.531567821151396,6.452753967334643
3.40690206185567,-11.354836094057685,-2.5225819529711573,6.551598517317269
3.4148994845360825,-11.372807830418163,-2.5135960847909185,6.6504430672998955
3.422896907216495,-11.39077956677864,-2.50461021661068,6.749287617282522
3.430894329896907,-13.309306987399728,-2.4900630011454794,8.449684994272603
3.4388917525773195,-14.286769759450152,-2.401202749140895,8.893986254295525
3.446889175257732,-15.264232531500578,-2.312342497136311,9.338287514318445
3.4548865979381445,-21.590166534496454,-2.2983346550356916,7.728865979381422
3.4628840206185565,-22.671136852837858,-2.570774328764013,6.700625920471305
3.470881443298969,-23.752107171179322,-2.8432140024923496,5.672385861561132
3.4788788659793815,-24.833077489520786,-3.1156536762206866,4.644145802650957
3.486876288659794,-25.914047807862254,-3.388093349949023,3.615905743740784
3.494873711340206,-26.995018126203657,-3.6605330236773446,2.587665684830667
3.5028711340206184,-28.07598844454512,-3.932972697405681,1.5594256259204933
3.510868556701031,-29.15695876288659,-4.205412371134018,0.5311855670103194
3.5188659793814434,-30.237929081228053,-4.477852044862354,-0.4970544918998545
3.5268634020618554,-31.318899399569457,-4.750291718590676,-1.5252945508099707
3.534860824742268,-32.399869717910924,-5.022731392319012,-2.5535346097201455
3.5428582474226804,-33.48084003625239,-5.295171066047349,-3.5817746686303185
3.550855670103093,-33.36092656230112,2.966030291459842,-19.961881125111354
3.558853092783505,-31.011066564846715,2.590842560773845,-18.174802723685946
3.5668505154639174,-28.66120656739218,2.215654830087827,-16.38772432226044
3.57484793814433,-26.311346569937648,1.8404670994018093,-14.600645920834936
3.5828453608247424,-23.961486572483118,1.4652793687157917,-12.813567519409428
3.590842783505155,-21.61162657502858,1.0900916380297736,-11.026489117983923
3.598840206185567,-19.26176657757418,0.7149039073437766,-9.239410716558515
3.6068376288659794,-16.91190658011965,0.3397161766577592,-7.45233231513301
3.614835051546392,-14.562046582665115,-0.035471554028258634,-5.665253913707504
3.6228324742268043,-12.212186585210581,-0.4106592847142765,-3.8781755122819987
3.6308298969072164,-3.9974226804128734,-1.3020618556701766,-8.271391752577191
3.638827319587629,1.6311519497982796,-0.1844240251008601,-10.162942626624819
3.6468247422680413,2.604751232631104,0.3023756163155521,-10.939503959360524
3.654822164948454,3.578350515463928,0.7891752577319643,-11.716065292096228
3.662819587628866,4.5519497982966985,1.2759748991483493,-12.49262662483189
3.6708170103092783,5.5255490811295225,1.7627745405647617,-13.269187957567596
3.678814432989691,6.499148363962346,2.2495741819811736,-14.045749290303302
3.6868118556701033,7.472747646795171,2.736373823397586,-14.822310623039005
3.6948092783505153,8.446346929627941,3.223173464813971,-15.59887195577467
3.702806701030928,21.907130584191194,-4.831271477662405,-8.190292096220716
3.7108041237113403,13.544329896907165,-0.8061855670101981,5.637113402061779
3.7188015463917528,21.504608247422656,3.0200386597938196,-23.235914948453598
3.726798969072165,20.512927835051563,3.21997422680412,-22.796056701030935
3.7347963917525773,19.521247422680418,3.419909793814432,-22.35619845360825
3.7427938144329898,18.529567010309272,3.619845360824744,-21.916340206185563
3.7507912371134022,17.537886597938126,3.8197809278350556,-21.47648195876288
3.7587886597938143,16.54620618556703,4.0197164948453565,-21.036623711340216
3.7667860824742267,15.554525773195884,4.219652061855669,-20.596765463917528
3.7747835051546392,14.562845360824738,4.4195876288659806,-20.156907216494844
3.7827809278350517,13.57116494845359,4.619523195876292,-19.71704896907216
3.7907783505154637,12.5794845360825,4.819458762886593,-19.277190721649497
3.7987757731958762,11.587804123711352,5.019394329896905,-18.83733247422681
3.8067731958762887,10.596123711340205,5.219329896907217,-18.397474226804125
3.814770618556701,7.850515463917357,4.7321305841923795,-15.713831615120068
3.8227680412371132,1.9596281296023579,2.7370075478645055,-4.688977356406484
3.8307654639175257,1.87394145802651,2.8155536634756992,-4.453339009572902
3.838762886597938,1.788254786450662,2.8940997790868934,-4.21770066273932
3.8467603092783507,1.702568114874814,2.972645894698087,-3.9820623159057384
3.8547577319587627,1.6168814432989709,3.051192010309277,-3.7464239690721697
3.862755154639175,1.531194771723123,3.1297381259204706,-3.510785622238588
3.8707525773195877,1.4455081001472752,3.208284241531665,-3.275147275405006
3.87875,1.359821428571427,3.2868303571428585,-3.0395089285714243
3.886747422680412,1.2741347569955839,3.365376472754048,-2.803870581737856
3.8947448453608247,1.188448085419736,3.443922588365242,-2.568232234904274
3.902742268041237,1.1027614138438881,3.5224687039764357,-2.3325938880706922
3.9107396907216496,1.0170747422680402,3.60101481958763,-2.09695554123711
3.9187371134020617,0.9313880706921969,3.679560935198819,-1.8613171944035414
3.926734536082474,0.8457013991163491,3.758107050810013,-1.6256788475699597
3.9347319587628866,-1.6463917525773066,3.243814432989713,-1.575773195876247
3.942729381443299,-1.8630253766851694,2.740840602696271,-2.4665543219666946
3.950726804123711,-1.8190834938257627,2.6705335901212206,-2.5456497111136267
3.9587242268041236,-1.7751416109663536,2.6002265775461657,-2.6247451002605633
3.966721649484536,-1.7311997281069444,2.5299195649711113,-2.7038404894074994
3.9747190721649486,-1.6872578452475353,2.459612552396057,-2.782935878554436
3.9827164948453606,-1.6433159623881286,2.389305539821006,-2.862031267701368
3.990713917525773,-1.5993740795287195,2.3189985272459515,-2.9411266568483043
3.9987113402061856,-1.5554321966693103,2.2486915146708966,-3.020222045995241
4.006708762886598,-1.5114903138099012,2.178384502095842,-3.0993174351421775
4.01470618556701,-1.4675484309504945,2.108077489520791,-3.1784128242891097
4.022703608247423,-1.423606548091083,2.0377704769457328,-3.2575082134360502
4.030701030927835,26.37268041237226,8.872164948453847,-17.510309278351105
4.038698453608247,-1.8433070231958542,2.9680372100515053,-24.1612717461341
4.04669587628866,-2.518089561855694,4.230130476804169,-21.624589239690632
4.054693298969072,-3.192872100515459,5.492223743556693,-19.08790673324744
4.062690721649484,-3.867654639175224,6.754317010309216,-16.55122422680425
4.070688144329897,-4.542437177835064,8.01641027706188,-14.014541720360778
4.078685567010309,-5.217219716494829,9.278503543814404,-11.47785921391759
4.086682989690722,-5.892002255154669,10.540596810567067,-8.941176707474117
4.094680412371134,-6.566784793814433,11.802690077319593,-6.4044942010309285
4.102677835051546,-5.925515463917628,7.430927835052012,-9.517396907216051
4.110675257731959,1.6881137515289175,-1.568303337410447,-10.98018958588153
4.118672680412371,1.6677813209854973,-1.5140835226279927,-10.946302201642496
4.126670103092784,1.6474488904420745,-1.4598637078455323,-10.912414817403457
4.134667525773196,1.627116459898654,-1.405643893063078,-10.878527433164423
4.142664948453608,1.6067840293552338,-1.3514240782806237,-10.84464004892539
4.150662371134021,1.586451598811811,-1.2972042634981633,-10.810752664686351
4.158659793814433,1.5661191682683908,-1.242984448715709,-10.776865280447318
4.166657216494845,1.5457867377249703,-1.1887646339332547,-10.742977896208284
4.174654639175258,1.5254543071815478,-1.1345448191507943,-10.709090511969247
4.18265206185567,1.5051218766381274,-1.08032500436834,-10.675203127730212
4.190649484536083,1.4847894460947049,-1.0261051895858795,-10.641315743491175
4.198646907216495,1.4644570155512844,-0.9718853748034252,-10.607428359252141
4.206644329896907,1.444124585007864,-0.9176655600209709,-10.573540975013106
4.21464175257732,1.4237921544644414,-0.8634457452385105,-10.53965359077407
4.222639175257732,1.403459723921021,-0.8092259304560562,-10.505766206535036
4.230636597938144,-1.4442562592045975,1.7598306332841378,-11.448085419734866
4.238634020618557,-2.1125699558173965,2.2380780559646656,-11.838078055964665
4.246631443298969,-2.6495397643593455,2.592249631811483,-12.192249631811483
4.254628865979382,-3.186509572901354,2.94642120765834,-12.546421207658339
4.262626288659794,-3.7234793814433025,3.300592783505157,-12.900592783505157
4.270623711340206,-4.260449189985251,3.6547643593519745,-13.254764359351974
4.278621134020619,-4.7974189985272595,4.008935935198831,-13.608935935198831
4.286618556701031,-5.3343888070692085,4.363107511045648,-13.963107511045648
4.294615979381443,-5.8713586156111575,4.717279086892466,-14.317279086892466
4.302613402061856,-8.4780927835054,7.097422680412606,-17.74613402061891
4.310610824742268,3.1753608247423024,3.946804123711316,-8.28030927835046
4.318608247422681,4.6878350515463785,2.8407872539831347,-5.8121649484536215
4.326605670103093,4.527886597938139,2.8989503280224946,-5.972113402061861
4.334603092783505,4.367938144329898,2.957113402061855,-6.132061855670102
4.342600515463918,4.20798969072164,3.0152764761012216,-6.29201030927836
4.35059793814433,4.0480412371134005,3.0734395501405816,-6.4519587628866
4.358595360824742,3.8880927835051597,3.131602624179942,-6.61190721649484
4.366592783505155,3.728144329896902,3.1897656982193086,-6.771855670103099
4.374590206185567,3.5681958762886614,3.2479287722586685,-6.931804123711339
4.38258762886598,3.408247422680404,3.306091846298035,-7.091752577319596
4.390585051546392,3.248298969072163,3.364254920337395,-7.251701030927837
4.398582474226804,3.0883505154639233,3.4224179943767554,-7.411649484536078
4.406579896907217,2.9284020618556648,3.4805810684161216,-7.571597938144335
4.414577319587629,2.768453608247425,3.538744142455482,-7.731546391752575
4.422574742268041,2.6085051546391846,3.596907216494842,-7.891494845360816
4.430572164948454,-2.7081369661266494,8.97375341889333,-6.776378077003995
4.438569587628866,-2.422514727540505,8.892147065011573,-6.702932358510416
4.446567010309279,-2.1368924889543286,8.810540711129809,-6.629486640016827
4.454564432989691,-1.8512702503681842,8.728934357248052,-6.556040921523247
4.462561855670103,-1.5656480117820397,8.647328003366297,-6.482595203029668
4.470559278350516,-1.2800257731958633,8.565721649484532,-6.409149484536079
4.478556701030928,-0.9944035346097189,8.484115295602777,-6.335703766042499
4.48655412371134,-0.7087812960235742,8.40250894172102,-6.26225804754892
4.494551546391753,-0.423159057437398,8.320902587839257,-6.188812329055331
4.502548969072165,-0.13753681885125335,8.239296233957502,-6.115366610561751
4.510546391752578,0.14808541973492284,8.157689880075736,-6.041920892068163
4.51854381443299,0.4337076583210675,8.076083526193981,-5.968475173574583
4.526541237113402,1.620103092782968,7.188144329897381,-6.224742268041048
4.534538659793815,8.577506514104435,5.5,-6.193488727767074
4.542536082474227,8.243548204372944,5.5,-6.096816585476379
4.550533505154639,7.909589894641453,5.5,-6.000144443185684
4.558530927835052,7.5756315849099245,5.5,-5.903472300894978
4.566528350515464,7.241673275178434,5.5,-5.8068001586042834
4.574525773195877,6.907714965446906,5.5,-5.710128016313578
4.582523195876289,6.573756655715416,5.5,-5.6134558740228835
4.590520618556701,6.239798345983925,5.5,-5.516783731732189
4.598518041237114,5.905840036252396,5.5,-5.420111589441483
4.606515463917526,5.571881726520905,5.5,-5.323439447150788
4.614512886597939,5.237923416789378,5.5,-5.226767304860083
4.622510309278351,4.9039651070578865,5.5,-5.130095162569388
4.630507731958763,4.040618556701021,5.4390721649484695,-2.689845360824745
4.638505154639176,4.392697594501717,4.910953608247425,-2.6
4.646502577319588,4.3760362972508595,4.9359455541237125,-2.6
4.6545,4.359375000000001,4.9609375,-2.6
4.662497422680413,4.3427137027491405,4.98592944587629,-2.6
4.670494845360825,4.326052405498282,5.010921391752578,-2.6
4.6784922680412375,4.309391108247421,5.035913337628868,-2.6
4.68648969072165,4.292729810996564,5.060905283505155,-2.6
4.694487113402062,4.276068513745705,5.085897229381443,-2.6
4.7024845360824745,4.259407216494845,5.110889175257734,-2.6
4.710481958762887,4.242745919243986,5.135881121134021,-2.6
4.718479381443299,4.226084621993127,5.160873067010309,-2.6
4.7264768041237115,4.209423324742268,5.185865012886599,-2.6
4.7344742268041236,4.460567010309247,6.763402061855482,-2.947422680412329
4.7424716494845365,5.194744108983797,7.301751963672068,-4.810511782032406
4.7504690721649485,5.166181885125183,7.311272704958272,-4.8676362297496345
4.7584664948453606,5.1376196612665685,7.320793446244477,-4.924760677466863
4.7664639175257735,5.109057437407952,7.330314187530683,-4.981885125184098
4.7744613402061855,5.080495213549337,7.339834928816888,-5.0390095729013265
4.7824587628865975,5.051932989690723,7.349355670103092,-5.096134020618555
4.7904561855670105,5.023370765832105,7.358876411389298,-5.15325846833579
4.7984536082474225,4.994808541973492,7.368397152675503,-5.210382916053018
4.806451030927835,4.966246318114874,7.377917893961709,-5.267507363770253
4.8144484536082475,4.93768409425626,7.387438635247914,-5.324631811487482
4.8224458762886595,4.909121870397645,7.396959376534118,-5.38175625920471
4.830443298969072,3.389175257731898,8.17783505154638,-5.033505154639139
4.8384407216494845,2.688896486429624,7.483344729644436,-4.494448243214812
4.8464381443298965,2.672575215653273,7.458862823479909,-4.486287607826636
4.854435567010309,2.65625394487692,7.43438091731538,-4.47812697243846
4.8624329896907215,2.639932674100569,7.409899011150853,-4.469966337050285
4.870430412371134,2.6236114033242157,7.385417104986324,-4.461805701662108
4.878427835051546,2.607290132547865,7.360935198821797,-4.453645066273933
4.8864252577319585,2.590968861771514,7.3364532926572705,-4.445484430885757
4.894422680412371,2.574647590995161,7.311971386492741,-4.437323795497581
4.902420103092783,2.55832632021881,7.287489480328214,-4.429163160109405
4.9104175257731955,2.5420050494424586,7.263007574163688,-4.42100252472123
4.918414948453608,2.5256837786661057,7.238525667999158,-4.412841889333053
4.92641237113402,2.5093625078897546,7.214043761834632,-4.404681253944878
4.934409793814433,2.4621134020618536,7.351546391752585,-4.362113402061854
4.942407216494845,2.5090492554410053,8.009049255441004,-4.413573883161508
4.950404639175257,2.6867697594501725,8.186769759450172,-4.680154639175258
4.95840206185567,2.730419432283578,8.230419432283577,-4.730419432283578
4.966399484536082,2.763285552888011,8.26328555288801,-4.763285552888011
4.974396907216494,2.796151673492444,8.296151673492444,-4.796151673492444
4.982394329896907,2.8290177940968806,8.32901779409688,-4.82901779409688
4.990391752577319,2.861883914701313,8.361883914701313,-4.8618839147013135
4.998389175257732,2.8947500353057496,8.39475003530575,-4.89475003530575
5.006386597938144,2.9276161559101825,8.427616155910183,-4.927616155910183
5.014384020618556,2.9604822765146155,8.460482276514615,-4.9604822765146155
5.022381443298969,2.993348397119052,8.493348397119052,-4.9933483971190515
5.030378865979381,2.631056701030922,9.337886597938157,-5.231056701030922
5.038376288659793,2.592068506817426,9.4,-5.192068506817426
5.046373711340206,2.583469127591176,9.4,-5.1834691275911755
5.054371134020618,2.574869748364926,9.4,-5.174869748364927
5.062368556701031,2.566270369138676,9.4,-5.166270369138676
5.070365979381443,2.557670989912426,9.4,-5.157670989912426
5.078363402061855,2.549071610686177,9.4,-5.1490716106861765
5.086360824742268,2.540472231459926,9.4,-5.140472231459926
5.09435824742268,2.531872852233677,9.4,-5.131872852233677
5.102355670103092,2.523273473007427,9.4,-5.123273473007427
5.110353092783505,2.514674093781177,9.4,-5.1146740937811765
5.118350515463917,2.506074714554927,9.4,-5.106074714554927
5.12634793814433,2.399374079528699,9.265832106038266,-4.999374079528699
5.134345360824742,2.088487972508587,8.944243986254294,-4.688487972508587
5.142342783505154,1.9,8.592040991654395,-4.392040991654396
5.150340206185567,1.9,8.572999509081983,-4.372999509081984
5.158337628865979,1.9,8.553958026509573,-4.353958026509574
5.166335051546392,1.9,8.534916543937161,-4.334916543937162
5.174332474226804,1.9,8.515875061364753,-4.3158750613647525
5.182329896907216,1.9,8.496833578792343,-4.296833578792342
5.190327319587629,1.9,8.47779209621993,-4.2777920962199305
5.198324742268041,1.9,8.45875061364752,-4.258750613647521
5.206322164948453,1.9,8.439709131075112,-4.239709131075111
5.214319587628866,1.9,8.4206676485027,-4.220667648502699
5.222317010309278,1.9,8.40162616593029,-4.20162616593029
5.230314432989691,2.700311319791773,8.000311319791773,-4.0
5.238311855670103,2.708229560069409,8.008229560069408,-4.0
5.246309278350515,2.7161478003470445,8.016147800347044,-4.0
5.254306701030928,2.724066040624681,8.02406604062468,-4.0
5.26230412371134,2.7319842809023167,8.031984280902316,-4.0
5.270301546391752,2.7399025211799524,8.039902521179952,-4.0
5.278298969072165,2.747820761457589,8.047820761457588,-4.0
5.286296391752577,2.7557390017352246,8.055739001735224,-4.0
5.29429381443299,2.763657242012861,8.06365724201286,-4.0
5.302291237113402,2.7715754822904968,8.071575482290497,-4.0
5.310288659793814,2.7794937225681324,8.079493722568133,-4.0
5.318286082474227,2.787411962845769,8.087411962845769,-4.0
5.326283505154639,2.7953302031234046,8.095330203123405,-4.0
5.334280927835051,3.0,8.203745704467353,-3.9
5.342278350515464,3.0,8.310378006872854,-3.9
5.350275773195876,2.872422680412395,8.463788659793803,-3.9
5.358273195876289,2.7800734359553725,8.519926564044628,-3.909963282022314
5.366270618556701,2.7581626888857507,8.54183731111425,-3.9209186555571245
5.374268041237113,2.736251941816129,8.56374805818387,-3.9318740290919356
5.382265463917526,2.7143411947465044,8.585658805253495,-3.9428294026267476
5.390262886597938,2.6924304476768826,8.607569552323117,-3.9537847761615588
5.39826030927835,2.6705197006072607,8.629480299392739,-3.9647401496963695
5.406257731958763,2.6486089535376363,8.651391046462363,-3.975695523231182
5.414255154639175,2.6266982064680144,8.673301793531985,-3.9866508967659926
5.422252577319588,2.6047874593983904,8.69521254060161,-3.997606270300805
5.43025,2.421428571428573,8.789285714285715,-4.178571428571427
5.438247422680412,2.095332502548998,8.932672482157015,-4.342007477059019
5.446244845360825,2.086544125977116,8.994191118160192,-4.42110286620596
5.454242268041237,2.0777557494052346,9.05570975416336,-4.500198255352892
5.462239690721649,2.068967372833353,9.11722839016653,-4.579293644499823
5.470237113402062,2.0601789962614707,9.178747026169706,-4.658389033646764
5.478234536082474,2.0513906196895895,9.240265662172876,-4.737484422793696
5.486231958762887,2.042602243117707,9.30178429817605,-4.816579811940637
5.494229381443299,2.0338138665458256,9.36330293417922,-4.8956752010875695
5.502226804123711,2.0250254899739444,9.42482157018239,-4.974770590234502
5.510224226804124,2.016237113402062,9.486340206185567,-5.053865979381443
5.518221649484536,2.0074487368301805,9.547858842188734,-5.132961368528375
5.526219072164948,2.1219072164947788,9.386662371134136,-5.017139175257832
5.534216494845361,2.3996669310071366,9.200999206978588,-3.498667724028547
5.542213917525773,2.387363203806503,9.23791038858049,-3.4494528152260115
5.550211340206186,2.3750594766058675,9.274821570182397,-3.4002379064234707
5.558208762886598,2.362755749405234,9.311732751784298,-3.3510229976209356
5.56620618556701,2.3504520222045997,9.3486439333862,-3.3018080888184
5.574203608247423,2.3381482950039647,9.385555114988104,-3.2525931800158596
5.582201030927835,2.325844567803331,9.422466296590006,-3.203378271213324
5.590198453608247,2.313540840602697,9.459377478191909,-3.154163362410789
5.59819587628866,2.301237113402062,9.496288659793814,-3.104948453608248
5.606193298969072,2.742664551942879,9.831998413957159,-3.7086637589214586
5.614190721649485,3.3381443298969926,15.564089347080078,-6.049656357389099
5.622188144329897,3.954351988217967,22.706347569955813,-11.516229749631808
5.630185567010309,4.038134511536569,23.178576337751572,-12.003691703485494
5.638182989690722,4.12191703485518,23.65080510554738,-12.49115365733923
5.646180412371134,4.205699558173782,24.123033873343136,-12.978615611192916
5.654177835051547,4.289482081492394,24.595262641138945,-13.466077565046653
5.662175257731959,4.373264604810996,25.067491408934703,-13.953539518900339
5.670172680412371,4.457047128129598,25.53972017673046,-14.441001472754023
5.678170103092784,4.540829651448209,26.011948944526267,-14.928463426607761
5.686167525773196,4.624612174766811,26.484177712322023,-15.415925380461445
5.694164948453608,4.708394698085413,26.95640648011778,-15.903387334315129
5.702162371134021,4.792177221404024,27.42863524791359,-16.390849288168866
5.710159793814433,4.875959744722626,27.900864015709345,-16.87831124202255
5.718157216494846,4.9597422680412375,28.373092783505157,-17.36577319587629
5.726154639175258,3.242268041237249,26.4907216494847,-17.855670103092763
5.73415206185567,-0.1412569389370999,22.43049167327548,-18.347819191118123
5.742149484536083,-1.3642234054605213,21.795729013254785,-17.677194969978473
5.750146907216495,-2.3309448283674783,21.567231222385868,-16.86866432536538
5.758144329896907,-3.297666251274435,21.33873343151695,-16.06013368075229
5.76614175257732,-4.264387674181499,21.110235640648007,-15.251603036139109
5.774139175257732,-5.2311090970884555,20.881737849779093,-14.443072391526018
5.782136597938145,-6.19783051999552,20.65324005891015,-13.634541746912838
5.790134020618557,-7.164551942902476,20.424742268041232,-12.826011102299745
5.798131443298969,-8.131273365809434,20.196244477172314,-12.017480457686656
5.806128865979382,-9.097994788716498,19.96774668630337,-11.208949813073474
5.814126288659794,-10.064716211623455,19.739248895434454,-10.400419168460383
5.822123711340206,-11.03143763453041,19.510751104565536,-9.591888523847292
5.830121134020619,-10.42731958762882,5.252061855669547,5.7753436426110785
5.838118556701031,1.7899116347569979,-9.613451153657335,-1.0522091310750548
5.846115979381444,1.7518286696121743,-9.664228440517102,-2.0042832596956455
5.854113402061856,1.7137457044673547,-9.71500572737686,-2.95635738831613
5.862110824742268,1.6756627393225354,-9.76578301423662,-3.9084315169366146
5.870108247422681,1.6375797741777118,-9.816560301096384,-4.860505645557206
5.878105670103093,1.5994968090328925,-9.867337587956143,-5.81257977417769
5.886103092783505,1.5614138438880731,-9.918114874815902,-6.764653902798175
5.894100515463918,1.5233308787432494,-9.968892161675667,-7.716728031418766
5.90209793814433,20.62976804123789,-15.498840206185792,-9.53917525773201
5.910095360824743,12.70748303815311,-9.129993832055675,0.44900431756102654
5.918092783505155,12.331535818133741,-8.993285752048632,0.5446999735659569
5.926090206185567,11.955588598114371,-8.856577672041588,0.6403956295708872
5.93408762886598,11.57964137809496,-8.71986959203453,0.7360912855758283
5.942085051546392,11.203694158075592,-8.583161512027488,0.8317869415807586
5.950082474226804,10.827746938056222,-8.446453432020444,0.927482597585689
5.958079896907217,10.451799718036812,-8.309745352013385,1.02317825359063
5.966077319587629,10.075852498017442,-8.173037272006342,1.1188739095955604
5.974074742268042,9.699905277998031,-8.036329191999284,1.214569565600501
5.982072164948454,9.323958057978661,-7.89962111199224,1.3102652216054316
5.990069587628866,8.948010837959293,-7.762913031985197,1.405960877610362
5.998067010309279,8.572063617939882,-7.6262049519781385,1.5016565336153027
6.006064432989691,8.196116397920512,-7.489496871971095,1.5973521896202332
6.014061855670103,7.820169177901143,-7.352788791964052,1.6930478456251636
6.022059278350516,7.444221957881732,-7.216080711956994,1.7887435016301048
6.030056701030928,3.1878298969072167,-2.559432989690722,0.3837731958762889
6.0380541237113405,3.163837628865978,-2.479458762886593,0.3517835051546373
6.046051546391753,3.1398453608247423,-2.3994845360824733,0.3197938144329894
6.054048969072165,3.115853092783506,-2.3195103092783533,0.28780412371134134
6.0620463917525775,3.0918608247422674,-2.2395360824742245,0.25581443298968987
6.07004381443299,3.0678685567010313,-2.1595618556701046,0.22382474226804186
6.078041237113402,3.0438762886597956,-2.0795876288659847,0.19183505154639388
6.0860386597938145,3.019884020618557,-1.999613402061856,0.15984536082474235
6.094036082474227,2.9958917525773208,-1.919639175257736,0.1278556701030944
6.1020335051546395,2.971899484536082,-1.8396649484536072,0.09586597938144287
6.1100309278350515,2.947907216494846,-1.7596907216494873,0.06387628865979489
6.118028350515464,2.92391494845361,-1.6797164948453673,0.03188659793814691
6.1260257731958765,2.911597938144271,-1.5948453608247684,-0.009020618556655364
6.1340231958762885,7.399554826616656,-0.6074039362699208,-0.5611059044048814
6.1420206185567015,12.092268041238174,0.10412371134030965,0.40412371134030967
6.1500180412371135,14.498555428280529,0.2653430062364758,0.5826715031182379
6.1580154639175255,14.952730049637259,0.22584956090110786,0.5629247804505539
6.1660128865979384,15.40690467099404,0.18635611556573559,0.5431780577828678
6.1740103092783505,15.861079292350771,0.1468626702303677,0.5234313351151838
6.1820077319587625,16.3152539137075,0.10736922489499981,0.5036846124475
6.1900051546391754,16.769428535064282,0.06787577955962754,0.4839378897798138
6.1980025773195875,17.223603156421014,0.028382334224259675,0.4641911671121298
6.206,17.677777777777795,-0.011111111111112626,0.44444444444444375
6.213997422680412,18.131952399134526,-0.050604556446480486,0.4246977217767598
6.2219948453608245,18.586127020491254,-0.0900980017818484,0.40495099910907584
6.229992268041237,11.361827033218656,1.0992268041237272,0.8661512027491515
6.237989690721649,8.304788826072498,1.5904223478550066,0.8952111739275033
6.2459871134020615,8.34348603259062,1.5130279348187614,0.8565139674093807
6.253984536082474,8.382183239108747,1.4356335217825076,0.8178167608912538
6.261981958762886,8.420880445626869,1.3582391087462624,0.7791195543731312
6.269979381443299,8.459577652144995,1.2808446957100086,0.7404223478550043
6.277976804123711,8.498274858663118,1.2034502826737634,0.7017251413368817
6.285974226804123,8.53697206518124,1.1260558696375182,0.6630279348187591
6.293971649484536,8.575669271699368,1.0486614566012644,0.6243307283006323
6.301969072164948,8.702835051546325,0.7726804123711177,0.4605670103092648
6.30996649484536,11.189948453608112,1.2033505154639628,1.0449742268040558
6.317963917525773,11.512006754354783,1.0819898684678275,1.2120067543547817
6.325961340206185,11.525795414148595,1.0613068787771065,1.2257954141485956
6.333958762886598,11.539584073942411,1.0406238890863835,1.239584073942411
6.34195618556701,11.553372733736225,1.0199408993956627,1.253372733736225
6.349953608247422,11.56716139353004,0.9992579097049418,1.2671613935300388
6.357951030927835,11.580950053323853,0.9785749200142186,1.2809500533238543
6.365948453608247,11.594738713117668,0.9578919303234977,1.2947387131176682
6.373945876288659,11.608527372911482,0.9372089406327768,1.3085273729114821
6.381943298969072,11.622316032705298,0.9165259509420538,1.3223160327052974
6.389940721649484,11.63610469249911,0.8958429612513329,1.3361046924991113
6.397938144329897,11.649893352292926,0.8751599715606098,1.3498933522929268
6.405935567010309,11.66368201208674,0.854476981869889,1.3636820120867408
6.413932989690721,11.677470671880554,0.833793992179168,1.3774706718805545
6.421930412371134,11.69125933167437,0.8131110024884449,1.39125933167437
6.429927835051546,10.550515463917801,0.23814432989693346,1.6309278350515333
6.437925257731958,9.093696534327703,0.09369653432770426,1.7126069313445915
6.445922680412371,9.08518863785918,0.08518863785917982,1.7296227242816402
6.453920103092783,9.076680741390655,0.07668074139065634,1.7466385172186873
6.461917525773196,9.068172844922131,0.06817284492213188,1.7636543101557363
6.469914948453608,9.059664948453609,0.059664948453608396,1.7806701030927832
6.47791237113402,9.051157051985085,0.0511570519850849,1.79768589602983
6.485909793814433,9.04264915551656,0.042649155516560455,1.814701688966879
6.493907216494845,9.034141259048036,0.03414125904803696,1.831717481903926
6.501904639175257,9.025633362579514,0.025633362579513472,1.848733274840973
6.50990206185567,9.017125466110988,0.01712546611098903,1.865749067778022
6.517899484536082,9.008617569642466,0.00861756964246553,1.8827648607150689
6.525896907216495,9.000109673173942,0.00010967317394108833,1.8997806536521178
6.533894329896907,9.396477663230247,-0.33098510882016474,1.8
6.541891752577319,9.814469808541952,-0.4,1.9747054491899731
6.549889175257732,10.32858983799706,-0.4,2.2603276877761442
6.557886597938144,10.272469870771019,-0.6206475969217364,2.5
6.565884020618556,10.227413968346163,-0.654439523740379,2.5
6.573881443298969,10.182358065921301,-0.6882314505590252,2.5
6.581878865979381,10.137302163496443,-0.7220233773776679,2.5
6.589876288659794,10.092246261071582,-0.755815304196314,2.5
6.597873711340206,10.047190358646725,-0.7896072310149567,2.5
6.605871134020618,10.002134456221869,-0.8233991578335992,2.5
6.613868556701031,9.957078553797006,-0.8571910846522455,2.5
6.621865979381443,9.91202265137215,-0.8909830114708881,2.5
6.629863402061855,9.6,-1.0,2.3643900343642548
6.637860824742268,9.6,-0.8116994689159631,2.5038998229719875
6.64585824742268,9.6,-0.8359340830990301,2.511978027699677
6.653855670103093,9.6,-0.8601686972820997,2.5200562324273665
6.661853092783505,9.6,-0.8844033114651667,2.5281344371550554
6.669850515463917,9.6,-0.9086379256482336,2.5362126418827446
6.67784793814433,9.6,-0.9328725398313032,2.5442908466104344
6.685845360824742,9.6,-0.9571071540143702,2.5523690513381236
6.693842783505155,9.6,-0.9813417681974399,2.5604472560658134
6.701840206185567,9.6,-1.0055763823805068,2.568525460793502
6.709837628865979,9.6,-1.0298109965635738,2.5766036655211915
6.717835051546392,9.6,-1.0540456107466434,2.584681870248881
6.725832474226804,9.6,-1.0782802249297103,2.59276007497657
6.733829896907216,9.641494845360809,-1.1414948453608094,2.5585051546391906
6.741827319587629,9.92931701030928,-1.1,2.2293170103092788
6.749824742268041,9.892064253176697,-1.0841285063533936,2.1920642531766967
6.757822164948454,9.882764924478543,-1.0655298489570844,2.1827649244785423
6.765819587628866,9.87346559578039,-1.046931191560777,2.173465595780389
6.773817010309278,9.864166267082235,-1.02833253416447,2.1641662670822353
6.781814432989691,9.854866938384081,-1.0097338767681607,2.1548669383840804
6.789811855670103,9.845567609685927,-0.9911352193718534,2.145567609685927
6.797809278350515,9.836268280987774,-0.9725365619755463,2.1362682809877733
6.805806701030928,9.826968952289619,-0.953937904579237,2.1269689522896185
6.81380412371134,9.817669623591465,-0.9353392471829298,2.117669623591465
6.821801546391753,9.808370294893312,-0.9167405897866205,2.1083702948933105
6.829798969072165,9.76005154639175,-0.8600515463917505,2.0600515463917506
6.837796391752577,9.701694450537397,-0.8,1.9983055494626014
6.84579381443299,9.718710243474447,-0.8,1.9812897565255527
6.853791237113402,9.735726036411494,-0.8,1.964273963588506
6.861788659793814,9.75274182934854,-0.8,1.9472581706514591
6.869786082474227,9.769757622285589,-0.8,1.9302423777144104
6.877783505154639,9.786773415222637,-0.8,1.9132265847773637
6.885780927835052,9.803789208159685,-0.8,1.8962107918403148
6.893778350515464,9.820805001096732,-0.8,1.8791949989032681
6.901775773195876,9.837820794033778,-0.8,1.8621792059662212
6.909773195876289,9.854836586970828,-0.8,1.8451634130291725
6.917770618556701,9.871852379907875,-0.8,1.8281476200921256
6.925768041237113,9.888868172844921,-0.8,1.811131827155079
6.933765463917526,9.874484536082466,-0.8489690721649301,1.6
6.941762886597938,9.89661001207393,-0.5932200241478591,1.6
6.949760309278351,9.88940512677626,-0.5788102535525206,1.6
6.957757731958763,9.882200241478593,-0.5644004829571837,1.6
6.965755154639175,9.874995356180923,-0.5499907123618467,1.6
6.973752577319588,9.867790470883255,-0.5355809417665083,1.6
6.98175,9.860585585585586,-0.5211711711711713,1.6
6.989747422680412,9.853380700287918,-0.5067614005758344,1.6
6.997744845360825,9.846175814990248,-0.49235162998049586,1.6
7.005742268041237,9.83897092969258,-0.477941859385159,1.6
7.01373969072165,9.83176604439491,-0.46353208878982044,1.6
7.021737113402062,9.824561159097243,-0.44912231819448356,1.6
7.029734536082474,9.817356273799573,-0.4347125475991466,1.6
7.037731958762887,9.810151388501906,-0.42030277700380814,1.6
7.045729381443299,9.802946503204236,-0.4058930064084712,1.6
7.053726804123711,9.9,-0.3,1.6
7.061724226804124,9.859112665684831,-0.16729013254786435,1.7245324005891016
7.069721649484536,9.801988217967603,-0.12159057437408145,1.7588070692194389
7.077719072164949,9.744863770250367,-0.0758910162002935,1.7930817378497799
7.085716494845361,9.687739322533139,-0.030191458026510604,1.827356406480117
7.093713917525773,9.63061487481591,0.015508100147272275,1.8616310751104541
7.101711340206186,9.573490427098674,0.06120765832106023,1.8959057437407951
7.109708762886598,9.516365979381446,0.10690721649484308,1.9301804123711324
7.11770618556701,9.459241531664217,0.152606774668626,1.9644550810014696
7.125703608247423,9.402117083946983,0.19830633284241395,1.9987297496318104
7.133701030927835,9.844845360824815,0.04484536082481505,2.1701030927834566
7.141698453608248,9.791350052125566,0.0,2.2086499478744352
7.14969587628866,9.782364183945328,0.0,2.2176358160546736
7.157693298969072,9.773378315765088,0.0,2.226621684234912
7.165690721649485,9.764392447584848,0.0,2.2356075524151513
7.173688144329897,9.75540657940461,0.0,2.2445934205953897
7.18168556701031,9.74642071122437,0.0,2.253579288775629
7.189682989690722,9.737434843044133,0.0,2.262565156955867
7.197680412371134,9.728448974863895,0.0,2.2715510251361053
7.205677835051547,9.719463106683655,0.0,2.2805368933163446
7.213675257731959,9.710477238503417,0.0,2.289522761496583
7.221672680412371,9.701491370323177,0.0,2.298508629676821
7.229670103092784,9.871768437747818,0.04353687549563487,2.2153053132434524
7.237667525773196,9.810249801744648,-0.07950039651070512,2.0307494052339425
7.245664948453609,9.7850225877447,-0.11497741225530053,1.9925112938723497
7.253662371134021,9.767050851384223,-0.13294914861577695,1.9835254256921115
7.261659793814433,9.749079115023747,-0.15092088497625333,1.9745395575118734
7.269657216494846,9.73110737866327,-0.16889262133673172,1.965553689331634
7.277654639175258,9.713135642302792,-0.18686435769720813,1.956567821151396
7.28565206185567,9.695163905942316,-0.20483609405768455,1.9475819529711578
7.293649484536083,9.677192169581836,-0.22280783041816293,1.9385960847909185
7.301646907216495,9.65922043322136,-0.24077956677863935,1.9296102166106803
7.309644329896908,9.641248696860883,-0.25875130313911776,1.920624348430441
7.31764175257732,9.623276960500405,-0.27672303949959415,1.9116384802502029
7.325639175257732,9.60530522413993,-0.29469477586007053,1.9026526120699647
7.333636597938145,11.00012886597971,-0.8364690721652168,-1.5364690721652168
7.341634020618557,11.167856755290286,-0.9437493217580014,-1.675892566467715
7.349631443298969,11.134183396635919,-0.8848209441128605,-1.6506375474769401
7.357628865979382,11.10051003798155,-0.825892566467713,-1.6253825284861627
7.365626288659794,11.066836679327183,-0.7669641888225721,-1.600127509495388
7.3736237113402066,11.033163320672815,-0.7080358111774246,-1.5748724905046105
7.381621134020619,10.999489962018448,-0.6491074335322837,-1.5496174715138358
7.389618556701031,10.965816603364082,-0.5901790558871428,-1.5243624525230612
7.3976159793814436,10.932143244709712,-0.5312506782419953,-1.4991074335322836
7.405613402061856,10.898469886055345,-0.4723223005968544,-1.473852414541509
7.413610824742268,10.86479652740098,-0.4133939229517135,-1.4485973955507343
7.4216082474226805,10.83112316874661,-0.35446554530656604,-1.4233423765599569
7.429605670103093,10.19432989690735,0.7902061855667712,-0.552061855670289
7.4376030927835055,8.188917525773146,2.72061855670106,1.0698453608247351
7.4456005154639175,7.664513357720874,3.0567786276466022,1.0212919853674758
7.45359793814433,7.621516461589627,3.125573661456598,1.0470901230462244
7.4615953608247425,7.578519565458374,3.194368695266602,1.0728882607249757
7.4695927835051545,7.535522669327126,3.263163729076598,1.0986863984037243
7.477590206185567,7.492525773195879,3.3319587628865937,1.1244845360824727
7.4855876288659795,7.449528877064627,3.4007537966965975,1.1502826737612242
7.4935850515463915,7.406531980933379,3.4695488305065934,1.1760808114399726
7.5015824742268045,7.363535084802127,3.538343864316597,1.201878949118724
7.5095798969072165,7.32053818867088,3.607138898126593,1.2276770867974724
7.5175773195876285,7.277541292539632,3.675933931936589,1.253475224476221
7.5255747422680415,7.2345443964083795,3.7447289657465928,1.2792733621549723
7.5335721649484535,7.252405498281781,4.166838487972463,1.4048109965635607
7.5415695876288655,7.222790868924955,6.626583210603839,3.612665684830714
7.5495670103092785,6.377134549299499,6.4954269098599,2.6320116309807022
7.5575644329896905,6.325869019296857,6.485173803859372,2.7037833729844003
7.565561855670103,6.2746034892942095,6.474920697858842,2.775555114988107
7.5735592783505155,6.223337959291568,6.464667591858314,2.847326856991805
7.5815567010309275,6.172072429288926,6.454414485857785,2.9190985989955034
7.58955412371134,6.120806899286279,6.444161379857256,2.9908703409992095
7.5975515463917525,6.0695413692836375,6.433908273856727,3.062642083002908
7.6055489690721645,6.018275839280996,6.423655167856199,3.134413825006606
7.613546391752577,5.967010309278349,6.41340206185567,3.206185567010312
7.6215438144329894,5.915744779275707,6.4031489558551415,3.2779573090140106
7.629541237113402,6.361769759450208,7.323539518900417,3.3923539518900414
7.637538659793814,6.799105518496055,7.222619769557309,3.4
7.6455360824742264,7.222498483929624,7.0344451182535,3.4
7.653533505154639,7.196666440586001,6.8166677970699965,3.5033335594139996
7.661530927835051,7.186143516006511,6.869282419967444,3.513856483993489
7.669528350515463,7.1756205914270215,6.921897042864892,3.5243794085729783
7.677525773195876,7.165097666847531,6.9745116657623445,3.534902333152469
7.685523195876288,7.154574742268042,7.027126288659792,3.5454252577319583
7.693520618556701,7.144051817688551,7.079740911557245,3.555948182311449
7.701518041237113,7.1335288931090615,7.1323555344546925,3.5664711068909387
7.709515463917525,7.123005968529572,7.184970157352139,3.576994031470428
7.717512886597938,7.112483043950081,7.237584780249592,3.5875169560499187
7.72551030927835,7.101960119370592,7.29019940314704,3.598039880629408
7.733507731958763,7.19460702804567,7.4919105420685055,3.28921405609134
7.741505154639175,7.177408269593172,7.466112404389756,3.254816539186342
7.749502577319587,7.160209511140672,7.440314266711008,3.220419022281344
7.7575,7.143010752688172,7.414516129032257,3.1860215053763423
7.765497422680412,7.125811994235672,7.388717991353508,3.151623988471344
7.773494845360824,7.1086132357831735,7.36291985367476,3.117226471566346
7.781492268041237,7.091414477330672,7.337121715996008,3.0828289546613443
7.789489690721649,7.074215718878174,7.31132357831726,3.048431437756346
7.797487113402062,7.057016960425672,7.285525440638509,3.0140339208513445
7.805484536082474,7.039818201973174,7.25972730295976,2.9796364039463463
7.813481958762886,7.022619443520674,7.233929165281012,2.9452388870413486
7.821479381443299,7.005420685068174,7.20813102760226,2.9108413701363465
7.829476804123711,7.123840206185569,7.3,2.5523195876288622
7.837474226804123,7.6347422680412365,6.792279495990837,1.8884192439862544
7.845471649484536,7.714716494845365,6.774507445589919,1.8617611683848783
7.853469072164948,7.794690721649484,6.756735395189003,1.835103092783505
7.861466494845361,7.8746649484536135,6.738963344788086,1.808445017182129
7.869463917525773,7.954639175257733,6.72119129438717,1.7817869415807557
7.877461340206185,8.034613402061852,6.7034192439862545,1.7551288659793824
7.885458762886598,8.114587628865982,6.685647193585337,1.7284707903780063
7.89345618556701,8.1945618556701,6.667875143184422,1.701812714776633
7.901453608247422,8.27453608247422,6.650103092783506,1.6751546391752599
7.909451030927835,8.35451030927835,6.632331042382589,1.6484965635738837
7.917448453608247,8.434484536082469,6.614558991981673,1.6218384879725103
7.92544587628866,9.439819587628959,6.3108247422680135,1.5277061855670033
7.933443298969072,12.211564320932322,7.201927386822054,0.9038547736441075
7.941440721649484,12.4201927386822,7.236698789780367,0.9733975795607335
7.949438144329897,12.628821156432101,7.271470192738684,1.0429403854773671
7.957435567010309,12.83744957418198,7.306241595696997,1.1124831913939932
7.965432989690721,13.046077991931856,7.34101299865531,1.1820259973106193
7.973430412371134,13.254706409681758,7.375784401613626,1.251568803227253
7.981427835051546,13.463334827431636,7.410555804571939,1.321111609143879
7.989425257731959,13.671963245181537,7.445327207530256,1.3906544150605127
7.997422680412371,13.880591662931415,7.480098610488569,1.4601972209771388
8.005420103092783,14.089220080681294,7.514870013446882,1.5297400268937646
8.013417525773196,14.297848498431195,7.549641416405199,1.5992828328103985
8.021414948453609,14.506476916181096,7.584412819363516,1.6688256387270322
8.02941237113402,14.6,7.489690721649493,1.4242268041237307
8.037409793814433,12.191151202749152,7.41606529209622,0.032130584192438236
8.045407216494846,11.49804123711339,7.46938144329897,0.13876288659793987
8.053404639175257,11.021785316244108,7.4907982724993065,0.20460086375034658
8.06140206185567,10.83806074115354,7.469183616606299,0.21540819169685058
8.069399484536083,10.654336166062972,7.447568960713291,0.22621551964335454
8.077396907216494,10.470611590972446,7.425954304820288,0.23702284758985612
8.085394329896907,10.286887015881879,7.40433964892728,0.24783017553636008
8.09339175257732,10.103162440791312,7.382724993034272,0.2586375034828641
8.101389175257731,9.919437865700784,7.361110337141269,0.2694448314293656
8.109386597938144,9.735713290610217,7.339495681248261,0.2802521593758696
8.117384020618557,9.551988715519649,7.317881025355253,0.2910594873223736
8.125381443298968,6.841065292096604,7.8381443298968145,0.8381443298968151
8.133378865979381,3.4532989690722125,7.733917525773227,1.9709278350515205
8.141376288659794,2.2572340674789055,6.981671743205245,2.61221883786317
8.149373711340207,2.193618205248349,6.954407802249293,2.630394798500472
8.157371134020618,2.1300023430178063,6.927143861293346,2.6485707591377694
8.165368556701031,2.0663864807872496,6.899879920337392,2.6667467197750714
8.173365979381444,2.002770618556693,6.87261597938144,2.6849226804123734
8.181363402061855,1.9391547563261504,6.845352038425493,2.7030986410496713
8.189360824742268,1.875538894095594,6.81808809746954,2.721274601686973
8.197358247422681,1.8119230318650372,6.790824156513588,2.739450562324275
8.205355670103092,1.7483071696344947,6.763560215557641,2.757626522961573
8.213353092783505,1.6846913074039382,6.736296274601688,2.775802483598875
8.221350515463918,1.6210754451733815,6.709032333645735,2.793978444236177
8.229347938144329,0.24347079037808828,6.621735395189044,4.147852233676691
8.237345360824742,0.236726804123708,6.629381443298966,4.285309278350517
8.245342783505155,0.2767139175257728,6.661371134020618,4.269314432989691
8.253340206185568,0.3167010309278375,6.693360824742269,4.253319587628865
8.261337628865979,0.3566881443298934,6.725350515463915,4.237324742268043
8.269335051546392,0.39667525773195816,6.7573402061855665,4.221329896907217
8.277332474226805,0.43666237113402295,6.789329896907218,4.205335051546391
8.285329896907216,0.4766494845360788,6.821319587628863,4.189340206185568
8.293327319587629,0.5166365979381435,6.8533092783505145,4.173345360824742
8.301324742268042,0.5566237113402084,6.885298969072166,4.157350515463916
8.309322164948453,0.5966108247422641,6.917288659793812,4.141355670103094
8.317319587628866,0.636597938144329,6.949278350515463,4.125360824742268
8.325317010309279,0.6765850515463937,6.981268041237115,4.109365979381442
8.33331443298969,0.634278350515501,8.962886597937995,3.491494845360491
8.341311855670103,2.169317909374264,7.634533085590974,1.2884470151042895
8.349309278350516,2.3367058259410456,7.476444497722346,1.2605490290098258
8.357306701030927,2.5040937425077896,7.3183559098537545,1.2326510429153683
8.36530412371134,2.6714816590745714,7.160267321985128,1.2047530568209048
8.373301546391753,2.838869575641353,7.0021787341165,1.1768550707264411
8.381298969072166,3.0062574922081344,6.844090146247873,1.1489570846319777
8.389296391752577,3.173645408774879,6.686001558379282,1.1210590985375202
8.39729381443299,3.3410333253416606,6.527912970510654,1.0931611124430567
8.405291237113403,3.508421241908442,6.369824382642028,1.065263126348593
8.413288659793814,3.6758091584751864,6.2117357947734355,1.0373651402541357
8.421286082474227,3.843197075041968,6.053647206904808,1.009467154159672
8.42928350515464,4.728350515463913,7.1283505154639135,0.042680412371130905
8.437280927835051,2.8670103092796597,8.688402061855138,0.6520618556700213
8.445278350515464,1.7560779426759114,9.423903931120389,0.9239492466296391
8.453275773195877,1.378177750084968,9.889687889430157,1.1700237906423463
8.461273195876288,1.0002775574941085,10.35547184773982,1.416098334654999
8.4692706185567,0.6223773649031652,10.821255806049587,1.6621728786677061
8.477268041237114,0.24447717231222188,11.287039764359355,1.9082474226804134
8.485265463917525,-0.1334230202786375,11.752823722669017,2.154321966693066
8.493262886597938,-0.511323212869581,12.218607680978785,2.4003965107057734
8.50126030927835,-0.8892234054605241,12.684391639288553,2.6464710547184804
8.509257731958764,-1.2671235980514677,13.15017559759832,2.8925455987311874
8.517255154639175,-1.6450237906423273,13.615959555907985,3.1386201427438403
8.525252577319588,-2.022923983233271,14.081743514217752,3.3846946867565473
8.53325,7.3416666666649695,8.883333333333255,-1.224999999999171
8.541247422680412,3.5181851955047794,8.70472740782019,0.6479985139778971
8.549244845360825,3.6983073279465106,8.71193229311786,0.5687447757035352
8.557242268041238,3.8784294603882423,8.71913717841553,0.4894910374291734
8.565239690721649,4.058551592829934,8.726342063713197,0.4102372991548291
8.573237113402062,4.238673725271665,8.733546949010867,0.33098356088046726
8.581234536082475,4.418795857713397,8.740751834308536,0.2517298226061054
8.589231958762886,4.598917990155088,8.747956719606204,0.1724760843317611
8.597229381443299,4.77904012259682,8.755161604903872,0.09322234605739932
8.605226804123712,4.959162255038551,8.762366490201542,0.013968607783037434
8.613224226804123,5.1392843874802425,8.76957137549921,-0.0652851304913068
8.621221649484536,5.319406519921975,8.77677626079688,-0.14453886876566868
8.629219072164949,5.499528652363706,8.783981146094549,-0.22379260704003057
8.637216494845362,5.679650784805437,8.791186031392218,-0.30304634531439234
8.645213917525773,5.8597729172471285,8.798390916689886,-0.3823000835887367
8.653211340206186,3.8422680412371535,8.857731958762846,-0.053092783505268804
8.661208762886599,4.1181764407639125,8.818176440763912,-0.5709058644583476
8.66920618556701,4.249281730606718,8.949281730606717,-0.6495690383640311
8.677203608247423,4.380387020449554,9.080387020449553,-0.7282322122697321
8.685201030927836,4.511492310292389,9.211492310292387,-0.8068953861754331
8.693198453608247,4.642597600135194,9.342597600135193,-0.8855585600811166
8.70119587628866,4.773702889978029,9.473702889978028,-0.9642217339868175
8.709193298969073,4.904808179820864,9.604808179820864,-1.0428849078925184
8.717190721649484,5.828608247422495,8.6,-1.4
8.725188144329897,6.007177835051541,8.623205541237114,-1.3690592783505138
8.73318556701031,5.887216494845347,8.653195876288663,-1.3290721649484492
8.741182989690722,5.767255154639154,8.683186211340212,-1.2890850515463848
8.749180412371134,5.647293814432987,8.713176546391754,-1.249097938144329
8.757177835051547,5.527332474226793,8.743166881443301,-1.2091108247422644
8.76517525773196,5.407371134020599,8.77315721649485,-1.1691237113401998
8.77317268041237,5.287409793814432,8.803147551546392,-1.129136597938144
8.781170103092784,5.167448453608239,8.83313788659794,-1.0891494845360796
8.789167525773196,5.047487113402045,8.86312822164949,-1.049162371134015
8.797164948453608,4.927525773195878,8.893118556701031,-1.0091752577319593
8.80516237113402,4.606494845360799,8.541881443299003,-0.4935051546392015
8.813159793814433,4.016757020974054,7.794414326341982,0.5944143263419822
8.821157216494845,4.0788059900462095,7.773731336651264,0.5737313366512636
8.829154639175258,4.1408549591183785,7.75304834696054,0.5530483469605405
8.83715206185567,4.202903928190548,7.732365357269817,0.5323653572698174
8.845149484536082,4.264952897262703,7.711682367579098,0.5116823675790988
8.853146907216495,4.327001866334873,7.690999377888375,0.49099937788837567
8.861144329896907,4.389050835407042,7.670316388197652,0.47031638819765254
8.86914175257732,4.451099804479212,7.649633398506929,0.4496333985069294
8.877139175257732,4.513148773551368,7.628950408816211,0.4289504088162108
8.885136597938144,4.575197742623537,7.608267419125488,0.4082674191254877
8.893134020618557,4.637246711695706,7.587584429434765,0.38758442943476457
8.901131443298969,4.699295680767862,7.566901439744046,0.366901439744046
8.909128865979381,4.761344649840032,7.546218450053323,0.34621845005332286
8.917126288659794,4.823393618912201,7.525535460362599,0.3255354603625997
8.925123711340206,4.885442587984357,7.5048524706718815,0.30485247067188115
8.933121134020618,5.223608247422576,7.837577319587635,-0.474536082474192
8.941118556701031,6.032463598682114,7.900924646614943,-0.5044584971835477
8.949115979381443,6.20560367733019,8.032840897013479,-0.24887076203638608
8.957113402061855,6.378743755978306,8.164757147412043,0.006716973110832303
8.965110824742268,6.551883834626421,8.296673397810606,0.26230470825805063
8.97310824742268,6.725023913274499,8.428589648209142,0.5178924434052123
8.981105670103092,6.8981639919226145,8.560505898607706,0.7734801785524306
8.989103092783505,7.07130407057073,8.692422149006271,1.029067913699649
8.997100515463918,7.244444149218846,8.824338399404835,1.2846556488468674
9.00509793814433,7.417584227866923,8.95625464980337,1.540243383994029
9.013095360824742,7.590724306515039,9.088170900201934,1.7958311191412475
9.021092783505155,7.763864385163155,9.220087150600499,2.0514188542884657
9.029090206185566,7.937004463811231,9.352003400999035,2.307006589435627
9.03708762886598,3.720446735395012,7.905841924398575,-0.4029209621992874
9.045085051546392,4.430268163966626,8.154482695139926,-0.48183910162002475
9.053082474226803,4.477871870397644,8.240169366715758,-0.45327687776141395
9.061079896907216,4.525475576828672,8.32585603829161,-0.42471465390279683
9.06907731958763,4.573079283259701,8.41154270986746,-0.39615243004417977
9.07707474226804,4.620682989690719,8.497229381443294,-0.367590206185569
9.085072164948453,4.668286696121747,8.582916053019144,-0.33902798232695186
9.093069587628866,4.715890402552776,8.668602724594995,-0.3104657584683348
9.101067010309277,4.763494108983794,8.754289396170828,-0.281903534609724
9.10906443298969,4.811097815414822,8.83997606774668,-0.2533413107511069
9.117061855670103,4.858701521845851,8.925662739322531,-0.22477908689248977
9.125059278350516,5.111855670103251,9.317783505154877,-0.46481958762906395
9.133056701030927,3.7110575324243396,8.502211506484867,-0.9977884935151321
9.14105412371134,3.754054428555592,8.510810885711118,-0.9891891142888817
9.149051546391753,3.7970513246868443,8.519410264937369,-0.9805897350626311
9.157048969072164,3.840048220818087,8.528009644163618,-0.9719903558363826
9.165046391752577,3.883045116949339,8.536609023389868,-0.9633909766101322
9.17304381443299,3.9260420130805915,8.545208402616119,-0.9547915973838818
9.181041237113401,3.969038909211834,8.553807781842366,-0.9461922181576332
9.189038659793814,4.0120358053430865,8.562407161068617,-0.9375928389313827
9.197036082474227,4.055032701474339,8.571006540294867,-0.9289934597051323
9.205033505154638,4.098029597605581,8.579605919521116,-0.9203940804788837
9.213030927835051,4.141026493736834,8.588205298747367,-0.9117947012526333
9.221028350515464,4.184023389868086,8.596804677973617,-0.9031953220263828
9.229025773195877,4.057216494845193,9.202577319587675,-1.2350515463917833
9.237023195876288,3.7682810710194663,9.241473367697601,-1.3292633161511997
9.245020618556701,3.8460337915234817,9.17482817869416,-1.3625859106529208
9.253018041237114,3.923786512027497,9.108182989690718,-1.3959085051546416
9.261015463917525,4.001539232531496,9.04153780068729,-1.429231099656355
9.269012886597938,4.0792919530355105,8.974892611683849,-1.4625536941580761
9.277010309278351,4.157044673539526,8.908247422680406,-1.495876288659797
9.285007731958762,4.234797394043524,8.841602233676978,-1.5291988831615104
9.293005154639175,4.31255011454754,8.774957044673537,-1.5625214776632312
9.301002577319588,4.390302835051555,8.708311855670095,-1.5958440721649523
9.309,4.0,8.3,-1.8
