gyro_time_list,gyro_x_list,gyro_y_list,gyro_z_list
0.0,0.1,0.0,0.0
0.008,-0.6,-0.09999999999999998,0.1
0.016,-0.6266666666666667,-0.1088888888888889,0.08222222222222222
0.024,-0.6533333333333333,-0.11777777777777779,0.06444444444444444
0.032,-0.6799999999999999,-0.12666666666666668,0.04666666666666667
0.04,-0.7066666666666667,-0.13555555555555557,0.028888888888888895
0.048,-0.7333333333333334,-0.14444444444444446,0.011111111111111113
0.056,-0.76,-0.15333333333333335,-0.006666666666666668
0.064,-0.7866666666666666,-0.16222222222222224,-0.02444444444444445
0.07200000000000001,-0.8133333333333334,-0.1711111111111111,-0.04222222222222222
0.08,-0.8400000000000001,-0.18000000000000002,-0.060000000000000026
0.088,-0.8666666666666667,-0.18888888888888888,-0.07777777777777775
0.096,-0.8933333333333333,-0.19777777777777777,-0.09555555555555556
0.10400000000000001,0.04999999999999791,-1.3877787807814457e-15,0.0
0.112,-0.19193548387096776,-0.1,0.0
0.12,-0.17903225806451614,-0.1,0.0
0.128,-0.16612903225806452,-0.1,0.0
0.136,-0.1532258064516129,-0.1,0.0
0.14400000000000002,-0.1403225806451613,-0.1,0.0
0.152,-0.1274193548387097,-0.1,0.0
0.16,-0.11451612903225808,-0.1,0.0
0.168,-0.10161290322580646,-0.1,0.0
0.176,0.0,0.0,0.1
0.184,0.0,0.0,0.1
0.192,0.0,0.0,0.1
0.2,0.0,0.0,0.1
0.20800000000000002,0.0,0.0,0.1
0.216,0.0,0.0,0.1
0.224,0.0,0.0,0.1
0.232,0.0,0.0,0.1
0.24,0.0,0.0,0.1
0.248,0.0,0.0,0.1
0.256,0.0,0.0,0.1
0.264,0.0,0.0,0.1
0.272,0.0,0.0,0.1
0.28,0.0,0.0,0.1
0.28800000000000003,0.0,0.0,0.1
0.296,0.0,0.0,0.1
0.304,0.1,0.0,0.13076923076923078
0.312,0.1,0.0,0.19230769230769232
0.32,0.09222222222222222,0.0,0.19222222222222224
0.328,0.08333333333333333,0.0,0.18333333333333332
0.336,0.07444444444444442,0.0,0.17444444444444443
0.34400000000000003,0.06555555555555553,0.0,0.16555555555555554
0.352,0.056666666666666705,0.0,0.1566666666666667
0.36,0.04777777777777781,0.0,0.1477777777777778
0.368,0.03888888888888891,0.0,0.13888888888888892
0.376,0.030000000000000013,0.0,0.13
0.384,0.021111111111111122,0.0,0.12111111111111113
0.392,0.012222222222222232,0.0,0.11222222222222224
0.4,0.003333333333333327,0.0,0.10333333333333333
0.40800000000000003,0.09999999999999723,0.1,0.1
0.41600000000000004,-0.1,0.1,0.1
0.424,-0.1,0.1,0.1
0.432,-0.1,0.1,0.1
0.44,-0.1,0.1,0.1
0.448,-0.1,0.1,0.1
0.456,-0.1,0.1,0.1
0.464,-0.1,0.1,0.1
0.47200000000000003,-0.1,0.1,0.1
0.48,-0.1,0.1,0.1
0.488,-0.1,0.1,0.1
0.496,-0.1,0.1,0.1
0.504,0.0,0.2,0.1
0.512,-0.4172413793103449,0.3057471264367816,0.10574712643678162
0.52,-0.4448275862068966,0.3149425287356322,0.11494252873563221
0.528,-0.4724137931034484,0.3241379310344828,0.1241379310344828
0.536,-0.5000000000000001,0.33333333333333337,0.1333333333333334
0.544,-0.5275862068965519,0.34252873563218394,0.142528735632184
0.552,-0.5551724137931037,0.3517241379310346,0.15172413793103456
0.56,-0.5827586206896553,0.36091954022988515,0.16091954022988514
0.5680000000000001,-0.6103448275862071,0.3701149425287357,0.17011494252873574
0.5760000000000001,-0.6379310344827589,0.3793103448275863,0.17931034482758634
0.584,-0.6655172413793102,0.3885057471264368,0.18850574712643678
0.592,-0.693103448275862,0.3977011494252874,0.19770114942528738
0.6,-2.625,0.9375,0.21250000000000002
0.608,-2.800990099009901,1.202970297029703,0.300990099009901
0.616,-2.8089108910891087,1.2267326732673267,0.3089108910891089
0.624,-2.8168316831683167,1.2504950495049505,0.31683168316831684
0.632,-2.8247524752475246,1.2742574257425743,0.32475247524752476
0.64,-2.8326732673267325,1.298019801980198,0.3326732673267327
0.648,-2.8405940594059405,1.3217821782178218,0.3405940594059406
0.656,-2.8485148514851484,1.3455445544554456,0.3485148514851486
0.664,-2.8564356435643563,1.3693069306930694,0.35643564356435653
0.672,-2.8643564356435642,1.3930693069306932,0.36435643564356446
0.68,-2.872277227722772,1.416831683168317,0.3722772277227724
0.6880000000000001,-2.88019801980198,1.4405940594059408,0.3801980198019803
0.6960000000000001,-2.888118811881188,1.4643564356435645,0.38811881188118824
0.704,-2.896039603960396,1.488118811881188,0.39603960396039606
0.712,-3.0307692307692307,1.823076923076923,0.4846153846153846
0.72,-3.1538461538461537,1.9153846153846155,0.4230769230769231
0.728,-3.276923076923077,2.0076923076923077,0.36153846153846153
0.736,-3.4,2.1,0.3
0.744,-3.2925925925925923,2.4,1.0
0.752,-3.2777777777777777,2.4,1.0
0.76,-3.262962962962963,2.4,1.0
0.768,-3.248148148148148,2.4,1.0
0.776,-3.2333333333333334,2.4,1.0
0.784,-3.218518518518519,2.4,1.0
0.792,-3.2037037037037037,2.4,1.0
0.8,-3.8,2.5,1.3
0.808,-4.5,2.2,1.3
0.8160000000000001,-4.507692307692308,2.184615384615385,1.3076923076923077
0.8240000000000001,-4.515384615384615,2.1692307692307695,1.3153846153846154
0.8320000000000001,-4.523076923076923,2.1538461538461537,1.323076923076923
0.84,-4.530769230769231,2.138461538461539,1.3307692307692307
0.848,-4.538461538461538,2.1230769230769235,1.3384615384615384
0.856,-4.546153846153846,2.1076923076923078,1.346153846153846
0.864,-4.553846153846154,2.0923076923076924,1.3538461538461537
0.872,-4.561538461538461,2.076923076923077,1.3615384615384614
0.88,-4.569230769230769,2.0615384615384618,1.3692307692307693
0.888,-4.576923076923077,2.0461538461538464,1.376923076923077
0.896,-4.584615384615384,2.0307692307692307,1.3846153846153846
0.904,-4.592307692307692,2.0153846153846153,1.3923076923076922
0.912,-4.6,2.0,1.4
0.92,-3.9943661971830986,0.6971830985915493,1.8028169014084507
0.928,-3.9492957746478874,0.6746478873239435,1.8253521126760563
0.936,-3.9042253521126757,0.6521126760563379,1.8478873239436622
0.9440000000000001,-3.8591549295774645,0.6295774647887322,1.8704225352112678
0.9520000000000001,-3.8140845070422533,0.6070422535211266,1.8929577464788734
0.96,-3.7690140845070426,0.5845070422535212,1.9154929577464788
0.968,-3.7239436619718314,0.5619718309859156,1.9380281690140844
0.976,-3.67887323943662,0.5394366197183099,1.9605633802816902
0.984,-3.6338028169014085,0.5169014084507042,1.9830985915492958
0.992,-3.4,0.3,2.1
1.0,-4.40246913580247,-0.20246913580246914,2.2024691358024695
1.008,-4.412345679012346,-0.21234567901234572,2.212345679012346
1.016,-4.4222222222222225,-0.22222222222222227,2.2222222222222223
1.024,-4.432098765432099,-0.2320987654320988,2.2320987654320987
1.032,-4.441975308641975,-0.24197530864197536,2.2419753086419756
1.04,-4.451851851851852,-0.25185185185185194,2.251851851851852
1.048,-4.461728395061729,-0.26172839506172846,2.2617283950617284
1.056,-4.471604938271605,-0.27160493827160503,2.271604938271605
1.064,-4.481481481481482,-0.2814814814814816,2.2814814814814817
1.072,-4.491358024691358,-0.29135802469135813,2.291358024691358
1.08,-4.5,-0.30714285714285794,2.3
1.088,-4.5,-0.3642857142857151,2.3
1.096,-4.5,-0.4,2.1999999999999886
1.104,-4.482608695652174,-0.3,1.8739130434782607
1.112,-4.459420289855072,-0.3,1.8391304347826085
1.12,-4.436231884057971,-0.3,1.8043478260869563
1.1280000000000001,-4.413043478260869,-0.3,1.7695652173913041
1.1360000000000001,-4.389855072463768,-0.3,1.734782608695652
1.1440000000000001,-4.366666666666666,-0.3,1.6999999999999997
1.1520000000000001,-4.343478260869565,-0.3,1.6652173913043475
1.16,-4.320289855072464,-0.3,1.6304347826086962
1.168,-4.185714285714297,-0.3,1.5428571428571483
1.176,-1.8830000000000018,0.004999999999999456,0.5930000000000007
1.184,-1.7470000000000014,0.04499999999999955,0.5370000000000006
1.192,-1.611000000000001,0.08499999999999965,0.4810000000000005
1.2,-1.475000000000001,0.12499999999999974,0.4250000000000004
1.208,-1.3390000000000006,0.1649999999999998,0.3690000000000002
1.216,-1.2030000000000003,0.2049999999999999,0.3130000000000001
1.224,-1.0670000000000002,0.24500000000000002,0.257
1.232,-0.9309999999999997,0.2850000000000001,0.2009999999999999
1.24,-0.7949999999999995,0.3250000000000002,0.1449999999999998
1.248,-0.6589999999999991,0.36500000000000027,0.08899999999999963
1.256,-0.5229999999999988,0.40500000000000036,0.032999999999999585
1.264,-0.38699999999999846,0.44500000000000045,-0.023000000000000576
1.272,-0.25099999999999834,0.48500000000000054,-0.07900000000000074
1.28,2.360000000000023,0.6199999999999929,-1.0200000000000018
1.288,4.9,0.09746835443037975,-0.7848101265822786
1.296,4.9,0.08734177215189873,-0.7240506329113924
1.304,4.9,0.07721518987341769,-0.6632911392405062
1.312,4.9,0.06708860759493666,-0.60253164556962
1.32,4.9,0.05696202531645564,-0.5417721518987338
1.328,4.9,0.04683544303797461,-0.48101265822784767
1.336,4.9,0.03670886075949359,-0.4202531645569615
1.344,4.9,0.02658227848101255,-0.3594936708860753
1.352,4.9,0.016455696202531525,-0.29873417721518913
1.36,4.9,0.0063291139240505,-0.23797468354430296
1.368,2.5,-0.7,-0.5
1.3760000000000001,1.6999999999999986,-0.4000000000000002,-0.3
1.3840000000000001,1.6503448275862054,-0.4055172413793105,-0.3
1.3920000000000001,1.6006896551724124,-0.41103448275862087,-0.3
1.4000000000000001,1.551034482758619,-0.41655172413793123,-0.3
1.408,1.5013793103448274,-0.42206896551724143,-0.3
1.416,1.4517241379310344,-0.42758620689655175,-0.3
1.424,1.4020689655172411,-0.4331034482758621,-0.3
1.432,1.3524137931034481,-0.4386206896551724,-0.3
1.44,1.3027586206896549,-0.4441379310344828,-0.3
1.448,1.2531034482758616,-0.44965517241379316,-0.3
1.456,1.2034482758620686,-0.45517241379310347,-0.3
1.464,1.1537931034482756,-0.46068965517241384,-0.3
1.472,1.1041379310344823,-0.4662068965517242,-0.3
1.48,1.054482758620689,-0.4717241379310345,-0.3
1.488,1.004827586206896,-0.4772413793103449,-0.3
1.496,0.9551724137931029,-0.48275862068965525,-0.3
1.504,0.9055172413793098,-0.48827586206896556,-0.3
1.512,0.8558620689655166,-0.4937931034482759,-0.3
1.52,0.8062068965517235,-0.4993103448275863,-0.3
1.528,0.6185185185185165,-0.5,-0.32592592592592623
1.536,0.4111111111111098,-0.5,-0.35555555555555574
1.544,0.20370370370370328,-0.5,-0.3851851851851853
1.552,-0.06666666666666665,-0.5,-0.43333333333333335
1.56,-0.4,-0.5,-0.5
1.568,-1.1888888888888889,-0.5972222222222222,-0.5
1.576,-1.1444444444444442,-0.586111111111111,-0.5
1.584,-1.0999999999999996,-0.575,-0.5
1.592,-1.0555555555555551,-0.5638888888888888,-0.5
1.6,-1.0111111111111106,-0.5527777777777776,-0.5
1.608,-0.9666666666666659,-0.5416666666666665,-0.5
1.616,-0.9222222222222214,-0.5305555555555553,-0.5
1.624,-0.8777777777777768,-0.5194444444444442,-0.5
1.6320000000000001,-0.8333333333333321,-0.5083333333333331,-0.5
1.6400000000000001,-0.2571428571428517,-0.3,-0.4
1.6480000000000001,0.0148148148148164,-0.2925925925925918,-0.4
1.6560000000000001,0.07407407407407542,-0.2629629629629623,-0.4
1.6640000000000001,0.13333333333333444,-0.23333333333333278,-0.4
1.672,0.19259259259259182,-0.2037037037037041,-0.4
1.68,0.5076923076923077,0.007692307692307693,-0.5
1.688,0.5230769230769231,0.023076923076923078,-0.5
1.696,0.5384615384615384,0.038461538461538464,-0.5
1.704,0.5538461538461539,0.05384615384615385,-0.5
1.712,0.5692307692307692,0.06923076923076923,-0.5
1.72,0.5846153846153845,0.08461538461538462,-0.5
1.728,0.6,0.1,-0.5
1.736,0.5,0.18333333333333152,-0.5
1.744,0.6039473684210525,0.3,-0.39605263157894754
1.752,0.6144736842105262,0.3,-0.38552631578947383
1.76,0.6249999999999999,0.3,-0.3750000000000001
1.768,0.6355263157894736,0.3,-0.3644736842105264
1.776,0.6460526315789473,0.3,-0.3539473684210527
1.784,0.656578947368421,0.3,-0.3434210526315789
1.792,0.6671052631578948,0.3,-0.3328947368421052
1.8,0.6776315789473685,0.3,-0.32236842105263147
1.808,0.6881578947368422,0.3,-0.31184210526315775
1.816,0.6986842105263159,0.3,-0.30131578947368404
1.824,0.7666666666666692,0.4666666666666691,-0.2
1.832,0.9162162162162163,0.6,-0.2
1.84,0.937837837837838,0.6,-0.2
1.848,0.9594594594594597,0.6,-0.2
1.856,0.9810810810810814,0.6,-0.2
1.864,1.0027027027027031,0.6,-0.2
1.872,1.0243243243243247,0.6,-0.2
1.8800000000000001,1.0459459459459464,0.6,-0.2
1.8880000000000001,1.0675675675675682,0.6,-0.2
1.8960000000000001,1.0891891891891898,0.6,-0.2
1.9040000000000001,1.2,0.6499999999999944,-0.04999999999999445
1.9120000000000001,0.7684210526315778,0.48421052631578887,0.0
1.92,0.6842105263157905,0.4421052631578952,0.0
1.928,0.6000000000000008,0.40000000000000036,0.0
1.936,0.5157894736842111,0.3578947368421056,0.0
1.944,0.43157894736842145,0.31578947368421073,0.0
1.952,0.3473684210526318,0.2736842105263159,0.0
1.96,0.26315789473684215,0.2315789473684211,0.0
1.968,-0.3,-0.10000000000000003,0.0
1.976,-0.30000000000001115,0.0,0.14999999999999447
1.984,-0.1658536585365859,0.008536585365853524,0.2
1.992,-0.12682926829268348,0.018292682926829135,0.2
2.0,-0.08780487804878102,0.028048780487804747,0.2
2.008,-0.04878048780487859,0.037804878048780355,0.2
2.016,-0.009756097560976146,0.047560975609755966,0.2
2.024,0.0292682926829263,0.05731707317073158,0.2
2.032,0.06829268292682877,0.0670731707317072,0.2
2.04,0.10731707317073119,0.0768292682926828,0.2
2.048,0.14634146341463367,0.08658536585365842,0.2
2.056,0.18536585365853608,0.09634146341463402,0.2
2.064,0.5,0.1,0.3
2.072,0.4846153846153846,0.1,0.3
2.08,0.46923076923076923,0.1,0.3
2.088,0.45384615384615384,0.1,0.3
2.096,0.43846153846153846,0.1,0.3
2.104,0.4230769230769231,0.1,0.3
2.112,0.4076923076923077,0.1,0.3
2.12,0.3923076923076923,0.1,0.3
2.128,0.3769230769230769,0.1,0.3
2.136,0.36153846153846153,0.1,0.3
2.144,0.34615384615384615,0.1,0.3
2.152,0.33076923076923076,0.1,0.3
2.16,0.3153846153846154,0.1,0.3
2.168,0.3,0.1,0.3
2.176,0.1,0.1,0.29918699186991843
2.184,0.1,0.1,0.292682926829268
2.192,0.1,0.1,0.2861788617886176
2.2,0.1,0.1,0.27967479674796725
2.208,0.1,0.1,0.2731707317073168
2.216,0.1,0.1,0.26666666666666644
2.224,0.1,0.1,0.260162601626016
2.232,0.1,0.1,0.25365853658536563
2.24,0.1,0.1,0.24715447154471523
2.248,0.1,0.1,0.24065040650406483
2.2560000000000002,0.1,0.1,0.23414634146341443
2.2640000000000002,0.1,0.1,0.22764227642276402
2.2720000000000002,0.1,0.1,0.22113821138211365
2.2800000000000002,0.1,0.1,0.21463414634146322
2.2880000000000003,0.1,0.1,0.20813008130081284
2.2960000000000003,0.1,0.1,0.20162601626016244
2.3040000000000003,0.1,0.1,0.1
2.312,0.1,0.1,0.1
2.32,0.1,0.1,0.1
2.328,0.1,0.1,0.1
2.336,0.1,0.1,0.1
2.344,0.1,0.1,0.1
2.352,0.1,0.1,0.1
2.36,0.1,0.1,0.1
2.368,0.1,0.1,0.1
2.376,0.1,0.0,-0.1
2.384,0.1,0.0,-0.1
2.392,0.1,0.0,-0.1
2.4,0.1,0.0,-0.1
2.408,0.1,0.0,-0.1
2.416,0.1,0.0,-0.1
2.424,0.1,0.0,-0.1
2.432,0.1,0.0,-0.1
2.44,0.1,0.0,-0.1
2.448,0.1,0.0,-0.1
2.456,0.1,0.0,-0.1
2.464,0.1,0.0,-0.1
2.472,-0.1,-0.1,-0.1
2.48,-0.1,-0.1,-0.1
2.488,-0.1,-0.1,-0.1
2.496,-0.1,-0.1,-0.1
2.504,-0.1,-0.1,-0.1
2.512,-0.1,-0.1,-0.1
2.52,-0.1,-0.1,-0.1
2.528,-0.1,-0.1,-0.1
2.536,-0.1,-0.1,-0.1
2.544,-0.1,-0.1,-0.1
2.552,-0.1,-0.1,-0.1
2.56,-0.1,-0.1,-0.1
2.568,-0.1,-0.1,-0.1
2.576,-0.1,-0.1,-0.1
2.584,-0.1,-0.1,-0.1
2.592,-0.1,-0.1,-0.1
2.6,-0.1,-0.1,-0.1
2.608,-0.1,-0.1,-0.1
2.616,-0.1,-0.1,-0.1
2.624,-0.1,-0.1,-0.1
2.632,-0.1,-0.1,-0.1
2.64,-0.1,-0.1,-0.1
2.648,-0.1,-0.1,-0.1
2.656,-0.1,-0.1,-0.1
2.664,-0.1,-0.1,-0.1
2.672,-0.1,-0.1,-0.1
2.68,-0.1,-0.1,-0.1
2.688,-0.1,-0.1,-0.1
2.696,-0.1,-0.1,-0.1
2.704,-0.1,-0.1,0.0
2.712,-0.1,-0.09090909090909087,0.0
2.72,-0.1,-0.08181818181818173,0.0
2.728,-0.1,-0.0727272727272726,0.0
2.736,-0.1,-0.06363636363636346,0.0
2.744,-0.1,-0.05454545454545432,0.0
2.7520000000000002,-0.1,-0.045454545454545185,0.0
2.7600000000000002,-0.1,-0.03636363636363604,0.0
2.7680000000000002,-0.1,-0.027272727272726907,0.0
2.7760000000000002,-0.1,-0.01818181818181777,0.0
2.7840000000000003,-0.1,-0.009090909090908636,0.0
2.7920000000000003,-0.1,0.0,0.0
2.8000000000000003,-0.1499999999999963,0.0,0.1
2.8080000000000003,-0.1,0.0,0.1
2.816,-0.1,0.0,0.1
2.824,-0.1,0.0,0.1
2.832,-0.1,0.0,0.1
2.84,-0.1,0.0,0.1
2.848,-0.1,0.0,0.1
2.856,-0.1,0.0,0.1
2.864,-0.1,0.0,0.1
2.872,-0.1,0.0,0.1
2.88,-0.1,0.0,0.1
2.888,-0.1,0.0,0.1
2.896,-0.1,0.0,0.1
2.904,-0.1,0.0,0.1
2.912,-0.1,0.0,0.1
2.92,-0.1,0.0,0.1
2.928,-0.1,0.0,0.1
2.936,-0.1,0.0,0.1
2.944,-0.1,0.0,0.1
2.952,-0.1,0.0,0.1
2.96,-0.1,0.0,0.1
2.968,-0.1,0.0,0.1
2.976,-0.1,0.0,0.1
2.984,-0.1,0.0,0.1
2.992,-0.1,0.0,0.1
3.0,-0.1,0.0,0.1
3.008,-0.072727272727272,0.0,0.1
3.016,1.3877787807814457e-17,0.0,0.1
3.024,0.0,0.0,0.1
3.032,0.01044776119403,0.0,0.1
3.04,0.022388059701492668,0.0,0.1
3.048,0.034328358208955335,0.0,0.1
3.056,0.046268656716418,0.0,0.1
3.064,0.05820895522388067,0.0,0.1
3.072,0.07014925373134334,0.0,0.1
3.08,0.08208955223880601,0.0,0.1
3.088,0.09402985074626867,0.0,0.1
3.096,0.1,0.0,0.1
3.104,0.0,0.0,0.1
3.112,0.007228915662650861,0.0,0.0
3.12,0.01686746987951832,0.0,0.0
3.128,0.026506024096385777,0.0,0.0
3.136,0.03614457831325323,0.0,0.0
3.144,0.045783132530120695,0.0,0.0
3.152,0.05542168674698815,0.0,0.0
3.16,0.06506024096385561,0.0,0.0
3.168,0.07469879518072306,0.0,0.0
3.176,0.08433734939759052,0.0,0.0
3.184,0.09397590361445798,0.0,0.0
3.192,0.2,0.1,0.0
3.2,0.1,0.0,0.0
3.208,0.1,0.0,0.0
3.216,0.1,0.0,0.0
3.224,0.1,0.0,0.0
3.232,0.1,0.0,0.0
3.24,0.1,0.0,0.0
3.248,0.1,0.0,0.0
3.2560000000000002,0.1,0.0,0.0
3.2640000000000002,0.1,0.0,0.0
3.2720000000000002,0.1,0.0,0.0
3.2800000000000002,0.1,0.0,0.0
3.2880000000000003,0.1,0.0,0.0
3.2960000000000003,0.1,0.0,0.0
3.3040000000000003,0.1,0.0,0.0
3.3120000000000003,0.1,0.0,0.0
3.3200000000000003,0.1,0.0,0.0
3.3280000000000003,0.1,0.0,0.0
3.336,0.1,0.0,0.0
3.344,0.1,0.0,0.0
3.352,0.1,0.0,0.0
3.36,0.1,0.0,0.0
3.368,0.1,0.0,0.0
3.376,0.1,0.0,0.0
3.384,0.1,0.0,0.0
3.392,0.1,0.0,0.0
3.4,0.1,0.0,0.0
3.408,0.019999999999998224,0.0,0.0
3.416,0.1,0.0,0.0
3.424,0.1,0.0,0.0
3.432,0.1,0.0,0.0
3.44,0.1,0.0,0.0
3.448,0.1,0.0,0.0
3.456,0.1,0.0,0.0
3.464,0.1,0.0,0.0
3.472,0.1,0.0,0.0
3.48,0.1,0.0,0.0
3.488,0.1,0.0,0.0
3.496,0.2,0.0,-0.1
3.504,0.2,0.09565217391304348,-0.09565217391304348
3.512,0.2,0.08695652173913043,-0.08695652173913043
3.52,0.2,0.0782608695652174,-0.0782608695652174
3.528,0.2,0.06956521739130435,-0.06956521739130435
3.536,0.2,0.06086956521739131,-0.06086956521739131
3.544,0.2,0.052173913043478265,-0.052173913043478265
3.552,0.2,0.04347826086956522,-0.04347826086956522
3.56,0.2,0.03478260869565218,-0.03478260869565218
3.568,0.2,0.026086956521739132,-0.026086956521739132
3.576,0.2,0.017391304347826098,-0.017391304347826098
3.584,0.2,0.008695652173913049,-0.008695652173913049
3.592,0.2,0.0,0.0
3.6,0.1,0.1,0.1
3.608,0.1,0.10235294117647085,0.1
3.616,0.1,0.11176470588235322,0.1
3.624,0.1,0.1211764705882356,0.1
3.632,0.1,0.13058823529411795,0.1
3.64,0.1,0.14000000000000032,0.1
3.648,0.1,0.1494117647058827,0.1
3.656,0.1,0.15882352941176506,0.1
3.664,0.1,0.16823529411764743,0.1
3.672,0.1,0.17764705882352977,0.1
3.68,0.1,0.18705882352941214,0.1
3.688,0.1,0.1964705882352945,0.1
3.696,0.1,0.2,0.2
3.704,0.1,0.2,0.2
3.712,0.1,0.2,0.2
3.72,0.1,0.2,0.2
3.728,0.1,0.2,0.2
3.736,0.1,0.2,0.2
3.744,0.1,0.2,0.2
3.7520000000000002,0.1,0.2,0.2
3.7600000000000002,0.1,0.2,0.2
3.7680000000000002,0.1,0.2,0.2
3.7760000000000002,0.1,0.2,0.2
3.7840000000000003,0.1,0.2,0.2
3.7920000000000003,0.1,0.2,0.2
3.8000000000000003,0.1,0.20833333333333612,0.2
3.8080000000000003,0.1,0.27500000000000274,0.2
3.8160000000000003,0.11785714285714405,0.3,0.2
3.8240000000000003,0.14642857142857263,0.3,0.2
3.8320000000000003,0.1750000000000012,0.3,0.2
3.84,0.2,0.3,0.2
3.848,0.19245283018867923,0.3,0.19245283018867923
3.856,0.1773584905660377,0.3,0.1773584905660377
3.864,0.16226415094339616,0.3,0.16226415094339616
3.872,0.14716981132075463,0.3,0.14716981132075463
3.88,0.13207547169811307,0.3,0.13207547169811307
3.888,0.11698113207547153,0.3,0.11698113207547153
3.896,0.10188679245282999,0.3,0.10188679245282999
3.904,0.2,0.2,0.09883720930232572
3.912,0.2,0.2,0.08953488372093034
3.92,0.2,0.2,0.08023255813953496
3.928,0.2,0.2,0.0709302325581396
3.936,0.2,0.2,0.061627906976744216
3.944,0.2,0.2,0.05232558139534885
3.952,0.2,0.2,0.04302325581395347
3.96,0.2,0.2,0.033720930232558094
3.968,0.2,0.2,0.024418604651162718
3.976,0.2,0.2,0.015116279069767355
3.984,0.2,0.2,0.0058139534883719785
3.992,0.2,0.2,-0.1
4.0,0.3,0.09450549450549464,-0.10549450549450537
4.008,0.3,0.08571428571428585,-0.11428571428571416
4.016,0.3,0.07692307692307708,-0.12307692307692293
4.024,0.3,0.0681318681318683,-0.1318681318681317
4.032,0.3,0.05934065934065952,-0.1406593406593405
4.04,0.3,0.05054945054945074,-0.14945054945054928
4.048,0.3,0.04175824175824196,-0.15824175824175807
4.056,0.3,0.03296703296703318,-0.16703296703296683
4.064,0.3,0.024175824175824395,-0.17582417582417562
4.072,0.3,0.015384615384615621,-0.1846153846153844
4.08,0.3,0.006593406593406834,-0.19340659340659316
4.088,0.3,0.1,-0.2
4.096,0.3,-0.020000000000007106,-0.2
4.104,0.3,-0.1,-0.2
4.112,0.3,-0.1,-0.2
4.12,0.3,-0.1,-0.2
4.128,0.3,-0.1,-0.2
4.136,0.3,-0.1,-0.2
4.144,0.3,-0.1,-0.2
4.152,0.3,-0.1,-0.2
4.16,0.3,-0.1,-0.2
4.168,0.3,-0.1,-0.2
4.176,0.3,-0.1,-0.2
4.184,0.3,-0.1,-0.2
4.192,0.3,-0.1,-0.2
4.2,0.3,-0.1,-0.2
4.208,0.3,-0.1,-0.2
4.216,0.14999999999997782,-0.1,-0.14999999999997782
4.224,0.2,-0.1,-0.09375000000000014
4.232,0.2,-0.1,-0.08375000000000014
4.24,0.2,-0.1,-0.07375000000000015
4.248,0.2,-0.1,-0.06375000000000014
4.256,0.2,-0.1,-0.053750000000000145
4.264,0.2,-0.1,-0.04375000000000014
4.272,0.2,-0.1,-0.03375000000000014
4.28,0.2,-0.1,-0.023750000000000146
4.288,0.2,-0.1,-0.013750000000000151
4.296,0.2,-0.1,-0.003750000000000142
4.304,0.2,0.0750000000000111,0.1
4.312,0.1,0.0037500000000001386,0.20375000000000015
4.32,0.1,0.013750000000000139,0.21375000000000016
4.328,0.1,0.02375000000000014,0.22375000000000014
4.336,0.1,0.03375000000000014,0.23375000000000015
4.344,0.1,0.043750000000000136,0.24375000000000013
4.352,0.1,0.05375000000000014,0.25375000000000014
4.36,0.1,0.06375000000000014,0.26375000000000015
4.368,0.1,0.07375000000000013,0.27375000000000016
4.376,0.1,0.08375000000000014,0.28375000000000017
4.384,0.1,0.09375000000000014,0.2937500000000001
4.392,0.1,0.1,0.3
4.4,0.0,0.0,0.3
4.408,0.0,0.0070707070707076245,0.3
4.416,0.0,0.015151515151515697,0.3
4.424,0.0,0.02323232323232377,0.3
4.432,0.0,0.03131313131313184,0.3
4.44,0.0,0.03939393939393991,0.3
4.448,0.0,0.04747474747474799,0.3
4.456,0.0,0.05555555555555606,0.3
4.464,0.0,0.06363636363636413,0.3
4.472,0.0,0.0717171717171722,0.3
4.48,0.0,0.07979797979798027,0.3
4.488,0.0,0.08787878787878835,0.3
4.496,0.0,0.09595959595959642,0.3
4.5040000000000004,0.050000000000005554,0.1,0.24999999999999445
4.5120000000000005,0.1,0.1,0.2
4.5200000000000005,0.0928571428571406,0.0,0.2
4.5280000000000005,0.035714285714284366,0.0,0.2
4.5360000000000005,0.004918032786885437,0.004918032786885437,0.19508196721311458
4.5440000000000005,0.018032786885246118,0.018032786885246118,0.1819672131147539
4.5520000000000005,0.031147540983606798,0.031147540983606798,0.1688524590163932
4.5600000000000005,0.044262295081967475,0.044262295081967475,0.15573770491803254
4.5680000000000005,0.057377049180328155,0.057377049180328155,0.14262295081967186
4.5760000000000005,0.07049180327868884,0.07049180327868884,0.12950819672131117
4.5840000000000005,0.08360655737704951,0.08360655737704951,0.1163934426229505
4.5920000000000005,0.0967213114754102,0.0967213114754102,0.10327868852458981
4.6000000000000005,0.1,0.1,0.0499999999999778
4.6080000000000005,0.2,0.1,0.0
4.616,0.2,0.1,0.0
4.624,0.2,0.1,0.0
4.632,0.2,0.1,0.0
4.64,0.2,0.1,0.0
4.648,0.2,0.1,0.0
4.656,0.2,0.1,0.0
4.664,0.2,0.1,0.0
4.672,0.2,0.1,0.0
4.68,0.2,0.1,0.0
4.688,0.2,0.1,0.0
4.696,0.1,0.0,0.0
4.704,0.1936170212765964,0.09361702127659641,-0.006382978723403592
4.712,0.185106382978724,0.08510638297872401,-0.014893617021275993
4.72,0.17659574468085162,0.07659574468085162,-0.023404255319148394
4.728,0.16808510638297922,0.06808510638297921,-0.031914893617020795
4.736,0.1595744680851068,0.05957446808510681,-0.0404255319148932
4.744,0.15106382978723443,0.05106382978723441,-0.0489361702127656
4.752,0.14255319148936202,0.042553191489362006,-0.057446808510638
4.76,0.1340425531914896,0.034042553191489605,-0.0659574468085104
4.768,0.1255319148936172,0.02553191489361721,-0.0744680851063828
4.776,0.11702127659574481,0.017021276595744803,-0.0829787234042552
4.784,0.10851063829787241,0.008510638297872408,-0.0914893617021276
4.792,0.1,0.0,-0.1
4.8,0.3,0.0,-0.2
4.808,0.3,0.0,-0.2
4.816,0.3,0.0,-0.2
4.824,0.3,0.0,-0.2
4.832,0.3,0.0,-0.2
4.84,0.3,0.0,-0.2
4.848,0.3,0.0,-0.2
4.856,0.3,0.0,-0.2
4.864,0.3,0.0,-0.2
4.872,0.3,0.0,-0.2
4.88,0.3,0.0,-0.2
4.888,0.3,0.0,-0.2
4.896,0.3,0.0,-0.2
4.904,0.35,0.0,-0.2
4.912,0.3400000000000018,0.0,-0.1400000000000018
4.92,0.3,-0.005194805194804626,-0.1
4.928,0.3,-0.015584415584415033,-0.1
4.936,0.3,-0.025974025974025438,-0.1
4.944,0.3,-0.03636363636363584,-0.1
4.952,0.3,-0.04675324675324625,-0.1
4.96,0.3,-0.057142857142856655,-0.1
4.968,0.3,-0.06753246753246706,-0.1
4.976,0.3,-0.07792207792207746,-0.1
4.984,0.3,-0.08831168831168787,-0.1
4.992,0.3,-0.09870129870129828,-0.1
5.0,0.3,-0.1,0.0
5.008,0.1,-0.2,0.10549450549450537
5.016,0.1,-0.2,0.11428571428571416
5.024,0.1,-0.2,0.12307692307692293
5.032,0.1,-0.2,0.1318681318681317
5.04,0.1,-0.2,0.1406593406593405
5.048,0.1,-0.2,0.14945054945054928
5.056,0.1,-0.2,0.15824175824175807
5.064,0.1,-0.2,0.16703296703296683
5.072,0.1,-0.2,0.17582417582417562
5.08,0.1,-0.2,0.1846153846153844
5.088,0.1,-0.2,0.19340659340659316
5.096,0.1,-0.2,0.2
5.104,0.1,-0.2,0.1
5.112,0.1,-0.2,0.1
5.12,0.1,-0.2,0.1
5.128,0.1,-0.2,0.1
5.136,0.1,-0.2,0.1
5.144,0.1,-0.2,0.1
5.152,0.1,-0.2,0.1
5.16,0.1,-0.2,0.1
5.168,0.1,-0.2,0.1
5.176,0.1,-0.2,0.1
5.184,0.1,-0.2,0.1
5.192,0.1,-0.2,0.1
5.2,0.1,-0.2,0.0
5.208,0.1040816326530617,-0.2,-0.004081632653061686
5.216,0.11224489795918416,-0.2,-0.012244897959184153
5.224,0.12040816326530662,-0.2,-0.02040816326530662
5.232,0.12857142857142909,-0.2,-0.028571428571429087
5.24,0.13673469387755155,-0.2,-0.03673469387755156
5.248,0.14489795918367404,-0.2,-0.04489795918367402
5.256,0.1530612244897965,-0.2,-0.05306122448979649
5.264,0.16122448979591897,-0.2,-0.061224489795918956
5.272,0.16938775510204143,-0.2,-0.06938775510204143
5.28,0.1775510204081639,-0.2,-0.07755102040816389
5.288,0.18571428571428636,-0.2,-0.08571428571428635
5.296,0.19387755102040882,-0.2,-0.09387755102040883
5.304,0.2500000000000222,-0.2,-0.1
5.312,0.36363636363636803,-0.26363636363636805,-0.16363636363636805
5.32,0.49726027397260186,-0.3027397260273981,-0.2
5.328,0.48630136986301287,-0.3136986301369871,-0.2
5.336,0.47534246575342387,-0.3246575342465761,-0.2
5.344,0.4643835616438349,-0.3356164383561651,-0.2
5.352,0.4534246575342459,-0.3465753424657541,-0.2
5.36,0.4424657534246569,-0.3575342465753431,-0.2
5.368,0.4315068493150679,-0.3684931506849321,-0.2
5.376,0.4205479452054789,-0.3794520547945211,-0.2
5.384,0.40958904109588995,-0.3904109589041101,-0.2
5.392,0.3499999999999778,-0.4,-0.2
5.4,-0.002247191011236695,-0.5988764044943816,-0.3
5.408,-0.020224719101124267,-0.5898876404494379,-0.3
5.416,-0.03820224719101184,-0.5808988764044941,-0.3
5.424,-0.05617977528089941,-0.5719101123595502,-0.3
5.432,-0.07415730337078698,-0.5629213483146065,-0.3
5.44,-0.09213483146067455,-0.5539325842696627,-0.3
5.448,-0.11011235955056213,-0.5449438202247189,-0.3
5.456,-0.1280898876404497,-0.5359550561797751,-0.3
5.464,-0.14606741573033727,-0.5269662921348314,-0.3
5.472,-0.16404494382022486,-0.5179775280898876,-0.3
5.48,-0.18202247191011242,-0.5089887640449438,-0.3
5.488,-0.19999999999999998,-0.5,-0.3
5.496,-0.5,-0.4,-0.4
5.5040000000000004,2.634042553191493,-0.7085106382978732,-0.9042553191489366
5.5120000000000005,2.702127659574472,-0.7255319148936179,-0.912765957446809
5.5200000000000005,2.7702127659574503,-0.7425531914893625,-0.9212765957446812
5.5280000000000005,2.8382978723404286,-0.7595744680851072,-0.9297872340425536
5.5360000000000005,2.9063829787234075,-0.7765957446808518,-0.9382978723404259
5.5440000000000005,2.974468085106386,-0.7936170212765965,-0.9468085106382982
5.5520000000000005,3.042553191489364,-0.8106382978723411,-0.9553191489361705
5.5600000000000005,3.110638297872343,-0.8276595744680857,-0.9638297872340429
5.5680000000000005,3.1787234042553214,-0.8446808510638304,-0.9723404255319152
5.5760000000000005,3.2468085106383002,-0.8617021276595751,-0.9808510638297875
5.5840000000000005,3.3148936170212786,-0.8787234042553197,-0.9893617021276598
5.5920000000000005,3.382978723404257,-0.8957446808510643,-0.9978723404255322
5.6000000000000005,2.2999999999999927,-2.000000000000001,0.2000000000000027
5.6080000000000005,2.235353535353528,-2.008080808080809,0.2242424242424269
5.6160000000000005,2.1707070707070635,-2.016161616161617,0.24848484848485114
5.6240000000000006,2.106060606060599,-2.0242424242424253,0.27272727272727537
5.632,2.0414141414141413,-2.0323232323232325,0.2969696969696969
5.64,1.976767676767677,-2.04040404040404,0.32121212121212106
5.648,1.9121212121212126,-2.0484848484848484,0.3454545454545453
5.656,1.847474747474748,-2.0565656565656565,0.3696969696969695
5.664,1.7828282828282833,-2.0646464646464646,0.3939393939393937
5.672,1.7181818181818187,-2.0727272727272728,0.41818181818181793
5.68,1.653535353535354,-2.080808080808081,0.44242424242424216
5.688,1.5888888888888895,-2.088888888888889,0.46666666666666634
5.696,1.524242424242425,-2.096969696969697,0.4909090909090906
5.704,0.9700000000000009,-2.0,0.8599999999999982
5.712,1.1,-2.3,1.0
5.72,1.3081081081081072,-2.632432432432429,1.1081081081081072
5.728,1.318918918918918,-2.6756756756756723,1.1189189189189181
5.736,1.329729729729729,-2.7189189189189156,1.129729729729729
5.744,1.3405405405405397,-2.7621621621621593,1.1405405405405398
5.752,1.3513513513513506,-2.8054054054054025,1.1513513513513507
5.76,1.3621621621621613,-2.8486486486486458,1.1621621621621614
5.768,1.3729729729729723,-2.8918918918918894,1.1729729729729723
5.776,1.383783783783783,-2.9351351351351327,1.183783783783783
5.784,1.394594594594594,-2.978378378378376,1.194594594594594
5.792,1.3000000000000442,-3.7999999999999554,1.2500000000000222
5.8,0.7687500000000007,-4.205208333333333,0.8843750000000004
5.808,0.7187500000000007,-4.213541666666667,0.8593750000000003
5.816,0.6687500000000007,-4.221875,0.8343750000000003
5.824,0.6187500000000007,-4.230208333333334,0.8093750000000004
5.832,0.5687500000000008,-4.238541666666666,0.7843750000000004
5.84,0.5187500000000007,-4.246875,0.7593750000000004
5.848,0.46875000000000067,-4.255208333333333,0.7343750000000003
5.856,0.4187500000000007,-4.263541666666667,0.7093750000000003
5.864,0.3687500000000007,-4.271875,0.6843750000000004
5.872,0.31875000000000064,-4.280208333333333,0.6593750000000003
5.88,0.2687500000000006,-4.288541666666666,0.6343750000000004
5.888,0.21875000000000067,-4.296875,0.6093750000000003
5.896,-0.4,-4.5,0.0
5.904,0.43582089552238934,-3.646268656716416,0.30746268656716796
5.912,0.48358208955224,-3.57462686567164,0.45074626865671996
5.92,0.5313432835820907,-3.502985074626864,0.594029850746272
5.928,0.5791044776119414,-3.431343283582088,0.737313432835824
5.936,0.626865671641792,-3.359701492537312,0.8805970149253759
5.944,0.6746268656716428,-3.288059701492536,1.0238805970149278
5.952,0.7223880597014933,-3.21641791044776,1.1671641791044798
5.96,0.770149253731344,-3.144776119402984,1.3104477611940317
5.968,0.19999999999999996,-3.05,0.95
5.976,-1.5,-1.8,0.3
5.984,-1.5314960629921262,-1.8,0.28740157480314954
5.992,-1.562992125984252,-1.8,0.27480314960629915
6.0,-1.5944881889763782,-1.8,0.2622047244094487
6.008,-1.6259842519685042,-1.8,0.2496062992125983
6.016,-1.6574803149606303,-1.8,0.23700787401574785
6.024,-1.6889763779527565,-1.8,0.22440944881889743
6.032,-1.7204724409448824,-1.8,0.211811023622047
6.04,-1.7519685039370085,-1.8,0.1992125984251966
6.048,-1.7834645669291347,-1.8,0.18661417322834617
6.056,-1.8149606299212606,-1.8,0.17401574803149575
6.064,-1.8464566929133868,-1.8,0.1614173228346453
6.072,-1.877952755905513,-1.8,0.14881889763779488
6.08,-1.9094488188976388,-1.8,0.13622047244094446
6.088,-1.940944881889765,-1.8,0.12362204724409404
6.096,-1.972440944881891,-1.8,0.11102362204724361
6.104,-1.9846153846153793,-1.7461538461538277,0.0615384615384484
6.112,-1.8615384615384554,-1.3153846153845934,-0.24615384615386196
6.12,1.8092105263157925,-1.489473684210523,-0.5026315789473693
6.128,1.8828947368421078,-1.4052631578947339,-0.5236842105263165
6.136,1.9565789473684232,-1.3210526315789448,-0.5447368421052637
6.144,2.0302631578947388,-1.236842105263156,-0.565789473684211
6.152,2.103947368421054,-1.152631578947367,-0.5868421052631583
6.16,2.177631578947369,-1.068421052631578,-0.6078947368421055
6.168,2.2513157894736846,-0.984210526315789,-0.6289473684210527
6.176,2.325,-0.9,-0.6499999999999999
6.184,2.3986842105263153,-0.815789473684211,-0.6710526315789472
6.192,2.4723684210526304,-0.731578947368422,-0.6921052631578944
6.2,2.8750000000000053,-0.5333333333333308,-0.6583333333333327
6.208,3.8000000000001775,-0.45000000000006657,-0.24999999999984457
6.216,1.6,-1.0,1.8
6.224,1.4337662337662336,-1.0311688311688312,1.7792207792207793
6.232,1.267532467532467,-1.0623376623376624,1.7584415584415585
6.24,1.1012987012987006,-1.0935064935064935,1.7376623376623377
6.248,0.9350649350649342,-1.124675324675325,1.716883116883117
6.256,0.7688311688311676,-1.1558441558441561,1.6961038961038961
6.264,0.6025974025974011,-1.1870129870129873,1.675324675324675
6.272,0.43636363636363473,-1.2181818181818185,1.6545454545454543
6.28,0.2701298701298682,-1.2493506493506497,1.6337662337662335
6.288,0.10389610389610171,-1.280519480519481,1.6129870129870127
6.296,-2.0500000000001446,-1.7000000000000224,1.3999999999999777
6.304,-2.9844444444444393,-1.5844444444444394,0.39111111111110825
6.312,-2.9222222222222176,-1.5222222222222177,0.35555555555555296
6.32,-2.859999999999996,-1.459999999999996,0.3199999999999976
6.328,-2.797777777777774,-1.3977777777777742,0.28444444444444233
6.336,-2.7355555555555524,-1.3355555555555525,0.24888888888888705
6.344,-2.6733333333333302,-1.2733333333333308,0.21333333333333174
6.352,-2.611111111111109,-1.2111111111111088,0.17777777777777645
6.36,-2.5488888888888868,-1.148888888888887,0.14222222222222114
6.368,-2.486666666666665,-1.0866666666666653,0.10666666666666585
6.376,-2.4244444444444433,-1.0244444444444436,0.07111111111111057
6.384,-2.3622222222222216,-0.9622222222222219,0.035555555555555285
6.392,-2.3,-0.9,-5.551115123125783e-17
6.4,-3.140000000000032,0.8400000000000853,0.4200000000000427
6.408,-2.7387755102040723,1.6765306122449095,1.2510204081632728
6.416,-2.6408163265306035,1.7989795918367453,1.332653061224497
6.424,-2.542857142857135,1.9214285714285813,1.4142857142857208
6.432,-2.4448979591836664,2.043877551020417,1.4959183673469447
6.44,-2.3469387755101976,2.166326530612253,1.5775510204081686
6.448,-2.248979591836729,2.288775510204089,1.6591836734693926
6.456,-2.15102040816326,2.411224489795925,1.7408163265306165
6.464,-2.0530612244897917,2.533673469387761,1.8224489795918406
6.472,-1.9551020408163229,2.6561224489795965,1.9040816326530643
6.48,-1.857142857142854,2.7785714285714325,1.9857142857142884
6.488,-1.7591836734693853,2.9010204081632684,2.067346938775512
6.496,-1.6612244897959167,3.0234693877551044,2.1489795918367363
6.5040000000000004,0.1333333333334024,4.466666666666746,2.766666666666716
6.5120000000000005,1.823076923076915,4.946153846153849,3.37692307692308
6.5200000000000005,1.3512820512820394,5.0692307692307725,3.582051282051287
6.5280000000000005,0.8794871794871635,5.192307692307697,3.787179487179494
6.5360000000000005,0.4076923076922878,5.3153846153846205,3.9923076923077008
6.5440000000000005,-0.06410256410258786,5.438461538461545,4.197435897435907
6.5520000000000005,-0.5358974358974637,5.561538461538468,4.4025641025641145
6.5600000000000005,-1.0076923076923396,5.684615384615393,4.6076923076923215
6.5680000000000005,-1.4794871794872155,5.807692307692317,4.812820512820529
6.5760000000000005,-1.951282051282091,5.930769230769241,5.017948717948736
6.5840000000000005,-2.423076923076967,6.053846153846165,5.223076923076942
6.5920000000000005,-7.499999999998623,2.4999999999976463,2.599999999998801
6.6000000000000005,1.6521739130434845,-3.108695652173914,-1.5130434782608826
6.6080000000000005,1.7565217391304413,-3.1260869565217404,-1.7391304347826229
6.6160000000000005,1.8608695652173983,-3.1434782608695664,-1.9652173913043631
6.6240000000000006,1.9652173913043554,-3.1608695652173924,-2.191304347826103
6.632000000000001,2.0695652173913124,-3.178260869565219,-2.417391304347843
6.640000000000001,2.1739130434782696,-3.195652173913045,-2.6434782608695837
6.648000000000001,2.2782608695652264,-3.213043478260871,-2.869565217391324
6.656000000000001,2.3826086956521833,-3.230434782608697,-3.0956521739130642
6.664,2.486956521739129,-3.2478260869565214,-3.3217391304347794
6.672,2.5913043478260858,-3.2652173913043474,-3.5478260869565195
6.68,2.695652173913043,-3.282608695652174,-3.77391304347826
6.688,2.8,-3.3,-4.0
6.696,0.6991935483870971,-0.09677419354838888,-0.4
6.704,0.6927419354838713,-0.07096774193548556,-0.4
6.712,0.6862903225806455,-0.045161290322582245,-0.4
6.72,0.6798387096774197,-0.019354838709678926,-0.4
6.728,0.6733870967741938,0.0064516129032243935,-0.4
6.736,0.666935483870968,0.0322580645161277,-0.4
6.744,0.6604838709677422,0.05806451612903102,-0.4
6.752,0.6540322580645164,0.08387096774193434,-0.4
6.76,0.6475806451612905,0.10967741935483766,-0.4
6.768,0.6411290322580647,0.13548387096774098,-0.4
6.776,0.6346774193548389,0.16129032258064432,-0.4
6.784,0.6282258064516131,0.18709677419354762,-0.4
6.792,0.6217741935483873,0.21290322580645096,-0.4
6.8,0.6153225806451614,0.23870967741935425,-0.4
6.808,0.6088709677419356,0.2645161290322575,-0.4
6.816,0.6024193548387098,0.2903225806451609,-0.4
6.824,1.3,1.2499999999999334,-0.10000000000004441
6.832,1.0823529411764723,1.1,0.21470588235294097
6.84,0.8941176470588241,1.1,0.238235294117647
6.848,0.7058823529411757,1.1,0.261764705882353
6.856,0.5176470588235275,1.1,0.2852941176470591
6.864,0.3294117647058792,1.1,0.3088235294117651
6.872,0.14117647058823102,1.1,0.33235294117647113
6.88,-0.04705882352941737,1.1,0.3558823529411772
6.888,-0.23529411764706576,1.1,0.3794117647058832
6.896,-1.9,0.10000000000000009,0.0
6.904,0.7103448275862072,-0.2931034482758618,-0.09310344827586187
6.912,0.7379310344827588,-0.27471264367816084,-0.07471264367816083
6.92,0.7655172413793103,-0.2563218390804598,-0.0563218390804598
6.928,0.7931034482758619,-0.23793103448275876,-0.037931034482758766
6.936,0.8206896551724134,-0.21954022988505772,-0.019540229885057728
6.944,0.848275862068965,-0.2011494252873567,-0.0011494252873567035
6.952,0.8758620689655164,-0.18275862068965568,0.017241379310344335
6.96,0.903448275862068,-0.16436781609195464,0.03563218390804537
6.968,0.9310344827586196,-0.1459770114942536,0.05402298850574641
6.976,0.9586206896551711,-0.1275862068965526,0.07241379310344745
6.984,0.9862068965517227,-0.10919540229885155,0.09080459770114846
6.992,0.8,-0.04999999999999999,-0.05
7.0,1.0127659574468089,0.2,-0.09361702127659553
7.008,1.0297872340425536,0.2,-0.08510638297872321
7.016,1.0468085106382983,0.2,-0.07659574468085088
7.024,1.0638297872340428,0.2,-0.06808510638297857
7.032,1.0808510638297875,0.2,-0.05957446808510625
7.04,1.0978723404255322,0.2,-0.05106382978723392
7.048,1.1148936170212767,0.2,-0.042553191489361604
7.056,1.1319148936170214,0.2,-0.034042553191489286
7.064,1.148936170212766,0.2,-0.02553191489361696
7.072,1.1659574468085108,0.2,-0.017021276595744636
7.08,1.1829787234042553,0.2,-0.008510638297872311
7.088,1.2,0.2,0.0
7.096,0.8999999999999778,0.1,0.0
7.104,0.3938144329896914,-0.1,-0.0020618556701028756
7.112,0.36907216494845413,-0.1,-0.010309278350515294
7.12,0.3443298969072169,-0.1,-0.018556701030927714
7.128,0.31958762886597963,-0.1,-0.026804123711340132
7.136,0.2948453608247424,-0.1,-0.03505154639175255
7.144,0.2701030927835051,-0.1,-0.04329896907216497
7.152,0.24536082474226786,-0.1,-0.051546391752577386
7.16,0.2206185567010306,-0.1,-0.059793814432989804
7.168,0.19587628865979334,-0.1,-0.06804123711340222
7.176,0.1711340206185561,-0.1,-0.07628865979381465
7.184,0.14639175257731885,-0.1,-0.08453608247422706
7.192,0.12164948453608154,-0.1,-0.09278350515463948
7.2,-4.440892098500626e-14,-0.1,-0.0499999999999778
7.208,-0.14444444444444227,-0.1,0.0
7.216,-0.06666666666666421,-0.06666666666666421,0.0
7.224,0.0,0.0,0.0
7.232,0.0,0.0,0.0
7.24,0.0,0.0,0.0
7.248,0.0,0.0,0.0
7.256,0.0,0.0,0.0
7.264,0.0,0.0,0.0
7.272,0.0,0.0,0.0
7.28,0.0,0.0,0.0
7.288,0.0,0.0,0.0
7.296,0.2,0.1,-0.1
7.304,0.1924731182795693,0.2,-0.1
7.312,0.18387096774193487,0.2,-0.1
7.32,0.17526881720430046,0.2,-0.1
7.328,0.16666666666666605,0.2,-0.1
7.336,0.1580645161290316,0.2,-0.1
7.344,0.1494623655913972,0.2,-0.1
7.352,0.14086021505376278,0.2,-0.1
7.36,0.13225806451612837,0.2,-0.1
7.368,0.12365591397849394,0.2,-0.1
7.376,0.11505376344085952,0.2,-0.1
7.384,0.1064516129032251,0.2,-0.1
7.392,0.0,0.2,-0.1
7.4,-0.5043478260869569,-0.004347826086956984,0.004347826086956984
7.408,-0.5130434782608699,-0.013043478260869986,0.013043478260869986
7.416,-0.5217391304347829,-0.02173913043478299,0.02173913043478299
7.424,-0.530434782608696,-0.030434782608695993,0.030434782608695993
7.432,-0.539130434782609,-0.039130434782609,0.039130434782609
7.44,-0.547826086956522,-0.047826086956522,0.047826086956522
7.448,-0.556521739130435,-0.056521739130435,0.056521739130435
7.456,-0.565217391304348,-0.065217391304348,0.065217391304348
7.464,-0.573913043478261,-0.07391304347826101,0.07391304347826101
7.472,-0.582608695652174,-0.082608695652174,0.082608695652174
7.48,-0.591304347826087,-0.09130434782608701,0.09130434782608701
7.488,-0.6,-0.10000000000000002,0.10000000000000002
7.496,0.0018018018018024072,-0.19909909909909881,0.09909909909909881
7.5040000000000004,0.016216216216216866,-0.19189189189189157,0.09189189189189158
7.5120000000000005,0.030630630630631324,-0.18468468468468435,0.08468468468468435
7.5200000000000005,0.04504504504504578,-0.1774774774774771,0.07747747747747712
7.5280000000000005,0.05945945945946024,-0.1702702702702699,0.07027027027026989
7.5360000000000005,0.0738738738738747,-0.16306306306306267,0.06306306306306265
7.5440000000000005,0.08828828828828915,-0.15585585585585543,0.05585585585585543
7.5520000000000005,0.10270270270270361,-0.1486486486486482,0.0486486486486482
7.5600000000000005,0.11711711711711807,-0.14144144144144097,0.04144144144144097
7.5680000000000005,0.13153153153153252,-0.13423423423423375,0.034234234234233746
7.5760000000000005,0.14594594594594698,-0.1270270270270265,0.027027027027026515
7.5840000000000005,0.16036036036036144,-0.11981981981981929,0.019819819819819284
7.5920000000000005,0.1747747747747759,-0.11261261261261206,0.012612612612612054
7.6000000000000005,0.18918918918919037,-0.10540540540540483,0.005405405405404823
7.6080000000000005,0.20000000000004442,-0.0999999999999556,-4.440892098499143e-14
7.6160000000000005,0.354545454545456,0.05454545454545602,-0.1
7.6240000000000006,0.3972602739726019,0.1,-0.1
7.632000000000001,0.3863013698630129,0.1,-0.1
7.640000000000001,0.3753424657534239,0.1,-0.1
7.648000000000001,0.3643835616438349,0.1,-0.1
7.656000000000001,0.3534246575342459,0.1,-0.1
7.664000000000001,0.3424657534246569,0.1,-0.1
7.672000000000001,0.3315068493150679,0.1,-0.1
7.68,0.32054794520548013,0.1,-0.1
7.688,0.30958904109589114,0.1,-0.1
7.696,0.1,0.1,0.0
7.704,-0.2,0.0,0.0
7.712,-0.2,-0.008333333333333335,0.008333333333333335
7.72,-0.2,-0.01666666666666667,0.01666666666666667
7.728,-0.2,-0.025,0.025
7.736,-0.2,-0.03333333333333334,0.03333333333333334
7.744,-0.2,-0.04166666666666667,0.04166666666666667
7.752,-0.2,-0.05,0.05
7.76,-0.2,-0.05833333333333334,0.05833333333333334
7.768,-0.2,-0.06666666666666668,0.06666666666666668
7.776,-0.2,-0.07500000000000001,0.07500000000000001
7.784,-0.2,-0.08333333333333334,0.08333333333333334
7.792,-0.2,-0.09166666666666667,0.09166666666666667
7.8,-0.2,-0.1,0.1
7.808,0.0,0.0,0.0
7.816,0.007228915662650861,0.0,0.0
7.824,0.01686746987951832,0.0,0.0
7.832,0.026506024096385777,0.0,0.0
7.84,0.03614457831325323,0.0,0.0
7.848,0.045783132530120695,0.0,0.0
7.856,0.05542168674698815,0.0,0.0
7.864,0.06506024096385561,0.0,0.0
7.872,0.07469879518072306,0.0,0.0
7.88,0.08433734939759052,0.0,0.0
7.888,0.09397590361445798,0.0,0.0
7.896,0.1,0.05,0.0
7.904,0.0,0.0,0.0
7.912,0.0,0.0,0.0
7.92,0.0,0.0,0.0
7.928,0.0,0.0,0.0
7.936,0.0,0.0,0.0
7.944,0.0,0.0,0.0
7.952,0.0,0.0,0.0
7.96,0.0,0.0,0.0
7.968,0.0,0.0,0.0
7.976,0.0,0.0,0.0
7.984,0.0,0.0,0.0
7.992,0.0,0.0,0.0
8.0,0.0,0.0,0.0
8.008000000000001,0.0,0.0,0.0
8.016,0.0,0.0,0.0
8.024000000000001,0.0,0.0,0.0
8.032,0.0,0.0,0.0
8.040000000000001,0.0,0.0,0.0
8.048,0.0,0.0,0.0
8.056000000000001,0.0,0.0,0.0
8.064,0.0,0.0,0.0
8.072000000000001,0.0,0.0,0.0
8.08,0.0,0.0,0.0
8.088000000000001,0.0,0.0,0.0
8.096,0.0,0.0,0.0
8.104000000000001,0.0,0.0,0.0
8.112,0.0,0.0,0.0
8.120000000000001,0.0,0.0,0.0
8.128,0.0,0.0,0.0
8.136000000000001,0.0,0.0,0.0
8.144,0.0,0.0,0.0
8.152000000000001,0.0,0.0,0.0
8.16,0.0,0.0,0.0
8.168000000000001,0.0,0.0,0.0
8.176,0.0,0.0,0.0
8.184000000000001,0.0,0.0,0.0
8.192,0.0,0.0,0.0
8.2,0.0,0.0,0.0
8.208,0.0,0.0,0.0
8.216,0.0,0.0,0.0
8.224,0.0,0.0,0.0
8.232,0.0,0.0,0.0
8.24,0.0,0.0,0.0
8.248,0.0,0.0,0.0
8.256,0.0,0.0,0.0
8.264,0.0,0.0,0.0
8.272,0.0,0.0,0.0
8.28,0.0,0.0,0.0
8.288,0.0,0.0,0.0
8.296,0.1,0.0,0.0
8.304,0.0,0.0,0.0
8.312,0.0,0.0,0.0
8.32,0.0,0.0,0.0
8.328,0.0,0.0,0.0
8.336,0.0,0.0,0.0
8.344,0.0,0.0,0.0
8.352,0.0,0.0,0.0
8.36,0.0,0.0,0.0
8.368,0.0,0.0,0.0
8.376,0.0,0.0,0.0
8.384,0.0,0.0,0.0
8.392,0.0,0.0,0.0
8.4,0.0,0.0,0.0
8.408,0.0,0.0,0.0
8.416,0.0,0.0,0.0
8.424,0.0,0.0,0.0
8.432,0.0,0.0,0.0
8.44,0.0,0.0,0.0
8.448,0.0,0.0,0.0
8.456,0.0,0.0,0.0
8.464,0.0,0.0,0.0
8.472,0.0,0.0,0.0
8.48,0.0,0.0,0.0
8.488,0.0,0.0,0.0
8.496,0.0,0.0,0.0
8.504,0.0,0.0,0.0
8.512,0.0,0.0,0.0
8.52,0.0,0.0,0.0
8.528,0.0,0.0,0.0
8.536,0.0,0.0,0.0
8.544,0.0,0.0,0.0
8.552,0.0,0.0,0.0
8.56,0.0,0.0,0.0
8.568,0.0,0.0,0.0
8.576,0.0,0.0,0.0
8.584,0.0,0.0,0.0
8.592,0.0,0.0,0.0
8.6,0.0,0.0,0.0
8.608,0.0,0.0,0.0
8.616,0.0,0.0,0.0
8.624,0.0,0.0,0.0
8.632,0.0,0.0,0.0
8.64,0.0,0.0,0.0
8.648,0.0,0.0,0.0
8.656,0.0,0.0,0.0
8.664,0.0,0.0,0.0
8.672,0.0,0.0,0.0
8.68,0.0,0.0,0.0
8.688,0.0,0.0,0.0
8.696,0.0,0.0,0.0
8.704,0.0,0.0,0.0
8.712,0.0,0.0,0.0
8.72,0.0,0.0,0.0
8.728,0.0,0.0,0.0
8.736,0.0,0.0,0.0
8.744,0.0,0.0,0.0
8.752,0.0,0.0,0.0
8.76,0.0,0.0,0.0
8.768,0.0,0.0,0.0
8.776,0.0,0.0,0.0
8.784,0.0,0.0,0.0
8.792,0.0,0.0,0.0
8.8,0.0,0.0,0.0
8.808,0.0,0.0,0.0
8.816,0.0,0.0,0.0
8.824,0.0,0.0,0.0
8.832,0.0,0.0,0.0
8.84,0.0,0.0,0.0
8.848,0.0,0.0,0.0
8.856,0.0,0.0,0.0
8.864,0.0,0.0,0.0
8.872,0.0,0.0,0.0
8.88,0.0,0.0,0.0
8.888,0.0,0.0,0.0
8.896,0.0,0.0,0.0
8.904,0.0,0.0,0.0
8.912,0.0,0.0,0.0
8.92,0.0,0.0,0.0
8.928,0.0,0.0,0.0
8.936,0.0,0.0,0.0
8.944,0.0,0.0,0.0
8.952,0.0,0.0,0.0
8.96,0.0,0.0,0.0
8.968,0.0,0.0,0.0
8.976,0.0,0.0,0.0
8.984,0.0,0.0,0.0
8.992,0.0,0.0,0.0
9.0,0.0,0.0,0.0
9.008000000000001,0.0,0.0,0.0
9.016,0.0,0.0,0.0
9.024000000000001,0.0,0.0,0.0
9.032,0.0,0.0,0.0
9.040000000000001,0.0,0.0,0.0
9.048,0.0,0.0,0.0
9.056000000000001,0.0,0.0,0.0
9.064,0.0,0.0,0.0
9.072000000000001,0.0,0.0,0.0
9.08,0.0,0.0,0.0
9.088000000000001,0.0,0.0,0.0
9.096,0.0,0.0,0.0
9.104000000000001,0.09433962264150922,0.0,0.0
9.112,0.08679245283018928,0.0,0.0
9.120000000000001,0.07924528301886767,0.0,0.0
9.128,0.07169811320754774,0.0,0.0
9.136000000000001,0.06415094339622612,0.0,0.0
9.144,0.056603773584906196,0.0,0.0
9.152000000000001,0.04905660377358459,0.0,0.0
9.16,0.041509433962264655,0.0,0.0
9.168000000000001,0.03396226415094304,0.0,0.0
9.176,0.026415094339623107,0.0,0.0
9.184000000000001,0.018867924528301508,0.0,0.0
9.192,0.011320754716981574,0.0,0.0
9.200000000000001,0.00377358490565996,0.0,0.0
9.208,0.0,0.0,0.0
9.216000000000001,0.2,-0.1,0.0
9.224,0.2,-0.1,0.0
9.232,0.2,-0.1,0.0
9.24,0.2,-0.1,0.0
9.248,0.2,-0.1,0.0
9.256,0.2,-0.1,0.0
9.264,0.2,-0.1,0.0
9.272,0.2,-0.1,0.0
9.28,0.2,-0.1,0.0
9.288,0.15000000000000002,-0.15000000000000002,-0.05
9.296,0.5666666666666271,-0.3666666666666568,-0.1
9.304,0.7333333333333346,-0.40666666666666695,-0.1
9.312,0.7777777777777742,-0.4155555555555549,-0.1
9.32,0.8222222222222237,-0.4244444444444448,-0.1
9.328,0.8666666666666634,-0.4333333333333327,-0.1
9.336,0.9111111111111128,-0.44222222222222257,-0.1
9.344,0.9555555555555524,-0.4511111111111105,-0.1
9.352,1.000000000000002,-0.4600000000000004,-0.1
9.36,1.0444444444444416,-0.46888888888888836,-0.1
9.368,1.088888888888891,-0.47777777777777825,-0.1
9.376,1.1333333333333306,-0.48666666666666614,-0.1
9.384,1.1777777777777803,-0.495555555555556,-0.1
9.392,1.8,-0.6300000000000018,-0.06999999999999823
9.4,1.4999999999997335,-0.8500000000001332,0.0
9.408,0.38749999999999957,-1.3062500000000004,-0.1
9.416,0.370833333333331,-1.3145833333333345,-0.1
9.424,0.35416666666666624,-1.322916666666667,-0.1
9.432,0.3374999999999977,-1.3312500000000012,-0.1
9.44,0.32083333333333286,-1.3395833333333336,-0.1
9.448,0.30416666666666436,-1.3479166666666678,-0.1
9.456,0.28749999999999953,-1.3562500000000002,-0.1
9.464,0.27083333333333104,-1.3645833333333344,-0.1
9.472,0.2541666666666662,-1.3729166666666668,-0.1
9.48,0.23749999999999769,-1.381250000000001,-0.1
9.488,0.22083333333333288,-1.3895833333333334,-0.1
9.496,0.20416666666666436,-1.3979166666666678,-0.1
9.504,0.6600000000000035,-1.420000000000007,-0.33999999999999647
9.512,0.6,-1.6,-0.6
9.52,0.6727272727272697,-1.5272727272727302,-0.6
9.528,0.7151515151515173,-1.5,-0.5924242424242413
9.536,0.7393939393939386,-1.5,-0.5803030303030307
9.544,0.7636363636363653,-1.5,-0.5681818181818173
9.552,0.7878787878787866,-1.5,-0.5560606060606067
9.56,0.8121212121212134,-1.5,-0.5439393939393933
9.568,0.8363636363636346,-1.5,-0.5318181818181826
9.576,0.8606060606060614,-1.5,-0.5196969696969693
9.584,0.8848484848484827,-1.5,-0.5075757575757587
9.592,0.9,-1.5600000000000143,-0.5600000000000142
9.6,1.1010638297872335,-1.7,-0.7
9.608,1.109574468085107,-1.7,-0.7
9.616,1.1180851063829784,-1.7,-0.7
9.624,1.1265957446808517,-1.7,-0.7
9.632,1.1351063829787231,-1.7,-0.7
9.64,1.1436170212765964,-1.7,-0.7
9.648,1.1521276595744678,-1.7,-0.7
9.656,1.1606382978723413,-1.7,-0.7
9.664,1.1691489361702128,-1.7,-0.7
9.672,1.177659574468086,-1.7,-0.7
9.68,1.1861702127659575,-1.7,-0.7
9.688,1.1946808510638307,-1.7,-0.7
9.696,1.3,-1.8,-0.5
9.704,1.308695652173916,-1.795652173913042,-0.4
9.712,1.32608695652174,-1.78695652173913,-0.4
9.72,1.343478260869568,-1.778260869565216,-0.4
9.728,1.360869565217392,-1.7695652173913041,-0.4
9.736,1.3782608695652199,-1.76086956521739,-0.4
9.744,1.395652173913044,-1.752173913043478,-0.4
9.752,1.4130434782608718,-1.743478260869564,-0.4
9.76,1.430434782608696,-1.734782608695652,-0.4
9.768,1.4478260869565238,-1.726086956521738,-0.4
9.776,1.465217391304348,-1.717391304347826,-0.4
9.784,1.482608695652176,-1.708695652173912,-0.4
9.792,1.5,-1.7,-0.4
9.8,1.4009615384615395,-1.6009615384615397,-0.4
9.808,1.4086538461538463,-1.6086538461538464,-0.4
9.816,1.4163461538461548,-1.616346153846155,-0.4
9.824,1.4240384615384616,-1.6240384615384618,-0.4
9.832,1.4317307692307701,-1.63173076923077,-0.4
9.84,1.439423076923077,-1.6394230769230769,-0.4
9.848,1.4471153846153852,-1.6471153846153854,-0.4
9.856,1.454807692307692,-1.6548076923076922,-0.4
9.864,1.4625000000000006,-1.6625000000000005,-0.4
9.872,1.4701923076923074,-1.6701923076923073,-0.4
9.88,1.477884615384616,-1.6778846153846159,-0.4
9.888,1.4855769230769227,-1.6855769230769226,-0.4
9.896,1.4932692307692312,-1.6932692307692312,-0.4
9.904,1.4,-1.7,-0.45
9.912,1.4,-1.676470588235288,-0.523529411764712
9.92,1.4,-1.6294117647058848,-0.5705882352941152
9.928,1.395454545454545,-1.6,-0.6
9.936,1.3833333333333342,-1.6,-0.6
9.944,1.3712121212121204,-1.6,-0.6
9.952,1.3590909090909096,-1.6,-0.6
9.96,1.3469696969696958,-1.6,-0.6
9.968,1.334848484848485,-1.6,-0.6
9.976,1.3227272727272712,-1.6,-0.6
9.984,1.3106060606060603,-1.6,-0.6
9.992,1.2333333333332543,-1.5666666666666273,-0.6333333333333728
10.0,0.7,-1.3,-0.6
10.008000000000001,0.4,-1.1934782608695649,-0.4
10.016,0.4,-1.1847826086956526,-0.4
10.024000000000001,0.4,-1.1760869565217384,-0.4
10.032,0.4,-1.1673913043478263,-0.4
10.040000000000001,0.4,-1.1586956521739122,-0.4
10.048,0.4,-1.15,-0.4
10.056000000000001,0.4,-1.1413043478260858,-0.4
10.064,0.4,-1.1326086956521737,-0.4
10.072000000000001,0.4,-1.1239130434782596,-0.4
10.08,0.4,-1.1152173913043475,-0.4
10.088000000000001,0.4,-1.1065217391304332,-0.4
10.096,0.7,-0.9,-0.4
10.104000000000001,0.5967032967032966,-0.693406593406593,-0.30329670329670344
10.112,0.5879120879120886,-0.6758241758241773,-0.3120879120879113
10.120000000000001,0.5791208791208788,-0.6582417582417576,-0.3208791208791212
10.128,0.570329670329671,-0.6406593406593418,-0.32967032967032905
10.136000000000001,0.5615384615384611,-0.6230769230769222,-0.3384615384615389
10.144,0.5527472527472532,-0.6054945054945063,-0.3472527472527468
10.152000000000001,0.5439560439560434,-0.5879120879120867,-0.35604395604395667
10.16,0.5351648351648355,-0.570329670329671,-0.36483516483516454
10.168000000000001,0.5263736263736256,-0.5527472527472512,-0.3736263736263744
10.176,0.5175824175824177,-0.5351648351648355,-0.3824175824175823
10.184000000000001,0.5087912087912079,-0.5175824175824157,-0.39120879120879215
10.192,0.5,-0.5,-0.4
10.200000000000001,0.20188679245283084,-0.4,-0.2
10.208,0.20943396226415076,-0.4,-0.2
10.216000000000001,0.21698113207547237,-0.4,-0.2
10.224,0.2245283018867923,-0.4,-0.2
10.232000000000001,0.2320754716981139,-0.4,-0.2
10.24,0.23962264150943385,-0.4,-0.2
10.248,0.24716981132075377,-0.4,-0.2
10.256,0.25471698113207536,-0.4,-0.2
10.264,0.2622641509433953,-0.4,-0.2
10.272,0.2698113207547169,-0.4,-0.2
10.28,0.27735849056603684,-0.4,-0.2
10.288,0.2849056603773584,-0.4,-0.2
10.296,0.2924528301886784,-0.4,-0.2
10.304,0.3,-0.4,-0.2
10.312,-0.22499999999998332,-0.3,-0.1
10.32,-0.3,-0.3,-0.05384615384615175
10.328,-0.2500000000000444,-0.2500000000000444,0.0
10.336,-0.1784615384615393,-0.18923076923076967,0.0
10.344,-0.1538461538461572,-0.17692307692307863,0.0
10.352,-0.12923076923076965,-0.16461538461538483,0.0
10.36,-0.10461538461538757,-0.15230769230769378,0.0
10.368,-0.08,-0.14,0.0
10.376,-0.05538461538461792,-0.12769230769230897,0.0
10.384,-0.030769230769230355,-0.11538461538461518,0.0
10.392,-0.006153846153848258,-0.10307692307692413,0.0
10.4,0.05000000000004441,0.15000000000004443,-0.05000000000004441
10.408,0.10813953488372052,0.2,-0.1
10.416,0.11744186046511688,0.2,-0.1
10.424,0.12674418604651116,0.2,-0.1
10.432,0.13604651162790754,0.2,-0.1
10.44,0.14534883720930183,0.2,-0.1
10.448,0.15465116279069818,0.2,-0.1
10.456,0.16395348837209248,0.2,-0.1
10.464,0.17325581395348882,0.2,-0.1
10.472,0.18255813953488315,0.2,-0.1
10.48,0.1918604651162795,0.2,-0.1
10.488,0.2,0.2166666666666568,-0.08333333333334321
10.496,0.3,0.0,0.0
10.504,0.2865168539325838,0.2,0.1067415730337081
10.512,0.26853932584269424,0.2,0.11573033707865288
10.52,0.2505617977528087,0.2,0.12471910112359566
10.528,0.2325842696629191,0.2,0.13370786516854044
10.536,0.21460674157303353,0.2,0.14269662921348325
10.544,0.19662921348314394,0.2,0.15168539325842803
10.552,0.17865168539325837,0.2,0.1606741573033708
10.56,0.16067415730336881,0.2,0.1696629213483156
10.568,0.14269662921348322,0.2,0.17865168539325837
10.576,0.12471910112359366,0.2,0.18764044943820318
10.584,0.1067415730337081,0.2,0.19662921348314594
10.592,-0.20000000000000007,0.3,0.1
10.6,-0.6519607843137278,0.09313725490196113,0.8
10.608,-0.5970588235294081,0.08529411764705831,0.8
10.616,-0.5421568627451007,0.07745098039215724,0.8
10.624,-0.4872549019607809,0.06960784313725443,0.8
10.632,-0.43235294117647344,0.06176470588235335,0.8
10.64,-0.37745098039215375,0.05392156862745054,0.8
10.648,-0.3225490196078462,0.046078431372549467,0.8
10.656,-0.2676470588235265,0.03823529411764665,0.8
10.664,-0.21274509803921904,0.030392156862745573,0.8
10.672,-0.1578431372548993,0.022549019607842766,0.8
10.68,-0.10294117647059187,0.014705882352941693,0.8
10.688,-0.04803921568627212,0.006862745098038872,0.8
10.696,0.1,0.0,1.0
10.704,0.24285714285715645,-0.22857142857145032,0.9142857142857062
10.712,0.38571428571428124,-0.4571428571428499,0.8285714285714313
10.72,0.5285714285714377,-0.6857142857143003,0.7428571428571373
10.728,0.09833333333333427,-0.19833333333333428,0.20499999999999718
10.736,0.08499999999999956,-0.18499999999999955,0.24500000000000133
10.744,0.07166666666666781,-0.1716666666666678,0.2849999999999966
10.752,0.05833333333333309,-0.1583333333333331,0.32500000000000073
10.76,0.04500000000000133,-0.14500000000000135,0.364999999999996
10.768,0.03166666666666662,-0.13166666666666663,0.40500000000000014
10.776,0.018333333333334867,-0.11833333333333487,0.4449999999999954
10.784,0.005000000000000143,-0.10500000000000015,0.48499999999999954
10.792,0.0,-0.1,0.6111111111111067
10.8,-0.2,0.2,0.8
10.808,-0.3669724770642189,0.42201834862385407,0.4834862385321095
10.816,-0.32293577981650756,0.45137614678899496,0.46146788990825377
10.824,-0.278899082568806,0.48073394495412936,0.439449541284403
10.832,-0.23486238532109463,0.5100917431192703,0.4174311926605473
10.84,-0.19082568807339303,0.5394495412844047,0.3954128440366965
10.848,-0.1467889908256817,0.5688073394495455,0.37339449541284087
10.856,-0.1027522935779801,0.5981651376146799,0.3513761467889901
10.864,-0.05871559633026874,0.6275229357798209,0.3293577981651344
10.872,-0.014678899082567143,0.6568807339449552,0.30733944954128356
10.88,0.029357798165144222,0.6862385321100961,0.2853211009174279
10.888,0.07339449541284582,0.7155963302752305,0.26330275229357714
10.896,0.11743119266055713,0.7449541284403715,0.24128440366972143
10.904,0.16146788990825878,0.7743119266055059,0.21926605504587066
10.912,0.09999999999986678,0.9250000000001666,0.1749999999999667
10.92,-0.2,1.0,0.1
10.928,-0.2,0.8945054945054819,0.1615384615384689
10.936,-0.2,0.7890109890109872,0.22307692307692414
10.944,-0.2,0.6835164835164691,0.28461538461539304
10.952,-0.2,0.5780219780219744,0.34615384615384825
10.96,-0.2,0.4725274725274563,0.40769230769231724
10.968,-0.2,0.3670329670329616,0.46923076923077245
10.976,-0.2,0.2615384615384435,0.5307692307692413
10.984,-0.2,0.15604395604394883,0.5923076923076965
10.992,-0.2,0.05054945054943072,0.6538461538461654
11.0,-0.2,-0.054945054945063854,0.7153846153846207
11.008000000000001,-0.2,-0.16043956043958207,0.7769230769230896
11.016,-0.2,-0.8,0.3
11.024000000000001,-0.19285714285714256,-0.07142857142857023,-0.22857142857142979
11.032,-0.18333333333333404,-0.03333333333333616,-0.26666666666666383
11.040000000000001,-0.17380952380952341,0.004761904761906369,-0.30476190476190634
11.048,-0.1642857142857149,0.04285714285714046,-0.3428571428571404
11.056000000000001,-0.15476190476190427,0.08095238095238297,-0.38095238095238293
11.064,-0.14523809523809575,0.11904761904761704,-0.419047619047617
11.072000000000001,-0.13571428571428512,0.15714285714285955,-0.4571428571428595
11.08,-0.1261904761904766,0.19523809523809363,-0.4952380952380936
11.088000000000001,-0.11666666666666596,0.2333333333333362,-0.5333333333333361
11.096,-0.10714285714285746,0.27142857142857024,-0.5714285714285702
11.104000000000001,-0.06363636363634896,0.2818181818181745,-0.6545454545454765
11.112,0.08181818181819064,0.20909090909090472,-0.8727272727272859
11.120000000000001,0.1999999999999556,-0.8000000000000889,0.500000000000111
11.128,-0.13939393939392625,-1.1030303030303121,0.9151515151515232
11.136000000000001,-0.41818181818184064,-0.9090909090908934,0.7454545454545318
11.144,-0.6969696969696931,-0.7151515151515178,0.5757575757575781
11.152000000000001,-0.9757575757576075,-0.5212121212120989,0.4060606060605867
11.16,-1.25454545454546,-0.3272727272727233,0.236363636363633
11.168000000000001,-1.5333333333333743,-0.13333333333330444,0.06666666666664156
11.176,-1.812121212121227,0.06060606060607121,-0.10303030303031213
11.184000000000001,-2.0909090909091415,0.25454545454548994,-0.27272727272730357
11.192,0.8999999999999999,0.0,-3.9
11.200000000000001,0.7000000000000888,-0.10000000000044407,-0.3500000000000444
11.208,0.7430232558139563,-0.5593023255813974,-0.383720930232559
11.216000000000001,0.6779069767441819,-0.5127906976744155,-0.36511627906976624
11.224,0.6127906976744218,-0.46627906976744415,-0.34651162790697765
11.232000000000001,0.5476744186046474,-0.41976744186046233,-0.32790697674418495
11.24,0.4825581395348873,-0.37325581395349083,-0.30930232558139636
11.248000000000001,0.4174418604651128,-0.32674418604650907,-0.29069767441860367
11.256,0.35232558139535275,-0.2802325581395376,-0.2720930232558151
11.264,0.2872093023255927,-0.23372093023256613,-0.2534883720930265
11.272,0.22209302325581814,-0.18720930232558436,-0.23488372093023377
11.28,0.15697674418605811,-0.14069767441861292,-0.21627906976744518
11.288,-0.19999999999999998,0.05000000000000002,0.04999999999999999
11.296,0.15999999999995737,-0.04000000000004264,-0.02000000000002132
11.304,0.192553191489362,-0.007446808510637996,0.0
11.312,0.18404255319149054,-0.015957446808509454,0.0
11.32,0.17553191489361722,-0.0244680851063828,0.0
11.328,0.16702127659574575,-0.032978723404254257,0.0
11.336,0.1585106382978724,-0.0414893617021276,0.0
11.344,0.15000000000000097,-0.04999999999999906,0.0
11.352,0.14148936170212761,-0.058510638297872404,0.0
11.36,0.13297872340425615,-0.06702127659574386,0.0
11.368,0.12446808510638281,-0.0755319148936172,0.0
11.376,0.11595744680851135,-0.08404255319148866,0.0
11.384,0.10744680851063801,-0.092553191489362,0.0
11.392,8.881784197001252e-14,-0.1499999999999556,-0.049999999999955594
11.4,0.19813084112149473,-0.1,-0.1
11.408,0.19065420560747695,-0.1,-0.1
11.416,0.18317757009345748,-0.1,-0.1
11.424,0.1757009345794397,-0.1,-0.1
11.432,0.16822429906542025,-0.1,-0.1
11.44,0.16074766355140246,-0.1,-0.1
11.448,0.15327102803738302,-0.1,-0.1
11.456,0.1457943925233652,-0.1,-0.1
11.464,0.13831775700934576,-0.1,-0.1
11.472,0.13084112149532795,-0.1,-0.1
11.48,0.12336448598130852,-0.1,-0.1
11.488,0.11588785046729072,-0.1,-0.1
11.496,0.10841121495327127,-0.1,-0.1
11.504,0.10093457943925348,-0.1,-0.1
11.512,0.0,0.0,-0.0026315789473692823
11.52,0.0,0.0,-0.013157894736841737
11.528,0.0,0.0,-0.02368421052631653
11.536,0.0,0.0,-0.03421052631578898
11.544,0.0,0.0,-0.044736842105263776
11.552,0.0,0.0,-0.05526315789473623
11.56,0.0,0.0,-0.06578947368421102
11.568,0.0,0.0,-0.07631578947368348
11.576,0.0,0.0,-0.08684210526315826
11.584,0.0,0.0,-0.09736842105263073
11.592,0.0,0.0,-0.1
11.6,0.09882697947214142,-0.0005865102639292949,-0.0005865102639292949
11.608,0.09413489736070393,-0.0029325513196480375,-0.0029325513196480375
11.616,0.08944281524926749,-0.005278592375366259,-0.005278592375366259
11.624,0.08475073313783,-0.007624633431085002,-0.007624633431085002
11.632,0.08005865102639356,-0.009970674486803223,-0.009970674486803223
11.64,0.07536656891495608,-0.012316715542521966,-0.012316715542521966
11.648,0.07067448680351963,-0.014662756598240187,-0.014662756598240187
11.656,0.06598240469208214,-0.01700879765395893,-0.01700879765395893
11.664,0.0612903225806457,-0.019354838709677153,-0.019354838709677153
11.672,0.056598240469208215,-0.021700879765395895,-0.021700879765395895
11.68,0.05190615835777177,-0.024046920821114117,-0.024046920821114117
11.688,0.04721407624633429,-0.02639296187683286,-0.02639296187683286
11.696,0.04252199413489784,-0.02873900293255108,-0.02873900293255108
11.704,0.03782991202346036,-0.031085043988269823,-0.031085043988269823
11.712,0.03313782991202391,-0.03343108504398805,-0.03343108504398805
11.72,0.028445747800586424,-0.03577712609970679,-0.03577712609970679
11.728,0.02375366568914998,-0.03812316715542501,-0.03812316715542501
11.736,0.019061583577712496,-0.040469208211143755,-0.040469208211143755
11.744,0.014369501466276052,-0.04281524926686198,-0.04281524926686198
11.752,0.009677419354838568,-0.04516129032258072,-0.04516129032258072
11.76,0.004985337243402124,-0.04750733137829894,-0.04750733137829894
11.768,0.0002932551319646398,-0.04985337243401768,-0.04985337243401768
11.776,-0.004398826979471804,-0.052199413489735905,-0.052199413489735905
11.784,-0.009090909090909288,-0.05454545454545465,-0.05454545454545465
11.792,-0.013782991202345732,-0.05689149560117287,-0.05689149560117287
11.8,-0.018475073313783216,-0.05923753665689161,-0.05923753665689161
11.808,-0.02316715542521966,-0.06158357771260983,-0.06158357771260983
11.816,-0.027859237536657144,-0.06392961876832857,-0.06392961876832857
11.824,-0.032551319648093574,-0.06627565982404679,-0.06627565982404679
11.832,-0.03724340175953106,-0.06862170087976553,-0.06862170087976553
11.84,-0.041935483870967516,-0.07096774193548376,-0.07096774193548376
11.848,-0.046627565982405,-0.0733137829912025,-0.0733137829912025
11.856,-0.05131964809384143,-0.07565982404692072,-0.07565982404692072
11.864,-0.05601173020527894,-0.07800586510263947,-0.07800586510263947
11.872,-0.06070381231671537,-0.08035190615835769,-0.08035190615835769
11.88,-0.06539589442815286,-0.08269794721407643,-0.08269794721407643
11.888,-0.07008797653958931,-0.08504398826979466,-0.08504398826979466
11.896,-0.0747800586510268,-0.0873900293255134,-0.0873900293255134
11.904,-0.07947214076246323,-0.08973607038123162,-0.08973607038123162
11.912,-0.08416422287390071,-0.09208211143695036,-0.09208211143695036
11.92,-0.08885630498533717,-0.09442815249266859,-0.09442815249266859
11.928,-0.09354838709677465,-0.09677419354838733,-0.09677419354838733
11.936,-0.09824046920821108,-0.09912023460410554,-0.09912023460410554
11.944,0.9,0.5,0.1
11.952,0.367058823529413,0.2670588235294129,0.08352941176470648
11.96,0.3294117647058789,0.22941176470587887,0.06470588235293945
11.968,0.29176470588235326,0.19176470588235323,0.04588235294117662
11.976,0.25411764705881923,0.15411764705881917,0.027058823529409595
11.984,0.21647058823529353,0.11647058823529349,0.008235294117646758
11.992,0.1788235294117595,0.07882352941175946,-0.010588235294120257
12.0,0.1411764705882338,0.04117647058823376,-0.02941176470588311
12.008000000000001,0.10352941176469976,0.0035294117646997303,-0.048235294117650124
12.016,0.06588235294117412,-0.03411764705882592,-0.06705882352941295
12.024000000000001,0.02823529411764003,-0.07176470588236,-0.08588235294117999
12.032,-0.1,-0.1,-0.05
12.040000000000001,-0.10000000000000231,-0.1,0.0
12.048,-0.11038961038961133,-0.1,0.0
12.056000000000001,-0.12077922077922265,-0.1,0.0
12.064,-0.13116883116883166,-0.1,0.0
12.072000000000001,-0.141558441558443,-0.1,0.0
12.08,-0.151948051948052,-0.1,0.0
12.088000000000001,-0.1623376623376633,-0.1,0.0
12.096,-0.17272727272727234,-0.1,0.0
12.104000000000001,-0.18311688311688362,-0.1,0.0
12.112,-0.19350649350649266,-0.1,0.0
12.120000000000001,-3.5527136787999456e-14,3.5527136787999456e-14,0.0
12.128,-0.10217391304347898,0.10217391304347898,0.0
12.136000000000001,-0.11086956521739295,0.11086956521739295,0.0
12.144,-0.11956521739130499,0.11956521739130499,0.0
12.152000000000001,-0.12826086956521895,0.12826086956521895,0.0
12.16,-0.13695652173913098,0.13695652173913098,0.0
12.168000000000001,-0.14565217391304497,0.14565217391304497,0.0
12.176,-0.154347826086957,0.154347826086957,0.0
12.184000000000001,-0.16304347826087096,0.16304347826087096,0.0
12.192,-0.171739130434783,0.171739130434783,0.0
12.200000000000001,-0.18043478260869697,0.18043478260869697,0.0
12.208,-0.189130434782609,0.189130434782609,0.0
12.216000000000001,-0.19782608695652298,0.19782608695652298,0.0
12.224,-0.14000000000000712,0.4199999999999858,0.0
12.232000000000001,-0.12666666666667456,0.49333333333330176,0.0
12.24,-0.18,0.27999999999999997,0.0
12.248000000000001,-0.2,0.2833333333333432,0.0
12.256,-0.10588235294117847,0.6,-0.002941176470589234
12.264000000000001,-0.1294117647058871,0.6,-0.014705882352943558
12.272,-0.15294117647059052,0.6,-0.02647058823529527
12.280000000000001,-0.17647058823529918,0.6,-0.038235294117649594
12.288,-0.20000000000000262,0.6,-0.05000000000000131
12.296,-0.22352941176470603,0.6,-0.06176470588235302
12.304,-0.24705882352941466,0.6,-0.07352941176470734
12.312,-0.27058823529411813,0.6,-0.08529411764705906
12.32,-0.2941176470588267,0.6,-0.09705882352941338
12.328,-0.3500000000000222,0.7,-0.1
12.336,-0.3,0.7545454545454604,-0.1
12.344,-0.305263157894737,0.8,-0.1
12.352,-0.31929824561403675,0.8,-0.1
12.36,-0.3333333333333333,0.8,-0.1
12.368,-0.34736842105263305,0.8,-0.1
12.376,-0.36140350877192967,0.8,-0.1
12.384,-0.3754385964912294,0.8,-0.1
12.392,-0.389473684210526,0.8,-0.1
12.4,-0.6,0.8,-0.1
12.408,-0.6891891891891904,0.9,-0.1945945945945952
12.416,-0.6675675675675662,0.9,-0.18378378378378316
12.424,-0.6459459459459469,0.9,-0.1729729729729735
12.432,-0.6243243243243228,0.9,-0.16216216216216145
12.44,-0.6027027027027035,0.9,-0.1513513513513518
12.448,-0.5810810810810795,0.9,-0.14054054054053977
12.456,-0.5594594594594602,0.9,-0.12972972972973013
12.464,-0.5378378378378361,0.9,-0.11891891891891809
12.472,-0.5162162162162168,0.9,-0.10810810810810845
12.48,-0.7500000000000444,0.8,-0.1
12.488,-0.7,0.8823529411764703,-0.11764705882352973
12.496,-0.7,0.8588235294117623,-0.14117647058823776
12.504,-0.7,0.8352941176470595,-0.16470588235294056
12.512,-0.7,0.8117647058823514,-0.1882352941176486
12.52,-0.9,0.6000000000000888,-0.2500000000000444
12.528,-0.7927710843373492,0.3855421686746983,-0.30722891566265087
12.536,-0.7831325301204828,0.3662650602409655,-0.31686746987951725
12.544,-0.7734939759036142,0.34698795180722847,-0.3265060240963858
12.552,-0.7638554216867478,0.3277108433734957,-0.3361445783132522
12.56,-0.7542168674698793,0.3084337349397586,-0.3457831325301207
12.568,-0.7445783132530129,0.28915662650602586,-0.3554216867469871
12.576,-0.7349397590361444,0.2698795180722888,-0.3650602409638556
12.584,-0.725301204819278,0.25060240963855607,-0.374698795180722
12.592,-0.7156626506024094,0.23132530120481898,-0.3843373493975905
12.6,-0.7060240963855431,0.2120481927710862,-0.3939759036144569
12.608,-0.6,0.2,-0.5
12.616,-0.663636363636365,0.1636363636363651,-0.33636363636363487
12.624,-0.5970149253731306,0.1,-0.40298507462686933
12.632,-0.573134328358208,0.1,-0.426865671641792
12.64,-0.54925373134328,0.1,-0.45074626865671996
12.648,-0.5253731343283573,0.1,-0.4746268656716427
12.656,-0.5014925373134294,0.1,-0.49850746268657065
12.664,-0.4776119402985067,0.1,-0.5223880597014934
12.672,-0.45373134328357867,0.1,-0.5462686567164213
12.68,-0.42985074626865605,0.1,-0.570149253731344
12.688,-0.40597014925372804,0.1,-0.594029850746272
12.696,-0.12857142857143944,0.1,-0.5
12.704,0.2,-0.3,-0.6978260869565209
12.712,0.2,-0.3,-0.6891304347826089
12.72,0.2,-0.3,-0.6804347826086949
12.728,0.2,-0.3,-0.671739130434783
12.736,0.2,-0.3,-0.663043478260869
12.744,0.2,-0.3,-0.654347826086957
12.752,0.2,-0.3,-0.645652173913043
12.76,0.2,-0.3,-0.636956521739131
12.768,0.2,-0.3,-0.628260869565217
12.776,0.2,-0.3,-0.619565217391305
12.784,0.2,-0.3,-0.610869565217391
12.792,0.2,-0.3,-0.602173913043479
12.8,0.2400000000000071,-0.8,-0.4599999999999929
12.808,0.3,-0.8,-0.39444444444444554
12.816,0.3,-0.8,-0.38555555555555565
12.824,0.3,-0.8,-0.37666666666666776
12.832,0.3,-0.8,-0.3677777777777778
12.84,0.3,-0.8,-0.3588888888888899
12.848,0.3,-0.8,-0.35
12.856,0.3,-0.8,-0.3411111111111121
12.864,0.3,-0.8,-0.3322222222222222
12.872,0.3,-0.8,-0.32333333333333425
12.88,0.3,-0.8,-0.31444444444444436
12.888,0.3,-0.8,-0.3055555555555564
12.896,0.1,-1.0,-0.2
12.904,0.004807692307693014,-0.7,-0.004807692307693014
12.912,0.012500000000001496,-0.7,-0.012500000000001496
12.92,0.02019230769230827,-0.7,-0.02019230769230827
12.928,0.02788461538461675,-0.7,-0.02788461538461675
12.936,0.035576923076923526,-0.7,-0.035576923076923526
12.944,0.043269230769232,-0.7,-0.043269230769232
12.952,0.05096153846153878,-0.7,-0.05096153846153878
12.96,0.05865384615384726,-0.7,-0.05865384615384726
12.968,0.06634615384615403,-0.7,-0.06634615384615403
12.976,0.07403846153846251,-0.7,-0.07403846153846251
12.984,0.08173076923076929,-0.7,-0.08173076923076929
12.992,0.08942307692307777,-0.7,-0.08942307692307777
13.0,0.09711538461538455,-0.7,-0.09711538461538455
13.008000000000001,0.1,-0.628571428571414,-0.1
13.016,0.1,-0.3166666666666568,-0.0583333333333284
13.024000000000001,0.1,-0.1499999999999556,0.0
13.032,0.1,-0.1,0.0
13.040000000000001,0.1,-0.1,0.0
13.048,0.1,-0.1,0.0
13.056000000000001,0.1,-0.1,0.0
13.064,0.1,-0.1,0.0
13.072000000000001,0.1,-0.1,0.0
13.08,0.1,-0.1,0.0
13.088000000000001,0.1,-0.1,0.0
13.096,0.1,-0.1,0.0
13.104000000000001,0.2,0.1,0.09545454545454399
13.112,0.2,0.1,0.086363636363636
13.120000000000001,0.2,0.1,0.077272727272726
13.128,0.2,0.1,0.068181818181818
13.136000000000001,0.2,0.1,0.05909090909090799
13.144,0.2,0.1,0.049999999999999996
13.152000000000001,0.2,0.1,0.04090909090908999
13.16,0.2,0.1,0.031818181818181995
13.168000000000001,0.2,0.1,0.022727272727271985
13.176,0.2,0.1,0.013636363636364002
13.184000000000001,0.2,0.1,0.004545454545453992
13.192,0.1,0.1,0.0
13.200000000000001,-0.004854368932039606,0.0,-0.0951456310679604
13.208,-0.012621359223300904,0.0,-0.0873786407766991
13.216000000000001,-0.02038834951456393,0.0,-0.07961165048543607
13.224,-0.028155339805825227,0.0,-0.07184466019417478
13.232000000000001,-0.03592233009708825,0.0,-0.06407766990291175
13.24,-0.04368932038834955,0.0,-0.056310679611650455
13.248000000000001,-0.05145631067961257,0.0,-0.04854368932038743
13.256,-0.059223300970873874,0.0,-0.04077669902912613
13.264000000000001,-0.0669902912621369,0.0,-0.0330097087378631
13.272,-0.0747572815533982,0.0,-0.02524271844660181
13.280000000000001,-0.08252427184466123,0.0,-0.01747572815533878
13.288,-0.09029126213592252,0.0,-0.009708737864077485
13.296000000000001,-0.09805825242718555,0.0,-0.0019417475728144562
13.304,0.7,0.30000000000000004,0.39999999999999997
