accel_time_list,accel_x_list,accel_y_list,accel_z_list
0.0,0.9,4.1,9.7
0.007999224806201551,0.7848523999686791,3.587881919974943,9.075763839949886
0.015998449612403102,0.7444522746848329,3.5555618197478664,9.011123639495732
0.023997674418604655,0.7040521494009866,3.5232417195207892,8.946483439041579
0.031996899224806204,0.6636520241171404,3.4909216192937125,8.881843238587425
0.03999612403100775,0.6232518988332942,3.4586015190666353,8.81720303813327
0.04799534883720931,0.582851773549448,3.4262814188395585,8.752562837679116
0.05599457364341086,0.5424516482656017,3.3939613186124813,8.687922637224963
0.06399379844961241,0.5020515229817555,3.3616412183854045,8.62328243677081
0.07199302325581396,0.46165139769790936,3.3293211181583278,8.558642236316656
0.0799922480620155,0.4212512724140631,3.2970010179312506,8.4940020358625
0.08799147286821705,0.3808511471302169,3.264680917704174,8.429361835408347
0.09599069767441862,0.34045102184637066,3.2323608174770966,8.364721634954194
0.10398992248062017,0.3000508965625244,3.20004071725002,8.30008143450004
0.11198914728682172,1.0958123215014282,3.597906160750714,9.197906160750714
0.11998837209302327,1.0789718482252142,3.589485924112607,9.189485924112606
0.12798759689922481,1.0621313749490005,3.5810656874745,9.181065687474499
0.13598682170542636,1.0452909016727867,3.572645450836393,9.172645450836393
0.1439860465116279,1.028450428396573,3.5642252141982866,9.164225214198286
0.15198527131782946,1.011609955120359,3.5558049775601797,9.155804977560178
0.159984496124031,0.9947694818441453,3.5473847409220727,9.147384740922073
0.16798372093023256,0.9779290085679315,3.5389645042839657,9.138964504283965
0.1759829457364341,0.9610885352917177,3.5305442676458587,9.130544267645858
0.18398217054263566,0.9442480620155039,3.5221240310077517,9.122124031007752
0.19198139534883724,0.9274075887392901,3.513703794369645,9.113703794369645
0.19998062015503879,0.9105671154630762,3.505283557731538,9.105283557731537
0.20797984496124033,0.8530232558139483,3.8,8.8
0.21597906976744188,0.7966841085271318,3.406631782945736,9.090052325581395
0.22397829457364343,0.7900180878552971,3.4199638242894057,9.070054263565892
0.23197751937984498,0.7833520671834625,3.4332958656330748,9.050056201550387
0.23997674418604653,0.7766860465116279,3.4466279069767443,9.030058139534884
0.24797596899224808,0.7700200258397932,3.4599599483204133,9.01006007751938
0.25597519379844963,0.7633540051679587,3.473291989664083,8.990062015503876
0.2639744186046512,0.756687984496124,3.486624031007752,8.970063953488372
0.27197364341085273,0.7500219638242894,3.4999560723514214,8.95006589147287
0.2799728682170543,0.7433559431524548,3.5132881136950904,8.930067829457364
0.2879720930232558,0.7366899224806202,3.52662015503876,8.910069767441861
0.2959713178294574,0.7300239018087855,3.539952196382429,8.890071705426356
0.3039705426356589,0.7233578811369509,3.553284237726098,8.870073643410853
0.3119697674418605,0.7166918604651162,3.5666162790697675,8.85007558139535
0.319968992248062,0.7100258397932816,3.5799483204134366,8.830077519379845
0.3279682170542636,0.703359819121447,3.593280361757106,8.810079457364342
0.3359674418604651,0.6,3.40325581395349,8.404883720930235
0.3439666666666667,0.6514130434782608,2.5755797101449276,8.094601449275363
0.3519658914728682,0.5731597573306372,2.697307044152342,8.085906639703405
0.3599651162790698,0.494906471183013,2.8190343781597575,8.077211830131446
0.3679643410852713,0.4166531850353894,2.940761712167172,8.068517020559488
0.3759635658914729,0.3383998988877653,3.062489046174587,8.05982221098753
0.38396279069767447,0.26014661274014117,3.1842163801820025,8.05112740141557
0.391962015503876,0.18189332659251756,3.305943714189417,8.042432591843612
0.39996124031007757,0.10364004044489339,3.4276710481968324,8.033737782271654
0.4079604651162791,0.025386754297269776,3.549398382204247,8.025042972699696
0.41595968992248067,-0.05286653185035428,3.6711257162116624,8.016348163127738
0.4239589147286822,-0.1311198179979779,3.792853050219077,8.00765335355578
0.43195813953488377,-0.43953488372094296,4.187441860465132,8.095813953488378
0.4399573643410853,1.1079780361757108,-0.9031912144702843,8.101595607235142
0.44795658914728687,1.1746382428940574,-0.9298552971576229,8.114927648578812
0.4559558139534884,1.2412984496124033,-0.9565193798449614,8.12825968992248
0.46395503875968996,1.3079586563307497,-0.9831834625322999,8.14159173126615
0.4719542635658915,1.3746188630490959,-1.0098475452196383,8.154923772609818
0.47995348837209306,1.4412790697674422,-1.036511627906977,8.168255813953488
0.4879527131782946,1.5079392764857884,-1.0631757105943154,8.181587855297156
0.49595193798449616,1.5745994832041348,-1.089839793281654,8.194919896640826
0.5039511627906977,1.302941740589787,-0.5039223207863824,9.0
0.5119503875968993,1.3276816111244307,-0.5369088148325742,9.0
0.5199496124031008,1.3524214816590747,-0.5698953088787662,9.0
0.5279488372093024,1.377161352193719,-0.6028818029249584,9.0
0.5359480620155039,1.4019012227283627,-0.6358682969711502,9.0
0.5439472868217055,1.4266410932630067,-0.6688547910173421,9.0
0.551946511627907,1.4513809637976505,-0.701841285063534,9.0
0.5599457364341086,1.4761208343322947,-0.7348277791097263,9.0
0.5679449612403101,1.5008607048669387,-0.7678142731559181,9.0
0.5759441860465117,1.5256005754015827,-0.80080076720211,9.0
0.5839434108527132,1.5503404459362264,-0.8337872612483018,9.0
0.5919426356589148,1.5750803164708707,-0.8667737552944941,9.0
0.5999418604651163,1.5998201870055146,-0.899760249340686,9.0
0.6079410852713178,2.195090439276489,-2.692144702842382,8.600981912144702
0.6159403100775194,1.87779635920216,-2.8722454490027,8.12220364079784
0.623939534883721,1.841844787039456,-2.82730598379932,8.158155212960544
0.6319387596899225,1.8058932148767526,-2.7823665185959405,8.194106785123248
0.639937984496124,1.769941642714049,-2.7374270533925613,8.23005835728595
0.6479372093023257,1.7339900705513451,-2.692487588189181,8.266009929448655
0.6559364341085272,1.6980384983886416,-2.647548122985802,8.301961501611359
0.6639356589147287,1.6620869262259381,-2.602608657782423,8.337913073774061
0.6719348837209302,1.6261353540632346,-2.557669192579043,8.373864645936765
0.6799341085271319,1.5901837819005307,-2.5127297273756635,8.409816218099468
0.6879333333333334,1.5542322097378274,-2.467790262172284,8.445767790262172
0.6959325581395349,1.5182806375751237,-2.4228507969689046,8.481719362424876
0.7039317829457364,1.486356589147296,-3.1624806201550646,9.0
0.7119310077519381,1.8459776055124866,-5.408044788975027,8.353449612403095
0.7199302325581396,1.6682170542635641,-5.763565891472872,7.953488372093019
0.7279294573643411,1.5609547931537335,-5.880477396576867,7.795119349144216
0.7359286821705426,1.497594596668969,-5.8487972983344845,7.787199324583621
0.7439279069767443,1.4342344001842036,-5.817117200092102,7.779279300023025
0.7519271317829458,1.3708742036994392,-5.78543710184972,7.77135927546243
0.7599263565891473,1.3075140072146745,-5.753757003607338,7.763439250901834
0.7679255813953489,1.2441538107299093,-5.722076905364955,7.755519226341239
0.7759248062015505,1.1807936142451445,-5.690396807122572,7.747599201780643
0.783924031007752,1.1174334177603802,-5.65871670888019,7.739679177220047
0.7919232558139535,1.0540732212756154,-5.627036610637808,7.731759152659452
0.7999224806201551,0.9907130247908501,-5.595356512395425,7.723839128098857
0.8079217054263567,0.9273528283060856,-5.563676414153043,7.715919103538261
0.8159209302325582,0.863992631821321,-5.531996315910661,7.707999078977665
0.8239201550387597,0.8006324353365565,-5.500316217668278,7.70007905441707
0.8319193798449613,0.597410197619827,-7.4,7.6051796047603455
0.8399186046511629,0.5748771699967242,-7.4,7.650245660006552
0.8479178294573644,0.5523441423736214,-7.4,7.695311715252757
0.8559170542635659,0.5298111147505186,-7.4,7.740377770498963
0.8639162790697675,0.5072780871274154,-7.4,7.785443825745169
0.8719155038759691,0.4847450595043125,-7.4,7.830509880991375
0.8799147286821706,0.4622120318812097,-7.4,7.87557593623758
0.8879139534883721,0.4396790042581068,-7.4,7.9206419914837864
0.8959131782945737,0.41714597663500363,-7.4,7.9657080467299926
0.9039124031007753,0.5912403100775226,-8.260581395348852,8.286860465116284
0.9119116279069768,-1.593233175550525,-4.905075118337106,9.196616587775262
0.9199108527131784,-1.5649173355285722,-4.9263119983535715,9.182458667764285
0.9279100775193799,-1.5366014955066198,-4.947548878370036,9.168300747753308
0.9359093023255814,-1.5082856554846675,-4.9687857583865,9.154142827742334
0.943908527131783,-1.4799698154627152,-4.990022638402964,9.139984907731357
0.9519077519379846,-1.4516539754407625,-5.011259518419428,9.12582698772038
0.9599069767441861,-1.4233381354188102,-5.032496398435892,9.111669067709405
0.9679062015503876,-1.3950222953968578,-5.0537332784523565,9.097511147698429
0.9759054263565892,-1.3667064553749055,-5.074970158468821,9.083353227687452
0.9839046511627908,-1.3383906153529528,-5.096207038485286,9.069195307676477
0.9919038759689923,-1.3100747753310005,-5.11744391850175,9.0550373876655
0.9999031007751938,-1.2817589353090482,-5.138680798518214,9.040879467654523
1.0079023255813955,-1.2534430952870954,-5.159917678534678,9.026721547643547
1.015901550387597,-1.225127255265143,-5.1811545585511425,9.012563627632572
1.0239007751937985,-1.7404651162791047,-5.470232558139553,8.8198449612403
1.0319,-2.7572602739726024,-8.348082191780822,9.953424657534248
1.0398992248062016,-2.669597536370394,-8.446702771583308,10.063003079537008
1.047898449612403,-2.5819347987681853,-8.545323351385791,10.172581501539769
1.0558976744186048,-2.4942720611659746,-8.643943931188279,10.282159923542531
1.0638968992248063,-2.406609323563766,-8.742564510990762,10.391738345545292
1.0718961240310079,-2.3189465859615574,-8.841185090793248,10.501316767548053
1.0798953488372094,-2.231283848359349,-8.939805670595732,10.610895189550813
1.087894573643411,-2.1436211107571403,-9.038426250398217,10.720473611553574
1.0958937984496124,-2.0559583731549322,-9.1370468302007,10.830052033556335
1.103893023255814,-2.432093023255808,-5.608837209302314,11.019534883720917
1.1118922480620155,-1.9939654144305319,-4.628878950506861,9.76982707215266
1.1198914728682172,-1.7108527131782887,-4.205426356589144,8.259689922480588
1.1278906976744187,-1.9008097251585625,-4.6008097251585625,7.5
1.1358899224806203,-1.9080817477096548,-4.6080817477096545,7.5
1.1438891472868218,-1.915353770260747,-4.615353770260747,7.5
1.1518883720930233,-1.9226257928118393,-4.6226257928118395,7.5
1.1598875968992248,-1.9298978153629316,-4.6298978153629315,7.5
1.1678868217054263,-1.9371698379140239,-4.637169837914024,7.5
1.175886046511628,-1.9444418604651164,-4.6444418604651165,7.5
1.1838852713178296,-1.9517138830162086,-4.651713883016209,7.5
1.1918844961240311,-1.958985905567301,-4.658985905567301,7.5
1.1998837209302327,-1.9662579281183932,-4.666257928118394,7.5
1.2078829457364342,-1.9735299506694854,-4.673529950669486,7.5
1.2158821705426357,-1.9808019732205777,-4.680801973220578,7.5
1.2238813953488372,-1.9880739957716702,-4.688073995771671,7.5
1.2318806201550387,-1.9953460183227625,-4.695346018322763,7.5
1.2398798449612405,-2.156007751937981,-5.519961240310096,7.82199612403101
1.247879069767442,-2.2948588039867106,-6.9,7.884576411960133
1.2558782945736435,-2.2805744739756366,-6.9,7.84172342192691
1.263877519379845,-2.2662901439645626,-6.9,7.798870431893688
1.2718767441860466,-2.252005813953488,-6.9,7.756017441860465
1.279875968992248,-2.237721483942414,-6.9,7.713164451827242
1.2878751937984496,-2.2234371539313402,-6.9,7.67031146179402
1.2958744186046514,-2.2091528239202654,-6.9,7.627458471760796
1.3038736434108529,-2.2,-5.794224806201471,7.256317829457353
1.3118728682170544,-1.6,-5.6124907313784975,7.7049962925513995
1.319872093023256,-1.6,-5.64726996966633,7.718907987866532
1.3278713178294574,-1.6,-5.6820492079541625,7.732819683181665
1.335870542635659,-1.6,-5.716828446241996,7.746731378496799
1.3438697674418605,-1.6,-5.751607684529828,7.760643073811932
1.351868992248062,-1.6,-5.786386922817661,7.7745547691270644
1.3598682170542638,-1.6,-5.821166161105494,7.788466464442198
1.3678674418604653,-1.6,-5.8559453993933275,7.802378159757331
1.3758666666666668,-1.6,-5.89072463768116,7.816289855072465
1.3838658914728683,-1.6,-5.925503875968992,7.8302015503875975
1.3918651162790698,-1.6,-5.960283114256825,7.84411324570273
1.3998643410852714,-1.6,-5.995062352544658,7.858024941017864
1.4078635658914729,-1.6,-6.029841590832491,7.871936636332997
1.4158627906976746,-1.6,-6.064620829120324,7.8858483316481305
1.4238620155038761,-1.6,-6.099400067408157,7.899760026963263
1.4318612403100777,-2.1038665409595643,-5.2077330819191285,8.084533836161743
1.4398604651162792,-2.114676304211188,-5.229352608422376,8.041294783155248
1.4478596899224807,-2.1254860674628118,-5.2509721349256235,7.998055730148753
1.4558589147286822,-2.1362958307144355,-5.272591661428871,7.954816677142258
1.4638581395348838,-2.1471055939660593,-5.2942111879321185,7.911577624135763
1.4718573643410853,-2.157915357217683,-5.315830714435366,7.868338571129269
1.479856589147287,-2.168725120469307,-5.337450240938614,7.825099518122773
1.4878558139534885,-2.1795348837209305,-5.359069767441861,7.781860465116278
1.49585503875969,-2.1903446469725543,-5.3806892939451085,7.738621412109783
1.5038542635658916,-2.2,-5.570852713178338,7.614573643410831
1.511853488372093,-2.2761498708010346,-5.876149870801035,7.65229974160207
1.5198527131782946,-2.3836101882613527,-5.9,7.7
1.5278519379844961,-2.2961460297506804,-5.8,7.507707940498639
1.5358511627906979,-2.2853362664990566,-5.8,7.529327467001886
1.5438503875968994,-2.274526503247433,-5.8,7.550946993505134
1.551849612403101,-2.2637167399958096,-5.8,7.572566520008381
1.5598488372093025,-2.252906976744186,-5.8,7.594186046511629
1.567848062015504,-2.242097213492562,-5.8,7.6158055730148755
1.5758472868217055,-2.2312874502409383,-5.8,7.637425099518123
1.583846511627907,-2.220477686989315,-5.8,7.6590446260213705
1.5918457364341085,-2.2096679237376913,-5.8,7.680664152524618
1.5998449612403103,-2.2422480620155154,-5.842248062015515,7.868992248062061
1.6078441860465118,-2.3,-5.580843023255811,8.957470930232567
1.6158434108527133,-2.3102515979872162,-5.505125798993608,9.271761185910513
1.6238426356589148,-2.324285325717394,-5.512142662858697,9.36999728002176
1.6318418604651164,-2.3383190534475724,-5.5191595267237865,9.468233374133007
1.6398410852713179,-2.3523527811777503,-5.526176390588875,9.566469468244254
1.6478403100775194,-2.3663865089079286,-5.533193254453964,9.6647055623555
1.655839534883721,-2.380420236638107,-5.540210118319053,9.762941656466747
1.6638387596899227,-2.394453964368285,-5.547226982184142,9.861177750577998
1.6718379844961242,-2.4084876920984635,-5.554243846049231,9.959413844689244
1.6798372093023257,-2.4225214198286413,-5.561260709914321,10.057649938800491
1.6878364341085272,-2.4365551475588196,-5.56827757377941,10.155886032911738
1.6958356589147288,-2.450588875288998,-5.575294437644499,10.254122127022985
1.7038348837209303,-2.464622603019176,-5.582311301509588,10.352358221134232
1.7118341085271318,-2.478656330749354,-5.589328165374677,10.450594315245478
1.7198333333333335,-2.4926900584795324,-5.596345029239766,10.548830409356729
1.727832558139535,-3.1081395348837444,-10.000465116279013,9.200465116279013
1.7358317829457366,-3.3829205426356586,-9.129205426356588,8.406062984496122
1.7438310077519381,-3.362922480620155,-8.92922480620155,8.296073643410852
1.7518302325581396,-3.342924418604651,-8.729244186046511,8.18608430232558
1.7598294573643412,-3.3229263565891474,-8.529263565891473,8.07609496124031
1.7678286821705427,-3.3029282945736433,-8.329282945736434,7.966105620155039
1.7758279069767442,-3.2829302325581398,-8.129302325581396,7.856116279069767
1.783827131782946,-3.2629321705426353,-7.929321705426352,7.746126937984493
1.7918263565891475,-3.2429341085271313,-7.729341085271313,7.636137596899222
1.799825581395349,-3.2229360465116277,-7.529360465116275,7.526148255813951
1.8078248062015505,-3.2029379844961237,-7.329379844961236,7.41615891472868
1.815824031007752,1.012015503875984,-9.6087984496124,10.473604651162795
1.8238232558139535,2.3244215484250814,-8.71831616131881,7.510732999705619
1.831822480620155,2.3649239525071146,-8.748692964380336,7.196839368069862
1.8398217054263568,2.4054263565891487,-8.779069767441861,6.882945736434097
1.8478209302325583,2.445928760671182,-8.809446570503386,6.569052104798342
1.8558201550387599,2.4864311647532147,-8.839823373564911,6.255158473162585
1.8638193798449614,2.526933568835248,-8.870200176626435,5.941264841526829
1.871818604651163,2.567435972917281,-8.90057697968796,5.6273712098910735
1.8798178294573644,2.607938376999314,-8.930953782749485,5.313477578255317
1.887817054263566,2.648440781081347,-8.96133058581101,4.999583946619561
1.8958162790697675,2.6889431851633803,-8.991707388872536,4.685690314983805
1.9038155038759692,4.297054263566198,-9.763100775193855,-0.7834108527139589
1.9118147286821707,4.573263081395352,-9.718596576227387,-1.4302454780361802
1.9198139534883722,4.64825581395349,-9.635271317829456,-1.563565891472872
1.9278131782945738,4.72324854651163,-9.551946059431524,-1.696886304909564
1.9358124031007753,4.798241279069769,-9.468620801033591,-1.8302067183462558
1.9438116279069768,4.8732340116279085,-9.385295542635658,-1.9635271317829477
1.9518108527131783,4.948226744186047,-9.301970284237726,-2.0968475452196396
1.95981007751938,5.023219476744189,-9.218645025839791,-2.2301679586563354
1.9678093023255816,5.098212209302328,-9.135319767441858,-2.363488372093027
1.9758085271317831,5.173204941860467,-9.051994509043926,-2.496808785529719
1.9838077519379846,5.2481976744186065,-8.968669250645993,-2.6301291989664106
1.9918069767441862,5.323190406976746,-8.885343992248062,-2.763449612403103
1.9998062015503877,5.3981831395348845,-8.80201873385013,-2.8967700258397944
2.0078054263565894,5.6,-3.8,-7.021240310077525
2.015804651162791,5.6,-3.8,-7.115348837209307
2.0238038759689925,5.6,-3.8,-7.20945736434109
2.031803100775194,5.6,-3.8,-7.303565891472872
2.0398023255813955,5.6,-3.8,-7.397674418604655
2.047801550387597,5.6,-3.8,-7.491782945736437
2.0558007751937986,5.6,-3.8,-7.58589147286822
2.0638,5.6,-3.8,-7.680000000000002
2.0717992248062016,5.6,-3.8,-7.774108527131785
2.079798449612403,5.6,-3.8,-7.868217054263567
2.0877976744186046,5.6,-3.8,-7.9623255813953495
2.095796899224806,5.6,-3.8,-8.056434108527132
2.1037961240310077,5.6,-3.8,-8.150542635658915
2.1117953488372097,5.6,-3.8,-8.244651162790703
2.119794573643411,5.6,-3.8,-8.338759689922485
2.1277937984496127,4.475271317829287,-4.323720930232438,-8.134031007751808
2.135793023255814,0.6970431893687727,-5.482259136212637,-6.567475083056501
2.1437922480620157,1.0376640826873438,-5.30086477174849,-6.980954349698542
2.1517914728682173,1.3842971576227434,-5.096440137812228,-7.372027562446172
2.159790697674419,1.7309302325581433,-4.8920155038759665,-7.763100775193803
2.1677899224806203,2.077563307493543,-4.687590869939705,-8.154173987941434
2.175789147286822,2.424196382428943,-4.483166236003444,-8.545247200689063
2.1837883720930233,2.770829457364343,-4.278741602067182,-8.936320413436695
2.191787596899225,3.117462532299742,-4.074316968130921,-9.327393626184325
2.1997868217054264,3.4640956072351416,-3.8698923341946596,-9.718466838931956
2.207786046511628,3.8107286821705415,-3.6654677002583984,-10.109540051679586
2.2157852713178294,4.157361757105941,-3.4610430663221368,-10.500613264427217
2.223784496124031,4.503994832041341,-3.2566184323858756,-10.891686477174847
2.231783720930233,3.710837209302226,-4.081069767441903,-9.805441860464978
2.2397829457364344,-22.98715268704807,-31.549420782161764,32.9627819876316
2.247782170542636,-20.686252068635046,-29.976539500043486,29.65523734866288
2.2557813953488375,-18.38535145022202,-28.40365821792521,26.347692709694158
2.263780620155039,-16.084450831809,-26.83077693580693,23.04014807072544
2.2717798449612405,-13.783550213395976,-25.257895653688657,19.73260343175672
2.279779069767442,-11.482649594982954,-23.685014371570375,16.425058792787997
2.2877782945736436,-9.18174897656993,-22.1121330894521,13.117514153819279
2.295777519379845,-6.880848358156907,-20.539251807333823,9.809969514850557
2.3037767441860466,-4.579947739743883,-18.966370525215545,6.502424875881836
2.311775968992248,-2.279047121330862,-17.393489243097267,3.1948802369131144
2.3197751937984497,0.02185349708216222,-15.82060796097899,-0.11266440205560713
2.327774418604651,5.933372093023095,-5.029534883721324,-0.7380232558140531
2.3357736434108527,2.8067286821705046,-13.52536434108532,0.0214883720930108
2.343772868217054,5.023235961429373,-4.9875742106258345,2.793513896766875
2.351772093023256,5.579279636982438,-4.480306296086197,2.764248440158819
2.3597713178294577,6.135323312535471,-3.9730383815465875,2.7349829835507644
2.3677705426356592,6.691366988088505,-3.465770467006978,2.7057175269427103
2.3757697674418607,7.2474106636415385,-2.9585025524673685,2.6764520703346557
2.3837689922480623,7.803454339194571,-2.451234637927759,2.6471866137266016
2.391768217054264,8.359498014747604,-1.9439667233881495,2.617921157118547
2.3997674418604653,8.915541690300639,-1.43669880884854,2.5886557005104924
2.407766666666667,9.471585365853674,-0.92943089430893,2.5593902439024383
2.4157658914728684,10.027629041406705,-0.42216297976932093,2.5301247872943837
2.42376511627907,10.58367271695974,0.08510493477028902,2.5008593306863296
2.4317643410852714,8.42508527131776,-7.421147286821711,-9.958604651162831
2.439763565891473,6.2836740778601206,-7.688670244484197,-11.534342788993948
2.4477627906976744,6.5385944288269835,-7.8117352415026815,-11.859585995399945
2.455762015503876,6.7935147797938455,-7.9348002385211664,-12.184829201805941
2.4637612403100775,7.0484351307607085,-8.057865235539651,-12.510072408211938
2.4717604651162794,7.303355481727585,-8.180930232558143,-12.835315614617954
2.479759689922481,7.558275832694447,-8.30399522957663,-13.160558821023951
2.4877589147286825,7.81319618366131,-8.427060226595115,-13.485802027429948
2.495758139534884,8.068116534628173,-8.5501252236136,-13.811045233835944
2.5037573643410855,8.323036885595034,-8.673190220632085,-14.136288440241941
2.511756589147287,8.577957236561897,-8.796255217650572,-14.461531646647938
2.5197558139534886,8.83287758752876,-8.919320214669057,-14.786774853053934
2.52775503875969,8.242945736433859,-5.92449612403099,-7.5961240310071725
2.5357542635658916,-18.595783945986494,-17.34277986163207,16.66286905059598
2.543753488372093,-16.73789947486872,-16.40523630907727,14.5813503375844
2.5517527131782947,-14.880015003750948,-15.467692756522467,12.49983162457282
2.559751937984496,-13.022130532633174,-14.530149203967666,10.418312911561241
2.5677511627906977,-11.164246061515401,-13.592605651412864,8.336794198549661
2.5757503875968992,-9.306361590397628,-12.65506209885806,6.255275485538082
2.5837496124031007,-7.448477119279856,-11.717518546303259,4.173756772526502
2.5917488372093027,-5.590592648161978,-10.779974993748404,2.0922380595148073
2.5997480620155042,-3.7327081770442057,-9.842431441193602,0.010719346503226035
2.6077472868217058,-1.8748237059264312,-8.9048878886388,-2.0707993665083535
2.6157465116279073,-0.01693923480866033,-7.967344336083999,-4.152318079519933
2.623745736434109,1.840945236309114,-7.029800783529195,-6.233836792531509
2.6317449612403103,-1.0087286821703134,-13.955038759689613,0.22684496124035036
2.639744186046512,4.910697674418675,-5.955813953488276,1.2667441860465243
2.6477434108527134,5.754502583979332,-5.414231266149869,1.2078165374676997
2.655742635658915,6.430627537836841,-5.119021779254337,1.1125876707272053
2.6637418604651164,7.10675249169435,-4.823812292358805,1.0173588039867112
2.671741085271318,7.7828774455518595,-4.528602805463272,0.9221299372462171
2.6797403100775194,8.459002399409368,-4.233393318567741,0.8269010705057227
2.687739534883721,9.135127353266878,-3.938183831672209,0.7316722037652286
2.6957387596899225,9.811252307124386,-3.6429743447766767,0.6364433370247343
2.703737984496124,10.487377260981894,-3.3477648578811445,0.5412144702842401
2.711737209302326,11.163502214839442,-3.052555370985596,0.4459856035437406
2.7197364341085275,11.83962716869695,-2.757345884090064,0.35075673680324637
2.727735658914729,6.91147286821692,-7.267829457364425,-7.456356589147504
2.7357348837209305,9.20996817625459,-5.700318237454091,-14.405302325581387
2.743734108527132,9.226808649530804,-5.531913504691954,-14.245317829457356
2.7517333333333336,9.243649122807017,-5.363508771929817,-14.085333333333326
2.759732558139535,9.260489596083232,-5.19510403916768,-13.925348837209297
2.7677317829457366,9.277330069359445,-5.026699306405543,-13.765364341085267
2.775731007751938,9.294170542635658,-4.8582945736434064,-13.605379844961236
2.7837302325581397,9.311011015911873,-4.6898898408812695,-13.445395348837206
2.791729457364341,9.327851489188086,-4.5214851081191325,-13.285410852713175
2.7997286821705427,9.344691962464301,-4.3530803753569955,-13.125426356589145
2.8077279069767442,9.361532435740514,-4.184675642594859,-12.965441860465116
2.8157271317829458,9.378372909016727,-4.016270909832722,-12.805457364341086
2.8237263565891473,9.395213382292942,-3.8478661770705846,-12.645472868217055
2.8317255813953492,-12.994418604664226,-5.30232558138613,-1.7539534883892607
2.8397248062015508,-17.549730367374302,-1.3312563195147173,-9.684020053926456
2.8477240310077523,-15.219521402089512,-2.192042467138576,-8.631948095719517
2.855723255813954,-12.889312436804722,-3.0528286147624346,-7.57987613751258
2.8637224806201553,-10.559103471519935,-3.913614762386293,-6.527804179305641
2.871721705426357,-8.228894506235145,-4.774400910010152,-5.475732221098703
2.8797209302325584,-5.898685540950355,-5.635187057634011,-4.423660262891764
2.88772015503876,-3.568476575665567,-6.49597320525787,-3.371588304684826
2.8957193798449614,-1.2382676103807775,-7.356759352881728,-2.3195163464778883
2.903718604651163,1.0919413549040122,-8.217545500505587,-1.267444388270949
2.9117178294573645,3.422150320188802,-9.078331648129446,-0.2153724300640114
2.919717054263566,5.752359285473588,-9.939117795753305,0.8366995281429279
2.9277162790697675,3.599069767441484,-12.140465116278959,0.7911627906975953
2.935715503875969,8.052658749793824,-6.311509978558473,-1.797285172356917
2.9437147286821705,8.546227939963707,-6.0477057562262955,-1.9334421903348153
2.9517139534883725,9.039797130133616,-5.783901533894102,-2.0695992083127215
2.959713178294574,9.533366320303497,-5.520097311561924,-2.2057562262906196
2.9677124031007756,10.026935510473379,-5.256293089229746,-2.341913244268518
2.975711627906977,10.520504700643261,-4.992488866897568,-2.478070262246417
2.9837108527131786,11.014073890813142,-4.728684644565389,-2.614227280224315
2.99171007751938,11.507643080983025,-4.464880422233211,-2.7503842982022135
2.9997093023255816,12.001212271152905,-4.201076199901033,-2.8865413161801117
3.007708527131783,12.494781461322788,-3.9372719775688547,-3.0226983341580107
3.0157077519379847,12.98835065149267,-3.6734677552366763,-3.158855352135909
3.023706976744186,13.481919841662553,-3.409663532904498,-3.295012370113807
3.0317062015503877,6.500060292851018,-7.370620155038774,-9.923720930232646
3.0397054263565892,10.58921112631099,-5.7709530323757425,-13.47012311901505
3.0477046511627908,10.466870041039673,-5.4415731874145035,-13.131332421340632
3.0557038759689923,10.344528955768356,-5.112193342453264,-12.792541723666215
3.063703100775194,10.222187870497038,-4.782813497492025,-12.453751025991798
3.0717023255813958,10.099846785225713,-4.453433652530768,-12.11496032831736
3.0797015503875973,9.977505699954396,-4.124053807569528,-11.776169630642944
3.087700775193799,9.85516461468308,-3.794673962608289,-11.437378932968526
3.0957000000000003,9.732823529411762,-3.4652941176470495,-11.098588235294109
3.103699224806202,9.610482444140445,-3.1359142726858105,-10.759797537619692
3.1116984496124034,9.488141358869127,-2.806534427724571,-10.421006839945274
3.119697674418605,9.36580027359781,-2.477154582763332,-10.082216142270855
3.1276968992248064,6.936395348837144,-8.736279069767615,-1.385077519379375
3.135696124031008,-0.5857527539779309,-7.876807833537311,-24.507231334149242
3.1436953488372095,0.42467564259489077,-7.295811505507938,-22.183246022031753
3.151694573643411,1.4351040391677123,-6.714815177478565,-19.85926070991426
3.1596937984496125,2.4455324357405344,-6.133818849449193,-17.535275397796774
3.167693023255814,3.455960832313356,-5.55282252141982,-15.211290085679282
3.1756922480620156,4.466389228886178,-4.971826193390449,-12.887304773561793
3.183691472868217,5.476817625459,-4.390829865361075,-10.563319461444303
3.1916906976744186,6.487246022031821,-3.809833537331703,-8.239334149326812
3.1996899224806206,7.497674418604698,-3.2288372093022986,-5.915348837209194
3.207689147286822,8.50810281517752,-2.647840881272926,-3.5913635250917046
3.2156883720930236,9.518531211750341,-2.0668445532435538,-1.267378212974215
3.223687596899225,10.528959608323163,-1.4858482252141814,1.0566070991432746
3.2316868217054266,5.36527131782692,-9.15767441860425,2.213178294573453
3.239686046511628,10.628792283298095,-4.9664904862579276,-3.479585095137422
3.2476852713178297,10.474261804087384,-4.893770260747004,-3.652295630725865
3.255684496124031,10.319731324876672,-4.821050035236081,-3.8250061663143073
3.2636837209302327,10.165200845665959,-4.748329809725158,-3.99771670190275
3.2716829457364343,10.010670366455248,-4.675609584214235,-4.170427237491193
3.2796821705426358,9.856139887244536,-4.602889358703312,-4.3431377730796354
3.2876813953488373,9.701609408033825,-4.530169133192389,-4.515848308668078
3.295680620155039,9.547078928823112,-4.457448907681465,-4.688558844256521
3.3036798449612403,9.3925484496124,-4.384728682170541,-4.8612693798449635
3.311679069767442,9.238017970401689,-4.312008456659619,-5.033979915433406
3.319678294573644,9.083487491190969,-4.2392882311486915,-5.206690451021858
3.3276775193798454,6.990387596899554,-7.4034108527141145,-10.942170542636848
3.335676744186047,10.224568642160534,-2.8206901725431464,-10.598849712428091
3.3436759689922484,10.0955488872218,-3.027121780445121,-10.254797032591465
3.35167519379845,9.966529132283066,-3.233553388347096,-9.910744352754842
3.3596744186046514,9.837509377344333,-3.4399849962490707,-9.566691672918216
3.367673643410853,9.708489622405597,-3.646416604151045,-9.222638993081592
3.3756728682170545,9.579469867466862,-3.8528482120530203,-8.878586313244966
3.383672093023256,9.450450112528129,-4.059279819954995,-8.534533633408342
3.3916713178294575,9.321430357589394,-4.26571142785697,-8.190480953571717
3.399670542635659,9.19241060265066,-4.472143035758944,-7.846428273735093
3.4076697674418606,9.063390847711926,-4.6785746436609195,-7.502375593898467
3.415668992248062,8.934371092773192,-4.885006251562894,-7.158322914061843
3.4236682170542636,8.805351337834457,-5.091437859464868,-6.8142702342252175
3.431667441860465,-1.734651162790657,-9.08392248062017,8.584155038759699
3.439666666666667,-15.33333333333429,-3.6977777777773984,5.5977777777775675
3.4476658914728686,14.255510658914673,-8.483294573643434,2.9595707364341157
3.45566511627907,13.28560465116274,-8.88325581395351,3.0895581395348906
3.4636643410852717,12.315698643410807,-9.283217054263584,3.219545542635665
3.471663565891473,11.345792635658874,-9.683178294573661,3.34953294573644
3.4796627906976747,10.37588662790694,-10.083139534883736,3.479520348837214
3.4876620155038762,9.405980620155006,-10.483100775193812,3.609507751937989
3.4956612403100777,8.436074612403072,-10.883062015503889,3.7394951550387634
3.5036604651162793,7.4661686046511395,-11.283023255813964,3.8694825581395382
3.511659689922481,6.496262596899205,-11.682984496124039,3.9994699612403126
3.5196589147286823,5.526356589147271,-12.082945736434116,4.1294573643410875
3.527658139534884,8.189767441860521,-6.672209302325551,0.15337209302314658
3.5356573643410854,7.220031674585313,-4.615023755938984,-7.310174210219221
3.543656589147287,7.254436942568975,-4.640827706926731,-7.499403184129364
3.5516558139534884,7.288842210552637,-4.666631657914478,-7.688632158039508
3.5596550387596904,7.323247478536302,-4.692435608902226,-7.877861131949661
3.567654263565892,7.357652746519965,-4.718239559889973,-8.067090105859805
3.5756534883720934,7.392058014503627,-4.74404351087772,-8.256319079769948
3.583652713178295,7.42646328248729,-4.769847461865467,-8.445548053680092
3.5916519379844964,7.460868550470952,-4.795651412853214,-8.634777027590236
3.599651162790698,7.495273818454614,-4.821455363840961,-8.82400600150038
3.6076503875968995,7.529679086438277,-4.847259314828708,-9.013234975410523
3.615649612403101,7.564084354421939,-4.873063265816455,-9.202463949320666
3.6236488372093025,7.5984896224056016,-4.898867216804201,-9.39169292323081
3.631648062015504,9.210728682170563,-3.6515038759689555,-12.424465116279036
3.6396472868217056,7.834925462134757,-4.586708407871211,-7.200518783542012
3.647646511627907,7.601101967799635,-4.9928228980322125,-6.351370304114465
3.6556457364341086,7.367278473464514,-5.398937388193213,-5.502221824686918
3.66364496124031,7.133454979129392,-5.805051878354213,-4.653073345259372
3.6716441860465117,6.89963148479427,-6.211166368515213,-3.803924865831825
3.6796434108527136,6.665807990459136,-6.617280858676237,-2.954776386404231
3.687642635658915,6.431984496124014,-7.023395348837237,-2.105627906976684
3.6956418604651167,6.198161001788892,-7.429509838998238,-1.256479427549138
3.703641085271318,5.387829457366731,-10.420891472869608,-2.950775193796586
3.7116403100775197,9.550396716826272,-12.385398996808018,0.40176014591883924
3.7196395348837212,9.812556185264809,-12.056019151846778,0.7176959155755386
3.7276387596899228,10.074715653703347,-11.726639306885538,1.033631685232238
3.7356379844961243,10.336875122141885,-11.3972594619243,1.3495674548889374
3.743637209302326,10.599034590580422,-11.06787961696306,1.6655032245456367
3.7516364341085273,10.86119405901896,-10.73849977200182,1.9814389942023363
3.759635658914729,11.123353527457498,-10.40911992704058,2.2973747638590356
3.7676348837209304,11.385512995896036,-10.07974008207934,2.613310533515735
3.775634108527132,11.647672464334573,-9.7503602371181,2.9292463031724343
3.7836333333333334,11.90983193277311,-9.42098039215686,3.2451820728291336
3.791632558139535,12.171991401211649,-9.091600547195622,3.561117842485833
3.799631782945737,12.4341508696502,-8.762220702234362,3.87705361214255
3.8076310077519384,12.696310338088738,-8.432840857273124,4.192989381799249
3.81563023255814,12.958469806527276,-8.103461012311882,4.508925151455949
3.8236294573643415,11.164754521962555,-7.925891472868296,4.359379844960966
3.831628682170543,3.551169837914026,-8.451169837914026,1.1649048625792235
3.8396279069767445,9.637423148890676,-5.347607591553054,-3.244907778668812
3.847627131782946,9.821313374320596,-5.090161275951164,-3.4655760491847163
3.8556263565891475,10.005203599750518,-4.832714960349276,-3.686244319700621
3.863625581395349,10.189093825180437,-4.5752686447473865,-3.9069125902165256
3.8716248062015506,10.37298405061036,-4.317822329145498,-4.12758086073243
3.879624031007752,10.55687427604028,-4.060376013543609,-4.348249131248335
3.8876232558139536,10.7407645014702,-3.80292969794172,-4.5689174017642395
3.895622480620155,10.924654726900119,-3.5454833823398313,-4.789585672280144
3.9036217054263567,11.10854495233004,-3.2880370667379424,-5.010253942796049
3.911620930232558,11.29243517775996,-3.0305907511360535,-5.230922213311954
3.91962015503876,11.476325403189891,-2.7731444355341504,-5.451590483827871
3.9276193798449617,8.34255813953447,-5.27162790697702,-9.069031007751915
3.935618604651163,8.649643410852704,-4.244961240310085,-8.672310077519361
3.9436178294573647,8.400778639104212,-4.467161929371239,-8.041260120585685
3.9516170542635662,8.15191386735572,-4.689362618432392,-7.410210163652008
3.9596162790697678,7.903049095607228,-4.911563307493545,-6.779160206718331
3.9676155038759693,7.654184323858736,-5.133763996554699,-6.148110249784654
3.975614728682171,7.405319552110244,-5.355964685615853,-5.517060292850978
3.9836139534883723,7.156454780361752,-5.578165374677007,-4.886010335917302
3.991613178294574,6.90759000861326,-5.800366063738161,-4.254960378983625
3.9996124031007754,6.658725236864768,-6.022566752799314,-3.6239104220499483
4.007611627906977,6.409860465116276,-6.244767441860468,-2.992860465116272
4.015610852713179,6.16099569336777,-6.466968130921634,-2.36181050818256
4.02361007751938,5.912130921619292,-6.6891688199827755,-1.7307605512489186
4.031609302325582,2.7891029900346958,-5.7429235880411325,-4.881926910297148
4.039608527131783,12.630323401162808,-6.710446947674408,5.58397529069768
4.047607751937985,11.467936046511586,-7.422877906976771,5.209011627906963
4.055606976744186,10.305548691860492,-8.135308866279054,4.834047965116287
4.063606201550388,9.143161337209271,-8.847739825581415,4.459084302325571
4.071605426356589,7.980773982558177,-9.560170784883699,4.084120639534896
4.079604651162791,6.818386627906955,-10.27260174418606,3.709156976744179
4.087603875968992,5.655999273255862,-10.985032703488343,3.3341933139535036
4.095603100775194,4.493611918604639,-11.697463662790705,2.959229651162787
4.103602325581396,5.339162790698715,-8.682465116278564,-1.2216279069772802
4.111601550387597,9.057101328903657,-3.938608803986708,-7.117159468438537
4.119600775193799,8.842836378737534,-4.13144725913622,-7.202865448504986
4.1276,8.628571428571433,-4.324285714285709,-7.2885714285714265
4.135599224806202,8.41430647840531,-4.517124169435221,-7.374277408637876
4.143598449612403,8.20004152823921,-4.709962624584711,-7.459983388704316
4.151597674418605,7.985776578073085,-4.902801079734223,-7.545689368770766
4.159596899224806,7.771511627906985,-5.095639534883713,-7.631395348837206
4.167596124031008,7.557246677740861,-5.288477990033225,-7.717101328903656
4.175595348837209,7.342981727574761,-5.481316445182714,-7.802807308970095
4.183594573643411,7.128716777408637,-5.674154900332226,-7.8885132890365455
4.191593798449612,6.914451827242537,-5.866993355481716,-7.974219269102985
4.199593023255814,6.700186877076414,-6.059831810631227,-8.059925249169435
4.207592248062015,6.485921926910313,-6.252670265780718,-8.145631229235875
4.215591472868217,6.27165697674419,-6.4455087209302295,-8.231337209302325
4.223590697674419,6.092425249169434,-6.751495016611322,-8.65601328903661
4.23158992248062,6.0543337024732375,-7.513325950535238,-10.44631598375781
4.239589147286822,6.016242155777038,-8.275156884459237,-12.23661867847921
4.247588372093023,7.76823255813954,-4.17941860465115,-6.592784883720948
4.255587596899225,7.608248062015499,-4.579379844961252,-6.052837209302309
4.2635868217054265,7.448263565891476,-4.97934108527131,-5.5128895348837315
4.271586046511628,7.288279069767435,-5.3793023255814125,-4.9729418604650935
4.2795852713178295,7.128294573643412,-5.77926356589147,-4.432994186046514
4.2875844961240315,6.968310077519371,-6.179224806201573,-3.8930465116278765
4.2955837209302326,6.808325581395348,-6.57918604651163,-3.353098837209298
4.3035829457364345,6.648341085271307,-6.979147286821733,-2.81315116279066
4.311582170542636,6.488356589147283,-7.379108527131791,-2.273203488372082
4.319581395348838,6.328372093023242,-7.779069767441893,-1.733255813953443
4.327580620155039,5.883875968992209,-9.285465116279216,2.4408010335921926
4.335579844961241,11.133643410853024,-12.562015503874214,1.231937984496178
4.343579069767443,5.010221865811269,-5.2961908580593535,5.362729216786928
4.351578294573644,4.881498708010333,-5.434108527131786,5.022532299741593
4.359577519379846,4.752775550209381,-5.572026196204234,4.6823353826962215
4.367576744186047,4.624052392408444,-5.709943865276667,4.342138465650887
4.375575968992249,4.4953292346074925,-5.847861534349115,4.001941548605515
4.38357519379845,4.366606076806555,-5.985779203421548,3.661744631560181
4.391574418604652,4.237882919005604,-6.123696872493996,3.3215477145148093
4.399573643410853,4.109159761204666,-6.261614541566429,2.9813507974694753
4.407572868217055,3.9804366034037146,-6.399532210638878,2.641153880424103
4.415572093023256,3.851713445602778,-6.5374498797113105,2.300956963378769
4.423571317829458,3.722990287801826,-6.675367548783758,1.9607600463333972
4.431570542635659,8.301550387596972,-7.542945736434112,-7.384031007751859
4.439569767441861,5.854748062015508,-7.311034399224799,-10.127374031007754
4.447568992248062,5.921408268733851,-7.202711563307493,-10.160704134366926
4.455568217054264,5.9880684754522,-7.094388727390175,-10.1940342377261
4.463567441860466,6.054728682170549,-6.986065891472856,-10.227364341085275
4.471566666666667,6.121388888888892,-6.87774305555555,-10.260694444444447
4.479565891472869,6.188049095607242,-6.769420219638232,-10.294024547803621
4.48756511627907,6.254709302325583,-6.661097383720926,-10.327354651162793
4.495564341085272,6.321369509043933,-6.552774547803608,-10.360684754521966
4.503563565891473,6.388029715762276,-6.444451711886302,-10.394014857881137
4.511562790697675,6.454689922480625,-6.336128875968983,-10.427344961240312
4.519562015503876,6.521350129198967,-6.227806040051677,-10.460675064599483
4.527561240310078,6.588010335917317,-6.119483204134359,-10.494005167958658
4.535560465116279,6.001131434544051,-11.340175071857866,14.369142931800374
4.543559689922481,4.590032227157854,-10.486325232993607,13.928736172807229
4.551558914728682,3.1789330197718138,-9.632475394129441,13.488329413814133
4.559558139534884,1.767833812385617,-8.778625555265183,13.04792265482099
4.567557364341085,0.356734604999577,-7.924775716401019,12.607515895827893
4.575556589147287,-1.0543646023866202,-7.070925877536759,12.16710913683475
4.583555813953489,-2.4654638097728174,-6.2170760386724995,11.726702377841605
4.59155503875969,-3.8765630171588583,-5.363226199808335,11.28629561884851
4.599554263565892,-5.287662224545054,-4.509376360944076,10.845888859855366
4.607553488372093,-6.698761431931095,-3.655526522079912,10.40548210086227
4.615552713178295,-8.109860639317292,-2.8016766832156517,9.965075341869126
4.623551937984496,-9.520959846703333,-1.9478268443514875,9.52466858287603
4.631551162790698,6.321279069766499,-7.252751937984691,4.956705426355976
4.639550387596899,2.9831352282515264,-7.954496124031005,2.3825925925925784
4.647549612403101,3.4808647717485384,-7.874503875968985,2.0004074074073728
4.655548837209302,3.978594315245495,-7.794511627906974,1.6182222222222096
4.663548062015504,4.476323858742507,-7.714519379844954,1.236037037037004
4.671547286821705,4.9740534022394645,-7.634527131782943,0.8538518518518408
4.679546511627907,5.471782945736476,-7.554534883720923,0.47166666666663515
4.687545736434108,5.969512489233432,-7.474542635658913,0.08948148148147217
4.69554496124031,6.467242032730445,-7.394550387596893,-0.29270370370373344
4.703544186046512,6.964971576227457,-7.314558139534872,-0.674888888888939
4.711543410852713,7.4627011197244135,-7.234565891472862,-1.0570740740741025
4.719542635658915,7.960430663221426,-7.154573643410842,-1.4392592592593076
4.7275418604651165,11.393604651162827,-3.652209302325551,-4.375348837209218
4.7355410852713185,5.6972075986029465,-5.358640429338126,-5.759166879632056
4.7435403100775195,5.688417241673055,-5.543237924865843,-6.260217224635859
4.7515395348837215,5.679626884743163,-5.72783542039358,-6.761267569639717
4.759538759689923,5.670836527813272,-5.912432915921297,-7.2623179146435195
4.7675379844961245,5.66204617088338,-6.097030411449034,-7.763368259647378
4.775537209302326,5.653255813953488,-6.281627906976751,-8.264418604651182
4.783536434108528,5.644465457023595,-6.466225402504488,-8.76546894965504
4.791535658914729,5.635675100093704,-6.650822898032205,-9.266519294658842
4.799534883720931,5.626884743163812,-6.835420393559943,-9.7675696396627
4.807534108527132,5.6180943862339205,-7.02001788908766,-10.268619984666504
4.815533333333334,5.609304029304028,-7.204615384615397,-10.769670329670362
4.823532558139536,5.600513672374136,-7.389212880143134,-11.27072067467422
4.831531782945737,8.891627906976353,-3.408682170542152,-6.0685271317817
4.839531007751939,-2.9185436808640235,-16.955260865778158,35.634125947216745
4.84753023255814,-2.7747373922132184,-15.993556310425898,31.10422785471638
4.855529457364342,-2.6309311035623972,-15.031851755073532,26.574329762215513
4.863528682170543,-2.487124814911592,-14.070147199721271,22.044431669715145
4.871527906976745,-2.343318526260771,-13.108442644368905,17.51453357721428
4.879527131782946,-2.199512237609966,-12.146738089016644,12.984635484713912
4.887526356589148,-2.0557059489591443,-11.185033533664278,8.454737392213044
4.895525581395349,-1.9118996603083391,-10.223328978312018,3.92483929971268
4.903524806201551,-1.768093371657518,-9.261624422959652,-0.6050587927881921
4.911524031007752,-1.6242870830067129,-8.299919867607393,-5.1349568852885525
4.919523255813954,-1.4804807943558915,-7.338215312255025,-9.664854977789425
4.927522480620155,5.868527131782735,-5.935116279069835,5.807286821705141
4.935521705426357,4.967042023663815,-5.982154222766215,1.935932272541815
4.943520930232559,6.398482252142053,-5.22433292533656,0.6307955936351877
4.95152015503876,7.31161467196067,-4.817171487993949,-0.27600775193797916
4.959519379844962,7.565248629230489,-4.8561920968046906,-0.6759689922480782
4.967518604651163,7.81888258650028,-4.895212705615427,-1.0759302325581328
4.975517829457365,8.0725165437701,-4.9342333144261685,-1.475891472868232
4.983517054263566,8.326150501039889,-4.973253923236906,-1.8758527131782867
4.991516279069768,8.579784458309708,-5.012274532047647,-2.275813953488386
4.999515503875969,8.8334184155795,-5.051295140858384,-2.6757751937984406
5.007514728682171,9.087052372849318,-5.090315749669125,-3.0757364341085394
5.015513953488372,9.340686330119109,-5.129336358479863,-3.475697674418594
5.023513178294574,9.594320287388928,-5.168356967290604,-3.8756589147286933
5.031512403100775,10.253720930232532,-7.317364341085149,-7.376046511627723
5.039511627906977,5.818364073777088,-9.385565356856453,-12.565356856455486
5.047510852713178,6.195339035908405,-9.339592800498975,-12.45502272119754
5.05551007751938,6.572313998039763,-9.293620244141493,-12.344688585939581
5.063509302325582,6.949288960171121,-9.24764768778401,-12.234354450681623
5.071508527131783,7.326263922302438,-9.201675131426532,-12.124020315423676
5.079507751937985,7.703238884433796,-9.15570257506905,-12.013686180165719
5.087506976744186,8.080213846565112,-9.109730018711572,-11.903352044907772
5.095506201550388,8.45718880869647,-9.06375746235409,-11.793017909649814
5.103505426356589,8.834163770827786,-9.017784905996612,-11.682683774391867
5.111504651162791,9.211138732959144,-8.97181234963913,-11.57234963913391
5.119503875968992,9.588113695090462,-8.925839793281652,-11.462015503875964
5.127503100775194,8.223604651162459,-5.513669250645283,-6.554043927647561
5.135502325581395,-3.3159027959236544,-10.977423569375478,-10.324933368173463
5.143501550387597,-1.9767067328628818,-10.617907847748425,-9.129543593763513
5.1515007751937985,-0.6375106698022583,-10.25839212612141,-7.9341538193536945
5.1595,0.7016853932585145,-9.89887640449436,-6.738764044943743
5.1674992248062015,2.040881456319138,-9.539360682867345,-5.543374270533924
5.1754984496124035,3.38007751937991,-9.179844961240292,-4.347984496123973
5.183497674418605,4.719273582440682,-8.82032923961324,-3.1525947217140216
5.1914968992248065,6.058469645501306,-8.460813517986226,-1.957204947304204
5.1994961240310085,7.397665708562078,-8.101297796359173,-0.7618151728942522
5.2074953488372095,8.736861771622703,-7.741782074732161,0.43357460151556637
5.2154945736434115,10.076057834683475,-7.382266353105107,1.6289643759255181
5.223493798449613,11.415253897744098,-7.022750631478095,2.8243541503353367
5.231493023255815,10.20152481419324,-5.004574442579724,-4.709148885159448
5.239492248062016,10.226264684727884,-5.078794054183651,-4.8575881083673025
5.247491472868218,10.251004555262528,-5.1530136657875865,-5.006027331575173
5.255490697674419,10.275744425797171,-5.227233277391514,-5.154466554783028
5.263489922480621,10.300484296331815,-5.301452888995449,-5.302905777990898
5.271489147286822,10.325224166866459,-5.375672500599377,-5.451345001198753
5.279488372093024,10.349964037401104,-5.449892112203312,-5.599784224406624
5.287487596899225,10.374703907935746,-5.5241117238072395,-5.748223447614478
5.295486821705427,10.399443778470392,-5.598331335411174,-5.896662670822349
5.303486046511629,10.424183649005036,-5.67255094701511,-6.0451018940302195
5.31148527131783,10.44892351953968,-5.746770558619037,-6.193541117238074
5.319484496124032,10.473663390074325,-5.820990170222973,-6.341980340445945
5.327483720930233,10.498403260608967,-5.8952097818269,-6.490419563653799
5.335482945736435,6.565620155038958,-8.075906976744273,-12.33454263565903
5.343482170542636,9.14693463489327,-4.410979041056565,-8.712167671547485
5.351481395348838,8.86054263565888,-4.470232558139542,-8.238139534883667
5.359480620155039,8.574150636424523,-4.529486075222513,-7.764111398219901
5.367479844961241,8.287758637190134,-4.5887395923054894,-7.2900832615560835
5.375479069767442,8.001366637955774,-4.6479931093884606,-6.816055124892318
5.383478294573644,7.714974638721385,-4.707246626471438,-6.3420269882285005
5.391477519379845,7.428582639487027,-4.766500143554408,-5.867998851564735
5.399476744186047,7.142190640252637,-4.825753660637385,-5.3939707149009175
5.407475968992248,6.8557986410182785,-4.885007177720356,-4.919942578237152
5.41547519379845,6.569406641783889,-4.944260694803333,-4.4459144415733345
5.423474418604652,6.375906976744308,-5.51237209302408,-3.0891162790683016
5.431473643410853,1.3504533198517314,-12.079406808223784,-10.939250084260161
5.439472868217055,2.202544657903683,-11.731614425345436,-9.913262554769034
5.447472093023256,3.0546359959555405,-11.383822042467125,-8.887275025278022
5.455471317829458,3.906727334007492,-11.036029659588777,-7.861287495786897
5.463470542635659,4.758818672059349,-10.688237276710469,-6.835299966295884
5.471469767441861,5.610910010111301,-10.340444893832121,-5.809312436804759
5.479468992248062,6.463001348163158,-9.992652510953812,-4.783324907313747
5.487468217054264,7.3150926862151096,-9.644860128075464,-3.757337377822621
5.495467441860465,8.167184024266968,-9.297067745197156,-2.731349848331609
5.503466666666667,9.01927536231892,-8.949275362318808,-1.7053623188404838
5.511465891472868,9.871366700370777,-8.6014829794405,-0.6793747893494704
5.51946511627907,10.723458038422729,-8.253690596562151,0.346612740141655
5.527464341085271,5.621705426357078,-5.2213953488371505,1.8462790697671778
5.535463565891473,10.273688703074635,-5.8279557529832005,-3.975644978660425
5.543462790697675,10.129882414423815,-5.980749934674698,-4.389088058531536
5.551462015503876,9.986076125773009,-6.133544116366179,-4.802531138402601
5.559461240310078,9.842269837122187,-6.286338298057676,-5.215974218273712
5.567460465116279,9.698463548471382,-6.439132479749157,-5.6294172981447765
5.575459689922481,9.55465725982056,-6.591926661440654,-6.042860378015888
5.583458914728682,9.410850971169756,-6.744720843132135,-6.4563034578869525
5.591458139534884,9.267044682518934,-6.897515024823632,-6.869746537758063
5.599457364341085,9.123238393868128,-7.050309206515113,-7.283189617629128
5.607456589147287,8.979432105217308,-7.2031033882066104,-7.696632697500239
5.6154558139534885,8.835625816566502,-7.355897569898091,-8.110075777371303
5.62345503875969,8.381472868216811,-7.386240310077433,-8.317984496123893
5.6314542635658915,6.830180878553012,-7.346795865633133,-12.111886304909639
5.6394534883720935,10.040684609354582,-6.7671544290566965,-10.99558400836163
5.647452713178295,9.80699939029702,-6.425614493511031,-10.402383067677054
5.6554519379844965,9.573314171239433,-6.084074557965327,-9.80918212699241
5.6634511627906985,9.339628952181847,-5.7425346224196225,-9.215981186307767
5.6714503875969,9.105943733124287,-5.400994686873958,-8.622780245623188
5.6794496124031015,8.872258514066699,-5.0594547513282535,-8.029579304938546
5.687448837209303,8.638573295009138,-4.717914815782588,-7.436378364253968
5.695448062015505,8.404888075951552,-4.3763748802368845,-6.843177423569324
5.703447286821706,8.171202856893991,-4.034834944691218,-6.249976482884747
5.711446511627908,7.937517637836404,-3.6932950091455146,-5.656775542200104
5.719445736434109,7.703832418778843,-3.3517550735998487,-5.063574601515526
5.727444961240311,0.3995348837206777,-18.745906976743772,36.61032558139372
5.735444186046512,-6.799767441860446,-6.987046511627938,-9.945162790697552
5.743443410852714,11.641812476928747,-7.209062384643739,5.2168807678110305
5.751442635658915,11.53706072351421,-6.685303617571053,5.607319121447033
5.759441860465117,11.432308970099662,-6.161544850498308,5.997757475083079
5.767441085271318,11.327557216685124,-5.637786083425622,6.388195828719081
5.77544031007752,11.222805463270575,-5.114027316352878,6.778634182355128
5.783439534883722,11.118053709856026,-4.590268549280133,7.169072535991173
5.791438759689923,11.013301956441488,-4.066509782207447,7.559510889627176
5.799437984496125,10.90855020302694,-3.5427510151347024,7.949949243263221
5.807437209302326,10.803798449612403,-3.018992248062016,8.340387596899223
5.815436434108528,10.699046696197854,-2.4952334809892713,8.73082595053527
5.823435658914729,9.031627906977153,-3.6555038759685603,8.076201550387864
5.831434883720931,10.96961240310102,-5.973953488372303,-6.991395348837683
5.839434108527132,11.292506459948319,-6.6285960378983635,-8.500086132644272
5.847433333333334,10.785888888888861,-6.66414814814815,-8.624518518518526
5.855432558139535,10.279271317829458,-6.699700258397932,-8.748950904392764
5.863431782945737,9.77265374677,-6.735252368647719,-8.873383290267018
5.871431007751938,9.266036175710598,-6.770804478897501,-8.997815676141258
5.87943023255814,8.759418604651138,-6.806356589147288,-9.12224806201551
5.887429457364341,8.252801033591737,-6.841908699397071,-9.24668044788975
5.895428682170543,7.746183462532278,-6.877460809646857,-9.371112833764002
5.903427906976745,7.23956589147282,-6.913012919896644,-9.495545219638256
5.911427131782946,6.732948320413417,-6.948565030146427,-9.619977605512494
5.919426356589148,6.226330749353958,-6.984117140396213,-9.744409991386748
5.927425581395349,4.583813953488258,-7.5310697674419025,-12.012790697674596
5.935424806201551,6.218859603789843,-6.045488372093077,-1.7012540913004561
5.943424031007752,6.281075796726963,-6.5254418604651425,-0.3858260120584993
5.951423255813954,6.34329198966409,-7.005395348837261,0.9296020671836036
5.959422480620155,6.405508182601209,-7.485348837209327,2.245030146425561
5.967421705426357,6.467724375538336,-7.965302325581446,3.5604582256676633
5.975420930232558,6.529940568475455,-8.445255813953512,4.875886304909621
5.98342015503876,6.592156761412582,-8.92520930232563,6.191314384151724
5.991419379844961,6.654372954349702,-9.405162790697695,7.50674246339368
5.999418604651163,6.716589147286828,-9.885116279069814,8.822170542635783
6.007417829457364,6.778805340223948,-10.365069767441879,10.137598621877741
6.015417054263566,6.841021533161074,-10.845023255813999,11.453026701119843
6.023416279069768,3.653023255806011,-9.2186046511577,12.533488372092615
6.031415503875969,8.227718951014344,-6.067763483424054,5.206636978393526
6.039414728682171,7.819247897080623,-6.450705096486916,4.679028533729137
6.047413953488372,7.410776843146949,-6.833646709549736,4.151420089064808
6.055413178294574,7.002305789213229,-7.216588322612599,3.6238116444004196
6.0634124031007754,6.593834735279554,-7.5995299356754185,3.09620319973609
6.071411627906977,6.185363681345834,-7.982471548738281,2.5685947550717017
6.0794108527131785,5.77689262741216,-8.3654131618011,2.040986310407372
6.0874100775193805,5.3684215734784395,-8.748354774863964,1.5133778657429837
6.0954093023255815,4.959950519544765,-9.131296387926783,0.9857694210786541
6.1034085271317835,4.551479465611045,-9.514238000989646,0.45816097641426534
6.111407751937985,4.14300841167737,-9.897179614052465,-0.06944746825006387
6.1194069767441865,3.7345373577436503,-10.280121227115329,-0.5970559129144526
6.127406201550388,8.26093023255815,-8.181891472868191,-5.140620155038768
6.13540542635659,8.791860465115233,-5.518914728682031,-6.26488372093086
6.1434046511627916,5.280155038759721,-6.320103359173148,-9.83811886304912
6.151403875968993,5.546795865633091,-6.497863910422061,-10.04254349698537
6.159403100775195,5.813436692506491,-6.675624461670994,-10.246968130921642
6.167402325581396,6.08007751937986,-6.853385012919907,-10.451392764857893
6.175401550387598,6.34671834625326,-7.03114556416884,-10.655817398794165
6.183400775193799,6.6133591731266295,-7.2089061154177525,-10.860242032730415
6.191400000000001,6.880000000000028,-7.386666666666685,-11.064666666666689
6.199399224806202,7.146640826873398,-7.564427217915599,-11.269091300602938
6.207398449612404,7.413281653746797,-7.7421877691645316,-11.473515934539211
6.215397674418605,7.679922480620167,-7.919948320413444,-11.677940568475462
6.223396899224807,7.946563307493566,-8.097708871662377,-11.882365202411734
6.231396124031008,7.741550387596972,-5.158449612403029,-7.175620155039022
6.23939534883721,-11.132076984763398,-9.334482758620709,35.830232558139386
6.247394573643411,-9.734511271496078,-10.125210727969325,29.697493540051873
6.255393798449613,-8.336945558228605,-10.915938697318026,23.564754521963682
6.263393023255814,-6.9393798449612865,-11.706666666666642,17.432015503876173
6.271392248062016,-5.541814131693813,-12.497394636015343,11.299276485787981
6.279391472868218,-4.144248418426339,-13.288122605364045,5.16653746769979
6.287390697674419,-2.746682705159021,-14.07885057471266,-0.9662015503877228
6.295389922480621,-1.349116991891547,-14.869578544061362,-7.098940568475911
6.303389147286822,0.04844872137577205,-15.660306513409978,-13.231679586563423
6.311388372093024,1.4460144346432457,-16.45103448275868,-19.36441860465162
6.319387596899225,2.843580147910565,-17.241762452107295,-25.497157622739124
6.327386821705427,4.012894056847568,-10.40429801894919,1.4769469892725304
6.335386046511628,4.279534883720936,-10.493178294573646,1.0002255109231744
6.34338527131783,4.546175710594334,-10.582058570198113,0.5235040325737652
6.351384496124031,4.812816537467704,-10.670938845822569,0.04678255422440891
6.359383720930233,5.079457364341102,-10.759819121447034,-0.42993892412500023
6.367382945736434,5.3460981912144705,-10.84869939707149,-0.9066604024743565
6.375382170542636,5.6127390180878685,-10.937579672695957,-1.3833818808237655
6.383381395348837,5.879379844961237,-11.026459948320413,-1.8601033591731215
6.391380620155039,6.146020671834636,-11.115340223944878,-2.336824837522531
6.399379844961241,6.412661498708034,-11.204220499569345,-2.81354631587194
6.407379069767442,6.679302325581403,-11.293100775193802,-3.290267794221296
6.415378294573644,6.9459431524548005,-11.381981050818267,-3.7669892725707053
6.423377519379845,7.212583979328169,-11.470861326442723,-4.243710750920061
6.431376744186047,7.997209302324475,-5.063720930233043,-6.446279069768446
6.439375968992248,9.467140854362528,-5.772196107537523,-10.71658832261257
6.44737519379845,9.356513277255479,-5.678588157677712,-10.435764473033137
6.455374418604651,9.245885700148442,-5.584980207817912,-10.154940623453736
6.463373643410853,9.135258123041393,-5.491372257958101,-9.874116773874304
6.471372868217054,9.024630545934356,-5.3977643080983,-9.593292924294902
6.479372093023256,8.914002968827306,-5.304156358238489,-9.31246907471547
6.487371317829457,8.80337539172027,-5.210548408378689,-9.031645225136069
6.495370542635659,8.69274781461322,-5.1169404585188785,-8.750821375556637
6.5033697674418605,8.582120237506183,-5.023332508659078,-8.469997525977234
6.511368992248062,8.471492660399134,-4.9297245587992675,-8.189173676397802
6.519368217054264,8.360865083292085,-4.836116608939457,-7.90834982681837
6.5273674418604655,8.250237506185048,-4.742508659079657,-7.627525977238968
6.535366666666667,8.068999999999976,-5.529666666666815,-6.451999999999813
6.5433658914728685,8.412609819121487,-8.492713178294721,-1.0779844961237153
6.5513651162790705,14.171602067183418,-21.276773255813765,7.189857881136936
6.5593643410852716,13.549440137812224,-18.577034883720906,6.967657192075795
6.5673635658914735,12.927278208440962,-15.877296511627744,6.745456503014629
6.575362790697675,12.305116279069766,-13.177558139534883,6.523255813953488
6.583362015503877,11.682954349698504,-10.477819767441723,6.301055124892323
6.591361240310078,11.06079242032731,-7.7780813953488614,6.0788544358311825
6.59936046511628,10.438630490956045,-5.078343023255702,5.856653746770016
6.607359689922481,9.816468561584852,-2.3786046511628385,5.634453057708876
6.615358914728683,9.19430663221359,0.32113372093031956,5.41225236864771
6.623358139534884,7.579302325581896,1.5748837209308821,5.235813953488354
6.631357364341086,8.177838949533292,-4.298614934345831,-3.130471444391722
6.639356589147288,8.047239360860607,-4.290452460053788,-3.3100458788166645
6.647355813953489,7.916639772187937,-4.282289985761746,-3.489620313241587
6.655355038759691,7.786040183515251,-4.274127511469703,-3.669194747666529
6.663354263565892,7.65544059484258,-4.265965037177661,-3.8487691820914516
6.671353488372094,7.524841006169895,-4.257802562885619,-4.028343616516394
6.679352713178295,7.394241417497224,-4.249640088593576,-4.207918050941316
6.687351937984497,7.263641828824539,-4.241477614301534,-4.387492485366258
6.695351162790698,7.133042240151868,-4.233315140009492,-4.567066919791181
6.7033503875969,7.002442651479183,-4.225152665717449,-4.746641354216123
6.711349612403101,6.871843062806512,-4.216990191425407,-4.926215788641046
6.719348837209303,6.741243474133826,-4.208827717133365,-5.105790223065988
6.727348062015504,6.6106438854611556,-4.200665242841322,-5.28536465749091
6.735347286821706,7.5449095607235295,-6.997622739017652,-10.636537467700002
6.743346511627907,7.2413953488372105,-5.703488372093026,-7.649941860465113
6.751345736434109,7.3175784422296095,-5.893946105574024,-7.373778146917665
6.759344961240311,7.3937615356220086,-6.084403839055021,-7.097614433370218
6.767344186046512,7.4699446290144,-6.274861572535999,-6.821450719822802
6.775343410852714,7.546127722406799,-6.465319306016997,-6.5452870062753545
6.783342635658915,7.62231081579919,-6.655777039497973,-6.269123292727938
6.791341860465117,7.698493909191589,-6.846234772978971,-5.992959579180491
6.799341085271318,7.77467700258398,-7.036692506459948,-5.716795865633075
6.80734031007752,7.850860095976379,-7.227150239940946,-5.4406321520856284
6.815339534883721,7.927043189368769,-7.417607973421923,-5.164468438538211
6.823338759689923,8.084689922480683,-8.1081395348841,-3.341705426355426
6.831337984496124,-5.2624806201556,-4.8958139534881395,16.16108527131831
6.839337209302326,7.809209830866768,1.7944238900633838,7.6
6.847336434108527,7.272898167723742,1.230842142353763,7.6
6.855335658914729,6.736586504580655,0.6672603946440796,7.6
6.86333488372093,6.200274841437629,0.10367864693445883,7.6
6.871334108527132,5.663963178294544,-0.4599031007752248,7.6
6.879333333333334,5.127651515151458,-1.023484848484908,7.6
6.887332558139535,4.591339852008431,-1.5870665961945285,7.6
6.895331782945737,4.0550281888653466,-2.1506483439042117,7.6
6.903331007751938,3.5187165257223203,-2.714230091613833,7.6
6.91133023255814,2.9824048625792345,-3.277811839323516,7.6
6.919329457364341,2.4460931994362083,-3.8413935870331373,7.6
6.927328682170543,7.198604651163022,-9.408733850128673,0.6849612403098078
6.935327906976744,6.595523909067154,-5.429840606218972,-6.322380454664229
6.943327131782946,6.568560229945125,-5.6095984670325,-6.4571988502743745
6.951326356589147,6.541596550823098,-5.789356327846009,-6.592017245884506
6.959325581395349,6.514632871701069,-5.969114188659537,-6.726835641494652
6.9673248062015505,6.487669192579043,-6.148872049473045,-6.861654037104783
6.9753240310077524,6.460705513457014,-6.3286299102865735,-6.9964724327149295
6.9833232558139535,6.433741834334987,-6.5083877711000815,-7.131290828325061
6.9913224806201555,6.406778155212958,-6.68814563191361,-7.266109223935207
6.9993217054263575,6.379814476090929,-6.867903492727138,-7.400927619545353
7.0073209302325585,6.3528507969689025,-7.047661353540646,-7.5357460151554845
7.0153201550387605,6.325887117846873,-7.227419214354175,-7.670564410765631
7.023319379844962,6.204186046511466,-7.463875968992356,-8.694263565892983
7.0313186046511635,7.790142758461889,-5.346000460511183,-10.407999078977634
7.039317829457365,7.766382684780104,-5.456880804359515,-10.18623839128097
7.047317054263567,7.742622611098316,-5.567761148207859,-9.964477703584281
7.055316279069768,7.7188625374165305,-5.678641492056191,-9.742717015887617
7.06331550387597,7.6951024637347425,-5.7895218359045355,-9.520956328190929
7.071314728682171,7.671342390052957,-5.900402179752867,-9.299195640494265
7.079313953488373,7.647582316371169,-6.011282523601212,-9.077434952797578
7.087313178294574,7.623822242689384,-6.122162867449543,-8.855674265100914
7.095312403100776,7.600062169007596,-6.233043211297887,-8.633913577404225
7.103311627906977,7.5763020953258104,-6.343923555146219,-8.412152889707562
7.111310852713179,7.552542021644022,-6.454803898994563,-8.190392202010873
7.119310077519381,7.528781947962234,-6.565684242842908,-7.968631514314186
7.127309302325582,7.505021874280449,-6.676564586691239,-7.746870826617522
7.135308527131784,11.168062015503008,-6.630697674412843,-7.426976744180378
7.143307751937985,9.284431079034094,-0.6199857435623415,-0.18443107903409584
7.151306976744187,8.282229350440971,-1.0797113071371685,0.8177706495590269
7.159306201550388,7.280027621847961,-1.5394368707119441,1.8199723781520385
7.16730542635659,6.277825893254839,-1.999162434286771,2.822174106745161
7.175304651162791,5.275624164661827,-2.4588879978615474,3.824375835338173
7.183303875968993,4.273422436068704,-2.9186135614363744,4.826577563931295
7.191303100775194,3.2712207074756927,-3.3783391250111503,5.828779292524308
7.199302325581396,2.2690189788825705,-3.8380646885859773,6.830981021117429
7.207301550387597,1.2668172502895594,-4.297790252160753,7.833182749710442
7.215300775193799,0.2646155216964363,-4.75751581573558,8.835384478303565
7.2233,-0.3399999999997335,-6.760000000001154,8.659999999999156
7.231299224806202,7.3,-5.0195582228890565,-5.318161206968409
7.239298449612404,7.3,-5.1399766608318815,-5.429978327915318
7.247297674418605,7.3,-5.260395098774693,-5.541795448862215
7.255296899224807,7.3,-5.380813536717519,-5.653612569809124
7.263296124031008,7.3,-5.501231974660331,-5.765429690756021
7.27129534883721,7.3,-5.621650412603156,-5.87724681170293
7.279294573643411,7.3,-5.7420688505459685,-5.989063932649827
7.287293798449613,7.3,-5.8624872884887935,-6.100881053596736
7.295293023255814,7.3,-5.982905726431605,-6.212698174543633
7.303292248062016,7.3,-6.103324164374431,-6.324515295490542
7.311291472868217,7.3,-6.223742602317243,-6.436332416437439
7.319290697674419,7.3,-6.344161040260069,-6.548149537384348
7.32728992248062,7.708837209302467,-4.181085271317755,-11.013023255813934
7.335289147286822,7.565876469117276,-4.968247061765448,-10.943127448528793
7.343288372093023,7.5142685671417855,-5.07146286571643,-10.857114278569643
7.351287596899225,7.462660665166289,-5.174678669667422,-10.771101108610482
7.359286821705427,7.411052763190792,-5.2778944736184155,-10.685087938651321
7.367286046511628,7.359444861215302,-5.381110277569397,-10.59907476869217
7.37528527131783,7.307836959239805,-5.48432608152039,-10.513061598733008
7.383284496124031,7.2562290572643136,-5.587541885471372,-10.427048428773857
7.391283720930233,7.204621155288818,-5.690757689422365,-10.341035258814696
7.399282945736434,7.153013253313326,-5.793973493373347,-10.255022088855544
7.407282170542636,7.10140535133783,-5.897189297324339,-10.169008918896383
7.4152813953488375,7.049797449362339,-6.000405101275321,-10.082995748937233
7.423280620155039,6.985968992248029,-6.254341085271675,-9.74744186046453
7.4312798449612405,7.122813447927211,-24.294449780923436,0.01855493764746467
7.4392790697674425,7.774924165824112,-21.27735085945377,0.5489383215369449
7.4472782945736435,8.427034883720943,-18.26025193798444,1.0793217054263662
7.4552775193798455,9.079145601617844,-15.243153016514773,1.6097050893158462
7.463276744186047,9.731256319514674,-12.226054095045441,2.1400884732052674
7.4712759689922486,10.383367037411576,-9.208955173575774,2.6704718570947477
7.4792751937984505,11.035477755308477,-6.191856252106106,3.200855240984228
7.487274418604652,11.687588473205306,-3.1747573306367762,3.731238624873649
7.495273643410854,12.33969919110221,-0.15765840916710872,4.26162200876313
7.503272868217055,12.991809908999038,2.8594405123022213,4.792005392652551
7.511272093023257,13.643920626895941,5.876539433771889,5.322388776542031
7.519271317829458,14.29603134479277,8.893638355241222,5.852772160431452
7.52727054263566,0.6030232558222228,-14.246666666653852,0.4589147286806806
7.535269767441861,12.526016504126032,-0.9003200800200055,-6.051317829457365
7.543268992248063,11.958329582395569,-1.3561898808035586,-6.584599483204163
7.551268217054264,11.39064266066517,-1.812059681587061,-7.117881136950902
7.559267441860466,10.822955738934708,-2.267929482370614,-7.6511627906977
7.567266666666667,10.255268817204307,-2.7237992831541167,-8.184444444444438
7.575265891472869,9.687581895473846,-3.17966908393767,-8.717726098191235
7.58326511627907,9.119894973743445,-3.6355388847211723,-9.251007751937975
7.591264341085272,8.552208052012984,-4.091408685504725,-9.784289405684772
7.599263565891474,7.984521130282522,-4.5472784862882785,-10.31757105943157
7.607262790697675,7.416834208552123,-5.00314828707178,-10.850852713178309
7.615262015503877,6.84914728682166,-5.459018087855333,-11.384134366925107
7.623261240310078,6.130193798449488,-5.7432558139533745,-11.9
7.63126046511628,7.220377906976749,-5.351686046511534,-12.742238372092823
7.639259689922481,7.270373062015505,-4.251792635658887,-10.39246608527126
7.647258914728683,7.302883995335117,-3.700939836729113,-8.878872195925064
7.655258139534884,7.309962955340605,-3.948703436921183,-8.58155587569458
7.663257364341086,7.317041915346094,-4.19646703711328,-8.284239555464064
7.671256589147287,7.324120875351581,-4.44423063730535,-7.98692323523358
7.679255813953489,7.3311998353570695,-4.691994237497447,-7.689606915003063
7.68725503875969,7.338278795362558,-4.939757837689517,-7.39229059477258
7.695254263565892,7.345357755368046,-5.187521437881614,-7.0949742745420625
7.703253488372093,7.352436715373534,-5.435285038073684,-6.797657954311579
7.711252713178295,7.359515675379022,-5.683048638265781,-6.500341634081062
7.719251937984497,7.366594635384511,-5.930812238457879,-6.203025313850546
7.727251162790698,7.373673595389999,-6.178575838649948,-5.9057089936200615
7.7352503875969,7.380752555395487,-6.426339438842046,-5.608392673389545
7.743249612403101,7.387831515400975,-6.674103039034115,-5.311076353159061
7.751248837209303,7.394910475406464,-6.921866639226213,-5.013760032928545
7.759248062015504,7.325064599483185,-8.149095607235411,-3.5635658914725514
7.767247286821706,5.317036175710234,-11.712175710594662,3.9082118863059456
7.775246511627907,1.7707131782944519,-15.125178294573761,14.093891472868567
7.783245736434109,-1.7756098191217236,-18.538180878553238,24.279571059432318
7.79124496124031,-5.3219328165375055,-21.951183462532335,34.46525064599494
7.799244186046512,8.878033367037363,-10.112133468149448,5.387790697674373
7.807243410852713,8.44329288843948,-8.373171553757919,4.987829457364321
7.815242635658915,8.008552409841549,-6.634209639366198,4.5878682170542255
7.823241860465116,7.573811931243667,-4.895247724974668,4.1879069767441734
7.831241085271318,7.139071452645737,-3.156285810582947,3.787945736434078
7.83924031007752,6.7043309740478065,-1.4173238961912258,3.3879844961239822
7.847239534883721,4.060813953489675,-12.096976744184973,-2.9140697674417835
7.855238759689923,7.2241758465932095,-5.7690310077519085,-1.2034965320277218
7.863237984496124,7.108397592819248,-5.569050387596882,-1.056142390860861
7.871237209302326,6.992619339045273,-5.369069767441835,-0.9087882496939835
7.8792364341085275,6.876841085271311,-5.169089147286809,-0.7614341085271226
7.887235658914729,6.761062831497336,-4.969108527131762,-0.6140799673602452
7.8952348837209305,6.645284577723373,-4.769127906976736,-0.4667258261933842
7.9032341085271325,6.5295063239493984,-4.569147286821688,-0.3193716850265069
7.911233333333334,6.413728070175436,-4.369166666666662,-0.17201754385964585
7.9192325581395355,6.297949816401461,-4.169186046511615,-0.024663402692768566
7.927231782945737,5.091395348837075,-4.246356589147317,1.023837209302438
7.935231007751939,4.331507504535712,-11.3,-1.5954989279234697
7.94323023255814,4.391076199901039,-11.3,-1.5869891142998516
7.951229457364342,4.450644895266373,-11.3,-1.5784793006762325
7.959228682170544,4.5102135906317065,-11.3,-1.5699694870526135
7.967227906976745,4.569782285997033,-11.3,-1.5614596734289954
7.975227131782947,4.629350981362367,-11.3,-1.5529498598053761
7.983226356589148,4.688919676727694,-11.3,-1.544440046181758
7.99122558139535,4.7484883720930275,-11.3,-1.535930232558139
7.999224806201551,4.808057067458354,-11.3,-1.5274204189345209
8.007224031007752,4.867625762823682,-11.3,-1.5189106053109027
8.015223255813954,4.927194458189015,-11.3,-1.5104007916872835
8.023222480620156,4.986763153554349,-11.3,-1.5018909780636645
8.031221705426358,4.591855297157611,-7.118552971576113,2.167421188630445
8.039220930232558,4.538527131782946,-6.585271317829454,1.9541085271317815
8.04722015503876,4.909385807990466,-5.409385807990466,2.4125144106539533
8.055219379844962,4.97091830649971,-5.47091830649971,2.4945577419996137
8.063218604651164,5.032450805008955,-5.532450805008955,2.5766010733452736
8.071217829457366,5.0939833035182005,-5.5939833035182005,2.6586444046909334
8.079217054263566,5.155515802027431,-5.655515802027431,2.740687736036575
8.087216279069768,5.217048300536677,-5.717048300536677,2.822731067382235
8.09521550387597,5.278580799045922,-5.778580799045922,2.904774398727895
8.103214728682172,5.340113297555166,-5.840113297555166,2.986817730073555
8.111213953488372,5.401645796064398,-5.901645796064398,3.068861061419197
8.119213178294574,5.463178294573643,-5.963178294573643,3.150904392764857
8.127212403100776,3.1787596899224577,-11.11062015503877,3.0531007751938555
8.135211627906978,3.8056039009752443,-8.515941485371336,4.467246811702932
8.143210852713178,3.8142052179711583,-8.386921730432624,4.570462615653901
8.15121007751938,3.8228065349670746,-8.257901975493882,4.673678419604895
8.159209302325582,3.8314078519629904,-8.12888222055514,4.776894223555888
8.167208527131784,3.8400091689589066,-7.999862465616399,4.8801100275068805
8.175207751937984,3.8486104859548207,-7.870842710677686,4.983325831457851
8.183206976744186,3.857211802950737,-7.741822955738945,5.086541635408844
8.191206201550388,3.8658131199466528,-7.612803200800204,5.189757439359837
8.19920542635659,3.874414436942569,-7.483783445861462,5.29297324331083
8.207204651162792,3.8830157539384853,-7.35476369092272,5.3961890472618235
8.215203875968992,3.8916170709343993,-7.225743935984008,5.499404851212793
8.223203100775194,3.9,-6.967984496124167,5.721860465116153
8.231202325581396,2.7708139534886898,-7.679767441860375,4.8
8.239201550387598,3.2473464519975956,-7.461836612999399,4.8190816935003005
8.247200775193798,3.0504424567680513,-7.412610614192013,4.843694692903993
8.2552,2.853538461538463,-7.363384615384615,4.868307692307692
8.263199224806202,2.6566344663088746,-7.3141586165772186,4.8929206917113905
8.271198449612404,2.459730471079286,-7.264932617769821,4.917533691115089
8.279197674418604,2.2628264758497414,-7.215706618962435,4.942146690518782
8.287196899224806,2.065922480620153,-7.166480620155038,4.966759689922481
8.295196124031008,1.869018485390565,-7.117254621347641,4.991372689326179
8.30319534883721,-0.9683720930233657,-4.639069767441923,8.809767441860481
8.31119457364341,-1.6,-5.058741646618551,8.88931970061481
8.319193798449612,-1.6,-5.134596364608397,8.875527933707565
8.327193023255814,-1.6,-5.210451082598244,8.86173616680032
8.335192248062016,-1.6,-5.2863058005880905,8.847944399893075
8.343191472868218,-1.6,-5.362160518577936,8.83415263298583
8.351190697674419,-1.6,-5.438015236567766,8.820360866078587
8.35918992248062,-1.6,-5.513869954557612,8.806569099171343
8.367189147286823,-1.6,-5.589724672547459,8.792777332264098
8.375188372093024,-1.6,-5.665579390537306,8.778985565356853
8.383187596899225,-1.6,-5.741434108527135,8.765193798449612
8.391186821705427,-1.6,-5.8172888265169815,8.751402031542366
8.399186046511629,-1.6,-5.893143544506827,8.737610264635121
8.40718527131783,-1.6,-5.968998262496674,8.723818497727876
8.41518449612403,-1.6,-6.044852980486504,8.710026730820635
8.423183720930233,-2.6142894056847625,-7.657131782945712,9.614289405684762
8.431182945736435,-3.2364513350560027,-5.790645994831991,10.236451335056003
8.439182170542637,-3.378067071115612,-5.553159757330632,10.323420121334685
8.447181395348839,-3.4650151668352,-5.50099089989888,10.349504550050561
8.455180620155039,-3.551963262554769,-5.448822042467138,10.375588978766432
8.46317984496124,-3.638911358274356,-5.396653185035386,10.401673407482308
8.471179069767443,-3.725859453993944,-5.344484327603634,10.427757836198184
8.479178294573645,-3.812807549713532,-5.29231547017188,10.45384226491406
8.487177519379845,-3.8997556454331006,-5.24014661274014,10.479926693629931
8.495176744186047,-3.986703741152688,-5.187977755308387,10.506011122345807
8.503175968992249,-4.073651836872276,-5.135808897876634,10.532095551061683
8.51117519379845,-4.160599932591864,-5.083640040444882,10.55817997977756
8.519174418604651,-4.247548028311432,-5.0314711830131404,10.584264408493429
8.527173643410853,-3.4283462532298556,-7.878242894056872,14.167467700258292
8.535172868217055,-1.4086434108527348,-4.68271317829453,9.018488372092566
8.543172093023257,-1.5201263902932265,-4.419494438827094,7.059747219413547
8.551171317829457,-1.546210819009097,-4.315156723963612,7.007578361981806
8.559170542635659,-1.5722952477249734,-4.210819009100106,6.955409504550053
8.567169767441861,-1.5983796764408498,-4.106481294236601,6.9032406471183005
8.575168992248063,-1.6244641051567261,-4.0021435793730955,6.851071789686547
8.583168217054265,-1.6505485338726025,-3.8978058645095905,6.798902932254795
8.591167441860465,-1.676632962588473,-3.7934681496461082,6.746734074823054
8.599166666666667,-1.7027173913043492,-3.689130434782603,6.694565217391301
8.607165891472869,-1.7288018200202255,-3.5847927199190974,6.642396359959549
8.615165116279071,-1.7548862487361019,-3.4804550050555925,6.590227502527796
8.623164341085271,-1.7809706774519725,-3.37611729019211,6.538058645096055
8.631163565891473,-2.4745348837209526,-3.7308527131784146,6.349069767441906
8.639162790697675,-2.5898221614227075,-5.497455540355677,9.079644322845414
8.647162015503877,-2.552178750569992,-5.488044687642498,9.004357501139983
8.655161240310077,-2.514535339717285,-5.4786338349293215,8.929070679434568
8.66316046511628,-2.476891928864569,-5.4692229822161424,8.853783857729137
8.671159689922481,-2.4392485180118535,-5.459812129502963,8.778497036023706
8.679158914728683,-2.401605107159138,-5.450401276789784,8.703210214318275
8.687158139534885,-2.3639616963064225,-5.440990424076606,8.627923392612844
8.695157364341085,-2.3263182854537154,-5.431579571363429,8.552636570907431
8.703156589147287,-2.288674874601,-5.4221687186502505,8.477349749202
8.71115581395349,-2.2510314637482844,-5.412757865937071,8.40206292749657
8.719155038759691,-2.213388052895569,-5.403347013223892,8.326776105791138
8.727154263565891,-2.10016069121447,-5.00112483850129,8.3
8.735153488372093,-2.1084932170542636,-5.059452519379845,8.3
8.743152713178295,-2.1168257428940573,-5.117780200258401,8.3
8.751151937984497,-2.125158268733851,-5.176107881136957,8.3
8.759151162790697,-2.133490794573643,-5.2344355620155,8.3
8.7671503875969,-2.1418233204134367,-5.292763242894056,8.3
8.775149612403101,-2.1501558462532304,-5.351090923772612,8.3
8.783148837209303,-2.158488372093024,-5.409418604651168,8.3
8.791148062015504,-2.166820897932816,-5.467746285529711,8.3
8.799147286821706,-2.17515342377261,-5.526073966408267,8.3
8.807146511627908,-2.1834859496124035,-5.584401647286823,8.3
8.81514573643411,-2.191818475452197,-5.6427293281653785,8.3
8.823144961240311,-2.192751937984444,-5.707248062015556,8.307248062015557
8.831144186046512,-2.2228837209302275,-5.615674418604659,8.277116279069771
8.839143410852714,-2.3,-4.857105943152415,8.028552971576207
8.847142635658916,-2.3,-4.8,8.025816755393672
8.855141860465118,-2.3,-4.8,8.05472961613898
8.863141085271318,-2.3,-4.8,8.08364247688428
8.87114031007752,-2.3,-4.8,8.11255533762959
8.879139534883722,-2.3,-4.8,8.141468198374898
8.887138759689924,-2.3,-4.8,8.170381059120206
8.895137984496124,-2.3,-4.8,8.199293919865509
8.903137209302326,-2.3,-4.8,8.228206780610817
8.911136434108528,-2.3,-4.8,8.257119641356125
8.91913565891473,-2.3,-4.8,8.286032502101433
8.927134883720932,-2.2573023255813722,-5.4,8.2
8.935134108527132,-2.1023712316968135,-5.202371231696813,8.097628768303187
8.943133333333334,-2.1112592592592603,-5.21125925925926,8.08874074074074
8.951132558139536,-2.1201472868217066,-5.220147286821707,8.079852713178292
8.959131782945738,-2.1290353143841534,-5.229035314384153,8.070964685615847
8.967131007751938,-2.137923341946598,-5.237923341946598,8.062076658053401
8.97513023255814,-2.1468113695090447,-5.246811369509045,8.053188630490956
8.983129457364342,-2.1556993970714915,-5.255699397071491,8.044300602928509
8.991128682170544,-2.164587424633938,-5.2645874246339375,8.035412575366061
8.999127906976744,-2.173475452196383,-5.273475452196383,8.026524547803618
9.007127131782946,-2.182363479758829,-5.282363479758829,8.01763652024117
9.015126356589148,-2.191251507321276,-5.291251507321276,8.008748492678723
9.02312558139535,-2.2,-5.28116279069747,7.99372093023249
9.03112480620155,-2.2988033976579247,-5.103589807026226,8.20239320468415
9.039124031007752,-2.2902935840343055,-5.129119247897083,8.219412831931388
9.047123255813954,-2.2817837704106867,-5.1546486887679395,8.236432459178626
9.055122480620156,-2.2732739567870675,-5.180178129638796,8.253452086425865
9.063121705426358,-2.2647641431634487,-5.205707570509654,8.270471713673102
9.071120930232558,-2.2562543295398316,-5.231237011380506,8.287491340920337
9.07912015503876,-2.247744515916213,-5.256766452251362,8.304510968167575
9.087119379844962,-2.2392347022925936,-5.282295893122219,8.321530595414814
9.095118604651164,-2.230724888668975,-5.307825333993076,8.33855022266205
9.103117829457364,-2.2222150750453578,-5.333354774863928,8.355569849909285
9.111117054263566,-2.2137052614217385,-5.3588842157347845,8.372589477156524
9.119116279069768,-2.2051954477981197,-5.384413656605642,8.389609104403762
9.12711550387597,-1.8884496124030454,-5.2595736434106595,8.923100775193909
9.13511472868217,-1.8054997082603974,-4.927498541301987,9.4
9.143113953488372,-1.8141010252563134,-4.970505126281568,9.4
9.151113178294574,-1.8227023422522295,-5.013511711261148,9.4
9.159112403100776,-1.8313036592481458,-5.0565182962407285,9.4
9.167111627906978,-1.8399049762440618,-5.099524881220309,9.4
9.175110852713178,-1.8485062932399758,-5.14253146619988,9.4
9.18311007751938,-1.857107610235892,-5.185538051179461,9.4
9.191109302325582,-1.8657089272318081,-5.228544636159041,9.4
9.199108527131784,-1.8743102442277242,-5.271551221138622,9.4
9.207107751937984,-1.8829115612236382,-5.314557806118192,9.4
9.215106976744186,-1.8915128782195545,-5.357564391097773,9.4
9.223106201550388,-1.899336240310077,-5.392698643410849,9.400663759689923
9.23110542635659,-1.849341085271315,-4.842751937984464,9.450658914728685
9.23910465116279,-1.8523255813949255,-4.34186046511594,9.47906976744203
9.247103875968993,-2.50360915810348,-5.171126735172161,9.4180457905174
9.255103100775194,-2.512910582296738,-5.096715341626096,9.46455291148369
9.263102325581396,-2.522212006489996,-5.022303948080031,9.511060032449981
9.271101550387597,-2.531513430683252,-4.947892554533984,9.55756715341626
9.279100775193799,-2.54081485487651,-4.873481160987919,9.604074274382551
9.2871,-2.5501162790697682,-4.799069767441854,9.65058139534884
9.295099224806203,-2.5594177032630263,-4.724658373895791,9.697088516315132
9.303098449612405,-2.5687191274562844,-4.650246980349726,9.743595637281421
9.311097674418605,-2.5780205516495402,-4.575835586803677,9.790102758247702
9.319096899224807,-2.5873219758427983,-4.501424193257613,9.836609879213992
9.327096124031009,-2.5966234000360564,-4.427012799711549,9.883117000180283
9.33509534883721,-2.45476744186053,-4.1809302325578805,9.55476744186053
9.34309457364341,-2.5907657975099836,-3.1722973925299502,9.490765797509983
9.351093798449613,-2.578645759924829,-3.1359372797744873,9.478645759924829
9.359093023255815,-2.5665257223396747,-3.099577167019024,9.466525722339675
9.367092248062017,-2.5544056847545202,-3.063217054263561,9.454405684754521
9.375091472868217,-2.5422856471693684,-3.0268569415081057,9.442285647169369
9.383090697674419,-2.5301656095842144,-2.9904968287526428,9.430165609584215
9.39108992248062,-2.51804557199906,-2.95413671599718,9.41804557199906
9.399089147286823,-2.5059255344139055,-2.9177766032417165,9.405925534413907
9.407088372093025,-2.0544186046512376,-2.736744186046287,8.608837209302475
9.415087596899225,-2.106163127738457,-2.5815106167846293,8.743141894169197
9.423086821705427,-2.113118975396024,-2.560643073811929,8.791832827772167
9.431086046511629,-2.120074823053591,-2.539775530839228,8.840523761375135
9.43908527131783,-2.1270306707111577,-2.5189079878665273,8.889214694978103
9.447084496124031,-2.133986518368723,-2.498040444893831,8.93790562858106
9.455083720930233,-2.14094236602629,-2.47717290192113,8.98659656218403
9.463082945736435,-2.147898213683857,-2.4563053589484296,9.035287495786998
9.471082170542637,-2.1548540613414238,-2.4354378159757286,9.083978429389965
9.479081395348837,-2.1618099089989893,-2.4145702730030325,9.132669362992925
9.487080620155039,-2.168765756656556,-2.393702730030332,9.181360296595892
9.495079844961241,-2.175721604314123,-2.372835187057631,9.23005123019886
9.503079069767443,-2.18267745197169,-2.3519676440849304,9.278742163801828
9.511078294573643,-2.1896332996292553,-2.3311001011122343,9.327433097404787
9.519077519379845,-2.196589147286822,-2.3102325581395333,9.376124031007755
9.527076744186047,-2.1179457364341214,-1.3717829457364845,9.817945736434122
9.535075968992249,-2.197660936973373,-1.2964914054600596,9.898830468486686
9.543075193798451,-2.1802713178294555,-1.2704069767441832,9.890135658914728
9.551074418604651,-2.162881698685542,-1.2443225480283127,9.881440849342772
9.559073643410853,-2.1454920795416244,-1.2182381193124365,9.872746039770812
9.567072868217055,-2.128102460397707,-1.1921536905965602,9.864051230198854
9.575072093023257,-2.110712841253789,-1.1660692618806838,9.855356420626896
9.583071317829457,-2.0933232221098756,-1.1399848331648132,9.846661611054937
9.59107054263566,-2.075933602965958,-1.113900404448937,9.83796680148298
9.599069767441861,-2.0585439838220405,-1.0878159757330605,9.829271991911021
9.607068992248063,-2.041154364678123,-1.0617315470171842,9.820577182339061
9.615068217054263,-2.0237647455342094,-1.0356471183013136,9.811882372767105
9.623067441860465,-2.0063751263902914,-1.0095626895854375,9.803187563195147
9.631066666666667,-1.8479999999999601,-1.0,9.74933333333332
9.63906589147287,-2.2492248062017186,-0.6720930232556698,9.354844961240033
9.647065116279071,-3.3691162790700178,0.2878139534885866,7.515023255813542
9.655064341085271,-2.3548406546080933,0.3943550818260117,9.583065245478034
9.663063565891473,-2.2659603789836282,0.38324504737295356,9.54973514211886
9.671062790697675,-2.177080103359163,0.3721350129198954,9.516405038759686
9.679062015503877,-2.088199827734698,0.36102497846683723,9.483074935400511
9.687061240310078,-1.9993195521102527,0.3499149440137816,9.449744832041345
9.69506046511628,-1.9104392764857876,0.33880490956072346,9.41641472868217
9.703059689922481,-1.8215590008613225,0.3276948751076653,9.383084625322997
9.711058914728683,-1.7326787252368574,0.3165848406546071,9.349754521963822
9.719058139534884,-1.643798449612412,0.3054748062015515,9.316424418604655
9.727057364341086,-1.549282945736434,0.3,9.147848837209303
9.735056589147288,-1.0,0.7056589147287216,9.311317829457442
9.74305581395349,-1.0243303929430652,0.7675594760759132,9.508110130981022
9.75105503875969,-1.0519139267575486,0.7307814309899352,9.517304642252515
9.759054263565892,-1.0794974605720382,0.694003385903949,9.526499153524012
9.767053488372094,-1.1070809943865279,0.6572253408179629,9.53569366479551
9.775052713178296,-1.1346645282010175,0.6204472957319768,9.544888176067005
9.783051937984498,-1.1622480620155071,0.5836692506459906,9.554082687338502
9.791051162790698,-1.1898315958299905,0.5468912055600126,9.563277198609997
9.7990503875969,-1.2174151296444802,0.5101131604740264,9.572471709881492
9.807049612403102,-1.2449986634589698,0.47333511538804024,9.58166622115299
9.815048837209304,-1.2725821972734594,0.4365570703020541,9.590860732424487
9.823048062015504,-1.2975968992248264,0.39759689922482633,9.592790697674479
9.831047286821706,-1.0810852713174888,0.7976356589146861,9.302364341085315
9.839046511627908,-0.31577034883721294,0.9052567829457376,9.405256782945738
9.84704573643411,-0.34076792635659403,0.9135893087855314,9.413589308785532
9.85504496124031,-0.3657655038759696,0.9219218346253232,9.421921834625323
9.863044186046512,-0.3907630813953507,0.9302543604651169,9.430254360465117
9.871043410852714,-0.41576065891473185,0.9385868863049106,9.438586886304911
9.879042635658916,-0.44075823643411294,0.9469194121447043,9.446919412144705
9.887041860465118,-0.4657558139534941,0.955251937984498,9.455251937984498
9.895041085271318,-0.49075339147286967,0.9635844638242899,9.46358446382429
9.90304031007752,-0.5157509689922508,0.9719169896640836,9.471916989664084
9.911039534883722,-0.5407485465116318,0.9802495155038773,9.480249515503877
9.919038759689924,-0.565746124031013,0.988582041343671,9.48858204134367
9.927037984496124,-0.5907437015503886,0.9969145671834628,9.496914567183463
9.935037209302326,-0.5987596899224822,1.1028940568475416,9.400826873385013
9.943036434108528,-0.3321188630490934,1.725055986218782,9.578587424633938
9.95103565891473,-0.27328230791874975,1.8089058973604168,9.591094102639582
9.95903488372093,-0.24290550485722961,1.8190314983809235,9.580968501619076
9.967034108527132,-0.2125287017957027,1.8291570994014323,9.570842900598567
9.975033333333334,-0.1821518987341758,1.8392827004219414,9.560717299578059
9.983032558139536,-0.15177509567264894,1.8494083014424503,9.55059169855755
9.991031782945736,-0.12139829261112878,1.8595339024629571,9.540466097537044
9.999031007751938,-0.09102148954960187,1.869659503483466,9.530340496516533
10.00703023255814,-0.060644686488075,1.8797851045039748,9.520214895496025
10.015029457364342,-0.03026788342654807,1.889910705524484,9.510089294475517
10.023028682170544,-0.0028682170544429915,1.882790697673342,9.485658914727786
10.031027906976744,-0.6874418604653244,0.8097674418603032,9.208372093023117
10.039027131782946,0.21339362618432622,1.5468776916451417,9.773212747631348
10.047026356589148,0.2311696813092195,1.6090938845822682,9.73766063738156
10.05502558139535,0.24894573643411277,1.6713100775193948,9.702108527131776
10.06302480620155,0.2667217915590021,1.7335262704565075,9.666556416881996
10.071024031007752,0.28449784668389544,1.7957424633936339,9.63100430663221
10.079023255813954,0.3022739018087887,1.8579586563307604,9.595452196382423
10.087022480620156,0.320049956933682,1.920174849267887,9.559900086132636
10.095021705426356,0.3378260120585713,1.9823910422049997,9.524347975882858
10.103020930232558,0.3556020671834646,2.0446072351421263,9.48879586563307
10.11102015503876,0.3733781223083579,2.106823428079253,9.453243755383285
10.119019379844962,0.3911541774332512,2.1690396210163794,9.417691645133498
10.127018604651164,-0.43790697674305024,0.7583720930240421,9.458372093024042
10.135017829457365,-0.4948797658598329,1.3487976585983286,10.469278595158997
10.143017054263566,-0.48671729156779,1.2671729156778997,10.42030374940674
10.151016279069768,-0.47855481727574706,1.1855481727574706,10.371328903654483
10.15901550387597,-0.47039234298370414,1.1039234298370415,10.322354057902224
10.16701472868217,-0.46222986869166305,1.0222986869166306,10.273379212149978
10.175013953488373,-0.4540673943996202,0.9406739439962015,10.22440436639772
10.183013178294575,-0.44590492010757726,0.8590492010757724,10.175429520645464
10.191012403100776,-0.43774244581553434,0.7774244581553433,10.126454674893207
10.199011627906977,-0.42957997152349325,0.6957997152349324,10.077479829140959
10.207010852713179,-0.42141749723145033,0.6141749723145034,10.028504983388702
10.21501007751938,-0.4132550229394074,0.5325502293940744,9.979530137636445
10.223009302325583,-0.40509254864736455,0.4509254864736453,9.930555291884188
10.231008527131783,0.49744186046513134,1.497868217054276,10.09829457364342
10.239007751937985,-0.19522579057462836,0.5047742094253717,9.904774209425373
10.247006976744187,-0.18252860834256152,0.5174713916574385,9.917471391657438
10.255006201550389,-0.16983142611049468,0.5301685738895053,9.930168573889505
10.26300542635659,-0.15713424387842784,0.5428657561215722,9.942865756121572
10.27100465116279,-0.1444370616463638,0.5555629383536362,9.955562938353637
10.279003875968993,-0.13173987941429693,0.5682601205857031,9.968260120585704
10.287003100775195,-0.1190426971822301,0.5809573028177699,9.98095730281777
10.295002325581397,-0.10634551495016326,0.5936544850498368,9.993654485049836
10.303001550387597,0.11993798449611404,1.159968992248057,10.019937984496114
10.311000775193799,0.0769350029815241,1.2154025044722863,9.823064997018475
10.319,0.2,1.4,9.7
