accel_time_list,vertical_Accel_x,vertical_Accel_y,vertical_Accel_z
0.0,0.879,7.493,-6.907
0.007994345718901454,0.6388462516756608,7.593026080156738,-6.043043043000035
0.015988691437802908,0.6456499501598323,7.601275564568796,-6.027309490255388
0.023983037156704363,0.6524536486440037,7.609525048980855,-6.011575937510742
0.031977382875605816,0.6592573471281752,7.617774533392912,-5.995842384766095
0.03997172859450727,0.6660610456123466,7.62602401780497,-5.980108832021449
0.04796607431340873,0.6728647440965181,7.634273502217028,-5.964375279276802
0.05596042003231018,0.6796684425806895,7.642522986629086,-5.948641726532156
0.06395476575121163,0.686472141064861,7.650772471041144,-5.932908173787509
0.07194911147011308,0.6932758395490324,7.659021955453202,-5.917174621042863
0.07994345718901454,0.7000795380332039,7.667271439865259,-5.901441068298216
0.08793780290791599,0.7068832365173753,7.6755209242773175,-5.88570751555357
0.09593214862681745,0.7136869350015468,7.683770408689376,-5.869973962808923
0.1039264943457189,0.9353327948303752,7.910753634894993,-5.993525040387721
0.11192084006462036,0.8262974942426012,7.76111873990307,-5.892937407623827
0.11991518578352181,0.7984023304574983,7.749127221324717,-5.888515003609116
0.12790953150242326,0.7705071666723954,7.737135702746365,-5.884092599594404
0.13590387722132471,0.7426120028872925,7.7251441841680135,-5.879670195579693
0.14389822294022617,0.7147168391021895,7.713152665589661,-5.8752477915649814
0.15189256865912762,0.6868216753170866,7.701161147011309,-5.87082538755027
0.15988691437802907,0.6589265115319836,7.689169628432957,-5.866402983535559
0.16788126009693052,0.6310313477468807,7.677178109854604,-5.861980579520846
0.17587560581583198,0.6031361839617777,7.665186591276252,-5.857558175506135
0.18386995153473343,0.5752410201766748,7.6531950726979,-5.853135771491424
0.1918642972536349,0.5473458563915717,7.6412035541195475,-5.848713367476712
0.19985864297253636,0.5194506926064688,7.629212035541196,-5.844290963462001
0.2078529886914378,0.6226445880452274,7.791531502423264,-5.834497576736671
0.21584733441033926,0.9006161012385568,7.674677867528271,-5.822751480883144
0.22384168012924072,0.8823179321486269,7.6810733441033925,-5.818310177705977
0.23183602584814217,0.8640197630586968,7.687468820678514,-5.81386887452881
0.23983037156704362,0.8457215939687668,7.693864297253635,-5.809427571351642
0.24782471728594507,0.8274234248788368,7.700259773828756,-5.804986268174475
0.2558190630048465,0.8091252557889068,7.706655250403877,-5.800544964997307
0.263813408723748,0.7908270866989768,7.713050726978999,-5.79610366182014
0.27180775444264943,0.7725289176090469,7.71944620355412,-5.791662358642972
0.2798021001615509,0.7542307485191169,7.725841680129241,-5.787221055465805
0.28779644588045233,0.7359325794291869,7.732237156704362,-5.782779752288637
0.2957907915993538,0.7176344103392569,7.738632633279483,-5.7783384491114695
0.30378513731825524,0.6737932148626818,7.527066970186517,-5.736515053605522
0.3117794830371567,0.5698667205169631,7.588841459832574,-5.527935306212366
0.31977382875605814,0.4480929772878457,7.560046488643923,-5.575484196521904
0.3277681744749596,0.4398164781906301,7.555908239095316,-5.584983360258481
0.33576252019386105,0.43153997909341446,7.551769989546707,-5.594482523995058
0.3437568659127625,0.42326347999619884,7.547631739998099,-5.603981687731635
0.35175121163166395,0.4149869808989832,7.5434934904494915,-5.613480851468212
0.3597455573505654,0.4067104818017676,7.539355240900884,-5.6229800152047895
0.36773990306946686,0.398433982704552,7.535216991352276,-5.632479178941367
0.3757342487883683,0.3901574836073364,7.531078741803668,-5.641978342677943
0.3837285945072698,0.38188098451012065,7.5269404922550605,-5.65147750641452
0.39172294022617127,0.37360448541290503,7.522802242706453,-5.660976670151097
0.3997172859450727,0.3653279863156894,7.518663993157845,-5.670475833887674
0.40771163166397417,-1.2126409531502809,8.310051696284336,-4.3675302907916
0.4157059773828756,-1.4664957505092364,8.32092993608204,-4.451907635035472
0.4237003231017771,-1.4317377256444475,8.289734608765892,-4.534805524337993
0.43169466882067853,-1.3969797007796585,8.258539281449744,-4.617703413640514
0.43968901453958,-1.3622216759148695,8.227343954133596,-4.700601302943036
0.44768336025848143,-1.3274636510500808,8.196148626817449,-4.783499192245557
0.4556777059773829,-1.2927056261852918,8.164953299501299,-4.866397081548079
0.46367205169628434,-1.2579476013205029,8.133757972185151,-4.949294970850601
0.4716663974151858,-1.223189576455714,8.102562644869003,-5.032192860153122
0.47966074313408724,-1.188431551590925,8.071367317552856,-5.115090749455644
0.4876550888529887,-1.1536735267261362,8.040171990236708,-5.197988638758165
0.49564943457189015,-1.1189155018613473,8.00897666292056,-5.2808865280606865
0.5036437802907916,-1.0392703284868068,7.908800350026926,-5.3454334948842215
0.511638126009693,-1.2914288074607139,8.212470645469232,-4.409692374063739
0.5196324717285945,-1.184050209281833,8.205838972316052,-4.481005571669849
0.527626817447496,-1.0766716111029522,8.199207299162872,-4.552318769275958
0.5356211631663974,-0.9692930129240712,8.192575626009692,-4.623631966882067
0.5436155088852989,-0.8619144147451903,8.185943952856514,-4.6949451644881774
0.5516098546042003,-0.7545358165663094,8.179312279703334,-4.766258362094287
0.5596042003231018,-0.6471572183874285,8.172680606550154,-4.837571559700397
0.5675985460420032,-0.5397786202085476,8.166048933396974,-4.908884757306506
0.5755928917609047,-0.43240002202966665,8.159417260243796,-4.980197954912615
0.5835872374798061,-0.3250214238507858,8.152785587090616,-5.051511152518725
0.5915815831987076,-0.21764282567190496,8.146153913937436,-5.1228243501248345
0.599575928917609,-0.07307754442649432,8.170236268174476,-5.0792855411954765
0.6075702746365105,0.4417681484183646,8.980221637396424,-3.1890135494293608
0.6155646203554119,0.5474998176038355,8.9558947574131,-3.1483541351816147
0.6235589660743134,0.6532314867893063,8.931567877429776,-3.1076947209338686
0.6315533117932148,0.7589631559747771,8.907240997446454,-3.0670353066861225
0.6395476575121163,0.864694825160248,8.88291411746313,-3.0263758924383763
0.6475420032310177,0.9704264943457188,8.858587237479806,-2.9857164781906302
0.6555363489499192,1.0761581635311896,8.834260357496483,-2.945057063942884
0.6635306946688206,1.1818898327166605,8.809933477513159,-2.904397649695138
0.6715250403877221,1.2876215019021313,8.785606597529835,-2.863738235447392
0.6795193861066235,1.3933531710876024,8.761279717546511,-2.823078821199646
0.687513731825525,1.4990848402730732,8.736952837563187,-2.7824194069518997
0.6955080775444265,1.604816509458544,8.712625957579863,-2.7417599927041536
0.7035024232633279,2.0675605815831983,10.088411147011309,-2.108542272482499
0.7114967689822294,2.2674192245557347,10.620035137318254,-1.6981658589122248
0.7194911147011308,2.3057011308562263,11.356208400646192,-0.7290646203554378
0.7274854604200323,2.272946677982045,11.54429562790127,-0.005369665242020094
0.7354798061389337,2.403183677225414,11.482668329891005,0.12132553526512682
0.7434741518578352,2.5334206764687828,11.421041031880739,0.24802073577227374
0.7514684975767366,2.663657675712152,11.359413733870474,0.3747159362794207
0.7594628432956381,2.793894674955521,11.297786435860209,0.5014111367865677
0.7674571890145396,2.9241316741988923,11.236159137849942,0.6281063372937163
0.7754515347334411,3.0543686734422613,11.174531839839677,0.7548015378008632
0.7834458804523425,3.18460567268563,11.11290454182941,0.8814967383080102
0.791440226171244,3.3148426719289996,11.051277243819145,1.0081919388151572
0.7994345718901454,3.488410339256866,10.742903877221325,1.280534733441034
0.8074289176090469,3.480056914378029,8.155786147011309,2.6859857108239096
0.8154232633279483,3.474780646203554,8.165779079159936,2.6859057673667204
0.8234176090468498,3.469504378029079,8.175772011308561,2.6858258239095316
0.8314119547657512,3.464228109854604,8.185764943457189,2.6857458804523424
0.8394063004846527,3.458951841680129,8.195757875605816,2.6856659369951537
0.8474006462035542,3.453675573505654,8.205750807754443,2.6855859935379645
0.8553949919224556,3.448399305331179,8.21574373990307,2.6855060500807753
0.8633893376413571,3.4431230371567043,8.225736672051696,2.6854261066235865
0.8713836833602585,3.4378467689822294,8.235729604200323,2.6853461631663973
0.87937802907916,3.4325705008077545,8.24572253634895,2.6852662197092085
0.8873723747980614,3.4272942326332796,8.255715468497577,2.6851862762520193
0.8953667205169629,3.4220179644588047,8.265708400646204,2.6851063327948306
0.9033610662358643,3.4167416962843298,8.27570133279483,2.6850263893376414
0.9113554119547658,3.594108239095319,9.211738287560582,2.4748739903069517
0.9193497576736672,3.0915983759884362,9.140713045234248,1.8304499936229912
0.9273441033925687,3.0583587279993196,9.12272576736672,1.7655485290366466
0.9353384491114701,3.025119080010203,9.104738489499193,1.7006470644503018
0.9433327948303716,2.9918794320210864,9.086751211631663,1.6357455998639572
0.951327140549273,2.9586397840319703,9.068763933764135,1.5708441352776124
0.9593214862681745,2.9254001360428536,9.050776655896607,1.5059426706912675
0.9673158319870759,2.892160488053737,9.03278937802908,1.441041206104923
0.9753101777059774,2.8589208400646204,9.014802100161551,1.3761397415185783
0.9833045234248788,2.825681192075504,8.996814822294022,1.3112382769322335
0.9912988691437803,2.4957326332794816,9.301681744749597,0.7558004846526635
0.9992932148626817,2.8769756248218186,9.248313194906396,1.3763639408913808
1.0072875605815832,2.8987641357027463,9.222370759289177,1.4015226171243942
1.0152819063004845,2.9205526465836735,9.196428323671958,1.4266812933574073
1.023276252019386,2.9423411574646012,9.170485888054738,1.451839969590421
1.0312705977382877,2.964129668345529,9.144543452437517,1.4769986458234348
1.039264943457189,2.985918179226456,9.1186010168203,1.5021573220564477
1.0472592891760906,3.007706690107384,9.092658581203079,1.5273159982894615
1.055253634894992,3.029495200988311,9.066716145585861,1.5524746745224745
1.0632479806138935,3.051283711869239,9.04077370996864,1.5776333507554883
1.0712423263327948,3.073072222750166,9.014831274351423,1.6027920269885012
1.0792366720516964,3.094860733631094,8.988888838734201,1.627950703221515
1.0872310177705977,3.116649244512021,8.962946403116982,1.653109379454528
1.0952253634894993,3.138437755392949,8.937003967499763,1.6782680556875418
1.1032197092084006,3.3130084365464008,8.966123855681206,1.941828217555197
1.1112140549273022,3.1746479985639917,9.10219027104649,1.591241294202118
1.1192084006462035,3.1615017411595763,9.10929635612996,1.5629057799317898
1.127202746365105,3.1483554837551604,9.116402441213427,1.5345702656614608
1.1351970920840064,3.135209226350745,9.123508526296895,1.5062347513911327
1.143191437802908,3.122062968946329,9.130614611380363,1.477899237120804
1.1511857835218093,3.1089167115419136,9.13772069646383,1.4495637228504759
1.159180129240711,3.0957704541374977,9.144826781547298,1.421228208580147
1.1671744749596122,3.0826241967330823,9.151932866630768,1.392892694309819
1.1751688206785138,3.0694779393286664,9.159038951714235,1.36455718003949
1.1831631663974151,3.056331681924251,9.166145036797703,1.3362216657691621
1.1911575121163167,3.043185424519835,9.17325112188117,1.3078861514988331
1.199151857835218,3.0300391671154197,9.180357206964638,1.279550637228505
1.2071462035541196,3.01123990306947,9.095766155088855,1.531982633279487
1.215140549273021,3.036,9.109,1.564
1.2231348949919225,3.036,9.109,1.564
1.2311292407108239,3.036,9.109,1.564
1.2391235864297254,3.036,9.109,1.564
1.2471179321486268,3.036,9.109,1.564
1.2551122778675283,3.036,9.109,1.564
1.2631066235864297,3.036,9.109,1.564
1.2711009693053312,3.036,9.109,1.564
1.2790953150242326,3.036,9.109,1.564
1.2870896607431341,3.036,9.109,1.564
1.2950840064620355,3.036,9.109,1.564
1.303078352180937,2.8133307754442654,9.236968093699515,1.406584410339257
1.3110726978998384,2.803636354161238,9.376200045164765,1.3742181284416417
1.31906704361874,2.806215175360884,9.363907664113121,1.3887454878663124
1.3270613893376413,2.8087939965605293,9.351615283061477,1.4032728472909826
1.3350557350565428,2.811372817760175,9.339322902009831,1.417800206715653
1.3430500807754442,2.8139516389598205,9.327030520958187,1.4323275661403232
1.3510444264943458,2.8165304601594663,9.314738139906543,1.4468549255649938
1.359038772213247,2.819109281359112,9.3024457588549,1.461382284989664
1.3670331179321487,2.8216881025587575,9.290153377803255,1.4759096444143347
1.37502746365105,2.8242669237584033,9.277860996751611,1.490437003839005
1.3830218093699516,2.8268457449580486,9.265568615699967,1.5049643632636753
1.391016155088853,2.8294245661576944,9.253276234648323,1.5194917226883455
1.3990105008077545,2.8315852180936996,9.241204765751212,1.5342467689822294
1.4070048465266558,2.6522269008286,9.387243663904668,1.7466926190352112
1.4149991922455574,2.654032075668352,9.381226414438828,1.7362913735299736
1.4229935379644587,2.6558372505081036,9.375209164972988,1.7258901280247365
1.4309878836833603,2.6576424253478557,9.369191915507148,1.715488882519499
1.4389822294022616,2.6594476001876077,9.363174666041308,1.7050876370142618
1.4469765751211632,2.6612527750273594,9.357157416575468,1.6946863915090242
1.4549709208400645,2.6630579498671114,9.351140167109628,1.684285146003787
1.462965266558966,2.6648631247068635,9.345122917643788,1.6738839004985495
1.4709596122778674,2.666668299546615,9.339105668177949,1.6634826549933124
1.478953957996769,2.668473474386367,9.333088418712109,1.6530814094880748
1.4869483037156703,2.6702786492261192,9.327071169246269,1.6426801639828377
1.494942649434572,2.6720838240658713,9.321053919780429,1.6322789184776
1.5029369951534732,2.681311434212888,9.076093520014371,1.3706578711183026
1.5109313408723748,3.3961082390953985,9.243253634895108,1.6691639741518656
1.5189256865912761,3.199470413645415,10.009651876620206,1.575310966675433
1.5269200323101777,3.166377540669497,10.01457862456325,1.5743813915918399
1.5349143780290793,3.133284667693579,10.019505372506293,1.5734518165082467
1.5429087237479806,3.1001917947176616,10.024432120449337,1.5725222414246536
1.5509030694668822,3.0670989217417435,10.02935886839238,1.5715926663410602
1.5588974151857835,3.0340060487658262,10.034285616335424,1.570663091257467
1.566891760904685,3.000913175789908,10.039212364278468,1.569733516173874
1.5748861066235864,2.967820302813991,10.044139112221512,1.5688039410902808
1.582880452342488,2.9347274298380728,10.049065860164555,1.5678743660066874
1.5908747980613893,2.9016345568621555,10.053992608107599,1.5669447909230942
1.5988691437802909,2.8685416838862374,10.058919356050644,1.566015215839501
1.6068634894991922,2.1353531906300485,9.55660016155089,0.7800205977382875
1.6148578352180938,2.423838987614432,10.150511039310715,1.6025912762520196
1.6228521809369951,2.4038071788015527,10.154737934748296,1.6042452788145507
1.6308465266558967,2.383775369988673,10.158964830185877,1.605899281377082
1.638840872374798,2.3637435611757938,10.163191725623456,1.6075532839396134
1.6468352180936996,2.343711752362914,10.167418621061037,1.6092072865021447
1.654829563812601,2.323679943550035,10.171645516498616,1.610861289064676
1.6628239095315025,2.303648134737155,10.175872411936197,1.6125152916272074
1.6708182552504038,2.283616325924276,10.180099307373776,1.6141692941897388
1.6788126009693054,2.2635845171113957,10.184326202811357,1.61582329675227
1.6868069466882067,2.2435527082985165,10.188553098248937,1.6174772993148014
1.6948012924071083,2.223520899485637,10.192779993686518,1.6191313018773328
1.7027956381260096,2.7211837641356946,10.68488529886913,1.6583800484652633
1.7107899838449112,1.9832222323065483,10.385041367918534,1.0608345283258613
1.7187843295638126,2.0461889328565466,10.375340364124812,1.0996385435007532
1.7267786752827141,2.109155633406546,10.365639360331087,1.1384425586756461
1.7347730210016155,2.1721223339565445,10.355938356537365,1.1772465738505382
1.742767366720517,2.2350890345065446,10.346237352743643,1.2160505890254312
1.7507617124394184,2.298055735056543,10.336536348949918,1.254854604200323
1.75875605815832,2.3610224356065426,10.326835345156196,1.2936586193752162
1.7667504038772213,2.423989136156541,10.317134341362474,1.332462634550108
1.7747447495961228,2.486955836706541,10.30743333756875,1.371266649725001
1.7827390953150242,2.5499225372565393,10.297732333775027,1.410070664899893
1.7907334410339257,2.612889237806539,10.288031329981305,1.448874680074786
1.798727786752827,2.6758559383565372,10.27833032618758,1.4876786952496779
1.8067221324717286,2.9753311793214996,8.983379644588046,0.8434103392568626
1.81471647819063,4.530561244123361,10.047554291989616,1.9585373745257852
1.8227108239095315,4.4348985678241455,10.119683051678134,1.922158610299323
1.8307051696284329,4.3392358915249325,10.191811811366648,1.8857798460728619
1.8386995153473344,4.243573215225718,10.263940571055164,1.8494010818463997
1.8466938610662358,4.147910538926505,10.336069330743678,1.8130223176199385
1.8546882067851373,4.052247862627289,10.408198090432194,1.7766435533934763
1.8626825525040387,3.9565851863280765,10.480326850120708,1.740264789167015
1.8706768982229403,3.8609225100288613,10.552455609809225,1.703886024940553
1.8786712439418416,3.7652598337296483,10.62458436949774,1.6675072607140917
1.8866655896607432,3.669597157430433,10.696713129186255,1.6311284964876296
1.8946599353796445,3.5739344811312206,10.76884188887477,1.5947497322611683
1.902654281098546,2.1594038772213264,11.18883037156704,-0.8175702746365073
1.9106486268174474,2.850186569145995,11.844578429636845,-1.0084018301723954
1.918642972536349,2.725014827273331,11.663117732976298,-0.9618594064664616
1.9266373182552503,2.59984308540067,11.481657036315756,-0.9153169827605292
1.9346316639741519,2.474671343528006,11.30019633965521,-0.8687745590545953
1.9426260096930532,2.349499601655345,11.118735642994668,-0.8222321353486628
1.9506203554119548,2.2243278597826808,10.937274946334123,-0.775689711642729
1.9586147011308561,2.09915611791002,10.75581424967358,-0.7291472879367966
1.9666090468497577,1.9739843760373557,10.574353553013033,-0.6826048642308628
1.974603392568659,1.8488126341646949,10.392892856352493,-0.6360624405249302
1.9825977382875606,2.2276284329563967,10.15506462035541,-0.308177705977374
1.990592084006462,6.540554523424876,7.707706179321491,0.506408723747984
1.9985864297253635,6.653807754442648,7.5555915455035025,0.3779070184886032
2.006580775444265,6.767060985460417,7.403476911685519,0.24940531322922588
2.0145751211631664,6.880314216478189,7.25136227786753,0.12090360796984506
2.022569466882068,6.993567447495962,7.099247644049542,-0.007598097289535755
2.030563812600969,7.106820678513728,6.947133010231562,-0.13609980254890952
2.0385581583198706,7.2200739095315,6.795018376413573,-0.2646015078082904
2.046552504038772,7.333327140549272,6.6429037425955855,-0.39310321306767115
2.0545468497576738,7.446580371567045,6.490789108777597,-0.5216049183270519
2.0625411954765753,7.559833602584817,6.338674474959609,-0.6501066235864328
2.0705355411954764,7.673086833602583,6.186559841141628,-0.7786083288458066
2.078529886914378,7.786340064620355,6.034445207323641,-0.9071100341051874
2.0865242326332796,7.899593295638128,5.882330573505652,-1.0356117393645683
2.094518578352181,8.012846526655899,5.730215939687664,-1.1641134446239492
2.1025129240710823,8.389849252827121,4.74105048465271,-2.439380250403871
2.110507269789984,8.660209269199369,4.14070446610037,-2.590225754338419
2.1185016155088854,8.653848176906909,4.117237193183595,-2.7320609203189306
2.126495961227787,8.647487084614449,4.093769920266819,-2.8738960862994425
2.134490306946688,8.64112599232199,4.070302647350045,-3.015731252279946
2.1424846526655896,8.63476490002953,4.04683537443327,-3.1575664182604575
2.150478998384491,8.628403807737072,4.023368101516494,-3.2994015842409694
2.1584733441033928,8.622042715444612,3.9999008285997184,-3.441236750221481
2.166467689822294,8.615681623152154,3.976433555682944,-3.583071916201985
2.1744620355411954,8.609320530859694,3.9529662827661687,-3.7249070821824963
2.182456381260097,8.602959438567234,3.929499009849393,-3.866742248163008
2.1904507269789986,8.596598346274776,3.9060317369326176,-4.008577414143519
2.1984450726978997,8.590237253982316,3.8825644640158434,-4.150412580124023
2.2064394184168012,9.772373182552494,2.8885032310177636,-3.2371462035541234
2.214433764135703,8.123314633670047,2.2114827176054974,-4.036772665944717
2.2224281098546044,8.102582044772674,2.1014945765058846,-4.107316178167552
2.2304224555735055,8.081849455875306,1.9915064354062777,-4.177859690390383
2.238416801292407,8.061116866977933,1.8815182943066646,-4.2484032026132175
2.2464111470113086,8.040384278080563,1.7715301532070518,-4.318946714836052
2.25440549273021,8.019651689183192,1.6615420121074385,-4.389490227058888
2.2623998384491113,7.998919100285821,1.5515538710078318,-4.460033739281719
2.270394184168013,7.978186511388451,1.4415657299082187,-4.530577251504553
2.2783885298869144,7.957453922491079,1.3315775888086057,-4.601120763727388
2.286382875605816,7.936721333593708,1.2215894477089928,-4.671664275950223
2.294377221324717,7.915988744696338,1.1116013066093857,-4.742207788173054
2.3023715670436187,7.9305896607432,1.405772213247067,-3.984638126009733
2.3103659127625202,5.823110626852895,5.934822427169,-2.849013483285698
2.318360258481422,3.5663331853928746,7.728454916650461,-2.8963646079284224
2.326354604200323,1.3095557439329806,9.52208740613182,-2.9437157325711443
2.3343489499192245,-0.9472216975270396,11.315719895613281,-2.991066857213869
2.342343295638126,-3.2039991389870597,13.109352385094741,-3.0384179818565933
2.3503376413570276,-5.46077658044708,14.902984874576202,-3.085769106499318
2.3583319870759287,-7.717554021906974,16.696617364057563,-3.1331202311420396
2.3663263327948303,-9.974331463366994,18.490249853539023,-3.180471355784764
2.374320678513732,-12.231108904827014,20.283882343020483,-3.2278224804274886
2.3823150242326334,-14.487886346287034,22.077514832501944,-3.2751736050702136
2.3903093699515345,-16.744663787746926,23.871147321983305,-3.3225247297129354
2.398303715670436,-19.001441229206947,25.664779811464765,-3.36987585435566
2.4062980613893377,3.8231331076203854,9.135323024438865,-3.5201834204104134
2.4142924071082392,3.6515098133571584,8.983345409548683,-3.7245495136287157
2.4222867528271403,3.4798865190939416,8.83136779465851,-3.9289156068470064
2.430281098546042,3.308263224830715,8.67939017976833,-4.133281700065308
2.4382754442649435,3.1366399305674886,8.527412564878148,-4.33764779328361
2.446269789983845,2.9650166363042616,8.375434949987966,-4.542013886501913
2.454264135702746,2.7933933420410444,8.223457335097793,-4.746379979720203
2.4622584814216477,2.621770047777818,8.071479720207613,-4.9507460729385055
2.4702528271405493,2.4501467535145913,7.919502105317431,-5.155112166156807
2.478247172859451,2.278523459251365,7.76752449042725,-5.359478259375109
2.486241518578352,2.106900164988148,7.615546875537077,-5.563844352593399
2.4942358642972535,1.935276870724921,7.463569260646896,-5.768210445811702
2.502230210016155,4.136186591276506,5.219999192245345,-6.894515347334498
2.5102245557350567,8.315423402296458,0.5063809647888476,-8.238894366564178
2.5182189014539578,8.407057515590528,0.3216514061875742,-8.282218562718223
2.5262132471728593,8.498691628884604,0.1369218475862905,-8.32554275887227
2.534207592891761,8.59032574217868,-0.04780771101499315,-8.368866955026318
2.5422019386106625,8.681959855472755,-0.23253726961627685,-8.412191151180364
2.5501962843295636,8.773593968766825,-0.41726682821755035,-8.455515347334408
2.558190630048465,8.8652280820609,-0.6019963868188339,-8.498839543488456
2.5661849757673667,8.956862195354978,-0.7867259454201178,-8.542163739642504
2.5741793214862683,9.048496308649053,-0.9714555040214014,-8.58548793579655
2.58217366720517,9.140130421943129,-1.156185062622685,-8.628812131950598
2.590168012924071,9.231764535237199,-1.3409146212239587,-8.672136328104642
2.5981623586429725,9.323398648531274,-1.525644179825242,-8.71546052425869
2.606156704361874,7.807197899838429,3.1417883683360444,-6.351786752827145
2.6141510500807756,3.818718214862652,6.868147455573596,-7.187280169628402
2.6221453957996768,3.062852827140552,9.1517323101777,-6.408231179321489
2.6301397415185783,2.3069874394184096,11.435317164781928,-5.629182189014532
2.63813408723748,1.5511220516962676,13.718902019386158,-4.850133198707576
2.6461284329563814,0.7952566639741256,16.00248687399039,-4.0710842084006185
2.6541227786752826,0.03939127625202543,18.28607172859449,-3.292035218093706
2.662117124394184,-0.7164741114701165,20.56965658319872,-2.512986227786749
2.6701114701130857,-1.472339499192259,22.85324143780295,-1.7339372374797923
2.6781058158319873,0.37166612816382805,20.022112666786114,-4.2126478190631635
2.6861001615508884,4.67795368874521,12.346948602884122,-9.776712439418315
2.69409450726979,8.98424124932683,4.671784538981708,-15.340777059773774
2.7020888529886915,6.2498239095308055,0.38194507269815303,-14.030912762519533
2.710083198707593,0.603809822649086,6.302118908555091,-5.461535443554834
2.718077544426494,0.8579597365477771,6.092860320616382,-5.640749347582947
2.7260718901453957,1.1121096504464822,5.883601732677663,-5.819963251611069
2.7340662358642973,1.3662595643451874,5.674343144738943,-5.999177155639192
2.742060581583199,1.6204094782438927,5.465084556800224,-6.178391059667315
2.7500549273021,1.8745593921425836,5.255825968861515,-6.357604963695428
2.7580492730210016,2.128709306041289,5.046567380922796,-6.53681886772355
2.766043618739903,2.382859219939994,4.837308792984077,-6.716032771751673
2.7740379644588047,2.637009133838699,4.628050205045357,-6.895246675779795
2.782032310177706,2.89115904773739,4.418791617106649,-7.074460579807908
2.7900266558966074,3.145308961636095,4.209533029167929,-7.25367448383603
2.798021001615509,5.630050080775453,2.6318012924071033,-7.903143780290793
2.8060153473344105,9.512779678856418,-3.4197212757624684,-8.152726220198755
2.8140096930533116,9.671616830665291,-3.20613496842415,-8.078516081656632
2.822004038772213,9.830453982474175,-2.9925486610858196,-8.004305943114506
2.8299983844911147,9.989291134283057,-2.7789623537474895,-7.930095804572379
2.8379927302100163,10.148128286091941,-2.5653760464091593,-7.855885666030252
2.8459870759289174,10.306965437900814,-2.351789739070841,-7.7816755274881295
2.853981421647819,10.465802589709698,-2.138203431732511,-7.7074653889460025
2.8619757673667205,10.624639741518582,-1.9246171243941808,-7.6332552504038755
2.869970113085622,10.783476893327464,-1.7110308170558506,-7.559045111861749
2.8779644588045232,10.942314045136339,-1.4974445097175324,-7.484834973319626
2.885958804523425,11.10115119694522,-1.2838582023792022,-7.4106248347775
2.8939531502423264,11.259988348754105,-1.070271895040872,-7.336414696235373
2.901947495961228,10.705011712439253,0.04417730210038129,-6.75887843295626
2.909941841680129,2.3510352662152405,5.907732942632248,-7.569802237651668
2.9179361873990306,2.5041184821091,6.007322079194308,-7.44929172825078
2.925930533117932,2.657201698002959,6.106911215756369,-7.328781218849892
2.9339248788368337,2.8102849138968184,6.20650035231843,-7.208270709449004
2.941919224555735,2.963368129790669,6.3060894888804855,-7.087760200048123
2.9499135702746364,3.116451345684528,6.405678625442546,-6.967249690647235
2.957907915993538,3.2695345615783875,6.505267762004607,-6.846739181246347
2.9659022617124395,3.422617777472247,6.604856898566667,-6.726228671845459
2.9738966074313407,3.5757009933660973,6.704446035128722,-6.605718162444577
2.981890953150242,3.7287842092599566,6.804035171690783,-6.485207653043689
2.989885298869144,3.881867425153816,6.9036243082528435,-6.364697143642801
2.9978796445880453,4.034950641047676,7.003213444814904,-6.244186634241913
3.0058739903069465,-0.41005815832023007,5.318982229402445,-4.913781906300171
3.013868336025848,4.786466801292366,2.9096600969305513,-8.15613012924069
3.0218626817447496,8.284308725792929,-1.071401075642627,-7.582930103678866
3.029857027463651,8.320131490153576,-1.167434418519052,-7.7587045152450935
3.0378513731825523,8.355954254514222,-1.2634677613954715,-7.934478926811311
3.045845718901454,8.391777018874869,-1.3595011042718965,-8.11025333837754
3.0538400646203554,8.427599783235516,-1.4555344471483214,-8.286027749943766
3.061834410339257,8.463422547596165,-1.5515677900247462,-8.461802161509993
3.0698287560581585,8.499245311956813,-1.6476011329011713,-8.637576573076222
3.0778231017770596,8.535068076317458,-1.7436344757775908,-8.813350984642438
3.085817447495961,8.570890840678105,-1.8396678186540156,-8.989125396208667
3.0938117932148628,8.606713605038752,-1.9357011615304405,-9.164899807774894
3.1018061389337643,6.322712439418,3.4084458804526667,-8.164079159935334
3.1098004846526655,4.207882883603386,5.7702628081063345,-7.338887170300229
3.117794830371567,2.3087112877684928,7.98216371023212,-6.522988995345404
3.1257891760904686,0.40953969193359985,10.194064612357906,-5.7070908203905795
3.13378352180937,-1.4896319039012926,12.40596551448369,-4.891192645435754
3.1417778675282713,-3.3888034997360794,14.61786641660935,-4.075294470480975
3.149772213247173,-5.287975095570973,16.829767318735136,-3.259396295526149
3.1577665589660744,-7.187146691405864,19.04166822086092,-2.4434981205713244
3.165760904684976,-9.086318287240758,21.253569122986704,-1.627599945616499
3.173755250403877,-10.985489883075545,23.465470025112367,-0.8117017706617196
3.1817495961227786,-12.884661478910438,25.67737092723815,0.004196404293105971
3.18974394184168,-14.783833074745328,27.889271829363935,0.8200945792479306
3.1977382875605818,-16.68300467058022,30.10117273148972,1.6359927542027553
3.205732633279483,7.332210823911158,3.097165589658788,-11.090937802909298
3.2137269789983844,3.4353245704214963,5.1090547620796105,-6.559025884858272
3.221721324717286,3.59884527830812,4.771384500293733,-6.698018486561901
3.2297156704361876,3.762365986194743,4.433714238507855,-6.837011088265531
3.2377100161550887,3.925886694081358,4.0960439767219965,-6.976003689969154
3.2457043618739903,4.089407401967981,3.7583737149361185,-7.114996291672784
3.253698707592892,4.252928109854605,3.420703453150241,-7.253988893376414
3.2616930533117934,4.416448817741228,3.0830331913643634,-7.392981495080043
3.2696873990306945,4.579969525627843,2.745362929578504,-7.531974096783666
3.277681744749596,4.743490233514467,2.4076926677926265,-7.670966698487296
3.2856760904684976,4.90701094140109,2.070022406006749,-7.8099593001909255
3.293670436187399,5.070531649287714,1.732352144220871,-7.9489519018945565
3.3016647819063003,8.865347334410156,-2.005233441033587,-7.568223747980552
3.309659127625202,9.279956690107387,1.9555598688586893,-7.179265299819444
3.3176534733441034,9.09197200180557,2.037619476385061,-7.090269421742849
3.325647819063005,8.903987313503752,2.119679083911433,-7.001273543666254
3.333642164781906,8.716002625201945,2.2017386914378,-6.912277665589664
3.3416365105008077,8.528017936900127,2.283798298964172,-6.823281787513069
3.3496308562197092,8.34003324859831,2.365857906490544,-6.734285909436473
3.357625201938611,8.152048560296492,2.4479175140169156,-6.6452900313598775
3.365619547657512,7.964063871994686,2.529977121543283,-6.556294153283288
3.3736138933764135,7.776079183692868,2.612036729069655,-6.4672982752066925
3.381608239095315,4.3705121163169105,8.801103069466802,-4.163619143780177
3.3896025848142166,9.796968048824263,4.9151111111110275,-9.479098546042293
3.3975969305331177,3.4989997703443336,6.524594752763784,-6.501470342741307
3.4055912762520193,3.188082422629799,6.655717697741454,-6.108885267192504
3.413585621970921,2.877165074915264,6.786840642719124,-5.7163001916436995
3.4215799676898224,2.5662477272007296,6.917963587696794,-5.3237151160948954
3.4295743134087235,2.255330379486212,7.0490865326744565,-4.931130040546114
3.437568659127625,1.9444130317716772,7.180209477652126,-4.53854496499731
3.4455630048465267,1.6334956840571426,7.311332422629796,-4.145959889448506
3.4535573505654282,1.322578336342608,7.442455367607466,-3.7533748138997027
3.4615516962843293,1.0116609886280905,7.573578312585129,-3.360789738350921
3.469546042003231,0.7007436409135557,7.704701257562798,-2.9682046628021173
3.4775403877221325,0.38982629319902085,7.8358242025404685,-2.575619587253313
3.485534733441034,0.07890894548448646,7.9669471475181375,-2.18303451170451
3.493529079159935,-0.23200840223003105,8.098070092495801,-1.7904494361557282
3.5015234248788367,4.150785857099438,4.299354692173583,-8.555301364385228
3.5095177705977383,4.41729043170876,4.08081619187767,-8.504406668372814
3.51751211631664,4.683795006318083,3.8622776915817565,-8.4535119723604
3.525506462035541,4.95029958092739,3.6437391912858557,-8.402617276347991
3.5335008077544425,5.216804155536712,3.4252006909899424,-8.351722580335577
3.541495153473344,5.483308730146035,3.206662190694029,-8.300827884323166
3.5494894991922457,5.7498133047553575,2.9881236903981163,-8.249933188310752
3.5574838449111468,6.016317879364665,2.769585190102215,-8.199038492298342
3.5654781906300483,6.282822453973988,2.5510466898063022,-8.148143796285929
3.57347253634895,6.54932702858331,2.332508189510389,-8.097249100273517
3.5814668820678515,6.815831603192633,2.113969689214476,-8.046354404261104
3.589461227786753,7.082336177801955,1.8954311889185629,-7.99545970824869
3.597455573505654,7.348840752411263,1.676892688622662,-7.94456501223628
3.6054499192245557,10.653403473344115,-0.76682633279479,-6.417799273020963
3.6134442649434573,-22.502873035688122,37.72232038478491,7.548226648553424
3.621438610662359,-18.260419114407387,33.35050341459831,4.876843350712283
3.62943295638126,-14.017965193126889,28.978686444411956,2.2054600528712918
3.6374273021001615,-9.775511271846156,24.606869474225363,-0.46592324496984894
3.645421647819063,-5.5330573505654215,20.235052504038766,-3.1373065428109896
3.6534159935379646,-1.2906034292846904,15.863235533852173,-5.808689840652129
3.6614103392568658,2.9518504919958097,11.491418563665821,-8.48007313849312
3.6694046849757673,7.194304413276544,7.119601593479224,-11.151456436334263
3.677399030694669,11.436758334557279,2.747784623292631,-13.822839734175401
3.6853933764135705,15.679212255838014,-1.6240323468939621,-16.494223032016542
3.6933877221324716,19.921666177118507,-5.995849317080314,-19.165606329857532
3.701382067851373,1.686146607431499,4.827289983844843,-6.453181340872284
3.7093764135702747,4.012924071082414,7.246580506192753,-5.209073774905792
3.7173707592891763,4.318677506307749,6.523890617342203,-5.791226752101079
3.7253651050080774,4.447395454792977,6.020516309379035,-6.158068414078519
3.733359450726979,4.576113403278212,5.51714200141584,-6.52491007605598
3.7413537964458805,4.704831351763447,5.013767693452644,-6.891751738033441
3.749348142164782,4.833549300248683,4.510393385489449,-7.258593400010901
3.757342487883683,4.9622672487339115,4.007019077526282,-7.625435061988341
3.7653368336025848,5.090985197219147,3.503644769563087,-7.992276723965802
3.7733311793214863,5.219703145704382,3.0002704615998916,-8.359118385943264
3.781325525040388,5.348421094189617,2.496896153636696,-8.725960047920724
3.789319870759289,5.477139042674845,1.9935218456735289,-9.092801709898165
3.7973142164781906,5.60585699116008,1.4901475377103335,-9.459643371875625
3.805308562197092,7.357760904684967,0.13490468497577446,-7.820440226171254
3.8133029079159937,8.3171513193323,-1.8086143421288265,-7.618541733979501
3.821297253634895,9.598619087544224,-0.22574149812887653,-6.582252101184024
3.8292915993537964,9.561480797938692,-0.1381072779697781,-6.58903211590765
3.837285945072698,9.524342508333163,-0.05047305781067965,-6.595812130631275
3.8452802907915995,9.487204218727634,0.03716116234841879,-6.602592145354901
3.8532746365105006,9.450065929122106,0.12479538250751235,-6.609372160078526
3.861268982229402,9.412927639516575,0.21242960266661085,-6.616152174802151
3.8692633279483037,9.375789349911045,0.3000638228257093,-6.622932189525777
3.8772576736672053,9.338651060305514,0.3876980429848077,-6.629712204249402
3.8852520193861064,9.301512770699986,0.4753322631439013,-6.636492218973027
3.893246365105008,9.264374481094457,0.5629664833029998,-6.643272233696653
3.9012407108239096,3.372256865910393,5.6525928917630495,-6.92488772213242
3.909235056542811,4.403811064479878,8.463039202430288,-12.256250096579336
3.9172294022617122,3.4247643991009773,8.327222220271132,-11.478452395167555
3.925223747980614,2.445717733722023,8.191405238111967,-10.70065469375573
3.9332180936995154,1.466671068343068,8.055588255952802,-9.922856992343906
3.941212439418417,0.487624402964113,7.919771273793637,-9.145059290932082
3.949206785137318,-0.4914222624147868,7.783954291634481,-8.367261589520302
3.9572011308562196,-1.4704689277937417,7.648137309475316,-7.589463888108478
3.965195476575121,-2.4495155931726966,7.512320327316152,-6.8116661866966535
3.9731898222940227,-3.4285622585516515,7.376503345156987,-6.033868485284829
3.981184168012924,-4.4076089239305505,7.24068636299783,-5.2560707838730485
3.9891785137318254,-5.386655589309506,7.104869380838665,-4.478273082461223
3.997172859450727,-6.36570225468846,6.969052398679501,-3.700475381049399
4.005167205169628,6.89418780290804,2.1351926494347424,-7.967168416801133
4.01316155088853,5.624639007196348,-0.08587347628138518,-9.881865398736965
4.021155896607431,5.975663460126299,-0.34278267733881335,-9.890949882508444
4.029150242326333,6.326687913056251,-0.5996918783962416,-9.900034366279924
4.037144588045234,6.677712365986202,-0.8566010794536697,-9.909118850051403
4.045138933764136,7.028736818916153,-1.1135102805110977,-9.918203333822882
4.0531332794830375,7.379761271846104,-1.370419481568526,-9.927287817594362
4.061127625201938,7.730785724776016,-1.6273286826259257,-9.93637230136584
4.06912197092084,8.081810177705968,-1.8842378836833538,-9.945456785137319
4.077116316639741,7.5968578352179925,-1.8230096930535504,-8.267282714054966
4.085110662358643,6.465322969472457,3.3005122834382385,-7.986614234583035
4.093105008077544,6.393994108963292,3.4570911926912076,-7.913907038605094
4.101099353796446,6.322665248454127,3.6136701019441766,-7.841199842627153
4.1090936995153475,6.251336387944962,3.7702490111971456,-7.768492646649213
4.117088045234249,6.180007527435797,3.9268279204501146,-7.695785450671271
4.125082390953151,6.108678666926632,4.083406829703083,-7.62307825469333
4.133076736672051,6.037349806417475,4.239985738956035,-7.550371058715397
4.141071082390953,5.96602094590831,4.396564648209004,-7.477663862737456
4.1490654281098545,5.894692085399145,4.553143557461973,-7.4049566667595155
4.157059773828756,5.82336322488998,4.7097224667149415,-7.332249470781574
4.165054119547658,5.752034364380815,4.866301375967911,-7.259542274803633
4.173048465266559,5.68070550387165,5.0228802852208805,-7.186835078825692
4.181042810985461,5.609376643362485,5.179459194473849,-7.11412788284775
4.189037156704362,5.53804778285332,5.336038103726818,-7.0414206868698095
4.197031502423263,5.409722866794754,5.577563445438657,-6.943815244529653
4.2050258481421645,-9.125451167571565,27.29093317667678,-0.5526992216187825
4.213020193861066,-0.6181590459421644,8.411597375251864,-5.021215715815648
4.221014539579968,-0.6900183333030777,8.247758200068983,-5.057684304151311
4.229008885298869,-0.761877620663991,8.0839190248861,-5.094152892486975
4.237003231017771,-0.8337369080249043,7.920079849703217,-5.130621480822638
4.244997576736672,-0.9055961953858176,7.756240674520336,-5.167090069158302
4.252991922455574,-0.9774554827467309,7.592401499337453,-5.203558657493966
4.260986268174475,-1.0493147701076362,7.428562324154589,-5.2400272458296255
4.268980613893376,-1.1211740574685494,7.264723148971706,-5.276495834165289
4.276974959612278,-1.1930333448294628,7.100883973788824,-5.3129644225009525
4.284969305331179,-1.2648926321903762,6.937044798605942,-5.349433010836616
4.292963651050081,-1.3367519195512894,6.77320562342306,-5.385901599172279
4.300957996768982,1.9208957996784126,6.7540185783522375,-5.8217956381261935
4.308952342487884,10.718641605567287,-1.6319565321592673,-6.18779793711943
4.3169466882067855,10.598111470113079,-1.4217315947380431,-6.3120177705977465
4.324941033925686,10.477581334658884,-1.2115066573168423,-6.436237604076049
4.332935379644588,10.357051199204676,-1.001281719895618,-6.560457437554366
4.340929725363489,10.236521063750468,-0.7910567824743939,-6.684677271032681
4.348924071082391,10.11599092829626,-0.5808318450531698,-6.808897104510998
4.356918416801292,9.995460792842053,-0.3706069076319456,-6.933116937989314
4.364912762520194,9.874930657387845,-0.16038197021072143,-7.0573367714676305
4.372907108239096,9.754400521933636,0.04984296721050274,-7.181556604945946
4.380901453957997,9.633870386479428,0.2600679046317269,-7.305776438424263
4.388895799676898,9.513340251025234,0.47029284205292754,-7.429996271902565
4.396890145395799,9.392810115571026,0.6805177794741519,-7.554216105380882
4.404884491114701,7.158437802905028,3.1925234248861916,-15.882655896599392
4.4128788368336025,6.986336266455885,1.8055509229023914,-16.75789152029703
4.420873182552504,5.99129536314579,2.4879618808648014,-15.362623053655541
4.428867528271406,4.996254459835696,3.1703728388272117,-13.967354587014054
4.436861873990307,4.001213556525602,3.8527837967896215,-12.572086120372566
4.444856219709209,3.0061726532155078,4.535194754752032,-11.176817653731078
4.452850565428109,2.011131749905524,5.217605712714366,-9.781549187089746
4.460844911147011,1.0160908465954295,5.900016670676776,-8.386280720448259
4.4688392568659125,0.021049943285335715,6.582427628639186,-6.991012253806771
4.476833602584814,-0.973990960024758,7.264838586601596,-5.595743787165283
4.484827948303716,-1.9690318633348527,7.947249544564006,-4.200475320523795
4.492822294022617,-2.9640727666449473,8.629660502526416,-2.805206853882307
4.500816639741519,3.936165185783827,6.93492568659098,-6.738182148626735
4.50881098546042,6.6905549273021485,0.5807794830371038,-8.40181017770599
4.516805331179321,7.095349299946127,0.2734297792137969,-8.393658266020468
4.524799676898223,7.3292283252557695,0.1581335487345275,-8.341073236402805
4.532794022617124,7.563107350565413,0.042837318255258106,-8.288488206785141
4.540788368336026,7.796986375875055,-0.0724589122240113,-8.235903177167478
4.548782714054927,8.030865401184698,-0.18775514270328064,-8.183318147549814
4.556777059773829,8.26474442649434,-0.30305137318255004,-8.13073311793215
4.56477140549273,8.498623451803983,-0.41834760366181944,-8.078148088314485
4.572765751211632,8.732502477113627,-0.5336438341410888,-8.025563058696822
4.580760096930533,8.966381502423243,-0.6489400646203455,-7.972978029079164
4.588754442649434,9.200260527732887,-0.7642362950996148,-7.920392999461501
4.596748788368336,9.43413955304253,-0.8795325255788843,-7.867807969843836
4.604743134087237,6.4867092084008,3.5807641357025393,-6.748174474959566
4.612737479806139,3.6094105824517277,7.350121866694492,-6.427843834141076
4.6207318255250405,1.7612553893723337,9.707938089530526,-5.569784060312308
4.628726171243942,-0.08689980370706074,12.065754312366558,-4.711724286483541
4.636720516962844,-1.9350549967864543,14.42357053520259,-3.8536645126547726
4.644714862681745,-3.783210189865848,16.78138675803862,-2.995604738826005
4.652709208400646,-5.631365382945038,19.139202980874394,-2.137544964997332
4.660703554119547,-7.479520576024431,21.497019203710426,-1.2794851911685639
4.668697899838449,-9.327675769103825,23.854835426546458,-0.42142541733979577
4.6766922455573505,-11.175830962183221,26.212651649382494,0.4366343564889723
4.684686591276252,-13.023986155262614,28.570467872218526,1.2946941303177404
4.692680936995154,-14.872141348342007,30.928284095054558,2.1527539041465076
4.700675282714055,10.840549273019734,-1.2024620355400826,-15.15442003230891
4.708669628432957,3.9880313113415693,6.016683707679735,-6.542827036322897
4.7166639741518575,4.033848367988602,5.724073462226639,-6.627412371671265
4.724658319870759,4.07966542463564,5.431463216773511,-6.711997707019643
4.732652665589661,4.1254824812826785,5.138852971320382,-6.796583042368021
4.740647011308562,4.171299537929716,4.8462427258672545,-6.881168377716398
4.748641357027464,4.217116594576754,4.553632480414126,-6.965753713064776
4.756635702746365,4.262933651223792,4.261022234960998,-7.0503390484131545
4.764630048465267,4.30875070787083,3.9684119895078696,-7.134924383761533
4.772624394184168,4.354567764517868,3.6758017440547412,-7.219509719109911
4.780618739903069,4.400384821164901,3.3831914986016454,-7.304095054458279
4.788613085621971,4.446201877811939,3.090581253148517,-7.388680389806657
4.796607431340872,4.492018934458977,2.7979710076953888,-7.473265725155034
4.804601777059774,10.227317851373272,0.5669487075930408,-7.079842891760851
4.812596122778675,10.338775753617705,1.0177598047640366,-6.869099164747531
4.820590468497577,10.239611848210904,1.1269591654349895,-6.778695021139101
4.8285848142164784,10.140447942804105,1.2361585261059425,-6.688290877530672
4.83657915993538,10.041284037397306,1.3453578867768954,-6.597886733922243
4.844573505654281,9.942120131990515,1.454557247447836,-6.507482590313824
4.852567851373182,9.842956226583716,1.563756608118789,-6.417078446705395
4.860562197092084,9.743792321176915,1.672955968789742,-6.326674303096966
4.868556542810985,9.644628415770116,1.7821553294606947,-6.236270159488537
4.876550888529887,9.545464510363317,1.8913546901316476,-6.145866015880108
4.8845452342487885,9.446300604956516,2.0005540508026005,-6.055461872271679
4.89253957996769,9.347136699549717,2.1097534114735534,-5.96505772866325
4.900533925686592,1.8296466074313904,10.880482633279561,-4.707592891760481
4.908528271405492,4.559260667110061,7.211955525990995,-3.535956761379306
4.916522617124394,6.346232063099879,0.24652912667489346,-15.458347762045058
4.924516962843295,-0.2518228325255656,4.374272661999628,-8.621730928020124
4.932511308562197,-4.254426391954313,8.462835604905685,-2.242725420373614
4.940505654281099,-3.346111083301085,8.67519245034017,-2.7206972172290684
4.9485,-2.437795774647858,8.887549295774654,-3.1986690140845226
4.956494345718902,-1.52948046599463,9.09990614120914,-3.6766408109399773
4.964488691437803,-0.6211651573414025,9.312262986643624,-4.154612607795432
4.972483037156704,0.2871501513117245,9.524619832078084,-4.632584404650833
4.9804773828756055,1.195465459964952,9.736976677512569,-5.110556201506288
4.988471728594507,2.1037807686181793,9.949333522947054,-5.588527998361742
4.996466074313409,3.0120960772714067,10.161690368381539,-6.066499795217196
5.00446042003231,7.458357027463893,0.43579644588015237,-9.614760096930242
5.012454765751212,8.833446118027178,-1.0733396013494265,-7.955277891285756
5.020449111470113,8.915740853368812,-0.9288535588710432,-7.851586524755297
5.028443457189015,8.998035588710446,-0.7843675163926596,-7.747895158224837
5.0364378029079155,9.08033032405207,-0.6398814739142922,-7.64420379169439
5.044432148626817,9.162625059393706,-0.4953954314359087,-7.540512425163931
5.052426494345719,9.24491979473534,-0.3509093889575253,-7.436821058633472
5.06042084006462,9.327214530076974,-0.20642334647914184,-7.333129692103013
5.068415185783522,9.409509265418608,-0.06193730400075825,-7.229438325572554
5.076409531502423,8.434898222940166,2.830815428109908,-6.777278271405512
5.084403877221325,10.263620106872121,5.674132761691722,2.9987946232550216
5.0923982229402265,9.956145271529753,5.324021415848546,1.6659937036576378
5.100392568659127,9.64867043618742,4.973910070005409,0.33319278406040187
5.108386914378029,9.341195600845051,4.623798724162232,-0.9996081355369815
5.11638126009693,9.033720765502684,4.273687378319057,-2.3324090551343652
5.124375605815832,8.726245930160315,3.9235760324758804,-3.665209974731749
5.132369951534733,8.418771094817949,3.573464686632704,-4.998010894329132
5.140364297253635,8.11129625947558,3.2233533407895276,-6.330811813926516
5.1483586429725365,7.803821424133212,2.8732419949463517,-7.6636127335239
5.156352988691438,7.4963465887908445,2.5231306491031753,-8.996413653121284
5.16434733441034,7.188871753448477,2.1730193032599994,-10.329214572718667
5.17234168012924,6.881396918106143,1.822907957416862,-11.662015492315904
5.180336025848142,6.573922082763775,1.4727966115736857,-12.994816411913288
5.1883303715670435,6.266447247421407,1.1226852657305102,-14.32761733151067
5.196324717285945,5.9589724120790395,0.7725739198873338,-15.660418251108055
5.204319063004847,3.1299244789583973,8.610385298869147,-5.788190869975527
5.212313408723748,3.0612997488763414,8.394537964458804,-5.7478233816919655
5.22030775444265,2.9926750187942854,8.178690630048463,-5.707455893408403
5.228302100161551,2.9240502887122295,7.9628432956381205,-5.667088405124841
5.236296445880452,2.855425558630181,7.746995961227802,-5.626720916841283
5.2442907915993535,2.786800828548125,7.53114862681746,-5.586353428557721
5.252285137318255,2.7181760984660692,7.315301292407117,-5.545985940274158
5.260279483037157,2.649551368384013,7.099453957996776,-5.505618451990596
5.268273828756058,2.580926638301957,6.883606623586433,-5.4652509637070334
5.27626817447496,2.512301908219901,6.667759289176091,-5.424883475423471
5.284262520193861,2.443677178137845,6.451911954765748,-5.384515987139909
5.292256865912763,2.375052448055789,6.236064620355407,-5.344148498856346
5.300251211631664,2.3064277179737407,6.020217285945088,-5.303781010572789
5.308245557350565,8.749822294022591,0.9485311793213812,-7.810009854604294
5.316239903069467,9.06959612277866,2.242016316639682,-6.667617851373236
5.324234248788368,6.809289176090471,3.4294515347334382,-7.254093699515347
5.33222859450727,6.05981926494345,4.210599040791607,-7.38100393780291
5.340222940226171,5.310349353796429,4.991746546849775,-7.5079141760904715
5.348217285945073,4.560879442649409,5.772894052907943,-7.634824414378034
5.3562116316639745,3.8114095315023877,6.554041558966111,-7.761734652665596
5.364205977382875,3.0619396203554503,7.335189065024193,-7.888644890953144
5.372200323101777,2.312469709208429,8.11633657108236,-8.015555129240706
5.380194668820678,1.5629997980614085,8.897484077140529,-8.142465367528269
5.38818901453958,0.8135298869143872,9.678631583198698,-8.269375605815831
5.396183360258481,0.06405997576736677,10.459779089256866,-8.396285844103392
5.404177705977383,-1.252948303715448,8.490684975767365,-3.7596655896608553
5.412172051696285,3.6021348677642404,8.348575883538132,-6.214832050607177
5.420166397415186,3.5243471891960527,8.080361093463527,-6.201807554773011
5.428160743134087,3.4465595106278735,7.81214630338895,-6.188783058938847
5.436155088852988,3.3687718320596853,7.543931513314343,-6.175758563104682
5.44414943457189,3.2909841534914976,7.2757167232397375,-6.162734067270517
5.4521437802907915,3.2131964749233095,7.0075019331651305,-6.149709571436351
5.460138126009693,3.135408796355122,6.739287143090524,-6.136685075602186
5.468132471728595,3.057621117786934,6.471072353015918,-6.12366057976802
5.476126817447496,2.979833439218746,6.202857562941312,-6.110636083933855
5.484121163166398,2.902045760650558,5.934642772866706,-6.0976115880996895
5.492115508885298,2.8242580820823786,5.666427982792129,-6.084587092265526
5.5001098546042,4.989696284329301,3.0965848142167998,-7.9366882067851
5.5081042003231016,10.587404971598312,-0.12189480952629311,-8.057306191046957
5.516098546042003,10.46998264630778,0.014868674761582046,-7.942204804836105
5.524092891760905,10.352560321017247,0.1516321590494572,-7.827103418625253
5.532087237479806,10.235137995726715,0.2883956433373324,-7.712002032414401
5.540081583198708,10.117715670436182,0.4251591276252075,-7.596900646203549
5.548075928917609,10.00029334514565,0.5619226119130827,-7.481799259992698
5.55607027463651,9.882871019855129,0.6986860962009427,-7.366697873781859
5.564064620355412,9.765448694564597,0.8354495804888178,-7.251596487571008
5.572058966074313,9.648026369274064,0.9722130647766931,-7.136495101360156
5.580053311793215,9.530604043983532,1.1089765490645682,-7.021393715149304
5.588047657512116,9.413181718692998,1.2457400333524433,-6.906292328938452
5.596042003231018,9.295759393402466,1.3825035176403184,-6.791190942727601
5.604036348949919,6.719553715669298,3.613840064621539,-6.64593739903062
5.612030694668821,13.350839346616333,-4.6779965894811735,-10.534377400825708
5.620025040387722,12.394537946508732,-3.7973749955124996,-10.574793259737927
5.628019386106623,11.438236546401027,-2.9167534015437284,-10.615209118650151
5.636013731825525,10.48193514629332,-2.036131807574957,-10.655624977562375
5.644008077544426,9.525633746185616,-1.1555102136061852,-10.6960408364746
5.652002423263328,8.56933234607791,-0.27488861963741407,-10.736456695386824
5.6599967689822295,7.613030945970205,0.6057329743313575,-10.776872554299048
5.667991114701131,6.656729545862499,1.4863545683001291,-10.817288413211273
5.675985460420033,5.700428145754794,2.3669761622689007,-10.857704272123497
5.683979806138934,4.744126745647087,3.2475977562376723,-10.898120131035721
5.691974151857835,3.7878253455394884,4.128219350206347,-10.93853598994794
5.699968497576736,-0.1810210016147673,8.190611066235087,-4.582209612279326
5.707962843295638,1.231825525040273,7.610162358643116,-5.574378836833526
5.7159571890145395,2.9905815831986544,5.423708804523491,-6.740753877221289
5.723951534733441,4.956723747980615,2.4339182672171344,-7.875998444324777
5.731945880452343,5.167241518578355,2.178592682343082,-7.851818015915754
5.739940226171244,5.377759289176096,1.9232670974690298,-7.8276375875067306
5.747934571890146,5.588277059773835,1.6679415125949775,-7.803457159097707
5.7559289176090465,5.798794830371552,1.4126159277209533,-7.779276730688688
5.763923263327948,6.0093126009692925,1.157290342846901,-7.755096302279664
5.77191760904685,6.219830371567032,0.9019647579728487,-7.730915873870641
5.779911954765751,6.430348142164773,0.6466391730987964,-7.706735445461618
5.787906300484653,6.6408659127625125,0.3913135882247438,-7.682555017052595
5.795900646203554,6.851383683360252,0.1359880033506915,-7.6583745886435715
5.803894991922456,8.966470113085352,0.9237802907919797,-7.260560581583037
5.811889337641357,5.942221466428593,4.346549747753875,-6.836374259558427
5.819883683360258,4.539704673638999,5.52795976816019,-6.9056585891222335
5.82787802907916,3.1371878808492495,6.709369788566635,-6.974942918686047
5.835872374798061,1.7346710880594998,7.890779808973081,-7.04422724824986
5.843866720516963,0.33215429526975093,9.072189829379527,-7.113511577813674
5.851861066235864,-1.0703624975199988,10.253599849785973,-7.182795907377487
5.859855411954766,-2.4728792903097476,11.435009870192417,-7.2520802369413015
5.8678497576736675,-3.8753960830994982,12.616419890598863,-7.321364566505115
5.875844103392569,-5.277912875889247,13.797829911005309,-7.390648896068929
5.88383844911147,-6.68042966867884,14.979239931411623,-7.459933225632735
5.891832794830371,-8.082946461468591,16.16064995181807,-7.529217555196548
5.899827140549273,-9.485463254258338,17.342059972224515,-7.598501884760362
5.907821486268174,-10.887980047048089,18.52346999263096,-7.667786214324176
5.915815831987076,-12.290496839837836,19.704880013037403,-7.737070543887989
5.9238101777059775,16.775228863756155,1.8516992460974677,-8.900450726978903
5.931804523424879,3.2622229402258283,9.577088045234213,-5.43460743134078
5.939798869143781,4.008799484001639,9.14326939213464,-5.888574506305308
5.947793214862681,3.949140187591932,8.610511875195954,-6.132103754249733
5.955787560581583,3.8894808911822185,8.07775435825721,-6.375633002194185
5.963781906300484,3.8298215947725045,7.544996841318465,-6.619162250138636
5.971776252019386,3.770162298362791,7.012239324379721,-6.862691498083088
5.979770597738288,3.710503001953077,6.479481807440977,-7.10622074602754
5.987764943457189,3.6508437055433633,5.946724290502233,-7.349749993971992
5.995759289176091,3.5911844091336493,5.413966773563488,-7.593279241916443
6.003753634894992,6.3484210420034355,1.4906175282712606,-8.543714660743063
6.011747980613893,9.79545726081494,1.0979767007718508,-7.85979877939329
6.0197423263327945,9.623756479985643,1.2122070184886,-7.72167425058338
6.027736672051696,9.452055699156345,1.3264373362053492,-7.583549721773469
6.035731017770598,9.280354918327049,1.4406676539220984,-7.445425192963559
6.043725363489499,9.108654137497751,1.5548979716388476,-7.307300664153648
6.051719709208401,8.936953356668454,1.6691282893555968,-7.169176135343737
6.059714054927302,8.765252575839156,1.783358607072346,-7.031051606533827
6.067708400646204,8.593551795009859,1.8975889247890951,-6.892927077723916
6.0757027463651045,8.421851014180582,2.0118192425058314,-6.7548025489140215
6.083697092084006,8.250150233351285,2.126049560222581,-6.616678020104111
6.091691437802908,8.078449452521987,2.2402798779393303,-6.4785534912942
6.099685783521809,7.90674867169269,2.354510195656079,-6.34042896248429
6.107680129240711,0.4896899838447828,10.632724474959767,-4.681856138933712
6.115674474959612,-9.03717180936999,22.16736619547662,-0.8553625605815673
6.123668820678514,-6.151591276251223,19.329820678512814,-3.8803683360262964
6.1316631663974155,-0.52524223781176,7.566527563237214,-6.785902328103216
6.139657512116317,-0.5142910792927167,7.654793900900703,-6.60225139973886
6.147651857835218,-0.5033399207736746,7.7430602385641825,-6.418600471374523
6.155646203554119,-0.4923887622546313,7.831326576227672,-6.234949543010167
6.163640549273021,-0.48143760373558797,7.919592913891161,-6.051298614645811
6.171634894991922,-0.4704864452165447,8.00785925155465,-5.867647686281455
6.179629240710824,-0.4595352866975014,8.09612558921814,-5.683996757917098
6.1876235864297255,-0.44858412817845805,8.184391926881629,-5.500345829552741
6.195617932148627,-0.43763296965941473,8.272658264545118,-5.316694901188385
6.203612277867529,5.890189014540444,1.7999999999992358,-8.565915993538303
6.211606623586429,7.542616215670417,-0.5892625201938293,-7.8927791801292555
6.219600969305331,7.714898373220121,-0.6594521734230004,-7.881823045422099
6.2275953150242325,7.835743134087238,-0.6294268982229401,-7.918448303715671
6.235589660743134,7.956587894954354,-0.5994016230228796,-7.955073562009243
6.243584006462036,8.07743265582147,-0.5693763478228192,-7.991698820302815
6.251578352180937,8.198277416688587,-0.5393510726227588,-8.028324078596388
6.259572697899839,8.319122177555704,-0.5093257974226983,-8.06494933688996
6.26756704361874,8.439966938422819,-0.47930052222263797,-8.101574595183532
6.275561389337641,8.560811699289923,-0.4492752470225809,-8.138199853477099
6.2835557350565425,8.681656460157038,-0.4192499718225205,-8.174825111770671
6.291550080775444,8.802501221024155,-0.38922469662246006,-8.211450370064243
6.299544426494346,9.646730210016184,1.8412132471729434,-7.1815234248787965
6.307538772213247,8.399633279482636,1.745615508885642,-11.174313408723618
6.315533117932149,16.249895422724826,-5.100481529348412,-13.789532040926225
6.32352746365105,15.127666935918132,-4.328938341410867,-13.562581448572963
6.331521809369952,14.005438449111438,-3.557395153473321,-13.335630856219701
6.339516155088853,12.883209962304868,-2.785851965535861,-13.108680263866466
6.347510500807754,11.760981475498173,-2.0143087775983157,-12.881729671513204
6.355504846526656,10.63875298869148,-1.2427655896607703,-12.654779079159944
6.363499192245557,9.516524501884785,-0.4712224017232245,-12.427828486806682
6.371493537964459,8.39429601507809,0.30032078621432046,-12.20087789445342
6.37948788368336,7.272067528271396,1.0718639741518663,-11.973927302100158
6.387482229402262,6.149839041464702,1.8434071620894112,-11.746976709746898
6.3954765751211635,5.027610554658008,2.614950350026957,-11.520026117393636
6.403470920840064,2.8742088045239025,7.87910918147562,-5.940089122240369
6.411465266558966,5.092525609487435,3.6855286936407845,-8.131268321339403
6.419459612277867,5.231790745704209,3.4265300613159173,-8.121820458217066
6.427453957996769,5.371055881920983,3.1675314289910497,-8.112372595094728
6.4354483037156704,5.510321018137756,2.908532796666182,-8.102924731972388
6.443442649434572,5.64958615435453,2.649534164341315,-8.09347686885005
6.451436995153474,5.788851290571303,2.390535532016447,-8.084029005727713
6.459431340872375,5.928116426788077,2.1315368996915796,-8.074581142605375
6.467425686591276,6.067381563004835,1.872538267366741,-8.065133279483037
6.475420032310177,6.20664669922161,1.6135396350418736,-8.0556854163607
6.483414378029079,6.3459118354383826,1.354541002717006,-8.046237553238361
6.4914087237479805,6.485176971655156,1.0955423703921388,-8.036789690116024
6.499403069466882,6.6772908267191005,0.8690063566762679,-7.983003722694394
6.507397415185784,7.117675001755988,0.7949717637142655,-7.720928215213879
6.515391760904685,7.558059176792876,0.7209371707522632,-7.458852707733364
6.523386106623587,9.828379644588315,1.2750710823910363,-7.7919897684437975
6.531380452342487,7.187361544062446,2.284703224191669,-7.225608307356252
6.539374798061389,5.9750359052538204,3.222856583767546,-7.39731784568477
6.547369143780291,4.762710266445195,4.161009943343423,-7.569027384013288
6.555363489499192,3.5503846276365705,5.099163302919299,-7.7407369223418065
6.563357835218094,2.338058988827945,6.037316662495177,-7.912446460670324
6.571352180936995,1.1257333500193205,6.975470022071053,-8.084155998998842
6.579346526655897,-0.08659228878930492,7.9136233816469295,-8.255865537327361
6.587340872374798,-1.2989179275979295,8.851776741222807,-8.427575075655879
6.595335218093699,-2.51124356640642,9.789930100798578,-8.599284613984379
6.603329563812601,6.717814216477139,7.005731825525386,-2.835686591276879
6.611323909531502,-0.6401825525035005,7.771675282714181,-2.0441316639747305
6.619318255250404,-1.4897379203994805,7.451366683800853,-1.3199093479218516
6.627312600969305,-1.1868612314583693,7.389501349317081,-1.8539861488471043
6.635306946688207,-0.8839845425172581,7.327636014833309,-2.3880629497723573
6.643301292407108,-0.5811078535761469,7.2657706803495365,-2.92213975069761
6.65129563812601,-0.2782311646350357,7.203905345865764,-3.456216551622863
6.6592899838449116,0.024645524306075473,7.142040011381992,-3.9902933525481155
6.667284329563812,0.3275222132471529,7.080174676898227,-4.524370153473309
6.675278675282714,0.6303989021882641,7.0183093424144545,-5.058446954398562
6.683273021001615,0.9332755911293753,6.956444007930682,-5.592523755323814
6.691267366720517,1.2361522800704865,6.89457867344691,-6.126600556249068
6.6992617124394185,1.5390289690115977,6.832713338963138,-6.66067735717432
6.70725605815832,7.505033925687122,-0.057229402261799824,-7.8348982229403985
6.715250403877222,9.188193488256493,-0.2651089669619549,-8.351814642546469
6.723244749596123,9.211561575742513,-0.1924570558682013,-8.326250306236574
6.731239095315024,9.234929663228531,-0.11980514477445578,-8.300685969926683
6.739233441033925,9.25829775071455,-0.04715323368070218,-8.275121633616788
6.747227786752827,9.28166583820057,0.02549867741305145,-8.249557297306895
6.7552221324717285,9.30503392568659,0.09815058850680503,-8.223992960997
6.76321647819063,9.32840201317261,0.17080249960055865,-8.198428624687107
6.771210823909532,9.35177010065863,0.24345441069431223,-8.172864288377212
6.779205169628433,9.37513818814465,0.3161063217880659,-8.14729995206732
6.787199515347335,9.39850627563067,0.3887582328818195,-8.121735615757425
6.7951938610662355,9.421874363116688,0.46141014397556507,-8.096171279447534
6.803188206785137,7.36529840756989,3.5646288945302436,-7.059851950150009
6.811182552504039,15.642718709512325,-8.339604472240458,-20.908830771445498
6.81917689822294,14.579391576960607,-7.139898550840547,-19.850411059038056
6.827171243941842,13.516064444408887,-5.940192629440636,-18.79199134663061
6.835165589660743,12.452737311857168,-4.740486708040725,-17.733571634223168
6.843159935379645,11.38941017930545,-3.5407807866408145,-16.675151921815726
6.851154281098546,10.32608304675373,-2.341074865240903,-15.616732209408283
6.859148626817447,9.26275591420213,-1.1413689438411252,-14.558312497000959
6.867142972536349,8.199428781650411,0.05833697755878653,-13.499892784593516
6.87513731825525,7.136101649098691,1.2580428989586974,-12.441473072186072
6.883131663974152,6.072774516546973,2.457748820358608,-11.38305335977863
6.891126009693053,5.009447383995253,3.657454741758519,-10.324633647371186
6.899120355411955,3.946120251443535,4.85716066315843,-9.266213934963744
6.9071147011308565,2.882793118891815,6.056866584558341,-8.207794222556302
6.915109046849758,0.9005513501036086,7.411809369951649,-6.272966305100155
6.923103392568659,3.319106623585518,5.027079159936726,-7.2077738287555695
6.93109773828756,5.191736219709186,2.372055670436211,-8.02085528271406
6.939092084006462,5.483156768982213,2.0668848465266727,-7.962123489499196
6.947086429725363,5.774577318255241,1.761714022617134,-7.903391696284332
6.955080775444265,6.065997867528269,1.4565431987075956,-7.844659903069468
6.9630751211631665,6.357418416801297,1.151372374798057,-7.785928109854604
6.971069466882068,6.648838966074324,0.8462015508885183,-7.7271963166397395
6.97906381260097,6.940259515347352,0.5410307269789798,-7.668464523424875
6.98705815831987,7.231680064620347,0.23585990306947524,-7.609732730210018
6.995052504038772,7.523100613893375,-0.06931092084006352,-7.551000936995154
7.003046849757673,9.649033117932277,0.4288537964457035,-7.391239903069644
7.011041195476575,6.6472246523143435,3.4326888916204665,-7.005901374938534
7.019035541195477,4.5646106974783365,5.16103167802211,-6.7505167872444956
7.027029886914378,2.4819967426423286,6.889374464423753,-6.495132199550457
7.03502423263328,0.39938278780632164,8.617717250825397,-6.239747611856418
7.043018578352181,-1.6832311670296862,10.34606003722704,-5.984363024162379
7.051012924071082,-3.7658451218654614,12.074402823628493,-5.728978436468369
7.0590072697899835,-5.848459076701469,13.802745610030133,-5.47359384877433
7.067001615508885,-7.931073031537475,15.531088396431777,-5.2182092610802915
7.074995961227787,-10.013686986373486,17.25943118283342,-4.962824673386253
7.082990306946688,-12.096300941209492,18.987773969235064,-4.707440085692214
7.09098465266559,-14.178914896045498,20.71611675563671,-4.452055497998176
7.098978998384491,-16.261528850881508,22.444459542038352,-4.196670910304137
7.106973344103393,-0.4335085899907784,7.8522219153334305,-2.610465570552593
7.1149676898222936,-0.1584343286952712,7.730845397536789,-2.9674603852901686
7.122962035541195,0.11663993260026656,7.609468879740132,-3.3244552000277836
7.130956381260097,0.39171419389580436,7.488092361943476,-3.6814500147653986
7.138950726978998,0.6667884551913421,7.36671584414682,-4.038444829503014
7.1469450726979,0.9418627164868798,7.245339326350164,-4.3954396442406285
7.154939418416801,1.2169369777824175,7.123962808553508,-4.752434458978243
7.162933764135703,1.4920112390779552,7.002586290756852,-5.109429273715858
7.1709281098546045,1.767085500373493,6.881209772960196,-5.466424088453474
7.178922455573506,2.042159761669031,6.7598332551635405,-5.823418903191088
7.186916801292407,2.317234022964538,6.638456737366898,-6.180413717928664
7.194911147011308,2.5923082842600755,6.517080219570241,-6.537408532666279
7.20290549273021,8.123257269789965,-0.36903796445879006,-7.64581906300484
7.210899838449111,9.591470516962842,-0.82746230479268,-8.177122913301023
7.218894184168013,9.697269331259102,-0.3847965755200564,-8.177648606872896
7.2268885298869145,9.598573705099822,-0.2350753106364299,-7.997134306627575
7.234882875605816,9.499878078940544,-0.08535404575280342,-7.816620006382253
7.242877221324718,9.401182452781264,0.06436721913082305,-7.636105706136932
7.250871567043618,9.302486826621996,0.21408848401443287,-7.45559140589163
7.25886591276252,9.203791200462717,0.36380974889805945,-7.275077105646308
7.2668602584814215,9.105095574303437,0.513531013781686,-7.094562805400987
7.274854604200323,9.006399948144159,0.6632522786653123,-6.914048505155665
7.282848949919225,8.907704321984879,0.8129735435489389,-6.7335342049103435
7.290843295638126,8.8090086958256,0.9626948084325653,-6.553019904665022
7.298837641357028,7.4163299676898635,2.763117124394131,-6.903731421647803
7.306831987075929,2.3047246903608465,20.279113354873353,3.007000605815719
7.31482633279483,3.217912139876104,18.41010194534203,0.9312187752424173
7.3228206785137315,4.131099589391463,16.541090535810504,-1.1445630553311146
7.330815024232633,5.044287038906822,14.67207912627898,-3.2203448859046473
7.338809369951535,5.957474488422181,12.803067716747453,-5.29612671647818
7.346803715670436,6.87066193793754,10.934056307215927,-7.371908547051711
7.354798061389338,7.783849387452899,9.0650448976844,-9.447690377625243
7.362792407108239,8.697036836968259,7.1960334881528745,-11.523472208198775
7.370786752827141,9.610224286483618,5.327022078621349,-13.599254038772308
7.378781098546042,10.523411735998874,3.4580106690900294,-15.67503586934561
7.386775444264943,11.436599185514233,1.588999259558502,-17.750817699919143
7.394769789983845,12.349786635029595,-0.2800121499730217,-19.826599530492675
7.402764135702746,0.15859854604199847,7.8240928917610235,-4.793815024232624
7.410758481421648,4.834178809039896,3.439830258655136,-8.537965961401499
7.418752827140549,5.020455660360968,3.3077086525266233,-8.53375388677541
7.426747172859451,5.20673251168204,3.1755870463981104,-8.529541812149322
7.4347415185783525,5.393009363003112,3.043465440269597,-8.525329737523235
7.442735864297253,5.5792862143241635,2.911343834141099,-8.521117662897147
7.450730210016155,5.765563065645235,2.779222228012586,-8.51690558827106
7.458724555735056,5.951839916966307,2.647100621884073,-8.51269351364497
7.466718901453958,6.138116768287379,2.51497901575556,-8.508481439018883
7.4747132471728595,6.324393619608451,2.382857409627047,-8.504269364392796
7.482707592891761,6.510670470929523,2.250735803498534,-8.500057289766707
7.490701938610663,6.696947322250595,2.1186141973700208,-8.49584521514062
7.498696284329564,7.435516155089006,0.9131890145392882,-7.913039579967535
7.506690630048465,8.188608239095325,2.097237479806124,-6.035433764135696
7.514684975767366,8.056743610237232,2.273617991667363,-6.109907405832832
7.522679321486268,7.924878981379141,2.4499985035286023,-6.184381047529968
7.5306736672051695,7.793014352521048,2.6263790153898414,-6.258854689227103
7.538668012924071,7.661149723662956,2.8027595272510806,-6.33332833092424
7.546662358642973,7.529285094804863,2.9791400391123197,-6.4078019726213755
7.554656704361874,7.397420465946771,3.155520550973559,-6.482275614318511
7.562651050080776,7.265555837088678,3.331901062834798,-6.556749256015647
7.570645395799676,7.133691208230601,3.5082815746960176,-6.6312228977127745
7.578639741518578,7.0018265793725085,3.684662086557257,-6.70569653940991
7.58663408723748,6.8699619505144165,3.861042598418496,-6.780170181107046
7.594628432956381,6.7380973216563245,4.037423110279735,-6.8546438228041815
7.602622778675283,-2.0575207323636766,20.025515616585253,0.8839924609582201
7.610617124394184,2.65573759519957,7.75032448649897,-4.494679667666837
7.618611470113086,1.3994832679436309,7.928484191091631,-6.405899319178486
7.626605815831987,0.7841559178641203,7.934609748320715,-7.0171620823059095
7.634600161550888,0.6403628836833684,7.8141686187399095,-6.672037762520214
7.64259450726979,0.49656984950260036,7.693727489159091,-6.326913442734479
7.650588852988691,0.35277681532183247,7.573286359578272,-5.981789122948744
7.658583198707593,0.20898378114106453,7.452845229997453,-5.636664803163009
7.666577544426494,0.06519074696029659,7.3324041004166345,-5.291540483377274
7.674571890145396,-0.07860228722047136,7.211962970835816,-4.946416163591539
7.682566235864297,-0.2223953214012393,7.0915218412549965,-4.601291843805804
7.690560581583199,-0.36618835558200735,6.971080711674178,-4.256167524020069
7.698554927302101,0.29548828756066847,6.287147415185721,-5.005177302100279
7.706549273021001,6.946752827140466,1.024822617124515,-6.715025525040449
7.714543618739903,8.572490497540434,-0.4918049862954012,-8.566344021709533
7.722537964458804,8.629438982773957,-0.38913602947849735,-8.447147428799619
7.730532310177706,8.68638746800748,-0.2864670726615935,-8.327950835889705
7.7385266558966075,8.743335953241003,-0.18379811584468964,-8.208754242979792
7.746521001615509,8.800284438474526,-0.08112915902778578,-8.089557650069878
7.754515347334411,8.85723292370805,0.021539797789118076,-7.970361057159965
7.762509693053312,8.914181408941573,0.12420875460602188,-7.8511644642500515
7.770504038772213,8.971129894175089,0.22687771142291435,-7.731967871340151
7.778498384491114,9.028078379408614,0.32954666823981815,-7.6127712784302375
7.786492730210016,9.085026864642137,0.43221562505672206,-7.493574685520324
7.7944870759289175,9.14197534987566,0.5348845818736259,-7.37437809261041
7.802481421647819,-0.5937657512177186,8.409798061393722,-6.048785137317704
7.810475767366721,14.912656704361838,-0.9374486566180678,-8.924548927960863
7.818470113085622,14.201159935379604,-0.357043634424422,-9.16624205969542
7.826464458804524,13.489663166397369,0.22336138776922376,-9.407935191429976
7.8344588045234245,12.778166397415212,0.803766409962805,-9.649628323164507
7.842453150242326,12.06666962843298,1.3841714321564504,-9.891321454899062
7.850447495961228,11.355172859450743,1.9645764543500963,-10.13301458663362
7.858441841680129,10.643676090468508,2.544981476543742,-10.374707718368175
7.866436187399031,9.932179321486274,3.125386498737388,-10.616400850102732
7.874430533117932,9.220682552504039,3.705791520931034,-10.858093981837287
7.882424878836834,8.509185783521804,4.286196543124679,-11.099787113571844
7.890419224555735,7.79768901453957,4.866601565318325,-11.3414802453064
7.898413570274636,7.086192245557413,5.447006587511907,-11.58317337704093
7.906407915993538,6.374695476575178,6.027411609705552,-11.824866508775486
7.914402261712439,3.3943812600967567,4.797051696284472,-6.994720516962338
7.922396607431341,3.7778279238263077,4.488321600496075,-7.918677714136519
7.930390953150242,3.826278503940863,4.454083190548457,-7.854561446451591
7.938385298869144,3.8747290840554185,4.419844780600838,-7.790445178766663
7.9463796445880455,3.923179664169974,4.3856063706532185,-7.726328911081735
7.954373990306947,3.971630244284529,4.351367960705599,-7.662212643396806
7.962368336025848,4.020080824399079,4.3171295507579845,-7.598096375711886
7.970362681744749,4.068531404513634,4.282891140810365,-7.533980108026958
7.978357027463651,4.11698198462819,4.248652730862746,-7.469863840342029
7.986351373182552,4.165432564742745,4.214414320915127,-7.405747572657101
7.994345718901454,4.2138831448573,4.180175910967508,-7.341631304972173
8.002340064620356,4.262333724971855,4.145937501019889,-7.2775150372872455
8.010334410339256,4.310784305086405,4.111699091072274,-7.213398769602324
8.018328756058159,5.738057785510122,4.636001366969033,-8.131784764508536
8.02632310177706,5.861047719647057,5.171007580464698,-7.567260966820008
8.034317447495962,4.9223040884801765,5.026186839816079,-7.023538225425624
8.042311793214862,4.885407108239096,5.009583198707593,-7.01849563812601
8.050306138933765,4.848510127998008,4.992979557599103,-7.013453050826395
8.058300484652666,4.811613147756927,4.976375916490617,-7.00841046352678
8.066294830371566,4.774716167515847,4.959772275382131,-7.003367876227166
8.074289176090469,4.737819187274758,4.943168634273641,-6.998325288927551
8.08228352180937,4.7009222070336785,4.926564993165155,-6.993282701627936
8.090277867528272,4.66402522679259,4.909961352056666,-6.98824011432832
8.098272213247173,4.654627625201933,5.380077140549154,-6.629688610662446
8.106266558966075,4.287943835286831,5.072233698827902,-7.146943835286831
8.114260904684976,4.245420719760764,5.097747568143542,-7.104420719760764
8.122255250403876,4.202897604234697,5.123261437459182,-7.061897604234697
8.130249596122779,4.160374488708621,5.148775306774827,-7.019374488708621
8.13824394184168,4.117851373182554,5.1742891760904675,-6.976851373182554
8.146238287560582,4.075328257656478,5.199803045406114,-6.934328257656478
8.154232633279483,4.032805142130411,5.225316914721754,-6.891805142130411
8.162226978998385,3.9902820266043344,5.250830784037399,-6.849282026604334
8.170221324717286,3.947758911078268,5.276344653353039,-6.806758911078267
8.178215670436188,3.9052357955521915,5.301858522668685,-6.7642357955521915
8.186210016155089,3.8627126800261244,5.327372391984325,-6.721712680026124
8.19420436187399,3.8201895645000574,5.3528862612999655,-6.679189564500057
8.202198707592892,3.931885621970918,5.549618093699505,-6.9460668820678535
8.210193053311793,4.371559179108439,6.627302144543661,-6.160744767348974
8.218187399030695,4.512119103836395,6.653920680289017,-6.0978442010332135
8.226181744749596,4.65267902856432,6.680539216034368,-6.034943634717466
8.234176090468498,4.793238953292276,6.707157751779725,-5.972043068401707
8.242170436187399,4.933798878020201,6.7337762875250755,-5.90914250208596
8.250164781906301,5.074358802748158,6.760394823270432,-5.846241935770199
8.258159127625202,5.214918727476082,6.787013359015783,-5.783341369454453
8.266153473344103,5.355478652204008,6.813631894761134,-5.720440803138707
8.274147819063005,5.496038576931964,6.840250430506491,-5.657540236822946
8.282142164781906,5.636598501659888,6.866868966251841,-5.5946396705072
8.290136510500808,5.777158426387845,6.893487501997198,-5.531739104191439
8.298130856219709,5.91771835111577,6.920106037742549,-5.468838537875692
8.306125201938611,4.9159115421085895,7.354121119266701,-5.7256241395659035
8.314119547657512,4.910263363068062,7.361854779799116,-5.637773231720158
8.322113893376413,4.904615184027534,7.369588440331531,-5.549922323874413
8.330108239095315,4.898967004987005,7.377322100863947,-5.462071416028649
8.338102584814216,4.893318825946477,7.385055761396361,-5.374220508182904
8.346096930533118,4.887670646905949,7.392789421928778,-5.28636960033714
8.354091276252019,4.882022467865421,7.400523082461192,-5.198518692491394
8.362085621970921,4.876374288824892,7.4082567429936095,-5.11066778464563
8.370079967689822,4.870726109784364,7.415990403526024,-5.022816876799885
8.378074313408725,4.865077930743836,7.42372406405844,-4.9349659689541205
8.386068659127625,4.859429751703308,7.431457724590855,-4.847115061108376
8.394063004846526,4.85378157266278,7.439191385123269,-4.75926415326263
8.402057350565428,4.388094507269808,7.346699515347321,-4.969573505654279
8.410051696284329,3.3620613893378675,8.207118739902823,-4.930675282714122
8.418046042003231,2.7397907440843934,9.037579349995248,-4.716895970730775
8.426040387722132,2.9485842440368604,9.025822959232158,-4.545628870094089
8.434034733441035,3.1573777439893735,9.014066568469067,-4.374361769457365
8.442029079159935,3.3661712439418405,9.002310177705978,-4.20309466882068
8.450023424878836,3.5749647438943075,8.990553786942888,-4.031827568183994
8.458017770597738,3.783758243846821,8.978797396179797,-3.86056046754727
8.466012116316639,3.992551743799288,8.967041005416707,-3.689293366910584
8.474006462035542,4.201345243751802,8.955284614653614,-3.5180262662738606
8.482000807754442,4.410138743704269,8.943528223890524,-3.3467591656371747
8.489995153473345,4.618932243656782,8.931771833127433,-3.1754920650004506
8.497989499192245,4.827725743609249,8.920015442364344,-3.0042249643637646
8.505983844911148,0.20188196473379189,8.816854604200334,-4.280567249853878
8.513978190630048,0.24976299281614317,8.888803715670438,-4.020921106451714
8.52197253634895,0.2976440208984945,8.960752827140544,-3.7612749630495492
8.529966882067852,0.34552504898085645,9.032701938610664,-3.501628819647327
8.537961227786752,0.39340607706320774,9.10465105008077,-3.2419826762451627
8.545955573505655,0.4412871051455697,9.17660016155089,-2.9823365328429405
8.553949919224555,0.48916813322792096,9.248549273020997,-2.7226903894407766
8.561944264943458,0.537049161310283,9.320498384491117,-2.463044246038554
8.569938610662359,0.5849301893926342,9.392447495961223,-2.20339810263639
8.57793295638126,0.6328112174749856,9.464396607431327,-1.9437519592342256
8.585927302100162,0.6806922455573474,9.53634571890145,-1.6841058158320035
8.593921647819062,0.7285732736396988,9.608294830371554,-1.424459672429839
8.601915993537965,-0.6505468497577162,9.037605008077561,-2.879751211631691
8.609910339256865,0.008261794122454851,9.942652229946814,-1.9264837813799
8.617904684975768,-0.04212953113939071,9.939598210233976,-1.9043870505164169
8.625899030694669,-0.09252085640122507,9.936544190521138,-1.8822903196529388
8.633893376413571,-0.14291218166307063,9.933490170808298,-1.8601935887894556
8.641887722132472,-0.19330350692490497,9.93043615109546,-1.8380968579259775
8.649882067851372,-0.24369483218673932,9.927382131382622,-1.8160001270624995
8.657876413570275,-0.2940861574485849,9.924328111669784,-1.7939033961990163
8.665870759289175,-0.3444774827104193,9.921274091956944,-1.7718066653355382
8.673865105008078,-0.3948688079722648,9.918220072244106,-1.749709934472055
8.681859450726979,-0.4452601332340992,9.915166052531267,-1.727613203608577
8.689853796445881,-0.4956514584959447,9.912112032818428,-1.7055164727450938
8.697848142164782,-0.5460427837577791,9.90905801310559,-1.6834197418816157
8.705842487883684,-0.2872855411955051,9.291094911147066,-3.659934571890062
8.713836833602585,-0.07664510917713538,9.220025900255354,-3.5336567304184734
8.721831179321486,-0.12564271197039759,9.238249570066182,-3.6173824587002934
8.729825525040388,-0.1746403147636707,9.256473239877014,-3.701108186982132
8.737819870759289,-0.2236379175569329,9.274696909687842,-3.784833915263952
8.745814216478191,-0.272635520350206,9.292920579498672,-3.8685596435457907
8.753808562197092,-0.3216331231434682,9.3111442493095,-3.9522853718276107
8.761802907915994,-0.3706307259367413,9.329367919120331,-4.036011100109449
8.769797253634895,-0.41962832873000355,9.34759158893116,-4.119736828391269
8.777791599353796,-0.46862593152326576,9.365815258741986,-4.203462556673089
8.785785945072698,-0.5176235343165388,9.384038928552817,-4.287188284954928
8.793780290791599,-0.5666211371098011,9.402262598363645,-4.370914013236748
8.801774636510501,-0.6156187399030743,9.420486268174477,-4.454639741518586
8.809768982229402,-0.8649011602290855,8.830557350565483,-4.861693347040644
8.817763327948304,-1.1079172051703288,9.472052504039425,-4.893621163166738
8.825757673667205,-1.8653066093841744,8.88887047524366,-5.38921947842143
8.833752019386107,-1.6953169504163024,8.862691189263078,-5.283008885298868
8.841746365105008,-1.525327291448468,8.836511903282503,-5.17679829217633
8.849740710823909,-1.3553376324806337,8.810332617301926,-5.0705876990537915
8.857735056542811,-1.1853479735127617,8.784153331321345,-4.964377105931229
8.865729402261712,-1.0153583145449272,8.757974045340768,-4.85816651280869
8.873723747980614,-0.845368655577055,8.731794759360186,-4.751955919686129
8.881718093699515,-0.6753789966092207,8.705615473379611,-4.64574532656359
8.889712439418417,-0.5053893376413487,8.679436187399029,-4.5395347334410285
8.897706785137318,-0.3353996786735143,8.653256901418453,-4.43332414031849
8.905701130856219,-0.16541001970568003,8.627077615437877,-4.327113547195951
8.913695476575121,-0.568642164781878,8.864033117932118,-4.571769588045228
8.921689822294022,-0.2617205486394879,7.124056859577434,-5.913483258893218
8.929684168012924,-0.3164269536570751,7.159482783743551,-5.8727277709145
8.937678513731825,-0.37113335867465014,7.19490870790966,-5.831972282935791
8.945672859450728,-0.4258397636922373,7.230334632075776,-5.791216794957072
8.953667205169628,-0.48054616870981237,7.265760556241885,-5.750461306978363
8.96166155088853,-0.5352525737273995,7.301186480408001,-5.709705818999645
8.969655896607431,-0.5899589787449746,7.33661240457411,-5.668950331020936
8.977650242326332,-0.14339822294068183,7.432960420032279,-5.377768982229496
8.985644588045234,0.6820139162733869,7.508108506226708,-5.22048659890858
8.993638933764135,0.6579679315125991,7.528692372762775,-5.2391190897179865
9.001633279483038,0.6339219467518061,7.549276239298846,-5.257751580527397
9.009627625201938,0.6098759619910183,7.5698601058349135,-5.276384071336802
9.01762197092084,0.5858299772302253,7.590443972370985,-5.295016562146213
9.025616316639741,0.5617839924694376,7.611027838907051,-5.313649052955619
9.033610662358642,0.5377380077086499,7.6316117054431185,-5.332281543765025
9.041605008077545,0.5136920229478568,7.65219557197919,-5.350914034574436
9.049599353796445,0.48964603818706903,7.672779438515257,-5.369546525383842
9.057593699515348,0.465600053426276,7.693363305051329,-5.388179016193252
9.065588045234248,0.44155406866548824,7.713947171587396,-5.406811507002659
9.07358239095315,0.4175080839046952,7.7345310381234675,-5.425443997812069
9.081576736672051,0.39346209914390745,7.755114904659535,-5.444076488621475
9.089571082390954,0.36941611438311434,7.775698771195606,-5.462708979430886
9.097565428109855,0.3453701296223266,7.7962826377316725,-5.481341470240292
9.105559773828755,0.32132414486153893,7.81686650426774,-5.499973961049698
9.113554119547658,0.09283903656924679,7.230614829637244,-4.999963247172857
9.121548465266558,0.08920524306065554,7.245059158833894,-5.049927907915986
9.12954281098546,0.08557144955206347,7.259503488030548,-5.099892568659127
9.137537156704362,0.08193765604347222,7.273947817227198,-5.149857229402257
9.145531502423264,0.07830386253488017,7.288392146423851,-5.199821890145397
9.153525848142165,0.07467006902628892,7.302836475620501,-5.249786550888527
9.161520193861065,0.07103627551769767,7.317280804817152,-5.299751211631657
9.169514539579968,0.06740248200910562,7.331725134013805,-5.349715872374798
9.177508885298868,0.06376868850051437,7.3461694632104555,-5.399680533117928
9.18550323101777,0.06013489499192231,7.360613792407109,-5.449645193861068
9.193497576736672,0.05650110148333106,7.375058121603759,-5.499609854604198
9.201491922455574,0.10134652665591444,7.444183158319893,-6.1202247576738875
9.209486268174475,0.1818901453958034,7.597401453958005,-6.27976332794829
9.217480613893377,0.5158647588276235,7.8839567274405855,-6.272588852988737
9.225474959612278,0.8886099084544947,8.169659989229942,-7.051225094238021
9.233469305331178,0.9067304254173364,8.17179181475498,-7.032571620893918
9.241463651050081,0.9248509423801822,8.173923640280021,-7.013918147549813
9.249457996768982,0.9429714593430238,8.176055465805062,-6.9952646742057105
9.257452342487884,0.9610919763058695,8.178187291330103,-6.976611200861605
9.265446688206785,0.9792124932687113,8.180319116855143,-6.957957727517503
9.273441033925687,0.997333010231557,8.182450942380184,-6.939304254173397
9.281435379644588,1.0154535271943987,8.184582767905223,-6.920650780829296
9.28942972536349,1.0335740441572443,8.186714593430263,-6.901997307485189
9.297424071082391,1.051694561120086,8.188846418955304,-6.883343834141088
9.305418416801292,0.8529722132471913,7.858742810985402,-5.241230694668939
9.313412762520194,0.5093834141087781,8.45220193861066,-5.034137318255253
9.321407108239095,0.5205938759214894,8.379977160046797,-5.094232744693886
9.329401453957997,0.5318043377342032,8.30775238148292,-5.154328171132532
9.337395799676898,0.5430147995469146,8.23552760291906,-5.214423597571165
9.3453901453958,0.5542252613596284,8.163302824355181,-5.274519024009811
9.353384491114701,0.5654357231723397,8.09107804579132,-5.334614450448444
9.361378836833602,0.5766461849850509,8.018853267227458,-5.3947098768870765
9.369373182552504,0.5878566467977648,7.946628488663581,-5.454805303325723
9.377367528271405,0.5990671086104762,7.8744037100997195,-5.5149007297643555
9.385361873990307,0.61027757042319,7.802178931535842,-5.574996156203001
9.393356219709208,0.6214880322359013,7.72995415297198,-5.635091582641635
9.40135056542811,0.39426978998386786,7.681850565428314,-5.048608239095586
9.409344911147011,0.35782329082597175,8.060073875158974,-6.095958125665967
9.417339256865914,0.3680288385522303,8.003348039047188,-6.125809352765273
9.425333602584814,0.3782343862784865,7.946622202935413,-6.1556605798645725
9.433327948303715,0.38843993400474275,7.889896366823638,-6.185511806963873
9.441322294022617,0.3986454817310013,7.833170530711851,-6.215363034063178
9.449316639741518,0.4088510294572575,7.776444694600078,-6.245214261162478
9.45731098546042,0.419056577183516,7.7197188584882905,-6.2750654882617845
9.465305331179321,0.4292621249097722,7.662993022376516,-6.304916715361084
9.473299676898224,0.43946767263603076,7.606267186264729,-6.33476794246039
9.481294022617124,0.449673220362287,7.549541350152955,-6.364619169559689
9.489288368336025,0.4598787680885433,7.4928155140411805,-6.394470396658988
9.497282714054927,0.47008431581480176,7.4360896779293935,-6.424321623758295
9.505277059773828,-0.0739414160890896,7.944658389355009,-6.208898709329998
9.51327140549273,-0.014542567790577825,7.963655705525734,-6.205976045303733
9.521265751211631,0.044856280507920746,7.982653021696455,-6.203053381277468
9.529260096930534,0.10425512880643252,8.00165033786718,-6.200130717251203
9.537254442649434,0.16365397710493113,8.020647654037901,-6.197208053224938
9.545248788368337,0.22305282540344284,8.039644970208625,-6.194285389198672
9.553243134087237,0.2824516737019414,8.058642286379348,-6.191362725172408
9.561237479806138,0.34185052200044,8.077639602550068,-6.188440061146143
9.56923182552504,0.4012493702989518,8.096636918720794,-6.185517397119877
9.577226171243941,0.46064821859745037,8.115634234891514,-6.182594733093613
9.585220516962844,0.5200470668959621,8.134631551062238,-6.1796720690673475
9.593214862681744,0.5794459151944608,8.15362886723296,-6.1767494050410825
9.601209208400647,0.6532382875605455,7.657209208400647,-6.307219305331116
9.609203554119548,0.2913127063285774,7.98106841328932,-5.46243007656107
9.617197899838448,0.339452570766306,7.939358783451576,-5.520302187960938
9.62519224555735,0.38759243520404535,7.897649153613823,-5.57817429936082
9.633186591276251,0.43573229964177396,7.8559395237760805,-5.636046410760689
9.641180936995154,0.48387216407951333,7.814229893938328,-5.693918522160571
9.649175282714054,0.5320120285172419,7.772520264100584,-5.751790633560439
9.657169628432957,0.5801518929549813,7.730810634262832,-5.80966274496032
9.665163974151858,0.6282917573927099,7.689101004425089,-5.867534856360189
9.67315831987076,0.6764316218304492,7.647391374587336,-5.925406967760071
9.68115266558966,0.7245714862681778,7.605681744749593,-5.9832790791599395
9.689147011308561,0.7727113507059065,7.5639721149118495,-6.041151190559808
9.697141357027464,0.8145341949380337,7.520314216478171,-6.136684706516157
9.705135702746365,0.4785501667067695,7.775610576427321,-6.197130976523567
9.713130048465267,0.468344618980511,7.765830259856323,-6.16285734540955
9.721124394184168,0.45813907125425474,7.756049943285327,-6.128583714295539
9.72911873990307,0.4479335235279962,7.74626962671433,-6.0943100831815205
9.73711308562197,0.43772797580174,7.736489310143334,-6.060036452067511
9.745107431340873,0.42752242807548146,7.726708993572337,-6.025762820953492
9.753101777059774,0.4173168803492252,7.7169286770013406,-5.9914891898394815
9.761096122778675,0.407111332622969,7.707148360430345,-5.957215558725471
9.769090468497577,0.39690578489671047,7.697368043859347,-5.922941927611453
9.777084814216478,0.3867002371704542,7.687587727288352,-5.888668296497443
9.78507915993538,0.37649468944419573,7.677807410717354,-5.854394665383424
9.79307350565428,0.36628914171793947,7.668027094146359,-5.820121034269414
9.801067851373183,0.4296752827140261,7.650923263327943,-6.0163392568659155
9.809062197092084,0.384,7.643,-6.021
9.817056542810985,0.384,7.643,-6.021
9.825050888529887,0.384,7.643,-6.021
9.833045234248788,0.384,7.643,-6.021
9.84103957996769,0.384,7.643,-6.021
9.84903392568659,0.384,7.643,-6.021
9.857028271405493,0.384,7.643,-6.021
9.865022617124394,0.384,7.643,-6.021
9.873016962843296,0.384,7.643,-6.021
9.881011308562197,0.5461470113085597,7.437231017770611,-6.279169628432953
9.889005654281098,0.4730639741518664,7.536734571890129,-6.191250403877231
9.897,0.375,7.727,-6.074
