gyro_time_list,gyro_x_list,gyro_y_list,gyro_z_list
0.0,0.6,-0.2,-0.1
0.007996319018404908,-0.3005521472392638,0.3001840490797546,0.09981595092024538
0.015992638036809816,-0.2429097283085013,0.27145486415425063,0.1
0.023988957055214723,-0.1857931638913234,0.2428965819456617,0.1
0.03198527607361963,-0.12867659947414548,0.21433829973707275,0.1
0.039981595092024536,-0.07156003505696759,0.18578001752848378,0.1
0.04797791411042945,-0.014443470639789624,0.1572217353198948,0.1
0.05597423312883436,0.042673093777388316,0.12866345311130584,0.1
0.06397055214723926,0.0997896581945662,0.1001051709027169,0.1
0.07196687116564417,0.15690622261174414,0.07154688869412792,0.1
0.07996319018404907,0.2140227870289219,0.04298860648553904,0.1
0.08795950920245399,0.27113935144609996,0.014430324276950013,0.1
0.0959558282208589,0.12176687116564434,0.07823312883435567,0.2
0.1039521472392638,-0.1,-0.005963933816694529,0.1940360661833055
0.11194846625766872,-0.1,-0.02211811365185598,0.17788188634814403
0.11994478527607362,-0.1,-0.038272293487017404,0.1617277065129826
0.12794110429447852,-0.1,-0.05442647332217883,0.1455735266778212
0.13593742331288344,-0.1,-0.07058065315734029,0.1294193468426597
0.14393374233128833,-0.1,-0.08673483299250168,0.11326516700749834
0.15193006134969325,-0.1,-0.10288901282766313,0.09711098717233688
0.15992638036809814,-0.1,-0.11904319266282452,0.08095680733717549
0.16792269938650306,-0.1,-0.13519737249798597,0.06480262750201404
0.17591901840490798,-0.1,-0.15135155233314743,0.048648447666852584
0.18391533742331287,-0.1,-0.16750573216830883,0.03249426783169118
0.1919116564417178,-0.1,-0.1836599120034703,0.016340087996529723
0.1999079754601227,-0.1,-0.19981409183863172,0.00018590816136829225
0.2079042944785276,-0.0980764702237095,0.0980764702237095,-0.10384705955258103
0.21590061349693251,-0.08999938030612877,0.08999938030612877,-0.12000123938774249
0.22389693251533743,-0.08192229038854804,0.08192229038854804,-0.13615541922290392
0.23189325153374232,-0.07384520047096735,0.07384520047096735,-0.15230959905806532
0.23988957055214724,-0.06576811055338662,0.06576811055338662,-0.16846377889322678
0.24788588957055213,-0.05769102063580592,0.05769102063580592,-0.18461795872838815
0.25588220858895705,-0.049613930718225195,0.049613930718225195,-0.2007721385635496
0.26387852760736197,-0.041536840800644466,0.041536840800644466,-0.21692631839871107
0.2718748466257669,-0.033459750883063744,0.033459750883063744,-0.2330804982338725
0.27987116564417175,-0.02538266096548307,0.02538266096548307,-0.24923467806903385
0.28786748466257667,-0.01730557104790234,0.01730557104790234,-0.2653888579041953
0.2958638036809816,-0.009228481130321625,0.009228481130321625,-0.28154303773935674
0.3038601226993865,-0.001151391212740896,0.001151391212740896,-0.29769721757451817
0.3118564417177914,-0.0047852760736192546,0.0,-0.19521472392638076
0.3198527607361963,-0.1,0.005577885903673886,-0.2
0.3278490797546012,-0.1,0.014769057189196778,-0.2
0.3358453987730061,-0.1,0.02396022847471967,-0.2
0.34384171779141104,-0.1,0.03315139976024256,-0.2
0.35183803680981596,-0.1,0.042342571045765456,-0.2
0.3598343558282209,-0.1,0.051533742331288344,-0.2
0.36783067484662574,-0.1,0.06072491361681118,-0.2
0.37582699386503066,-0.1,0.06991608490233407,-0.2
0.3838233128834356,-0.1,0.07910725618785695,-0.2
0.3918196319018405,-0.1,0.08829842747337985,-0.2
0.3998159509202454,-0.1,0.09748959875890274,-0.2
0.4078122699386503,-0.1,0.0031288343558283638,-0.10312883435582837
0.4158085889570552,-0.10319157836029003,-0.1,0.0
0.4238049079754601,-0.11227830451756833,-0.1,0.0
0.43180122699386503,-0.12136503067484665,-0.1,0.0
0.43979754601226995,-0.13045175683212495,-0.1,0.0
0.44779386503067486,-0.13953848298940327,-0.1,0.0
0.4557901840490797,-0.14862520914668154,-0.1,0.0
0.46378650306748465,-0.15771193530395985,-0.1,0.0
0.47178282208588956,-0.16679866146123817,-0.1,0.0
0.4797791411042945,-0.17588538761851646,-0.1,0.0
0.4877754601226994,-0.1849721137757948,-0.1,0.0
0.49577177914110426,-0.19405883993307305,-0.1,0.0
0.5037680981595092,-0.47680981595091776,-0.2615950920245411,0.0
0.5117644171779141,-1.308653832592906,-0.30865383259290596,-0.2
0.519760736196319,-1.327036175163952,-0.3270361751639517,-0.2
0.5277570552147239,-1.3454185177349975,-0.34541851773499754,-0.2
0.5357533742331289,-1.3638008603060434,-0.36380086030604336,-0.2
0.5437496932515338,-1.382183202877089,-0.3821832028770892,-0.2
0.5517460122699387,-1.400565545448135,-0.40056554544813494,-0.2
0.5597423312883435,-1.4189478880191806,-0.4189478880191805,-0.2
0.5677386503067484,-1.4373302305902262,-0.4373302305902263,-0.2
0.5757349693251533,-1.4557125731612721,-0.4557125731612721,-0.2
0.5837312883435583,-1.474094915732318,-0.4740949157323179,-0.2
0.5917276073619632,-1.4924772583033636,-0.49247725830336364,-0.2
0.5997239263803681,-1.5,-0.46206543967280184,0.37586912065439626
0.607720245398773,-2.3007502556237216,-0.7007502556237218,0.8015005112474438
0.6157165644171779,-2.309079754601227,-0.709079754601227,0.8181595092024541
0.6237128834355828,-2.317409253578732,-0.7174092535787321,0.8348185071574643
0.6317092024539878,-2.325738752556237,-0.7257387525562372,0.8514775051124746
0.6397055214723926,-2.334068251533742,-0.7340682515337422,0.8681365030674846
0.6477018404907975,-2.3423977505112474,-0.7423977505112473,0.8847955010224948
0.6556981595092024,-2.3507272494887523,-0.7507272494887526,0.9014544989775051
0.6636944785276073,-2.3590567484662577,-0.7590567484662577,0.9181134969325153
0.6716907975460122,-2.3673862474437626,-0.7673862474437628,0.9347724948875256
0.6796871165644172,-2.375715746421268,-0.775715746421268,0.9514314928425358
0.6876834355828221,-2.384045245398773,-0.7840452453987731,0.968090490797546
0.695679754601227,-2.392374744376278,-0.7923747443762782,0.9847494887525563
0.7036760736196319,-2.7380368098159775,-0.8676073619631955,1.0676073619631956
0.7116723926380368,-3.155746421267896,-0.9852488070892985,1.1
0.7196687116564418,-3.0,-1.2,1.146687116564418
0.7276650306748466,-2.98919582158846,-1.1927972143923065,1.2072027856076935
0.7356613496932515,-2.956778312054386,-1.1711855413695906,1.2288144586304093
0.7436576687116564,-2.924360802520312,-1.1495738683468746,1.2504261316531253
0.7516539877300613,-2.891943292986238,-1.1279621953241585,1.2720378046758414
0.7596503067484662,-2.859525783452164,-1.1063505223014427,1.2936494776985572
0.7676466257668711,-2.82710827391809,-1.0847388492787267,1.3152611507212733
0.7756429447852761,-2.794690764384016,-1.0631271762560106,1.3368728237439893
0.783639263803681,-2.762273254849942,-1.0415155032332948,1.3584844967667051
0.7916355828220859,-2.7298557453158683,-1.0199038302105787,1.3800961697894212
0.7996319018404908,-2.447239263803689,-1.0,1.4
0.8076282208588957,-0.5371779141104311,-0.9548711656441725,1.4274355828220862
0.8156245398773005,-0.4,-0.8781608575473611,1.3927202858491203
0.8236208588957055,-0.4,-0.8517993662778942,1.3839331220926314
0.8316171779141104,-0.4,-0.8254378750084275,1.3751459583361425
0.8396134969325153,-0.4,-0.7990763837389607,1.3663587945796536
0.8476098159509202,-0.4,-0.7727148924694939,1.3575716308231647
0.8556061349693251,-0.4,-0.7463534012000271,1.3487844670666758
0.8636024539877301,-0.4,-0.7199919099305604,1.3399973033101868
0.871598773006135,-0.4,-0.6936304186610935,1.331210139553698
0.8795950920245399,-0.4,-0.6672689273916268,1.322422975797209
0.8875914110429448,-0.4,-0.6409074361221601,1.31363581204072
0.8955877300613497,-0.4,-0.6145459448526933,1.3048486482842312
0.9035840490797545,-0.8,-0.4207975460122745,0.9415950920245489
0.9115803680981595,-0.1,0.314166086901524,0.7952779710328254
0.9195766871165644,-0.1,0.33889697046360107,0.7870343431787997
0.9275730061349693,-0.1,0.3636278540256781,0.778790715324774
0.9355693251533742,-0.1,0.3883587375877552,0.7705470874707483
0.9435656441717791,-0.1,0.4130896211498323,0.7623034596167226
0.951561963190184,-0.1,0.43782050471190936,0.7540598317626969
0.959558282208589,-0.1,0.46255138827398645,0.7458162039086712
0.9675546012269939,-0.1,0.4872822718360635,0.7375725760546454
0.9755509202453988,-0.1,0.5120131553981405,0.7293289482006198
0.9835472392638036,-0.1,0.5367440389602173,0.7210853203465942
0.9915435582822085,-0.1,0.5614749225222944,0.7128416924925685
0.9995398773006134,-0.1,0.5862058060843715,0.7045980646385428
1.0075361963190184,-0.2927607361963067,0.6268098159509233,0.4731901840490767
1.0155325153374233,0.40953881954728155,0.5809223609054369,0.2618447218108739
1.0235288343558282,0.4233255764755659,0.5533488470488682,0.20669769409773653
1.0315251533742331,0.43711233340385025,0.5257753331922995,0.15155066638459908
1.039521472392638,0.4508990903321346,0.4982018193357308,0.09640363867146165
1.047517791411043,0.46468584726041895,0.4706283054791621,0.041256610958324225
1.0555141104294479,0.4784726041887033,0.4430547916225934,-0.013890416754813228
1.0635104294478528,0.49225936111698765,0.4154812777660247,-0.06903744446795063
1.0715067484662577,0.506046118045272,0.38790776390945597,-0.12418447218108808
1.0795030674846626,0.5198328749735563,0.3603342500528873,-0.17933149989422548
1.0874993865030675,0.5336196319018407,0.3327607361963186,-0.23447852760736293
1.0954957055214725,0.547406388830125,0.3051872223397499,-0.2896255553205003
1.1034920245398774,0.5611931457584094,0.2776137084831811,-0.3447725830336377
1.111488343558282,0.5749799026866934,0.2500401946266132,-0.3999196107467737
1.119484662576687,0.5887666596149778,0.2224666807700445,-0.4550666384599111
1.127480981595092,0.9702453987730055,0.2,-0.5
1.1354773006134968,1.3305521472392718,0.1391411042944793,-0.021717791411041465
1.1434736196319017,0.3086793671294798,-0.0043396835647398916,-0.09566031643526011
1.1514699386503067,0.3367366268431813,-0.01836831342159064,-0.08163168657840936
1.1594662576687116,0.3647938865568828,-0.03239694327844139,-0.06760305672155861
1.1674625766871165,0.39285114627058426,-0.046425573135292136,-0.05357442686470787
1.1754588957055214,0.42090840598428575,-0.06045420299214289,-0.03954579700785712
1.1834552147239263,0.44896566569798724,-0.07448283284899364,-0.025517167151006367
1.1914515337423313,0.4770229254116888,-0.08851146270584438,-0.011488537294155624
1.1994478527607362,0.2828220858895667,-0.1,0.07239263803681112
1.207444171779141,-0.4311165644171789,-0.1,0.031116564417178874
1.215440490797546,-0.3850221144243118,-0.1,-0.007488942787844129
1.223436809815951,-0.3664260236838352,-0.1,-0.01678698815808242
1.2314331288343559,-0.3478299329433586,-0.1,-0.026085033528320714
1.2394294478527608,-0.329233842202882,-0.1,-0.03538307889855901
1.2474257668711657,-0.3106377514624054,-0.1,-0.0446811242687973
1.2554220858895706,-0.29204166072192883,-0.1,-0.053979169639035596
1.2634184049079755,-0.27344556998145225,-0.1,-0.06327721500927388
1.2714147239263804,-0.2548494792409757,-0.1,-0.07257526037951219
1.2794110429447851,-0.2362533885004996,-0.1,-0.08187330574975021
1.28740736196319,-0.217657297760023,-0.1,-0.09117135111998852
1.295403680981595,-0.0788957055215001,-0.05963190184050004,-0.1
1.3034,0.5,0.1,-0.09744680851063835
1.3113963190184048,0.5,0.1,-0.08894008615063312
1.3193926380368097,0.5,0.1,-0.0804333637906279
1.3273889570552146,0.5,0.1,-0.07192664143062268
1.3353852760736196,0.5,0.1,-0.06341991907061745
1.3433815950920245,0.5,0.1,-0.054913196710612226
1.3513779141104294,0.5,0.1,-0.046406474350607
1.3593742331288343,0.5,0.1,-0.03789975199060178
1.3673705521472392,0.5,0.1,-0.02939302963059655
1.3753668711656442,0.5,0.1,-0.02088630727059132
1.383363190184049,0.5,0.1,-0.012379584910586106
1.391359509202454,0.5,0.1,-0.0038728625505808773
1.399355828220859,0.23220858895705002,0.0,0.0
1.4073521472392638,0.2,-0.005936586204919446,0.0
1.4153484662576687,0.2,-0.013409781549223109,0.0
1.4233447852760737,0.2,-0.020882976893526774,0.0
1.4313411042944786,0.2,-0.02835617223783044,0.0
1.4393374233128835,0.2,-0.0358293675821341,0.0
1.4473337423312884,0.2,-0.04330256292643776,0.0
1.4553300613496931,0.2,-0.05077575827074122,0.0
1.463326380368098,0.2,-0.05824895361504488,0.0
1.471322699386503,0.2,-0.06572214895934855,0.0
1.4793190184049079,0.2,-0.07319534430365221,0.0
1.4873153374233128,0.2,-0.08066853964795588,0.0
1.4953116564417177,0.2,-0.08814173499225954,0.0
1.5033079754601226,0.2,-0.0956149303365632,0.0
1.5113042944785275,0.2,-0.1,0.0
1.5193006134969325,0.2,-0.1,0.0
1.5272969325153374,0.2,-0.09403203817314242,0.09403203817314242
1.5352932515337423,0.2,-0.08292603953646893,0.08292603953646893
1.5432895705521472,0.2,-0.07182004089979543,0.07182004089979543
1.5512858895705521,0.2,-0.06071404226312195,0.06071404226312195
1.559282208588957,0.2,-0.04960804362644846,0.04960804362644846
1.567278527607362,0.2,-0.03850204498977497,0.03850204498977497
1.575274846625767,0.2,-0.027396046353101486,0.027396046353101486
1.5832711656441718,0.2,-0.01629004771642799,0.01629004771642799
1.5912674846625767,0.2,-0.005184049079754505,0.005184049079754505
1.5992638036809816,0.1,0.0,0.0
1.6072601226993866,0.010569675723050315,0.0,0.0
1.6152564417177915,0.0,0.0,0.0
1.6232527607361962,0.0,0.0,0.0
1.631249079754601,0.0,0.0,0.0
1.639245398773006,0.0,0.0,0.0
1.647241717791411,0.0,0.0,0.0
1.6552380368098158,0.0,0.0,0.0
1.6632343558282208,0.0,0.0,0.0
1.6712306748466257,0.0,0.0,0.0
1.6792269938650306,0.0,0.0,0.0
1.6872233128834355,0.0,0.0,0.0
1.6952196319018404,0.0,0.0,0.0
1.7032159509202454,0.0,0.0,0.0
1.7112122699386503,0.0,0.0,0.0
1.7192085889570552,0.0,0.0,0.0
1.7272049079754601,0.0,0.0,0.0
1.735201226993865,0.0,0.0,0.0
1.74319754601227,0.0,0.0,0.0
1.7511938650306749,0.0,0.0,0.0
1.7591901840490798,0.0,0.0,0.0
1.7671865030674847,0.0,0.0,0.0
1.7751828220858896,0.0,0.0,0.0
1.7831791411042945,0.0,0.0,0.0
1.7911754601226995,0.0,0.0,0.0
1.7991717791411042,0.0,0.0,0.0
1.807168098159509,0.0,0.0,0.0
1.815164417177914,0.0,0.0,0.0
1.823160736196319,0.0,0.0,0.0
1.8311570552147238,0.0,0.0,0.0
1.8391533742331287,0.0,0.0,0.0
1.8471496932515337,0.0,0.0,0.0
1.8551460122699386,0.0,0.0,0.0
1.8631423312883435,0.0,0.0,0.0
1.8711386503067484,0.0,0.0,0.0
1.8791349693251533,0.0,0.0,0.0
1.8871312883435583,0.0,0.0,0.0
1.8951276073619632,0.0,0.0,0.0
1.903123926380368,0.0,0.0,0.0
1.911120245398773,0.0,0.0,0.0
1.919116564417178,0.0,0.0,0.0
1.9271128834355828,-0.0029345603271983337,0.0,0.0029345603271983337
1.9351092024539878,-0.014040558963871822,0.0,0.014040558963871822
1.9431055214723927,-0.02514655760054531,0.0,0.02514655760054531
1.9511018404907976,-0.0362525562372188,0.0,0.0362525562372188
1.9590981595092025,-0.04735855487389229,0.0,0.04735855487389229
1.9670944785276072,-0.05846455351056547,0.0,0.05846455351056547
1.9750907975460121,-0.06957055214723895,0.0,0.06957055214723895
1.983087116564417,-0.08067655078391245,0.0,0.08067655078391245
1.991083435582822,-0.09178254942058593,0.0,0.09178254942058593
1.9990797546012269,-0.2018404907974778,-0.2159509202453778,-0.00797546012268889
2.007076073619632,-2.0736932515337525,-1.0368466257668763,-0.5245644171779175
2.0150723926380367,-2.8370714760884046,-1.844420134525832,-0.533315100894374
2.0230687116564416,-2.6732914480005934,-1.960029566117228,-0.6200221745879211
2.0310650306748466,-2.509511419912782,-2.0756389977086243,-0.7067292482814681
2.0390613496932515,-2.3457313918249714,-2.1912484293000203,-0.7934363219750152
2.0470576687116564,-2.18195136373716,-2.3068578608914168,-0.8801433956685624
2.0550539877300613,-2.018171335649349,-2.422467292482813,-0.9668504693621094
2.0630503067484662,-1.8543913075615375,-2.538076724074209,-1.0535575430556565
2.071046625766871,-1.6906112794737262,-2.653686155665605,-1.1402646167492037
2.079042944785276,-1.526831251385915,-2.769295587257001,-1.2269716904427508
2.087039263803681,-1.363051223298104,-2.8849050188483973,-1.313678764136298
2.095035582822086,-1.2017791411042857,-3.0017791411042856,-1.4
2.103031901840491,-2.615950920245313,-3.5936196319018747,-1.8095705521471879
2.1110282208588957,-3.516901582718978,-3.3,-2.4169015827189777
2.1190245398773007,-3.54377996597412,-3.3,-2.44377996597412
2.1270208588957056,-3.5706583492292627,-3.3,-2.4706583492292626
2.1350171779141105,-3.5975367324844054,-3.3,-2.4975367324844053
2.1430134969325154,-3.6244151157395477,-3.3,-2.5244151157395476
2.1510098159509203,-3.6512934989946904,-3.3,-2.5512934989946903
2.1590061349693253,-3.678171882249833,-3.3,-2.5781718822498325
2.16700245398773,-3.7050502655049753,-3.3,-2.605050265504975
2.174998773006135,-3.731928648760118,-3.3,-2.631928648760118
2.18299509202454,-3.7588070320152602,-3.3,-2.65880703201526
2.190991411042945,-3.785685415270403,-3.3,-2.685685415270403
2.19898773006135,-3.8125637985255456,-3.3,-2.7125637985255455
2.2069840490797548,-3.839442181780688,-3.3,-2.7394421817806878
2.2149803680981597,-3.8663205650358305,-3.3,-2.7663205650358305
2.222976687116564,-3.8931989482909715,-3.3,-2.7931989482909714
2.230973006134969,-3.756809815950715,-0.5269938650308029,-2.4
2.238969325153374,-3.771872970046915,-0.3687405268856027,-2.3437459400938296
2.246965644171779,-3.743650667629015,-0.23703644893540404,-2.28730133525803
2.254961963190184,-3.7154283652111153,-0.10533237098520531,-2.230856730422231
2.2629582822085887,-3.6872060627932157,0.026371706964993358,-2.1744121255864313
2.2709546012269937,-3.6589837603753157,0.15807578491519203,-2.117967520750632
2.2789509202453986,-3.630761457957416,0.2897798628653908,-2.0615229159148325
2.2869472392638035,-3.6025391555395165,0.4214839408155895,-2.005078311079033
2.2949435582822084,-3.574316853121617,0.5531880187657883,-1.9486337062432337
2.3029398773006133,-3.546094550703717,0.6848920967159868,-1.8921891014074341
2.3109361963190183,-3.5178722482858173,0.8165961746661856,-1.8357444965716347
2.318932515337423,-3.473340769659788,1.2199107640825422,-1.6933630786391527
2.326928834355828,-3.4006469604015623,2.0922364751812514,-1.4025878416062496
2.334925153374233,-3.5761963190184374,3.4387730061349555,-0.26871165644174094
2.342921472392638,-1.8748778205261558,3.708243735052514,0.23326817094728308
2.350917791411043,-1.6715815742955213,3.559159821150049,0.12484350629094468
2.3589141104294478,-1.4682853280648869,3.4100759072475837,0.016418841634606274
2.3669104294478527,-1.2649890818342524,3.2609919933451184,-0.0920058230217321
2.3749067484662576,-1.0616928356036177,3.111908079442653,-0.20043048767807053
2.3829030674846625,-0.8583965893729835,2.962824165540188,-0.3088551523344089
2.3908993865030674,-0.655100343142349,2.813740251637723,-0.4172798169907473
2.3988957055214724,1.395705521472345,-0.04877300613490032,-1.4478527607361724
2.4068920245398773,0.0,-1.6909624233128833,-0.475899795501022
2.414888343558282,0.0,-1.665973926380368,-0.4092638036809811
2.422884662576687,0.0,-1.6409854294478525,-0.34262781186094016
2.430880981595092,0.0,-1.6159969325153372,-0.2759918200408992
2.438877300613497,0.0,-1.5910084355828218,-0.2093558282208583
2.446873619631902,0.0,-1.5660199386503064,-0.14271983640081737
2.454869938650307,0.0,-1.541031441717791,-0.07608384458077644
2.4628662576687117,0.0,-1.5160429447852757,-0.009447852760735509
2.4708625766871166,0.0,-1.4910544478527603,0.05718813905930542
2.4788588957055215,0.0,-1.4660659509202452,0.1238241308793464
2.4868552147239265,0.0,-1.4410774539877296,0.19046012269938728
2.4948515337423314,0.0,-1.4160889570552144,0.25709611451942826
2.5028478527607363,0.7,-2.3847852760736226,-0.41521472392637715
2.510844171779141,-0.28172010649380597,-0.9405903461048695,-0.0954300266234515
2.518840490797546,-0.25154531774510824,-0.8425222826716019,-0.08788632943627707
2.526836809815951,-0.22137052899641055,-0.7444542192383343,-0.08034263224910265
2.534833128834356,-0.19119574024771285,-0.6463861558050668,-0.07279893506192822
2.542829447852761,-0.1610209514990151,-0.5483180923717992,-0.06525523787475379
2.550825766871166,-0.1308461627503174,-0.4502500289385316,-0.05771154068757936
2.5588220858895703,-0.10067137400162135,-0.3521819655052695,-0.050167843500405346
2.566818404907975,-0.07049658525292365,-0.2541139020720019,-0.04262414631323092
2.57481472392638,-0.040321796504225904,-0.15604583863873434,-0.035080449126056484
2.582811042944785,-0.010147007755528237,-0.057977775205466764,-0.027536751938882068
2.59080736196319,0.020027780993169486,0.04009028822780092,-0.019993054751707637
2.598803680981595,0.05020256974186721,0.1381583516610685,-0.012449357564533206
2.6068,0.08037735849056493,0.23622641509433606,-0.004905660377358775
2.6147963190184047,-1.3879754601224816,2.4777914110427073,0.07963190184045119
2.6227926380368096,-1.693496932515339,2.9698295841854145,0.27633265167007537
2.6307889570552145,-1.515800954328563,2.7526456108460216,0.23684465651745845
2.6387852760736195,-1.3381049761417871,2.5354616375066286,0.19735666136484153
2.6467815950920244,-1.160408997955011,2.3182776641672356,0.15786866621222465
2.6547779141104293,-0.982713019768235,2.1010936908278426,0.11838067105960776
2.662774233128834,-0.8050170415814589,1.8839097174884498,0.07889267590699084
2.670770552147239,-0.6273210633946829,1.6667257441490568,0.03940468075437398
2.678766871165644,-0.4496250852079069,1.4495417708096638,-8.331439824293962e-05
2.686763190184049,-0.27192910702113093,1.2323577974702709,-0.03957130955085986
2.694759509202454,-0.09423312883435475,1.015173824130878,-0.07905930470347672
2.702755828220859,3.31104294478531,-1.3511656441717521,-0.3953374233129915
2.7107521472392637,2.9453723860412997,-2.406185104558348,-0.47525958176660793
2.7187484662576686,2.730417573718587,-2.4147832970512564,-0.4408668117949739
2.7267447852760736,2.5154627613958738,-2.4233814895441648,-0.4064740418233398
2.7347411042944785,2.300507949073161,-2.4319796820370736,-0.37208127185170575
2.7427374233128834,2.0855531367504483,-2.440577874529982,-0.3376885018800717
2.7507337423312883,1.870598324427735,-2.4491760670228904,-0.3032957319084376
2.7587300613496932,1.6556435121050224,-2.457774259515799,-0.2689029619368035
2.766726380368098,1.4406886997823094,-2.4663724520087076,-0.23451019196516948
2.774722699386503,1.2257338874595964,-2.474970644501616,-0.20011742199353538
2.782719018404908,1.0107790751368837,-2.483568836994525,-0.16572465202190134
2.790715337423313,0.7958242628141705,-2.492167029487433,-0.13133188205026725
2.798711656441718,0.3966695880806381,-2.4390008764241915,-0.06950043821209573
2.8067079754601227,-1.143803680981585,-0.960613496932478,0.2
2.8147042944785277,-0.6378506452295325,1.5648868203934845,0.41622170509837114
2.8227006134969326,-0.702188844228193,1.6751808758197595,0.4437952189549399
2.8306969325153375,-0.7665270432268535,1.7854749312460345,0.47136873281150865
2.8386932515337424,-0.830865242225514,1.8957689866723095,0.4989422466680774
2.8466895705521473,-0.8952034412241744,2.0060630420985848,0.5265157605246462
2.8546858895705522,-0.9595416402228348,2.11635709752486,0.5540892743812149
2.862682208588957,-1.0238798392214954,2.226651152951135,0.5816627882377836
2.870678527607362,-1.0882180382201558,2.3369452083774096,0.6092363020943524
2.878674846625767,-1.1525562372188163,2.447239263803685,0.6368098159509212
2.886671165644172,-1.2168944362174767,2.55753331922996,0.6643833298074899
2.894667484662577,-1.2812326352161372,2.667827374656235,0.6919568436640587
2.9026638036809813,-1.3,3.360777096114485,0.7
2.9106601226993862,-1.5737113465947914,-1.6080609778769284,-0.49731300737435724
2.918656441717791,-1.194088120468498,-1.6322922476296704,-0.4892359174567766
2.926652760736196,-0.8144648943422047,-1.6565235173824124,-0.48115882753919587
2.934649079754601,-0.4348416682159113,-1.6807547871351547,-0.47308173762161515
2.942645398773006,-0.055218442089618014,-1.7049860568878967,-0.46500464770403444
2.950641717791411,0.3244047840366753,-1.7292173266406388,-0.4569275577864537
2.9586380368098157,0.7040280101629686,-1.753448596393381,-0.448850467868873
2.9666343558282207,1.0836512362892623,-1.777679866146123,-0.4407733779512923
2.9746306748466256,1.4632744624155556,-1.801911135898865,-0.43269628803371163
2.9826269938650305,1.8428976885418489,-1.8261424056516073,-0.4246191981161309
2.9906233128834354,2.2225209146681424,-1.8503736754043494,-0.4165421081985502
2.9986196319018403,2.6021441407944357,-1.8746049451570914,-0.4084650182809695
3.0066159509202453,2.981767366920729,-1.8988362149098337,-0.40038792836338877
3.01461226993865,-0.23510429447851924,-2.3126503067484765,-0.14775460122699574
3.022608588957055,-0.901667367005631,-1.4916631649718455,0.0008336835028154604
3.03060490797546,-0.9235750903437265,-1.3821245482813675,0.011787545171863234
3.038601226993865,-0.9454828136818221,-1.2725859315908898,0.02274140684091101
3.04659754601227,-0.9673905370199176,-1.1630473149004121,0.033695268509958784
3.0545938650306748,-0.9892982603580132,-1.0535086982099344,0.044649130179006555
3.0625901840490797,-1.0112059836961087,-0.9439700815194567,0.05560299184805433
3.0705865030674846,-1.0331137070342042,-0.834431464828979,0.06655685351710211
3.0785828220858895,-1.0550214303722998,-0.7248928481385013,0.07751071518614988
3.0865791411042944,-1.0769291537103953,-0.6153542314480235,0.08846457685519765
3.0945754601226994,-1.0988368770484909,-0.5058156147575458,0.09941843852424542
3.1025717791411043,-1.5943067484662594,2.414355828220865,0.46287116564417297
3.110568098159509,-1.4457028540944283,3.272851427047214,0.7193918378234184
3.118564417177914,-1.3240197385969616,3.212009869298481,0.762850093358228
3.126560736196319,-1.2023366230994952,3.1511683115497475,0.8063083488930374
3.134557055214724,-1.0806535076020285,3.090326753801014,0.8497666044278469
3.142553374233129,-0.9589703921045619,3.029485196052281,0.8932248599626564
3.150549693251534,-0.8372872766070952,2.9686436383035475,0.936683115497466
3.1585460122699387,-0.7156041611096287,2.907802080554814,0.9801413710322755
3.1665423312883436,-0.5939210456121621,2.846960522806081,1.023599626567085
3.1745386503067485,-0.4722379301146955,2.786118965057348,1.0670578821018946
3.1825349693251535,-0.3505548146172288,2.7252774073086146,1.1105161376367039
3.1905312883435584,-0.22887169911976213,2.664435849559881,1.1539743931715134
3.1985276073619633,-0.10718858362229566,2.603594291811148,1.197432648706323
3.206523926380368,3.08999241745364,-1.2076528572413339,0.09941131867374355
3.214520245398773,2.937253739573996,-1.3244530226787092,0.09042669056317622
3.222516564417178,2.7845150616943513,-1.4412531881160844,0.08144206245260889
3.230512883435583,2.6317763838147066,-1.5580533535534595,0.07245743434204156
3.238509202453988,2.479037705935062,-1.674853518990835,0.06347280623147424
3.2465055214723924,2.326299028055426,-1.7916536844282036,0.05448817812090741
3.2545018404907973,2.1735603501757814,-1.908453849865579,0.04550355001034008
3.262498159509202,2.0208216722961367,-2.0252540153029543,0.03651892189977275
3.270494478527607,1.8680829944164923,-2.1420541807403293,0.027534293789205425
3.278490797546012,1.7153443165368476,-2.2588543461777046,0.018549665678638097
3.286487116564417,1.5626056386572031,-2.37565451161508,0.00956503756807077
3.294483435582822,1.4098669607775585,-2.4924546770524554,0.0005804094575034419
3.302479754601227,0.28687314466653796,0.6167069067880425,-0.39880664951513983
3.3104760736196317,0.2159380566000425,0.7069879279635822,-0.39235800514545843
3.3184723926380366,0.14500296853354708,0.7972689491391218,-0.38590936077577703
3.3264687116564415,0.07406788046705165,0.8875499703146614,-0.37946071640609563
3.3344650306748465,0.0031327924005561947,0.977830991490201,-0.37301207203641423
3.3424613496932514,-0.06780229566593926,1.0681120126657406,-0.36656342766673283
3.3504576687116563,-0.13873738373243466,1.1583930338412802,-0.36011478329705143
3.358453987730061,-0.20967247179893017,1.2486740550168198,-0.35366613892737
3.366450306748466,-0.28060755986542557,1.3389550761923597,-0.3472174945576886
3.374446625766871,-0.35154264793192097,1.4292360973678992,-0.3407688501880072
3.382442944785276,-0.4224777359984165,1.5195171185434388,-0.3343202058183258
3.390439263803681,-0.4934128240649119,1.6097981397189787,-0.3278715614486444
3.398435582822086,-0.5643479121314074,1.7000791608945183,-0.321422917078963
3.4064319018404907,-0.6352830001979028,1.7903601820700579,-0.3149742727092816
3.4144282208588956,-0.7062180882643982,1.8806412032455975,-0.3085256283396002
3.4224245398773006,-0.7771531763308936,1.970922224421137,-0.3020769839699188
3.4304208588957055,-1.4088803680981603,3.0200766871165574,0.13552147239264112
3.4384171779141104,-1.458857361963191,2.5702837423312817,0.3354294478527639
3.4464134969325153,-1.4683181722022396,2.1390734080812304,0.4707552358789905
3.4544098159509202,-1.2890903321345442,1.7944044848741234,0.3053141527395792
3.462406134969325,-1.1098624920668485,1.4497355616670164,0.13987306960016782
3.47040245398773,-0.9306346519991529,1.1050666384599095,-0.025568013539243428
3.478398773006135,-0.7514068119314572,0.7603977152528028,-0.19100909667865473
3.48639509202454,-0.5721789718637617,0.4157287920456958,-0.35645017981806604
3.494391411042945,-0.3929511317960661,0.07105986883858861,-0.5218912629574775
3.5023877300613497,-0.21372329172837046,-0.2736090543685181,-0.6873323460968888
3.5103840490797547,1.0137668711656405,-1.5768098159509147,0.1862331288343596
3.5183803680981596,-1.3969868758251145,-1.4728818824260304,0.0
3.5263766871165645,-1.386864953017007,-1.3817845771530632,0.0
3.5343730061349694,-1.3767430302088994,-1.290687271880096,0.0
3.5423693251533743,-1.3666211074007921,-1.1995899666071288,0.0
3.5503656441717792,-1.3564991845926846,-1.1084926613341617,0.0
3.558361963190184,-1.346377261784577,-1.0173953560611944,0.0
3.566358282208589,-1.3362553389764698,-0.9262980507882271,0.0
3.574354601226994,-1.3261334161683622,-0.8352007455152599,0.0
3.582350920245399,-1.3160114933602547,-0.7441034402422927,0.0
3.5903472392638034,-1.3058895705521478,-0.6530061349693306,0.0
3.5983435582822083,-1.0021472392638027,2.103578732106338,0.1007157464212676
3.6063398773006132,-1.0521242331288334,2.186873721881389,0.11737474437627783
3.614336196319018,-1.1021012269938641,2.2701687116564404,0.13403374233128806
3.622332515337423,-1.1520782208588949,2.3534637014314916,0.15069274028629828
3.630328834355828,-1.2020552147239256,2.436758691206543,0.1673517382413085
3.638325153374233,-1.2520322085889564,2.5200536809815937,0.18401073619631875
3.646321472392638,-1.3020092024539869,2.603348670756645,0.200669734151329
3.6543177914110427,-1.3519861963190176,2.686643660531696,0.2173287321063392
3.6623141104294477,-1.4019631901840484,2.7699386503067474,0.23398773006134943
3.6703104294478526,-1.451940184049079,2.8532336400817986,0.2506467280163597
3.6783067484662575,-1.5019171779141098,2.9365286298568494,0.2673057259713699
3.6863030674846624,-1.5518941717791406,3.0198236196319006,0.2839647239263801
3.6942993865030673,-1.5950102249488773,3.104989775051123,0.3249488752556139
3.7022957055214722,1.2252760736194819,0.5521472392638719,-0.15134969325141776
3.710292024539877,0.7847281783393109,-0.9209585130292163,0.2790414869707838
3.718288343558282,0.6105509323938572,-0.9526271032011169,0.2473728967988831
3.726284662576687,0.4363736864484034,-0.9842956933730176,0.21570430662698242
3.734280981595092,0.26219644050294966,-1.0159642835449183,0.18403571645508177
3.742277300613497,0.08801919455749596,-1.047632873716819,0.15236712628318108
3.7502736196319018,-0.08615805138795773,-1.0793014638887195,0.1206985361112804
3.7582699386503067,-0.2603352973334113,-1.1109700540606202,0.08902994593937974
3.7662662576687116,-0.4345125432788651,-1.142638644232521,0.057361355767479055
3.7742625766871165,-0.6086897892243187,-1.1743072344044216,0.02569276559557837
3.7822588957055214,-0.7828670351697725,-1.2059758245763224,-0.005975824576322286
3.7902552147239263,-0.9570442811152263,-1.2376444147482228,-0.03764441474822294
3.7982515337423313,-1.13122152706068,-1.2693130049201238,-0.06931300492012366
3.806247852760736,-0.9653987730061828,-1.3991411042944644,-0.11239263803680805
3.814244171779141,2.113619631901848,-2.1892024539877313,-0.2892024539877309
3.822240490797546,0.34965235173820464,-2.0391002044989746,0.02179959100205142
3.830236809815951,-1.9058038490629463,-1.4593730565593752,0.2883923018741072
3.838233128834356,-1.9167577107319942,-1.3826960248760403,0.2664845785360115
3.8462294478527608,-1.927711572401042,-1.3060189931927055,0.24457685519791583
3.8542257668711657,-1.93866543407009,-1.2293419615093706,0.22266913185982015
3.8622220858895706,-1.9496192957391376,-1.1526649298260359,0.20076140852172447
3.8702184049079755,-1.9605731574081855,-1.075987898142701,0.1788536851836288
3.8782147239263804,-1.9715270190772334,-0.999310866459366,0.1569459618455331
3.8862110429447854,-1.9824808807462813,-0.9226338347760311,0.13503823850743743
3.8942073619631903,-1.9934347424153291,-0.8459568030926963,0.11313051516934175
3.902203680981595,-0.8347239263803533,1.5161963190184689,0.5652760736196466
3.9102,-0.7,2.2594285714285762,0.7354285714285724
3.918196319018405,-0.7,2.465048203330416,0.7811218229623147
3.9261926380368095,-0.7,2.6706678352322446,0.8268150744960543
3.9341889570552144,-0.7,2.8762874671340843,0.8725083260297966
3.9421852760736193,-0.40211656441717775,3.153435582822091,1.0915337423312892
3.9501815950920243,-0.4163957055214722,2.839294478527612,1.0344171779141114
3.958177914110429,-0.43067484662576666,2.5251533742331334,0.9773006134969334
3.966174233128834,-0.4449539877300612,2.2110122699386547,0.9201840490797555
3.974170552147239,-0.45923312883435563,1.8968711656441761,0.8630674846625774
3.982166871165644,-0.47351226993865014,1.5827300613496973,0.8059509202453995
3.990163190184049,-0.4877914110429446,1.2685889570552187,0.7488343558282216
3.9981595092024538,0.19570552147225606,0.014417177914303858,-0.2855828220856962
4.006155828220859,2.41333501992284,-1.9,-0.3
4.014152147239264,2.462796787046994,-1.9,-0.3
4.0221484662576685,2.5122585541711477,-1.9,-0.3
4.0301447852760734,2.5617203212953017,-1.9,-0.3
4.038141104294478,2.6111820884194556,-1.9,-0.3
4.046137423312883,2.6606438555436096,-1.9,-0.3
4.054133742331288,2.7101056226677636,-1.9,-0.3
4.062130061349693,2.7595673897919175,-1.9,-0.3
4.070126380368098,2.8090291569160715,-1.9,-0.3
4.078122699386503,2.8584909240402254,-1.9,-0.3
4.086119018404908,2.907952691164379,-1.9,-0.3
4.094115337423313,2.9574144582885333,-1.9,-0.3
4.102111656441718,1.7771779141103574,-1.6776687116564286,-0.24441717791410716
4.110107975460123,-2.389134147112768,1.6260780469293563,0.10869268230978545
4.1181042944785275,-2.34791600784264,1.7250015811776642,0.14166719372588807
4.1261006134969325,-2.3066978685725115,1.8239251154259721,0.17464170514199068
4.134096932515337,-2.2654797293023834,1.9228486496742798,0.20761621655809331
4.142093251533742,-2.224261590032255,2.0217721839225877,0.24059072797419592
4.150089570552147,-2.183043450762127,2.1206957181708956,0.27356523939029853
4.158085889570552,-2.1418253114919983,2.2196192524192035,0.30653975080640117
4.166082208588957,-2.10060717222187,2.318542786667511,0.3395142622225038
4.174078527607362,-2.059389032951742,2.417466320915819,0.37248877363860644
4.182074846625767,-2.0181708936816136,2.516389855164127,0.40546328505470897
4.190071165644172,-1.9769527544114855,2.6153133894124343,0.4384377964708116
4.198067484662577,-1.935734615141357,2.714236923660742,0.47141230788691424
4.206063803680982,-1.7803220858895725,2.893082822085888,0.5531901840490789
4.214060122699387,-0.9363926380368093,3.330380368098158,0.9424049079754605
4.2220564417177915,-0.45661349693250397,2.0509693251533436,1.262257668711664
4.230052760736196,1.8613529221827532,-0.994667420083952,-0.12666289958023977
4.238049079754601,1.5877946399741625,-0.9841459476913139,-0.1792702615434303
4.246045398773006,1.3142363577655718,-0.9736244752986758,-0.2318776235066208
4.254041717791411,1.0406780755569813,-0.9631030029060378,-0.2844849854698113
4.262038036809816,0.7671197933483904,-0.9525815305133997,-0.3370923474330018
4.270034355828221,0.49356151113979996,-0.9420600581207615,-0.38969970939619236
4.278030674846626,0.22000322893120927,-0.9315385857281234,-0.44230707135938285
4.286026993865031,-0.053555053277381415,-0.9210171133354853,-0.49491443332257334
4.294023312883436,-0.3271133354859721,-0.9104956409428473,-0.5475217952857638
4.302019631901841,-0.5872392638033112,-0.9049079754602649,-0.5941104294476821
4.310015950920246,-1.3187046992600122,-1.3875302004933252,0.10415659983555825
4.3180122699386505,-1.3928973499462431,-1.3380684333691713,0.12064385554360955
4.326008588957055,-1.4670900006324739,-1.2886066662450173,0.13713111125166086
4.33400490797546,-1.5412826513187048,-1.2391448991208636,0.15361836695971215
4.342001226993865,-1.6154753020049357,-1.1896831319967096,0.17010562266776347
4.34999754601227,-1.6896679526911667,-1.1402213648725557,0.18659287837581479
4.357993865030675,-1.7638606033773976,-1.0907595977484017,0.20308013408386608
4.36599018404908,-1.8380532540636283,-1.0412978306242477,0.21956738979191737
4.373986503067485,-1.9122459047498594,-0.9918360635000939,0.23605464549996868
4.38198282208589,-1.9864385554360902,-0.9423742963759401,0.25254190120802
4.389979141104295,-2.060631206122321,-0.8929125292517861,0.2690291569160713
4.3979754601227,-2.134823856808552,-0.8434507621276321,0.28551641262412264
4.405971779141105,-1.7141104294477683,-0.2655214723925452,0.25141104294477684
4.4139680981595095,-0.08986874019118202,2.7763603937794246,0.8943715223284344
4.421964417177914,-0.006186331859036956,2.5811014410044195,0.8478812954772428
4.429960736196319,0.0774960764731081,2.3858424882294145,0.801391068626051
4.437957055214723,0.1611784848052439,2.1905835354544307,0.7549008417748645
4.445953374233128,0.24486089313738893,1.9953245826794257,0.7084106149236729
4.453949693251533,0.32854330146953403,1.8000656299044206,0.6619203880724811
4.461946012269938,0.41222570980167916,1.6048066771294154,0.6154301612212894
4.469942331288343,0.4959081181338242,1.4095477243544103,0.5689399343700977
4.477938650306748,0.5795905264659692,1.214288771579405,0.5224497075189061
4.485934969325153,0.6632729347981143,1.0190298188044,0.4759594806677143
4.493931288343558,0.7469553431302594,0.823770866029395,0.4294692538165226
4.501927607361963,1.1526380368099625,-0.4947239263800752,-0.5526380368099625
4.509923926380368,-1.0784458077708967,-0.9088752556237486,-0.0987321063394645
4.517920245398773,1.0769631901840486,-1.4296012269938647,0.07039877300613513
4.5259165644171775,1.1809153374233121,-1.469582822085889,0.030417177914110763
4.533912883435582,1.2848674846625754,-1.5095644171779135,-0.00956441717791362
4.541909202453987,1.3888196319018387,-1.5495460122699378,-0.04954601226993799
4.549905521472392,1.4927717791411022,-1.5895276073619624,-0.08952760736196239
4.557901840490797,1.5967239263803656,-1.6295092024539866,-0.12950920245398675
4.565898159509202,1.700676073619629,-1.6694907975460112,-0.16949079754601112
4.573894478527607,1.8046282208588922,-1.7094723926380353,-0.2094723926380355
4.581890797546012,1.9085803680981557,-1.74945398773006,-0.24945398773005986
4.589887116564417,2.012532515337419,-1.7894355828220843,-0.28943558282208426
4.597883435582822,2.116484662576682,-1.8294171779141086,-0.3294171779141086
4.605879754601227,2.2204368098159457,-1.869398773006133,-0.369398773006133
4.613876073619632,1.9998282208589548,-1.8624785276073692,-0.3624785276073694
4.6218723926380365,0.7204171779141406,-1.7025521472392675,-0.20255214723926762
4.629868711656441,-1.6401533742331318,-0.33976993865030247,0.17335889570552193
4.637865030674846,-1.4941438929169,1.3644171779141003,0.31756832124930007
4.645861349693251,-1.4820282580405288,1.4976891615541825,0.3539152258784134
4.653857668711656,-1.4699126231641577,1.6309611451942647,0.3902621305075268
4.661853987730061,-1.4577969882877866,1.7642331288343471,0.4266090351366401
4.669850306748466,-1.4456813534114155,1.8975051124744295,0.46295593976575344
4.677846625766871,-1.4335657185350443,2.0307770961145115,0.49930284439486683
4.685842944785276,-1.4214500836586732,2.164049079754594,0.5356497490239802
4.693839263803681,-1.409334448782302,2.2973210633946763,0.5719966536530936
4.701835582822086,-1.9501349693251562,3.3665766871165625,0.966846625766875
4.709831901840491,0.49412775171418133,-1.108808372428728,-0.2980425839047271
4.7178282208588955,0.4376831468783819,-1.1934752796824273,-0.2792277156261273
4.7258245398773004,0.38123854204258245,-1.2781421869361265,-0.26041284734752745
4.733820858895705,0.324793937206783,-1.3628090941898257,-0.24159797906892766
4.74181717791411,0.2683493323709836,-1.4474760014435248,-0.22278311079032784
4.749813496932515,0.21190472753518413,-1.532142908697224,-0.20396824251172802
4.75780981595092,0.1554601226993847,-1.6168098159509232,-0.18515337423312822
4.765806134969325,0.09901551786358526,-1.7014767232046222,-0.1663385059545284
4.77380245398773,0.04257091302778576,-1.7861436304583214,-0.14752363767592858
4.781798773006135,-0.013873691808013677,-1.8708105377120205,-0.12870876939732875
4.78979509202454,-0.07031829664381306,-1.9554774449657197,-0.10989390111872893
4.797791411042945,1.1582822085889473,-2.041717791411053,-0.27914110429447364
4.80578773006135,0.9636459246275277,-1.4121297107800248,-0.20606485539001235
4.8137840490797545,0.4974293472794924,-0.9955013577391116,0.0006426631801269045
4.8217803680981595,0.4712119078748861,-0.9496208387810506,0.007197023031278484
4.829776687116564,0.44499446847027974,-0.9037403198229896,0.013751382882430063
4.837773006134969,0.41877702906567343,-0.8578598008649285,0.02030574273358164
4.845769325153374,0.39255958966106713,-0.8119792819068675,0.02686010258473322
4.853765644171779,0.3663421502564608,-0.7660987629488064,0.0334144624358848
4.861761963190184,0.3401247108518545,-0.7202182439907454,0.039968822287036375
4.869758282208589,0.31390727144724817,-0.6743377250326843,0.04652318213818796
4.877754601226994,0.28768983204264187,-0.6284572060746233,0.05307754198933953
4.885750920245399,0.26147239263803557,-0.5825766871165623,0.059631901840491115
4.893747239263804,0.2352549532334292,-0.5366961681585012,0.0661862616916427
4.901743558282209,0.2090375138288229,-0.4908156492004402,0.07274062154279427
4.909739877300614,0.1828200744242166,-0.4449351302423791,0.07929498139394585
4.9177361963190185,0.1566026350196103,-0.3990546112843181,0.08584934124509742
4.925732515337423,0.130385195615004,-0.35317409232625707,0.092403701096249
4.933728834355828,0.10416775621039764,-0.30729357336819596,0.09895806094740059
4.941725153374233,-1.4041046417409437,2.7890542886908163,0.6958953582590561
4.949721472392638,-1.4493668248639904,2.668355133696025,0.6506331751360094
4.957717791411043,-1.4946290079870372,2.5476559787012336,0.6053709920129626
4.965714110429448,-1.539891191110084,2.4269568237064423,0.5601088088899159
4.973710429447853,-1.5851533742331307,2.306257668711651,0.5148466257668691
4.981706748466258,-1.6304155573561776,2.1855585137168596,0.4695844426438224
4.989703067484663,-1.6756777404792242,2.0648593587220683,0.4243222595207757
4.997699386503068,3.9656441717787523,-1.439877300613571,-0.839877300613571
5.005695705521473,1.8036863163510284,-1.6092157908775708,-0.5092157908775707
5.0136920245398775,1.821069618564952,-1.65267404641238,-0.5526740464123798
5.021688343558282,1.8384529207788756,-1.696132301947189,-0.5961323019471889
5.029684662576687,1.8558362229927992,-1.739590557481998,-0.639590557481998
5.037680981595092,1.8732195252067227,-1.7830488130168072,-0.6830488130168071
5.045677300613497,1.8906028274206466,-1.8265070685516163,-0.7265070685516162
5.053673619631902,1.9079861296345701,-1.8699653240864254,-0.7699653240864253
5.061669938650307,1.9253694318484937,-1.9134235796212344,-0.8134235796212343
5.069666257668712,1.9427527340624173,-1.9568818351560435,-0.8568818351560434
5.077662576687117,1.960136036276341,-2.0003400906908526,-0.9003400906908525
5.085658895705522,1.9775193384902647,-2.0437983462256617,-0.9437983462256616
5.093655214723927,1.9949026407041883,-2.087256601760471,-0.9872566017604707
5.101651533742332,-0.8505112474439647,-0.2696932515336212,-0.46515337423318937
5.1096478527607365,-1.321915998112319,0.06574799433695684,-0.5707786691835747
5.1176441717791405,-1.3482774893817828,0.14483246814534817,-0.535630014157623
5.1256404907975455,-1.3746389806512496,0.2239169419537483,-0.5004813591316674
5.13363680981595,-1.4010004719207163,0.3030014157621484,-0.4653327041057118
5.141633128834355,-1.4273619631901828,0.38208588957054856,-0.43018404907975616
5.14962944785276,-1.4537234544596496,0.4611703633789487,-0.3950353940538006
5.157625766871165,-1.4800849457291163,0.5402548371873488,-0.35988673902784496
5.16562208588957,-1.506446436998583,0.6193393109957489,-0.32473808400188936
5.173618404907975,-1.5328079282680498,0.698423784804149,-0.28958942897593376
5.18161472392638,-1.5591694195375165,0.7775082586125491,-0.25444077394997816
5.189611042944785,-1.585530910806983,0.8565927324209492,-0.2192921189240225
5.19760736196319,-1.6464212678936685,2.007157464212663,0.5892978868438856
5.205603680981595,-1.3698159509202676,2.4396319018405355,1.0603680981594645
5.2136,-1.611717171717173,1.1303030303030313,0.9117171717171731
5.2215963190184045,-1.4582524632831395,1.0091466815393206,0.7582524632831397
5.229592638036809,-1.304787754849106,0.88799033277561,0.6047877548491062
5.237588957055214,-1.1513230464150728,0.7668339840118994,0.4513230464150727
5.245585276073619,-0.9978583379810392,0.6456776352481888,0.2978583379810392
5.253581595092024,-0.8443936295470058,0.5245212864844782,0.14439362954700585
5.261577914110429,-0.6909289211129723,0.40336493772076754,-0.009071078887027628
5.269574233128834,-0.5374642126789388,0.2822085889570569,-0.1625357873210611
5.277570552147239,-0.38399950424490537,0.1610522401933463,-0.3160004957550946
5.285566871165644,-0.23053479581087188,0.03989589142963568,-0.46946520418912807
5.293563190184049,-0.0770700873768384,-0.08126045733407494,-0.6229299126231616
5.301559509202454,0.07639462105719508,-0.20241680609778556,-0.776394621057195
5.309555828220859,1.2112883435583035,-1.3890797546012499,0.033496932515357014
5.3175521472392635,-0.314187116564468,-1.6,0.0858128834355319
5.325548466257668,1.8818061349693251,-1.9818061349693252,-0.28787075664621686
5.333544785276073,1.8498208588957057,-1.9498208588957056,-0.26654723926380375
5.341541104294478,1.817835582822086,-1.917835582822086,-0.24522372188139072
5.349537423312883,1.7858503067484666,-1.8858503067484664,-0.22390020449897763
5.357533742331288,1.753865030674847,-1.853865030674847,-0.20257668711656457
5.365530061349693,1.7218797546012272,-1.8218797546012273,-0.1812531697341515
5.373526380368098,1.6898944785276078,-1.7898944785276076,-0.15992965235173845
5.381522699386503,1.657909202453988,-1.757909202453988,-0.1386061349693254
5.389519018404908,1.6259239263803686,-1.7259239263803685,-0.11728261758691233
5.397515337423313,0.615030674846585,-1.0180981595091743,0.2030674846625892
5.405511656441718,-1.014951796669572,0.6661174408413226,0.478737949167393
5.4135079754601225,-1.6,2.05388236863163,0.8119738596959178
5.421504294478527,-1.6,2.132107228594287,0.8293571619098417
5.429500613496932,-1.6,2.210332088556944,0.8467404641237655
5.437496932515337,-1.6,2.2885569485196013,0.8641237663376893
5.445493251533742,-1.6,2.3667818084822585,0.881507068551613
5.453489570552147,-1.6,2.4450066684449157,0.8988903707655368
5.461485889570552,-1.6,2.523231528407573,0.9162736729794606
5.469482208588957,-1.6,2.60145638837023,0.9336569751933844
5.477478527607362,-1.6,2.679681248332887,0.9510402774073082
5.485474846625767,-1.6,2.757906108295544,0.968423579621232
5.493471165644172,-1.6,2.836130968258201,0.9858068818351557
5.501467484662577,-1.4532515337423215,2.9,0.9266257668711607
5.5094638036809815,1.2666359918200372,-1.4846012269938633,-0.19743353783231057
5.5174601226993865,1.1583525051124708,-1.4346242331288326,-0.18910403885480545
5.525456441717791,1.0500690184049042,-1.3846472392638018,-0.18077453987730033
5.533452760736196,0.9417855316973378,-1.3346702453987713,-0.17244504089979523
5.541449079754601,0.8335020449897712,-1.2846932515337406,-0.1641155419222901
5.549445398773006,0.7252185582822047,-1.2347162576687098,-0.15578604294478499
5.557441717791411,0.6169350715746382,-1.1847392638036793,-0.14745654396727986
5.565438036809816,0.5086515848670717,-1.1347622699386486,-0.13912704498977474
5.573434355828221,0.40036809815950514,-1.0847852760736179,-0.13079754601226962
5.581430674846626,0.29208461145193865,-1.0348082822085871,-0.12246804703476452
5.589426993865031,0.18380112474437227,-0.9848312883435565,-0.1141385480572594
5.597423312883436,0.07551763803680567,-0.9348542944785257,-0.10580904907975429
5.605419631901841,1.851779141104108,-1.804907975460045,0.03705521472397297
5.6134159509202455,1.5088343558284363,-1.6544171779142183,-0.13760736196323636
5.62141226993865,0.3140623616469559,-1.0669470621719062,0.10661058756561878
5.629408588957055,0.2068951995446214,-1.0257289229017776,0.11485421541964451
5.63740490797546,0.09972803744228692,-0.9845107836316489,0.12309784327367024
5.645401226993865,-0.007439124660047536,-0.9432926443615203,0.13134147112769598
5.65339754601227,-0.11460628676238205,-0.9020745050913916,0.1395850989817217
5.661393865030675,-0.2217734488647165,-0.8608563658212629,0.14782872683574744
5.66939018404908,-0.32894061096705096,-0.8196382265511343,0.15607235468977315
5.677386503067485,-0.43610777306938553,-0.7784200872810056,0.16431598254379887
5.68538282208589,-0.54327493517172,-0.7372019480108769,0.1725596103978246
5.693379141104295,-0.6504420972740544,-0.6959838087407484,0.18080323825185035
5.7013754601227,-0.7576092593763889,-0.6547656694706196,0.18904686610587607
5.7093717791411045,-0.8647764214787234,-0.613547530200491,0.19729049395990178
5.717368098159509,-1.1484662576686346,2.4257668711656826,0.7073619631901951
5.725364417177914,-0.028981595092021806,2.985509202453989,0.8672883435582827
5.733360736196319,0.26360736196318996,3.0727397020157756,0.9
5.741357055214724,0.3435705521472398,3.0384697633654687,0.9
5.749353374233129,0.4235337423312897,3.004199824715162,0.9
5.757349693251534,0.5034969325153396,2.9699298860648544,0.9
5.765346012269939,0.5834601226993894,2.9356599474145475,0.9
5.773342331288344,0.6634233128834393,2.90139000876424,0.9
5.781338650306749,0.7433865030674891,2.867120070113933,0.9
5.789334969325154,0.823349693251539,2.832850131463626,0.9
5.797331288343559,0.4858895705515274,2.3196319018397715,0.5852760736191609
5.805327607361963,-0.9396319018409176,-1.2672392638037198,-0.21809815950929945
5.8133239263803675,0.9375148175106529,-1.1589518560881689,0.20535925964437898
5.8213202453987725,0.9849506082978009,-1.2334938130394015,0.21213580118540012
5.829316564417177,1.032386399084949,-1.3080357699906342,0.2189123427264213
5.837312883435582,1.079822189872097,-1.3825777269418666,0.22568888426744244
5.845309202453987,1.127257980659245,-1.4571196838930995,0.23246542580846358
5.853305521472392,1.174693771446393,-1.531661640844332,0.23924196734948472
5.861301840490797,1.222129562233541,-1.6062035977955647,0.24601850889050586
5.869298159509202,1.2695653530206892,-1.6807455547467973,0.252795050431527
5.877294478527607,1.3170011438078373,-1.75528751169803,0.2595715919725482
5.885290797546012,1.3644369345949854,-1.8298294686492627,0.26634813351356934
5.893287116564417,1.4118727253821333,-1.904371425600495,0.2731246750545905
5.901283435582822,1.4593085161692814,-1.978913382551728,0.2799012165956116
5.909279754601227,1.5067443069564295,-2.0534553395029604,0.28667775813663277
5.9172760736196315,1.5541800977435773,-2.1279972964541933,0.2934542996776539
5.925272392638036,1.5782085889570734,-2.2108957055214633,0.28365644171780496
5.933268711656441,0.26564417177946265,-1.0828220858897313,0.026871165644107464
5.941265030674846,-0.5510544478527607,-0.05316334355828231,-0.019578220858895694
5.949261349693251,-0.4885832055214724,0.13425038343558282,-0.04456671779141105
5.957257668711656,-0.426111963190184,0.3216641104294479,-0.0695552147239264
5.965253987730061,-0.36364072085889565,0.5090778374233129,-0.09454371165644174
5.973250306748466,-0.3011694785276073,0.6964915644171781,-0.11953220858895709
5.981246625766871,-0.2386982361963189,0.8839052914110432,-0.14452070552147245
5.989242944785276,-0.17622699386503055,1.0713190184049084,-0.1695092024539878
5.997239263803681,-0.11375575153374218,1.2587327453987736,-0.19449769938650313
6.005235582822086,-0.3961858019281365,0.5970832602979866,-1.0
6.0132319018404905,-0.26672158924920025,0.4980812153082119,-1.0
6.021228220858895,-0.137257376570264,0.39907917031843715,-1.0
6.0292245398773,-0.007793163891327726,0.3000771253286624,-1.0
6.037220858895705,0.12167104878760848,0.2010750803388876,-1.0
6.04521717791411,0.25113526146654475,0.10207303534911283,-1.0
6.053213496932515,0.380599474145481,0.0030709903593381105,-1.0
6.06120981595092,0.5100636868244173,-0.09593105463043672,-1.0
6.069206134969325,0.6395278995033536,-0.19493309962021144,-1.0
6.07720245398773,0.7689921121822897,-0.29393514460998627,-1.0
6.085198773006135,0.898456324861226,-0.392937189599761,-1.0
6.09319509202454,1.027920537540162,-0.4919392345895358,-1.0
6.101191411042945,1.1573847502190984,-0.5909412795793106,-1.0
6.1091877300613495,1.2868489628980346,-0.6899433245690852,-1.0
6.117184049079754,2.418404907975444,-0.9128834355828404,0.06871165644171598
6.125180368098159,3.1440315512707855,-1.00702892199822,0.1
6.133176687116564,3.8294303242769097,-1.6353111305871675,0.1
6.141173006134969,2.079511213919351,-1.949117972442927,-0.1
6.149169325153374,1.7386845016594688,-1.870465654229108,-0.1
6.157165644171779,1.3978577893995867,-1.7918133360152892,-0.1
6.165161963190184,1.0570310771397047,-1.7131610178014702,-0.1
6.173158282208589,0.7162043648798226,-1.6345086995876512,-0.1
6.181154601226994,0.3753776526199406,-1.5558563813738324,-0.1
6.189150920245399,0.03455094036005857,-1.4772040631600134,-0.1
6.197147239263804,-0.410429447852679,-1.3411042944785712,-0.09263803680982141
6.2051435582822085,-1.6650715746421283,1.949284253578718,0.07464212678935894
6.2131398773006135,-1.5927869304473714,2.6096174260701717,0.4072130695526287
6.221136196319018,-1.5658330461156693,2.645555938512441,0.4341669538843308
6.229132515337423,-1.5388791617839672,2.6814944509547107,0.4611208382160329
6.237128834355828,-1.5119252774522651,2.71743296339698,0.488074722547735
6.245125153374233,-1.484971393120563,2.7533714758392493,0.5150286068794371
6.253121472392638,-1.4580175087888607,2.789309988281519,0.5419824912111393
6.261117791411043,-1.4310636244571586,2.8252485007237884,0.5689363755428414
6.269114110429448,-1.4041097401254565,2.861187013166058,0.5958902598745435
6.277110429447853,-1.3771558557937544,2.8971255256083275,0.6228441442062456
6.285106748466258,-1.3502019714620523,2.933064038050597,0.6497980285379477
6.293103067484663,-1.3232480871303502,2.9690025504928665,0.6767519128696498
6.301099386503068,-0.9701840490796922,2.2670756646215384,0.5900613496932308
6.3090957055214725,0.7782208588954256,-1.347852760736383,-0.9452147239263617
6.317092024539877,-1.8578969895848236,-0.547367670138392,0.388158082465402
6.325088343558282,-1.6347439006991036,-0.6217520331002988,0.3695619917249253
6.333084662576687,-1.4115908118133833,-0.6961363960622056,0.35096590098444863
6.341080981595092,-1.188437722927663,-0.7705207590241123,0.33236981024397194
6.349077300613497,-0.965284634041943,-0.8449051219860191,0.31377371950349525
6.357073619631902,-0.7421315451562227,-0.9192894849479258,0.29517762876301856
6.365069938650307,-0.5189784562705027,-0.9936738479098325,0.27658153802254193
6.373066257668712,-0.2958253673847824,-1.0680582108717394,0.2579854472820652
6.381062576687117,-0.07267227849906233,-1.142442573833646,0.23938935654158852
6.389058895705522,0.15048081038665773,-1.2168269367955526,0.22079326580111186
6.397055214723927,0.3736338992723782,-1.2912112997574594,0.20219717506063517
6.4050515337423315,-1.2000972334760966,-0.39970829957170995,0.2999027665239033
6.413047852760736,-1.2151846278504455,-0.3544461164486632,0.2848153721495544
6.421044171779141,-1.2302720222247945,-0.30918393332561644,0.26972797777520546
6.429040490797546,-1.2453594165991433,-0.2639217502025697,0.25464058340085655
6.437036809815951,-1.2604468109734923,-0.2186595670795229,0.23955318902650763
6.445033128834356,-1.2755342053478413,-0.1733973839564761,0.2244657946521587
6.453029447852761,-1.2906215997221901,-0.12813520083342933,0.2093784002778098
6.461025766871166,-1.305708994096539,-0.08287301771038258,0.19429100590346088
6.469022085889571,-1.320796388470888,-0.03761083458733583,0.17920361152911196
6.477018404907976,-1.335883782845237,0.007651348535710978,0.16411621715476304
6.48501472392638,-1.350971177219584,0.05291353165875268,0.1490288227804158
6.493011042944785,-1.366058571593933,0.09817571478179948,0.13394142840606688
6.50100736196319,-1.3811459659682819,0.14343789790484618,0.11885403403171796
6.5090036809815945,-1.396233360342631,0.18870008102789304,0.10376663965736904
6.5169999999999995,-1.3400000000000054,0.7999999999999468,0.27999999999998404
6.524996319018404,-1.3,1.5197055214723645,0.4799263803680911
6.532992638036809,-1.1488957055214066,2.252576687116718,0.6503680981595311
6.540988957055214,-1.2334385042360538,1.7335962605901347,0.42250267796281044
6.548985276073619,-1.1572830850131508,1.5432077125328765,0.21942156003506846
6.556981595092024,-1.0811276657902473,1.3528191644756185,0.016340442107326436
6.564977914110429,-1.0049722465673443,1.1624306164183604,-0.18674067582041554
6.572974233128834,-0.9288168273444409,0.9720420683611022,-0.3898217937481575
6.580970552147239,-0.8526614081215377,0.7816535203038442,-0.5929029116758996
6.588966871165644,-0.7765059888986344,0.5912649722465859,-0.7959840296036415
6.596963190184049,-0.7003505696757312,0.4008764241893279,-0.9990651475313835
6.604959509202454,1.156073619631964,-1.376319018405177,-0.14392638036803604
6.6129558282208585,3.141549961215717,-1.8,0.0
6.620952147239263,2.9025795077921237,-1.8,0.0
6.628948466257668,2.6636090543685302,-1.8,0.0
6.636944785276073,2.4246386009449368,-1.8,0.0
6.644941104294478,2.1856681475213433,-1.8,0.0
6.652937423312883,1.9466976940977496,-1.8,0.0
6.660933742331288,1.7077272406741562,-1.8,0.0
6.668930061349693,1.4687567872505625,-1.8,0.0
6.676926380368098,1.229786333826969,-1.8,0.0
6.684922699386503,0.9908158804033755,-1.8,0.0
6.692919018404908,0.7518454269797821,-1.8,0.0
6.700915337423313,-2.0746012269937504,-1.1796319018406243,0.1457668711656251
6.7089116564417175,-1.1,1.6454843772292724,0.10909687544585445
6.716907975460122,-1.1,1.7384648309316548,0.12769296618633094
6.724904294478527,-1.1,1.8314452846340372,0.14628905692680744
6.732900613496932,-1.1,1.9244257383364196,0.1648851476672839
6.740896932515337,-1.1,2.017406192038802,0.1834812384077604
6.748893251533742,-1.1,2.1103866457411846,0.2020773291482369
6.756889570552147,-1.1,2.2033670994435672,0.22067341988871336
6.764885889570552,-1.1,2.2963475531459494,0.23926951062918986
6.772882208588957,-1.1,2.389328006848332,0.25786560136966635
6.780878527607362,-1.1,2.4823084605507146,0.2764616921101428
6.788874846625767,-1.1,2.575288914253097,0.29505778285061934
6.796871165644172,-2.08711656441713,2.45480572597145,0.7
6.8048674846625765,-1.64566343862496,0.3296820970440659,-1.729682097044066
6.812863803680981,-1.5333184606804278,0.18429447852761233,-1.5842944785276123
6.820860122699386,-1.4209734827358953,0.03890686001115873,-1.4389068600111588
6.828856441717791,-1.308628504791363,-0.10648075850529493,-1.293519241494705
6.836852760736196,-1.1962835268468308,-0.25186837702174847,-1.1481316229782514
6.844849079754601,-1.0839385489022983,-0.3972559955382021,-1.002744004461798
6.852845398773006,-0.9715935709577661,-0.5426436140546557,-0.8573563859453444
6.860841717791411,-0.8592485930132338,-0.6880312325711094,-0.7119687674288906
6.868838036809816,-0.7469036150687014,-0.833418851087563,-0.566581148912437
6.876834355828221,-0.6345586371241692,-0.9788064696040165,-0.4211935303959835
6.884830674846626,-0.5222136591796367,-1.1241940881204702,-0.27580591187952996
6.892826993865031,-0.40986868123510445,-1.2695817066369237,-0.1304182933630762
6.9008233128834355,-0.2975237032905722,-1.4149693251533773,0.014969325153377344
6.9088196319018405,-0.18517872534603974,-1.5603569436698308,0.1603569436698309
6.916815950920245,-0.0728337474015075,-1.7057445621862848,0.30574456218628465
6.92481226993865,0.964126574103943,-1.0,-0.4743493703584228
6.932808588957055,1.5954149176622514,-1.0,-0.2218340329350995
6.94080490797546,2.2267032612205595,-1.0,0.030681304488223815
6.948801226993865,1.3,-1.7549802804557362,-0.08999561787905247
6.95679754601227,1.3,-1.6264680105170857,-0.06143733567046349
6.964793865030675,1.3,-1.4979557405784354,-0.03287905346187453
6.97279018404908,1.3,-1.3694434706397849,-0.00432077125328556
6.980786503067485,1.3,-1.2409312007011346,0.02423751095530341
6.98878282208589,1.3,-1.1124189307624843,0.05279579316389238
6.9967791411042946,1.3,-0.9839066608238339,0.08135407537248135
7.0047754601226995,0.45717791411024333,0.32036809815972195,0.1
7.012771779141104,-1.6110254163014974,2.3,0.2036751387671658
7.020768098159509,-1.7252585451358526,2.3,0.24175284837861755
7.028764417177914,-1.8394916739702079,2.3,0.2798305579900693
7.036760736196319,-1.9537248028045633,2.3,0.3179082676015211
7.044757055214724,-2.0679579316389183,2.3,0.3559859772129728
7.052753374233129,-2.182191060473274,2.3,0.39406368682442455
7.060749693251534,-2.296424189307629,2.3,0.43214139643587635
7.068746012269939,-2.4106573181419844,2.3,0.4702191060473281
7.076742331288344,-2.5248904469763396,2.3,0.5082968156587798
7.084738650306749,-2.639123575810695,2.3,0.5463745252702316
7.092734969325154,-2.75335670464505,2.3,0.5844522348816833
7.1007312883435585,-0.11496932515321512,-1.0895398773006582,-0.14030674846622782
7.108727607361963,1.2293182601502708,-0.337694905907491,-0.18324670848555955
7.116723926380368,1.2922106569242424,-0.41855655890259735,-0.14730819604329007
7.124720245398773,1.355103053698214,-0.49941821189770363,-0.11136968360102058
7.132716564417178,1.4179954504721854,-0.58027986489281,-0.07543117115875109
7.140712883435583,1.480887847246157,-0.6611415178879163,-0.03949265871648161
7.148709202453988,1.5437802440201287,-0.7420031708830226,-0.0035541462742121055
7.156705521472393,1.6066726407941003,-0.8228648238781291,0.03238436616805737
7.164701840490798,1.669565037568072,-0.9037264768732354,0.06832287861032688
7.172698159509202,1.7324574343420367,-0.9845881298683328,0.10426139105259236
7.180694478527607,1.795349831116008,-1.065449782863439,0.14019990349486183
7.188690797546012,1.8582422278899797,-1.1463114358585453,0.17613841593713137
7.196687116564417,1.3407975460125654,-1.5625766871166957,-0.2
7.2046834355828215,0.5853251533742689,-1.115828220858918,-0.12316564417178363
7.2126797546012265,0.3,-0.2639239744977763,0.0
7.220676073619631,0.3,-0.1855286900036107,0.0
7.228672392638036,0.3,-0.10713340550944506,0.0
7.236668711656441,0.3,-0.02873812101527945,0.0
7.244665030674846,0.3,0.04965716347888621,0.0
7.252661349693251,0.3,0.12805244797305182,0.0
7.260657668711656,0.3,0.20644773246721743,0.0
7.268653987730061,0.3,0.2848430169613831,0.0
7.276650306748466,0.3,0.36323830145554875,0.0
7.284646625766871,0.3,0.4416335859497143,0.0
7.292642944785276,0.3,0.52002887044388,0.0
7.300639263803681,0.3,0.5984241549380456,0.0
7.3086355828220855,0.3,0.6768194394322111,0.0
7.31663190184049,0.11226993865032545,1.2006134969324656,0.12515337423311637
7.324628220858895,-2.802576687116074,1.6858895705524537,0.25576687116573615
7.3326245398773,-2.877617586912082,1.2882072256305543,0.11528289025222173
7.340620858895705,-2.644391615541939,1.0660872528970846,0.026434901158833818
7.34861717791411,-2.4111656441717955,0.8439672801636148,-0.06241308793455408
7.356613496932515,-2.1779396728016525,0.621847307430145,-0.151261077027942
7.36460981595092,-1.944713701431509,0.3997273346966752,-0.24010906612132987
7.372606134969325,-1.7114877300613658,0.17760736196320548,-0.3289570552147178
7.38060245398773,-1.4782617586912226,-0.04451261077026425,-0.41780504430810567
7.388598773006135,-1.2450357873210793,-0.266632583503734,-0.5066530334014936
7.39659509202454,-1.011809815950936,-0.4887525562372037,-0.5955010224948816
7.4045914110429445,1.6860095732488358,-1.896502393312209,-0.1
7.412587730061349,1.6157122631969247,-1.878928065799231,-0.1
7.420584049079754,1.5454149531450134,-1.8613537382862533,-0.1
7.428580368098159,1.4751176430931023,-1.8437794107732755,-0.1
7.436576687116564,1.404820333041191,-1.8262050832602976,-0.1
7.444573006134969,1.3345230229892797,-1.8086307557473198,-0.1
7.452569325153374,1.2642257129373686,-1.7910564282343422,-0.1
7.460565644171779,1.1939284028854575,-1.7734821007213644,-0.1
7.468561963190184,1.1236310928335462,-1.7559077732083865,-0.1
7.476558282208589,1.053333782781635,-1.7383334456954087,-0.1
7.484554601226994,0.9830364727297237,-1.7207591181824309,-0.1
7.492550920245399,0.9127391626778125,-1.703184790669453,-0.1
7.5005472392638035,0.29598356503630446,1.3030123262227717,0.0
7.508543558282208,0.23729498508470875,1.3470287611864684,0.0
7.516539877300613,0.178606405133113,1.3910451961501653,0.0
7.524536196319018,0.11991782518151728,1.435061631113862,0.0
7.532532515337423,0.061229245229921514,1.4790780660775589,0.0
7.540528834355828,0.0025406652783258044,1.5230945010412555,0.0
7.548525153374233,-0.05614791467326996,1.5671109360049524,0.0
7.556521472392638,-0.11483649462486567,1.6111273709686493,0.0
7.564517791411043,-0.17352507457646144,1.655143805932346,0.0
7.572514110429448,-0.23221365452805715,1.699160240896043,0.0
7.580510429447853,-0.29090223447965297,1.7431766758597396,0.0
7.588506748466258,-0.3495908144312487,1.7871931108234365,0.0
7.5965030674846625,-0.4082793943828444,1.8312095457871331,0.0
7.6044993865030674,-0.4669679743344401,1.87522598075083,0.0
7.612495705521472,-2.722208588957009,1.92993865030683,0.10171779141107126
7.620492024539877,-0.10572294175565525,-0.9332742558509453,-0.6
7.628488343558282,0.06210103764296565,-0.9925062485798702,-0.6
7.636484662576687,0.22992501704158652,-1.0517382413087952,-0.6
7.644480981595092,0.3977489964402074,-1.1109702340377203,-0.6
7.652477300613497,0.5655729758388284,-1.1702022267666452,-0.6
7.660473619631902,0.7333969552374493,-1.2294342194955703,-0.6
7.668469938650307,0.9012209346360702,-1.2886662122244954,-0.6
7.676466257668712,1.0690449140346912,-1.3478982049534203,-0.6
7.684462576687117,1.2368688934333119,-1.4071301976823454,-0.6
7.6924588957055215,1.4046928728319328,-1.4663621904112705,-0.6
7.7004552147239265,2.3951533742331472,-1.7227607361963169,0.031717791411049065
7.708451533742331,0.2545705521472409,-1.5716065950920257,-0.09432131901840513
7.716447852760736,0.18793456032719996,-1.5299591002045,-0.0859918200409
7.724444171779141,0.12129856850715903,-1.4883116053169745,-0.07766232106339488
7.732440490797546,0.0546625766871181,-1.4466641104294489,-0.06933282208588977
7.740436809815951,-0.011973415132922827,-1.4050166155419235,-0.061003323108384654
7.748433128834356,-0.07860940695296376,-1.3633691206543979,-0.05267382413087954
7.756429447852761,-0.14524539877300469,-1.3217216257668722,-0.04434432515337442
7.764425766871166,-0.21188139059304562,-1.2800741308793466,-0.036014826175869305
7.772422085889571,-0.2785173824130866,-1.238426635991821,-0.027685327198364182
7.780418404907976,-0.3451533742331275,-1.1967791411042954,-0.019355828220859073
7.788414723926381,-0.41178936605316846,-1.1551316462167698,-0.01102632924335395
7.7964110429447855,-0.47842535787320933,-1.1134841513292444,-0.0026968302658488402
7.80440736196319,-0.5407361963190415,1.2222085889571241,0.1469120654396805
7.812403680981595,-1.5432294478527597,2.4,0.3054036809815949
7.8204,-1.6071999999999993,2.4,0.3133999999999999
7.828396319018405,-1.6711705521472389,2.4,0.3213963190184049
7.83639263803681,-1.7351411042944784,2.4,0.3293926380368098
7.844388957055215,-1.7991116564417178,2.4,0.33738895705521477
7.852385276073619,-1.8630822085889505,2.4,0.3453852760736188
7.860381595092024,-1.9270527607361898,2.4,0.35338159509202377
7.868377914110429,-1.9910233128834294,2.4,0.3613779141104287
7.876374233128834,-2.054993865030669,2.4,0.36937423312883366
7.884370552147239,-2.1189644171779087,2.4,0.3773705521472386
7.892366871165644,-2.182934969325148,2.4,0.38536687116564355
7.9003631901840485,-2.246905521472388,2.4,0.39336319018404853
7.9083595092024535,-1.830368098160153,0.030368098160152845,0.23822085889609174
7.916355828220858,1.7178501501109475,-0.13927033024408458,0.28928990993343145
7.924352147239263,1.760383761910974,-0.2328442762041427,0.2637697428534156
7.932348466257668,1.8029173737110005,-0.3264182221642008,0.23824957577339978
7.940344785276073,1.8454509855110268,-0.419992168124259,0.21272940869338391
7.948341104294478,1.8879845973110534,-0.5135661140843171,0.18720924161336805
7.956337423312883,1.9305182091110797,-0.6071400600443752,0.1616890745333522
7.964333742331288,1.973051820911106,-0.7007140060044333,0.13616890745333635
7.972330061349693,2.0155854327111324,-0.7942879519644914,0.11064874037332051
7.980326380368098,2.0581190445111592,-0.8878618979245495,0.08512857329330464
7.988322699386503,2.1006526563111856,-0.9814358438846077,0.059608406213288806
7.9963190184049076,2.143186268111212,-1.0750097898446658,0.03408823913327297
8.004315337423312,2.1857198799112383,-1.168583735804724,0.008568072053257103
8.012311656441717,0.22208588957072323,-1.3065030674848679,-0.35325153374243395
8.020307975460122,-0.14743353783231067,-0.3269018404907959,-0.047433537832310656
8.028304294478527,-0.08421716110597663,0.13156567778804673,0.006313135557609348
8.036300613496932,-0.029447852760737775,0.24110429447852447,0.028220858895704897
8.044296932515337,0.025321455584501107,0.35064291116900226,0.05012858223380044
8.052293251533742,0.08009076392973996,0.46018152785947997,0.072036305571896
8.060289570552147,0.13486007227497881,0.5697201445499577,0.09394402890999154
8.068285889570552,0.1896293806202177,0.6792587612404354,0.11585175224808708
8.076282208588957,0.24439868896545655,0.7887973779309131,0.13775947558618262
8.084278527607362,0.29916799731069543,0.8983359946213908,0.1596671989242782
8.092274846625767,0.3539373056559343,1.0078746113118686,0.18157492226237373
8.100271165644171,0.20932515337437013,1.6084662576683462,0.26355828220854327
8.108267484662576,-3.467979334840158,0.3746503067484584,0.8719819179851382
8.116263803680981,-3.265967064901509,0.2147239263803611,0.6952211817888201
8.124260122699386,-3.0639547949628594,0.05479754601226383,0.5184604455925022
8.132256441717791,-2.8619425250242103,-0.10512883435583342,0.341699709396184
8.140252760736196,-2.6599302550855612,-0.2650552147239308,0.16493897319986595
8.148249079754601,-2.4579179851469117,-0.42498159509202804,-0.011821762996452101
8.156245398773006,-2.2559057152082627,-0.5849079754601253,-0.18858249919277015
8.16424171779141,-2.0538934452696136,-0.7448343558282225,-0.3653432353890883
8.172238036809816,-1.8518811753309643,-0.9047607361963198,-0.5421039715854065
8.18023435582822,-1.649868905392315,-1.064687116564417,-0.7188647077817244
8.188230674846626,-1.447856635453666,-1.2246134969325144,-0.8956254439780426
8.19622699386503,-1.2458443655150169,-1.384539877300612,-1.0723861801743606
8.204223312883435,1.6791411042936557,-1.5995092024542839,-0.7995092024542839
8.21221963190184,0.29758940595540806,-1.8981250935208729,-0.09973215621726757
8.220215950920245,0.20982492892413537,-1.8298638336076607,-0.08998054765823726
8.22821226993865,0.12206045189286269,-1.7616025736944487,-0.08022893909920698
8.236208588957055,0.03429597486158997,-1.6933413137812365,-0.07047733054017666
8.24420490797546,-0.053468502169682686,-1.6250800538680243,-0.06072572198114637
8.252201226993865,-0.1412329792009554,-1.5568187939548124,-0.050974113422116066
8.26019754601227,-0.22899745623222806,-1.4885575340416004,-0.04122250486308576
8.268193865030675,-0.3167619332635007,-1.4202962741283882,-0.03147089630405546
8.27619018404908,-0.4045264102947735,-1.352035014215176,-0.021719287745025156
8.284186503067485,-0.49229088732604614,-1.283773754301964,-0.011967679185994867
8.29218282208589,-0.5800553643573187,-1.2155124943887519,-0.002216070626964564
8.300179141104294,-0.7009511917042145,2.1004755958521075,0.2
8.3081754601227,-0.7434095227753912,2.121704761387696,0.2
8.316171779141104,-0.785867853846568,2.142933926923284,0.2
8.32416809815951,-0.8283261849177447,2.1641630924588724,0.2
8.332164417177914,-0.8707845159889214,2.1853922579944607,0.2
8.340160736196319,-0.9132428470600982,2.206621423530049,0.2
8.348157055214724,-0.955701178131275,2.2278505890656373,0.2
8.356153374233129,-0.9981595092024516,2.249079754601226,0.2
8.364149693251534,-1.0406178402736284,2.2703089201368143,0.2
8.372146012269939,-1.0830761713448052,2.2915380856724026,0.2
8.380142331288344,-1.1255345024159817,2.312767251207991,0.2
8.388138650306749,-1.1679928334871585,2.333996416743579,0.2
8.396134969325153,-1.2104511645583353,2.3552255822791675,0.2
8.404131288343558,-1.252909495629512,2.3764547478147557,0.2
8.412127607361963,-1.295367826700689,2.3976839133503445,0.2
8.420123926380368,-0.8038791882963561,0.06357715903724642,0.08372817366680127
8.428120245398773,-0.5578386031146645,-0.7975648890986743,-0.469863142992005
8.436116564417178,1.402331288343576,-1.613411986786205,-0.00787163756489045
8.444112883435583,1.5622576687116712,-1.4780896649362782,-0.020173666823974697
8.452109202453988,1.7221840490797664,-1.3427673430863516,-0.03247569608305895
8.460105521472393,1.8821104294478617,-1.2074450212364247,-0.04477772534214319
8.468101840490798,2.042036809815957,-1.072122699386498,-0.057079754601227446
8.476098159509203,2.2019631901840517,-0.9368003775365713,-0.0693817838603117
8.484094478527608,2.3618895705521474,-0.8014780556866445,-0.08168381311939595
8.492090797546012,2.5218159509202422,-0.6661557338367179,-0.09398584237848019
8.500087116564417,0.2933742331286586,-1.8,-0.14564417177912758
8.508083435582822,-0.3846932515337512,-1.7538036809815902,-0.09230061349693171
8.516079754601227,-0.4803014137103312,-1.7016537743398192,-0.08360896238996988
8.524076073619632,-0.5759095758869112,-1.6495038676980485,-0.07491731128300808
8.532072392638037,-0.6715177380634911,-1.5973539610562775,-0.06622566017604625
8.540068711656442,-0.7671259002400712,-1.5452040544145067,-0.05753400906908443
8.548065030674847,-0.8627340624166511,-1.4930541477727357,-0.048842357962122614
8.556061349693252,-0.9583422245932312,-1.4409042411309647,-0.04015070685516079
8.564057668711657,-1.053950386769811,-1.3887543344891937,-0.031459055748198975
8.572053987730062,-1.149558548946391,-1.336604427847423,-0.02276740464123715
8.580050306748467,-1.245166711122971,-1.284454521205652,-0.014075753534275343
8.588046625766872,-1.340774873299551,-1.2323046145638812,-0.00538410242731352
8.596042944785276,-0.7042944785276318,1.2193251533743434,-0.09785276073618407
8.604039263803681,-1.6003490115882857,2.7000872528970716,8.725289707140385e-05
8.612035582822086,-1.6714274028629947,2.717856850715749,0.017856850715748676
8.620031901840491,-1.7425057941377038,2.735626448534426,0.03562644853442595
8.628028220858896,-1.813584185412413,2.7533960463531035,0.05339604635310322
8.636024539877301,-1.8846625766871221,2.7711656441717807,0.07116564417178049
8.644020858895706,-1.9557409679618312,2.788935241990458,0.08893524199045777
8.65201717791411,-2.02681935923654,2.806704839809135,0.10670483980913505
8.660013496932516,-2.0978977505112493,2.824474437627812,0.12447443762781232
8.66800981595092,-2.1689761417859583,2.8422440354464897,0.1422440354464896
8.676006134969326,-2.2400545330606674,2.860013633265167,0.16001363326516688
8.68400245398773,-2.3111329243353764,2.877783231083844,0.17778323108384414
8.691998773006135,-2.3822113156100855,2.895552828902521,0.1955528289025214
8.69999509202454,-2.2717090271690967,-0.14243645924635534,-0.5707274320772588
8.707991411042945,0.29613496932529104,-0.40901840490765373,-0.49914110429450914
8.71598773006135,0.44976993865031245,-0.4748849693251563,-0.4833588957055208
8.723984049079755,0.5997009202454046,-0.5498504601227023,-0.4666998977505106
8.73198036809816,0.7496319018404967,-0.6248159509202483,-0.4500408997955004
8.739976687116565,0.8995628834355887,-0.6997814417177943,-0.43338190184049014
8.74797300613497,1.0494938650306809,-0.7747469325153404,-0.4167229038854799
8.755969325153375,1.1994248466257729,-0.8497124233128864,-0.4000639059304697
8.76396564417178,1.349355828220865,-0.9246779141104325,-0.38340490797545945
8.771961963190185,1.499286809815957,-0.9996434049079785,-0.3667459100204492
8.77995828220859,1.649217791411049,-1.0746088957055244,-0.35008691206543896
8.787954601226994,1.7991487730061413,-1.1495743865030708,-0.3334279141104287
8.7959509202454,1.9490797546012333,-1.2245398773006166,-0.31676891615541847
8.803947239263804,2.099010736196325,-1.2995053680981625,-0.3001099182004083
8.81194355828221,1.9234764826175856,-1.9178323108384498,-0.5647852760736213
8.819939877300614,0.5624049079754321,-1.1248098159508642,-0.2624049079754321
8.827936196319019,0.5026891615541924,-0.07041922290388315,0.005378323108384881
8.835932515337424,0.513795160190866,0.05174676209952672,0.02759032038173213
8.843928834355829,0.5249011588275396,0.1739127471029366,0.04980231765507938
8.851925153374234,0.5360071574642133,0.2960787321063465,0.07201431492842664
8.859921472392639,0.547113156100887,0.4182447171097564,0.09422631220177388
8.867917791411044,0.5582191547375606,0.5404107021131663,0.11643830947512113
8.875914110429447,0.5693251533742317,0.662576687116549,0.13865030674846346
8.883910429447852,0.5804311520109053,0.784742672119959,0.1608623040218107
8.891906748466257,0.591537150647579,0.9069086571233688,0.18307430129515795
8.899903067484662,0.4096932515338064,1.2718667835231336,0.22718667835231338
8.907899386503066,-2.2893251533736145,2.5798773006133846,0.6698159509200767
8.915895705521471,-2.8866006692693835,1.7124093697713683,0.43300334634691723
8.923892024539876,-2.8684272169548266,1.457981037367573,0.34213608477413326
8.931888343558281,-2.8502537646402697,1.2035527049637778,0.25126882320134925
8.939884662576686,-2.8320803123257132,0.9491243725599827,0.16040156162856523
8.947880981595091,-2.8139068600111563,0.6946960401561875,0.06953430005578126
8.955877300613496,-2.7957334076965994,0.44026770775239243,-0.021332961517002702
8.9638736196319,-2.777559955382043,0.18583937534859718,-0.11220022308978672
8.971869938650306,-2.759386503067486,-0.06858895705519807,-0.20306748466257074
8.97986625766871,-2.741213050752929,-0.32301728945899333,-0.29393474623535476
8.987862576687116,-2.7230395984383726,-0.5774456218627884,-0.3848020078081388
8.99585889570552,-2.7048661461238157,-0.8318739542665834,-0.4756692693809227
9.003855214723925,3.3144785276074167,-0.9289570552148338,-0.22895705521483378
9.01185153374233,2.155477460656184,-1.8063603627634024,-0.31272072552680463
9.019847852760735,2.0946359029074513,-1.815052013870364,-0.3301040277407283
9.02784417177914,2.0337943451587184,-1.823743664977326,-0.3474873299546519
9.035840490797545,1.9729527874099857,-1.8324353160842877,-0.3648706321685755
9.04383680981595,1.912111229661253,-1.8411269671912496,-0.38225393438249916
9.051833128834355,1.8512696719125203,-1.8498186182982115,-0.3996372365964228
9.05982944785276,1.7904281141637877,-1.8585102694051732,-0.41702053881034645
9.067825766871165,1.7295865564150548,-1.867201920512135,-0.4344038410242701
9.07582208588957,1.668744998666322,-1.8758935716190968,-0.4517871432381937
9.083818404907975,1.6079034409175894,-1.8845852227260587,-0.4691704454521174
9.09181472392638,1.5470618831688565,-1.8932768738330203,-0.486553747666041
9.099811042944784,1.1377914110432128,-1.4925153374236144,-0.4094478527608032
9.10780736196319,0.02889570552166021,1.6940490797539125,0.08073619631889317
9.115803680981594,-0.06242944785275051,1.8390184049079692,0.11560736196318763
9.1238,-0.12639999999999008,1.8789999999999938,0.13159999999999752
9.131796319018404,-0.19037055214722964,1.9189815950920186,0.14759263803680742
9.139792638036809,-0.2543411042944692,1.9589631901840432,0.1635852760736173
9.147788957055214,-0.3183116564417088,1.998944785276068,0.1795779141104272
9.155785276073619,-0.38228220858894835,2.0389263803680926,0.1955705521472371
9.163781595092024,-0.44625276073618797,2.078907975460117,0.211563190184047
9.171777914110429,-0.5102233128834275,2.118889570552142,0.22755582822085688
9.179774233128834,-0.574193865030667,2.158871165644167,0.24354846625766677
9.187770552147239,-0.6381644171779066,2.1988527607361914,0.25954110429447663
9.195766871165644,-0.7021349693251462,2.2388343558282164,0.2755337423312866
9.203763190184048,-0.7661055214723859,2.278815950920241,0.29152638036809647
9.211759509202453,-1.7529550102249143,2.485020449897766,0.4229959100204468
9.219755828220858,-2.4859509202453376,2.151840490797574,0.4896319018404852
9.227752147239263,-2.853205521472394,-0.4320552147239396,-0.34401840490797986
9.235748466257668,-1.6409927495817358,-1.6856107083100964,0.34244283324038577
9.243744785276073,-1.2048298940323816,-1.6613794385573546,0.24551775422941813
9.251741104294478,-0.7686670384830272,-1.6371481688046126,0.1485926752184505
9.259737423312883,-0.3325041829336728,-1.6129168990518707,0.05166759620748279
9.267733742331288,0.10365867261568162,-1.5886856292991287,-0.04525748280348485
9.275730061349693,0.539821528165036,-1.564454359546387,-0.14218256181445255
9.283726380368098,0.9759843837143904,-1.540223089793645,-0.23910764082542013
9.291722699386503,1.4121472392637449,-1.515991820040903,-0.3360327198363878
9.299719018404907,2.4,-1.1701314636283187,-0.024557405784392607
9.307715337423312,1.0138650306749488,-1.6138650306749487,-0.22846625766873718
9.315711656441717,0.8455647780584656,-1.4274197040779542,-0.1637098520389771
9.323707975460122,0.7891201732226667,-1.3521602309635556,-0.12608011548177783
9.331704294478527,0.7326755683868679,-1.2769007578491571,-0.08845037892457859
9.339700613496932,0.676230963551069,-1.2016412847347586,-0.05082064236737935
9.347696932515337,0.6197863587152701,-1.12638181162036,-0.01319090581018012
9.355693251533742,0.5633417538794713,-1.0511223385059618,0.024438830747019136
9.363689570552147,0.5068971490436724,-0.9758628653915632,0.06206856730421839
9.371685889570552,0.45045254420787356,-0.9006033922771648,0.09969830386141759
9.379682208588957,0.3940079393720747,-0.8253439191627663,0.13732804041861685
9.387678527607362,0.33756333453627585,-0.7500844460483678,0.1749577769758161
9.395674846625766,0.3891615541922157,-0.2096114519428135,0.15541922290389215
9.403671165644171,0.02310254163024028,1.9195617879052795,0.2
9.411667484662576,-1.8248138108146572,2.6,0.2062034527036643
9.419663803680981,-1.8991981737765649,2.6,0.2247995434441412
9.427660122699386,-1.9735825367384723,2.6,0.24339563418461807
9.435656441717791,-2.0479668997003797,2.6,0.2619917249250949
9.443652760736196,-2.122351262662287,2.6,0.2805878156655718
9.451649079754601,-2.1967356256241946,2.6,0.2991839064060487
9.459645398773006,-2.2711199885861024,2.6,0.31777999714652555
9.46764171779141,-2.34550435154801,2.6,0.33637608788700246
9.475638036809816,-2.4198887145099173,2.6,0.3549721786274793
9.48363435582822,-2.4942730774718247,2.6,0.3735682693679562
9.491630674846625,-2.568657440433732,2.6,0.39216436010843303
9.49962699386503,-1.3908588957062198,-0.8896932515332125,-0.41785276073641303
9.507623312883435,2.808806310254162,-0.5176126205083245,-0.47798422436459437
9.51561963190184,2.8240373940987427,-0.548074788197486,-0.4399065147531425
9.523615950920245,2.8392684779433237,-0.5785369558866474,-0.40182880514169067
9.53161226993865,2.8544995617879043,-0.608999123575809,-0.3637510955302389
9.539608588957055,2.869730645632485,-0.6394612912649704,-0.32567338591878703
9.54760490797546,2.884961729477066,-0.6699234589541319,-0.2875956763073352
9.555601226993865,2.9001928133216466,-0.7003856266432933,-0.24951796669588333
9.56359754601227,2.915423897166227,-0.7308477943324548,-0.21144025708443154
9.571593865030675,2.9306549810108082,-0.7613099620216163,-0.1733625474729797
9.57959018404908,2.945886064855389,-0.7917721297107778,-0.13528483786152784
9.587586503067485,2.9611171486999694,-0.8222342973999393,-0.09720712825007599
9.59558282208589,2.9763482325445505,-0.8526964650891007,-0.0591294186386242
9.603579141104294,2.991579316389131,-0.8831586327782621,-0.02105170902717235
9.6115754601227,2.570944785276145,-1.329055214723855,-0.10726380368096373
9.619571779141104,0.699754601226698,-1.9428220858895282,-0.3
9.627568098159509,0.13262927256792673,0.07178439964943878,-0.08694829097282931
9.635564417177914,0.1897458369851045,0.19744084136722986,-0.06410166520595822
9.643560736196319,0.24686240140228224,0.32309728308502095,-0.041255039439087114
9.651557055214724,0.30397896581946,0.448753724802812,-0.018408413672216004
9.659553374233129,0.36109553023663776,0.5744101665206031,0.0044382120946551
9.667549693251534,0.4182120946538155,0.7000666082383942,0.02728483786152619
9.675546012269939,0.4753286590709933,0.8257230499561852,0.050131463628397294
9.683542331288344,0.532445223488171,0.9513794916739763,0.0729780893952684
9.691538650306748,0.5895617879053487,1.0770359333917674,0.0958247151621395
9.699534969325153,-0.20699386503068556,1.9534969325153426,0.21069938650306858
9.707531288343558,-3.1969111142816424,0.8913511199885982,0.39629333713797066
9.715527607361963,-3.15042088743045,0.7611784848052601,0.34050506491654003
9.723523926380368,-3.103930660579258,0.631005849621922,0.2847167926951094
9.731520245398773,-3.0574404337280656,0.5008332144385839,0.22892852047367876
9.739516564417178,-3.0109502068768736,0.37066057925524576,0.17314024825224814
9.747512883435583,-2.9644599800256817,0.24048794407190766,0.11735197603081748
9.755509202453988,-2.9179697531744893,0.11031530888856955,0.06156370380938686
9.763505521472393,-2.871479526323297,-0.01985732629476855,0.005775431587956237
9.771501840490798,-2.824989299472105,-0.15002996147810654,-0.05001284063347439
9.779498159509203,-2.778499072620913,-0.28020259666144465,-0.10580111285490501
9.787494478527607,-2.7320088457697205,-0.41037523184478275,-0.16158938507633558
9.795490797546012,2.157975460123526,-1.0819018404904626,0.027300613496820836
9.803487116564417,2.0172279468699625,-1.9043564238489492,-0.5
9.811483435582822,1.869723032938221,-1.9121198403716726,-0.5
9.819479754601227,1.7222181190064796,-1.9198832568943958,-0.5
9.827476073619632,1.574713205074738,-1.927646673417119,-0.5
9.835472392638037,1.4272082911429966,-1.9354100899398423,-0.5
9.843468711656442,1.279703377211255,-1.9431735064625655,-0.5
9.851465030674847,1.1321984632795135,-1.9509369229852886,-0.5
9.859461349693252,0.9846935493477718,-1.958700339508012,-0.5
9.867457668711657,0.8371886354160303,-1.9664637560307352,-0.5
9.875453987730062,0.6896837214842888,-1.9742271725534584,-0.5
9.883450306748466,0.5421788075525471,-1.9819905890761818,-0.5
9.891446625766871,0.3946738936208056,-1.989754005598905,-0.5
9.899442944785276,0.24716897968906415,-1.9975174221216283,-0.5
9.907439263803681,-0.41191717791415433,-1.116119631901777,-0.29602760736194855
9.915435582822086,-1.8062975829699326,2.403673590065794,0.0010495971616554182
9.923431901840491,-1.9219070145613286,2.471112425160775,0.020317835760221444
9.931428220858896,-2.0375164461527246,2.538551260255756,0.03958607435878747
9.939424539877301,-2.153125877744121,2.6059900953507373,0.0588543129573535
9.947420858895706,-2.268735309335517,2.673428930445718,0.07812255155591953
9.95541717791411,-2.384344740926913,2.7408677655406994,0.09739079015448555
9.963413496932516,-2.4999541725183096,2.8083066006356807,0.11665902875305158
9.97140981595092,-2.6155636041097057,2.8757454357306615,0.13592726735161761
9.979406134969325,-2.7311730357011017,2.943184270825643,0.15519550595018364
9.98740245398773,-2.8467824672924977,3.010623105920624,0.17446374454874966
9.995398773006135,-2.9623918988838938,3.078061941015605,0.19373198314731568
10.00339509202454,-0.7468711656435065,0.3653987730056123,-0.25803680981614097
10.011391411042945,0.15334007969135932,-0.45240022768959803,-0.47713996584656027
10.01938773006135,0.21104547466953838,-0.6172727847701096,-0.45240908228448357
10.027384049079755,0.26875086964771744,-0.7821453418506211,-0.4276781987224068
10.03538036809816,0.3264562646258965,-0.9470178989311326,-0.4029473151603301
10.043376687116565,0.38416165960407556,-1.1118904560116443,-0.37821643159825336
10.05137300613497,0.4418670545822546,-1.2767630130921557,-0.3534855480361766
10.059369325153375,0.4995724495604337,-1.4416355701726673,-0.3287546644740999
10.06736564417178,0.5572778445386126,-1.606508127253179,-0.30402378091202314
10.075361963190185,0.6149832395167917,-1.7713806843336906,-0.27929289734994645
10.08335828220859,0.6726886344949707,-1.936253241414202,-0.2545620137878697
10.091354601226994,0.7303940294731498,-2.1011257984947136,-0.22983113022579293
10.0993509202454,0.7880994244513289,-2.265998355575225,-0.20510024666371623
10.107347239263804,1.5916564417176828,-1.8979141104294208,-0.3
10.115343558282209,1.1504928655131998,-1.7339904873509333,-0.2752464327566
10.123339877300614,1.0965850968497952,-1.6621134624663936,-0.24829254842489756
10.131336196319019,1.0426773281863904,-1.5902364375818538,-0.2213386640931952
10.139332515337424,0.9887695595229856,-1.5183594126973143,-0.19438477976149282
10.147328834355829,0.9348617908595809,-1.4464823878127746,-0.16743089542979042
10.155325153374234,0.880954022196176,-1.3746053629282349,-0.14047701109808802
10.163321472392639,0.8270462535327713,-1.3027283380436951,-0.11352312676638565
10.171317791411044,0.7731384848693665,-1.2308513131591554,-0.08656924243468325
10.179314110429448,0.7192307162059617,-1.158974288274616,-0.05961535810298088
10.187310429447853,0.6653229475425569,-1.087097263390076,-0.03266147377127848
10.195306748466258,0.6114151788791522,-1.0152202385055364,-0.005707589439576111
10.203303067484663,-1.3002730337699675,2.2002730337699674,0.40054606753993477
10.211299386503068,-1.3074769247775393,2.2074769247775397,0.4149538495550787
10.219295705521473,-1.3146808157851113,2.2146808157851114,0.4293616315702226
10.227292024539878,-1.3218847067926833,2.2218847067926832,0.44376941358536653
10.235288343558281,-1.3290885978002536,2.2290885978002537,0.45817719560050724
10.243284662576686,-1.3362924888078256,2.2362924888078255,0.4725849776156511
10.251280981595091,-1.3434963798153976,2.2434963798153977,0.486992759630795
10.259277300613496,-1.3507002708229694,2.2507002708229695,0.501400541645939
10.2672736196319,-1.3579041618305414,2.2579041618305413,0.5158083236610829
10.275269938650306,-1.3651080528381134,2.265108052838113,0.5302161056762268
10.28326625766871,-1.3723119438456852,2.2723119438456854,0.5446238876913707
10.291262576687116,-1.3795158348532572,2.279515834853257,0.5590316697065145
10.29925889570552,-1.3867197258608293,2.286719725860829,0.5734394517216586
10.307255214723925,-1.393923616868401,2.293923616868401,0.5878472337368024
10.31525153374233,-1.062269938650396,0.6113496932519793,0.12453987730079168
10.323247852760735,1.9451533742328948,-0.7088343558283933,-0.3539877300612881
10.33124417177914,2.5867246080436215,-0.3953970688479836,-0.4913275391956379
10.339240490797545,2.697784594410355,-0.5175630538513905,-0.4802215405589645
10.34723680981595,2.8088445807770883,-0.6397290388547973,-0.46911554192229116
10.355233128834355,2.919904567143822,-0.7618950238582041,-0.4580095432856178
10.36322944785276,3.0309645535105556,-0.884061008861611,-0.44690354464894444
10.371225766871165,3.142024539877289,-1.006226993865018,-0.4357975460122711
10.37922208588957,3.2530845262440224,-1.1283929788684246,-0.4246915473755978
10.387218404907975,3.364144512610756,-1.2505589638718315,-0.4135855487389244
10.39521472392638,3.4752044989774893,-1.3727249488752384,-0.40247955010225106
10.403211042944784,0.3733742331295824,-0.23116564417277655,-0.34220858895680584
10.41120736196319,-0.124024539877298,0.48808997955009265,-0.47597546012270203
10.419203680981594,-0.15067893660531445,0.5858227675528196,-0.4493210633946856
10.4272,-0.1773333333333309,0.6835555555555466,-0.42266666666666913
10.435196319018404,-0.20398773006134732,0.7812883435582735,-0.3960122699386527
10.443192638036809,-0.23064212678936377,0.8790211315610004,-0.3693578732106363
10.451188957055214,-0.2572965235173802,0.9767539195637274,-0.34270347648261984
10.459185276073619,-0.28395092024539664,1.0744867075664541,-0.3160490797546034
10.467181595092024,-0.3106053169734131,1.1722194955691814,-0.289394683026587
10.475177914110429,-0.33725971370142954,1.2699522835719081,-0.26274028629857055
10.483174233128834,-0.363914110429446,1.3676850715746351,-0.2360858895705541
10.491170552147238,-0.3905685071574624,1.4654178595773621,-0.20943149284253765
10.499166871165643,-0.9333742331285877,2.3,0.25006134969288146
10.507163190184048,-1.1033650959404775,-0.2437462472262057,0.08990471217856792
10.515159509202453,-1.1118718183004825,-0.3543336379062723,0.06438454509855254
10.523155828220858,-1.1203785406604876,-0.46492102858633894,0.03886437801853717
10.531152147239263,-1.1288852630204929,-0.5755084192664055,0.013344210938521797
10.539148466257668,-1.137391985380498,-0.6860958099464722,-0.012175956141493582
10.547144785276073,-1.145898707740503,-0.7966832006265387,-0.03769612322150895
10.555141104294478,-1.1544054301005082,-0.9072705913066055,-0.06321629030152434
10.563137423312883,-1.1629121524605133,-1.017857981986672,-0.08873645738153971
10.571133742331288,-1.1714188748205183,-1.1284453726667387,-0.1142566244615551
10.579130061349693,-1.1799255971805234,-1.2390327633468052,-0.13977679154157047
10.587126380368098,-1.1884323195405286,-1.3496201540268717,-0.16529695862158586
10.595122699386502,-1.1969390419005337,-1.4602075447069385,-0.19081712570160123
10.603119018404907,1.636932515337738,-1.8321472392638534,-0.5
10.611115337423312,0.7378271487283335,-1.6101947703853705,-0.4585514324855557
10.619111656441717,0.6679564000238256,-1.5092703555899702,-0.41197093334921703
10.627107975460122,0.5980856513193176,-1.40834594079457,-0.3653904342128784
10.635104294478527,0.5282149026148097,-1.3074215259991695,-0.31880993507653976
10.643100613496932,0.4583441539103017,-1.206497111203769,-0.2722294359402011
10.651096932515337,0.38847340520579376,-1.1055726964083687,-0.2256489368038625
10.659093251533742,0.31860265650128583,-1.0046482816129685,-0.17906843766752384
10.667089570552147,0.2487319077967779,-0.9037238668175681,-0.13248793853118523
10.675085889570552,0.17886115909226985,-0.8027994520221677,-0.08590743939484657
10.683082208588957,0.10899041038776192,-0.7018750372267674,-0.03932694025850797
10.691078527607361,0.03911966168325398,-0.600950622431367,0.007253558877830635
10.699074846625766,-0.030751087021253953,-0.5000262076359667,0.053834058014169295
10.707071165644171,-0.08576687116588524,-0.3644171779147131,0.09288343558294263
10.715067484662576,-0.7954223690420031,2.363614912694669,0.1159037281736672
10.723063803680981,-1.1644832468144903,2.609655497876327,0.17741387446908172
10.731060122699386,-1.3072287467134076,2.67108501314637,0.2216862401402226
10.739056441717791,-1.3186520595968434,2.6253917616126268,0.2559561787905301
10.747052760736196,-1.3300753724802792,2.579698510078883,0.29022611744083765
10.7550490797546,-1.341498685363715,2.53400525854514,0.3244960560911452
10.763045398773006,-1.3529219982471508,2.4883120070113964,0.35876599474145265
10.77104171779141,-1.3643453111305868,2.442618755477653,0.39303593339176024
10.779038036809816,-1.3757686240140226,2.3969255039439097,0.4273058720420677
10.78703435582822,-1.3871919368974583,2.351232252410166,0.46157581069237524
10.795030674846625,-1.3986152497808941,2.305539000876423,0.4958457493426828
10.80302699386503,0.7004246225959692,-1.1,-0.19987867925829453
10.811023312883435,0.8262094161439135,-1.1,-0.1639401668160247
10.81901963190184,0.9519942096918581,-1.1,-0.12800165437375485
10.827015950920245,1.0777790032398025,-1.1,-0.092063141931485
10.83501226993865,1.203563796787747,-1.1,-0.05612462948921515
10.843008588957055,1.3293485903356914,-1.1,-0.020186117046945312
10.85100490797546,1.455133383883636,-1.1,0.015752395395324525
10.859001226993865,1.5809181774315806,-1.1,0.05169090783759439
10.86699754601227,1.706702970979525,-1.1,0.0876294202798642
10.874993865030675,1.8324877645274693,-1.1,0.12356793272213407
10.88299018404908,1.958272558075414,-1.1,0.15950644516440393
10.890986503067484,2.0840573516233585,-1.1,0.19544495760667374
10.89898282208589,0.10171779141107053,-0.10687116564428206,-0.04914110429446474
10.906979141104294,-0.013958282208587797,0.36281226993864507,-0.1
10.9149754601227,-0.02995092024539769,0.4347791411042896,-0.1
10.922971779141104,-0.045943558282207586,0.5067460122699341,-0.1
10.930968098159509,-0.06193619631901748,0.5787128834355786,-0.1
10.938964417177914,-0.07792883435582737,0.6506797546012231,-0.1
10.946960736196319,-0.09392147239263726,0.7226466257668677,-0.1
10.954957055214724,-0.10991411042944715,0.7946134969325123,-0.1
10.962953374233129,-0.12590674846625705,0.8665803680981568,-0.1
10.970949693251534,-0.14189938650306694,0.9385472392638012,-0.1
10.978946012269938,-0.15789202453987683,1.0105141104294457,-0.1
10.986942331288343,-0.17388466257668672,1.0824809815950902,-0.1
10.994938650306748,-0.1898773006134966,1.1544478527607347,-0.1
11.002934969325153,-0.9337423312882743,2.1869938650306193,0.14674846625765486
11.010931288343558,-1.6656489368038576,0.6312978736077155,0.26564893680385776
11.018927607361963,-1.5957781880993487,0.49155637619869713,0.1957781880993486
11.026923926380368,-1.5259074393948393,0.3518148787896788,0.12590743939483945
11.034920245398773,-1.4560366906903304,0.2120733813806605,0.05603669069033029
11.042916564417178,-1.386165941985821,0.07233188397164214,-0.013834058014178863
11.050912883435583,-1.316295193281312,-0.06740961343737617,-0.08370480671868796
11.058909202453988,-1.246424444576803,-0.20715111084639448,-0.15357555542319712
11.066905521472393,-1.1765536958722937,-0.3468926082554129,-0.22344630412770633
11.074901840490798,-1.1066829471677844,-0.4866341056644312,-0.2933170528322155
11.082898159509202,-1.0368121984632754,-0.6263756030734495,-0.36318780153672453
11.090894478527607,-0.9669414497587663,-0.7661171004824678,-0.4330585502412337
11.098890797546012,-0.8970707010542571,-0.9058585978914862,-0.5029292989457428
11.106887116564417,-0.827199952349748,-1.0456000953005045,-0.5728000476502519
11.114883435582822,0.616257668711674,-1.362883435582746,-0.06042944785279003
11.122879754601227,1.6173006134969465,-1.286656441717796,-0.02800613496932247
11.130876073619632,2.0691987913194687,-1.9803992308396619,-0.491599670359855
11.138872392638037,1.9379159417635672,-1.8968555993040883,-0.45579525684460925
11.146868711656442,1.8066330922076659,-1.8133119677685148,-0.41999084332936343
11.154865030674847,1.6753502426517646,-1.729768336232941,-0.3841864298141176
11.162861349693252,1.5440673930958633,-1.6462247046973675,-0.3483820162988718
11.170857668711657,1.4127845435399617,-1.562681073161794,-0.312577602783626
11.178853987730061,1.2815016939840604,-1.4791374416262204,-0.27677318926838024
11.186850306748466,1.1502188444281591,-1.3955938100906469,-0.2409687757531344
11.194846625766871,1.0189359948722578,-1.3120501785550733,-0.2051643622378886
11.202842944785276,0.4,0.3900613496936985,-0.16858895705534244
11.210839263803681,-1.3354393581878192,2.2177196790939098,0.20590655969796987
11.218835582822086,-1.4092515337423266,2.2546257668711633,0.21820858895705444
11.226831901840491,-1.4830637092968342,2.2915318546484174,0.23051061821613902
11.234828220858896,-1.5568758848513418,2.328437942425671,0.24281264747522363
11.2428245398773,-1.6306880604058491,2.3653440302029245,0.2551146767343082
11.250820858895706,-1.7045002359603567,2.4022501179801785,0.2674167059933928
11.25881717791411,-1.778312411514864,2.439156205757432,0.27971873525247737
11.266813496932516,-1.8521245870693717,2.476062293534686,0.29202076451156195
11.27480981595092,-1.8438036809815843,2.331411042944753,0.5247852760736627
11.282806134969325,1.2091260562565134,-0.6923949531195721,0.4007605046880428
11.29080245398773,1.2996504225026069,-0.6169579812478274,0.40830420187521727
11.298798773006135,1.3901747887487006,-0.5415210093760828,0.4158478990623917
11.30679509202454,1.4806991549947939,-0.46608403750433824,0.4233915962495662
11.314791411042945,1.5712235212408876,-0.39064706563259366,0.43093529343674064
11.32278773006135,1.661747887486981,-0.3152100937608491,0.4384789906239151
11.330784049079755,1.7522722537330746,-0.23977312188910443,0.44602268781108956
11.33878036809816,1.842796619979168,-0.1643361500173599,0.453566384998264
11.346776687116565,1.9333209862252616,-0.08889917814561521,0.4611100821854385
11.35477300613497,2.023845352471355,-0.013462206273870625,0.46865377937261293
11.362769325153375,2.1143697187174486,0.06197476559787396,0.4761974765597874
11.37076564417178,2.2048940849635423,0.13741173746961854,0.48374117374696185
11.378761963190184,2.2954184512096356,0.21284870934136313,0.4912848709341363
11.38675828220859,2.385942817455729,0.2882856812131077,0.49882856812131077
11.394754601226994,4.4694747867724045,-0.6816848720634426,1.021367649259317
11.4027509202454,4.404464063045535,-0.6426784378273209,1.0668751558681255
11.410747239263804,4.339453339318665,-0.6036720035911991,1.1123826624769344
11.418743558282209,4.274442615591796,-0.5646655693550774,1.157890169085743
11.426739877300614,4.209431891864926,-0.5256591351189556,1.2033976756945517
11.434736196319019,4.144421168138057,-0.48665270088283386,1.2489051823033606
11.442732515337424,4.079410444411187,-0.4476462666467121,1.2944126889121692
11.450728834355829,4.014399720684318,-0.4086398324105903,1.3399201955209779
11.458725153374234,3.9493889969574476,-0.36963339817446855,1.3854277021297867
11.466721472392639,3.884378273230578,-0.3306269639383468,1.4309352087385954
11.474717791411043,3.8193675495037085,-0.291620529702225,1.476442715347404
11.482714110429448,3.754356825776839,-0.25261409546610325,1.5219502219562129
11.490710429447853,3.6893461020499694,-0.21360766122998148,1.5674577285650215
11.498706748466258,3.6243353783231,-0.17460122699385972,1.6129652351738302
11.506703067484663,3.5593246545962303,-0.135594792757738,1.658472741782639
11.514699386503068,3.5,0.07484662576710821,1.8748466257671081
11.522695705521473,3.4826073619631837,1.5231901840490887,2.605797546012272
11.530692024539878,3.2826993865030683,1.7897341513292426,2.672433537832311
11.538688343558283,2.211726032414582,2.4040124530720646,2.1839501877117424
11.546684662576688,1.9491603333027796,2.4159472575771463,2.1362109696914144
11.554680981595093,1.686594634190977,2.427882062082228,2.088471751671087
11.562677300613498,1.4240289350791744,2.4398168665873103,2.0407325336507594
11.570673619631902,1.1614632359673718,2.451751671092392,1.9929933156304314
11.578669938650307,0.8988975368555692,2.463686475597474,1.9452540976101036
11.586666257668712,0.6363318377437666,2.475621280102556,1.8975148795897758
11.594662576687117,0.37376613863196395,2.487556084607638,1.849775661569448
11.60265889570552,0.11120043952021952,2.4994908891127174,1.802036443549131
11.610655214723925,2.924171779139773,1.9,0.6861963190188209
11.61865153374233,1.8944624598305602,1.3889249196611204,0.2944624598305602
11.626647852760735,1.884943032427697,1.3698860648553943,0.28494303242769714
11.63464417177914,1.875423605024834,1.3508472100496682,0.2754236050248341
11.642640490797545,1.8659041776219711,1.3318083552439421,0.2659041776219711
11.65063680981595,1.856384750219108,1.312769500438216,0.25638475021910806
11.658633128834355,1.846865322816245,1.29373064563249,0.24686532281624501
11.66662944785276,1.837345895413382,1.2746917908267639,0.23734589541338197
11.674625766871165,1.827826468010519,1.2556529360210378,0.22782646801051892
11.68262208588957,1.8183070406076558,1.2366140812153117,0.2183070406076559
11.690618404907974,1.8087876132047929,1.2175752264095856,0.20878761320479286
11.69861472392638,2.045889570551719,1.2,0.2
11.706611042944784,3.2555582822086278,1.5,0.7
11.71460736196319,3.3592135412816626,1.5159213541281662,0.6920393229359169
11.722603680981594,3.551895927267323,1.5351895927267323,0.6824052036366338
11.730599999999999,3.7445783132529833,1.5544578313252984,0.6727710843373508
11.738596319018404,3.937260699238643,1.5737260699238642,0.6631369650380678
11.746592638036809,4.129943085224304,1.5929943085224303,0.6535028457387848
11.754588957055214,4.322625471209964,1.6122625471209964,0.6438687264395018
11.762585276073619,4.515307857195625,1.6315307857195624,0.6342346071402187
11.770581595092024,4.707990243181285,1.6507990243181283,0.6246004878409358
11.778577914110429,4.9006726291669445,1.6700672629166944,0.6149663685416528
11.786574233128833,5.093355015152605,1.6893355015152605,0.6053322492423697
11.794570552147238,3.473006134971228,1.142331288342924,-0.17177914110471734
11.802566871165643,2.608675692828442,1.3543378464142208,-0.019569494393905307
11.810563190184048,2.5121683943304514,1.3060841971652255,-0.04024962978633188
11.818559509202453,2.4156610958324607,1.2578305479162302,-0.060929765178758456
11.826555828220858,2.31915379733447,1.2095768986672348,-0.08160990057118503
11.834552147239263,2.2226464988364794,1.1613232494182395,-0.1022900359636116
11.842548466257668,2.1261392003384887,1.1130696001692442,-0.12297017135603817
11.850544785276073,2.029631901840498,1.0648159509202488,-0.14365030674846474
11.858541104294478,1.9331246033425074,1.0165623016712535,-0.16433044214089132
11.866537423312883,1.8366173048445167,0.9683086524222582,-0.1850105775333179
11.874533742331288,1.740110006346526,0.9200550031732628,-0.20569071292574448
11.882530061349692,1.6436027078485351,0.8718013539242675,-0.22637084831817103
11.890526380368097,1.5470954093505445,0.8235477046752722,-0.2470509837105976
11.898522699386502,1.4505881108525538,0.7752940554262768,-0.26773111910302416
11.906519018404907,1.3540808123545631,0.7270404061772815,-0.28841125449545074
11.914515337423312,0.7,0.08622420524261822,-0.2
11.922511656441717,0.7,0.013530395984386615,-0.2
11.930507975460122,0.6005521472392633,0.0,-0.1
11.938504294478527,0.6092437983462251,0.0,-0.1
11.946500613496932,0.6179354494531869,0.0,-0.1
11.954496932515337,0.6266271005601488,0.0,-0.1
11.962493251533742,0.6353187516671106,0.0,-0.1
11.970489570552147,0.6440104027740724,0.0,-0.1
11.978485889570551,0.6527020538810342,0.0,-0.1
11.986482208588956,0.661393704987996,0.0,-0.1
11.994478527607361,0.6700853560949578,0.0,-0.1
12.002474846625766,0.6787770072019197,0.0,-0.1
12.010471165644171,0.6874686583088815,0.0,-0.1
12.018467484662576,0.6961603094158433,0.0,-0.1
12.026463803680981,0.43840490797546017,-0.1,-0.1
12.034460122699386,0.23849693251534593,-0.13075153374232704,-0.1
12.04245644171779,0.10153309654504263,-0.09846690345495739,-0.1
12.050452760736196,0.10995027445915316,-0.09004972554084685,-0.1
12.0584490797546,0.11836745237326371,-0.0816325476267363,-0.1
12.066445398773006,0.12678463028737424,-0.07321536971262577,-0.1
12.07444171779141,0.13520180820148478,-0.06479819179851523,-0.1
12.082438036809815,0.14361898611559532,-0.05638101388440468,-0.1
12.09043435582822,0.15203616402970588,-0.04796383597029414,-0.1
12.098430674846625,0.1604533419438164,-0.039546658056183605,-0.1
12.10642699386503,0.16887051985792695,-0.031129480142073063,-0.1
12.114423312883435,0.1772876977720375,-0.022712302227962514,-0.1
12.12241963190184,0.18570487568614802,-0.014295124313851978,-0.1
12.130415950920245,0.19412205360025858,-0.005877946399741443,-0.1
12.13841226993865,0.3,0.0,-0.1
12.146408588957055,0.12957055214726348,0.0,-0.029570552147263465
12.15440490797546,0.1,0.0,0.0
12.162401226993865,0.1,0.0,0.0
12.17039754601227,0.1,0.0,0.0
12.178393865030674,0.1,0.0,0.0
12.18639018404908,0.1,0.0,0.0
12.194386503067484,0.1,0.0,0.0
12.20238282208589,0.1,0.0,0.0
12.210379141104294,0.09374594009382982,0.0,-0.1
12.218375460122699,0.08590641164441312,0.0,-0.1
12.226371779141104,0.07806688319499643,0.0,-0.1
12.234368098159509,0.07022735474557973,0.0,-0.1
12.242364417177914,0.062387826296163025,0.0,-0.1
12.250360736196319,0.05454829784674632,0.0,-0.1
12.258357055214724,0.046708769397329625,0.0,-0.1
12.266353374233129,0.03886924094791292,0.0,-0.1
12.274349693251533,0.031029712498496217,0.0,-0.1
12.282346012269938,0.02319018404907952,0.0,-0.1
12.290342331288343,0.015350655599662824,0.0,-0.1
12.298338650306748,0.007511127150246127,0.0,-0.1
12.306334969325153,-0.0017629964481788176,0.0,-0.1
12.314331288343558,-0.043848886018730736,0.0,-0.1
12.322327607361963,-0.08593477558928266,0.0,-0.1
12.330323926380368,0.0,0.0,0.0
12.338320245398773,0.0,0.0,0.0
12.346316564417178,0.0,0.0,0.0
12.354312883435583,0.0,0.0,0.0
12.362309202453988,0.0,0.0,0.0
12.370305521472392,0.0,0.0,0.0
12.378301840490797,0.0,0.0,0.0
12.386298159509202,0.0,0.0,0.0
12.394294478527607,0.0,0.0,0.0
12.402290797546012,0.1,0.0,0.0
12.410287116564417,0.1,0.0,0.0
12.418283435582822,0.1,0.0,0.0
12.426279754601227,0.1,0.0,0.0
12.434276073619632,0.1,0.0,0.0
12.442272392638037,0.1,0.0,0.0
12.450268711656442,0.1,0.0,0.0
12.458265030674847,0.1,0.0,0.0
12.466261349693252,0.1,0.0,0.0
12.474257668711656,0.1,0.0,0.0
12.482253987730061,0.1,0.0,0.0
12.490250306748466,0.1,0.0,0.0
12.498246625766871,0.1,0.0,0.0
12.506242944785276,0.0,0.0,-0.003343242046676285
12.514239263803681,0.0,0.0,-0.011586869900702014
12.522235582822086,0.0,0.0,-0.01983049775472774
12.53023190184049,0.0,0.0,-0.028074125608753473
12.538228220858896,0.0,0.0,-0.0363177534627792
12.5462245398773,0.0,0.0,-0.04456138131680493
12.554220858895706,0.0,0.0,-0.052805009170830655
12.56221717791411,0.0,0.0,-0.061048637024856384
12.570213496932515,0.0,0.0,-0.06929226487888211
12.57820981595092,0.0,0.0,-0.07753589273290784
12.586206134969325,0.0,0.0,-0.08577952058693357
12.59420245398773,0.0,0.0,-0.0940231484409593
12.602198773006135,0.10248466257668529,0.0,-0.1
12.61019509202454,0.19024539877297328,0.0,-0.1
12.618191411042945,0.0,0.0,0.0
12.62618773006135,0.0,0.0,0.0
12.634184049079755,0.0,0.0,0.0
12.64218036809816,0.0,0.0,0.0
12.650176687116565,0.0,0.0,0.0
12.65817300613497,0.0,0.0,0.0
12.666169325153374,0.0,0.0,0.0
12.67416564417178,0.0,0.0,0.0
12.682161963190184,0.0,0.0,0.0
12.69015828220859,0.0,0.0,0.0
12.698154601226994,0.0,0.0,0.0
12.706150920245399,0.0,0.0,0.0
12.714147239263804,0.0,0.0,0.0
12.722143558282209,0.0,0.0,0.0
12.730139877300614,0.0,0.0,0.0
12.738136196319019,0.0,0.0,0.0
12.746132515337424,0.0,0.0,0.0
12.754128834355829,0.0,0.0,0.0
12.762125153374233,0.0,0.0,0.0
12.770121472392638,0.0,0.0,0.0
12.778117791411043,0.0,0.0,0.0
12.786114110429448,0.0,0.0,0.0
12.794110429447853,0.0,0.0,0.0
12.802106748466258,0.0,0.0,0.0
12.810103067484663,0.0,0.0,0.0
12.818099386503068,0.0,0.0,0.0
12.826095705521473,0.0,0.0,0.0
12.834092024539878,0.0,0.0,0.0
12.842088343558283,0.0,0.0,0.0
12.850084662576688,0.0,0.0,0.0
12.858080981595092,0.0,0.0,0.0
12.866077300613497,0.0,0.0,0.0
12.874073619631902,0.0,0.0,0.0
12.882069938650307,0.0,0.0,0.0
12.890066257668712,0.0,0.0,0.0
12.898062576687117,0.0,0.0,0.0
12.906058895705522,-0.1,0.0,0.0
12.914055214723927,-0.1,0.0,0.0
12.922051533742332,-0.1,0.0,0.0
12.930047852760737,-0.1,0.0,0.0
12.938044171779142,-0.1,0.0,0.0
12.946040490797547,-0.1,0.0,0.0
12.954036809815952,-0.1,0.0,0.0
12.962033128834356,-0.1,0.0,0.0
12.97002944785276,-0.1,0.0,0.0
12.978025766871164,-0.1,0.0,0.0
12.98602208588957,-0.1,0.0,0.0
12.994018404907974,-0.1,0.0,0.0
13.00201472392638,-0.1,0.0,0.0
13.010011042944784,0.0,0.0,0.0
13.018007361963189,0.0,0.0,0.0
13.026003680981594,0.0,0.0,0.0
13.034,0.0,0.0,0.0
