gyro_time_list,gyro_x_list,gyro_y_list,gyro_z_list
0.0,0.1,-0.0,0.1
0.007999340804218854,-6.591957811466487e-05,0.19993408042188535,-0.1
0.015998681608437707,0.0,0.20666556800703142,-0.10666556800703143
0.023998022412656562,0.0,0.21333168534388047,-0.11333168534388047
0.031997363216875414,0.0,0.21999780268072952,-0.11999780268072952
0.039996704021094266,0.0,0.22666392001757857,-0.12666392001757856
0.047996044825313125,0.0,0.23333003735442762,-0.1333300373544276
0.05599538562953198,0.0,0.23999615469127666,-0.13999615469127666
0.06399472643375083,0.0,0.24666227202812568,-0.1466622720281257
0.07199406723796968,0.0,0.25332838936497476,-0.15332838936497475
0.07999340804218853,0.0,0.2599945067018238,-0.1599945067018238
0.08799274884640738,0.0,0.26666062403867286,-0.16666062403867282
0.09599208965062625,0.0,0.2733267413755219,-0.1733267413755219
0.1039914304548451,0.0,0.2799928587123709,-0.17999285871237092
0.11199077125906395,0.0,0.28665897604921997,-0.18665897604921997
0.1199901120632828,0.0,0.293325093386069,-0.193325093386069
0.12798945286750166,0.0,0.299991210722918,-0.19999121072291803
0.1359887936717205,0.0,0.0,-0.1
0.14398813447593936,0.0,0.0,-0.1
0.1519874752801582,0.0,0.0,-0.1
0.15998681608437706,0.0,0.0,-0.1
0.16798615688859592,0.0,0.0,-0.1
0.17598549769281477,0.0,0.0,-0.1
0.18398483849703362,0.0,0.0,-0.1
0.1919841793012525,0.0,0.0,-0.1
0.19998352010547135,0.0,0.0,-0.1
0.2079828609096902,0.0,0.0,-0.1
0.21598220171390906,-0.1991100856954529,0.0,0.1
0.2239815425181279,0.10553504724236434,0.10553504724236434,0.1
0.23198088332234676,0.1144232036914964,0.1144232036914964,0.1
0.2399802241265656,0.12331136014062846,0.12331136014062846,0.1
0.24797956493078446,0.13219951658976054,0.13219951658976054,0.1
0.2559789057350033,0.14108767303889258,0.14108767303889258,0.1
0.2639782465392222,0.14997582948802468,0.14997582948802468,0.1
0.271977587343441,0.1588639859371567,0.1588639859371567,0.1
0.2799769281476599,0.16775214238628877,0.16775214238628877,0.1
0.2879762689518787,0.17664029883542082,0.17664029883542082,0.1
0.2959756097560976,0.18552845528455292,0.18552845528455292,0.1
0.3039749505603164,0.1944166117336849,0.1944166117336849,0.1
0.3119742913645353,-0.0974291364535306,-0.0948582729070612,0.0
0.31997363216875413,-0.033553065260382306,-0.033553065260382306,0.0
0.327972972972973,0.0,0.0,0.0
0.33597231377719183,0.0,0.0,0.0
0.3439716545814107,0.0,0.0,0.0
0.35197099538562954,0.0,0.0,0.0
0.3599703361898484,0.0,0.0,0.0
0.36796967699406724,0.0,0.0,0.0
0.3759690177982861,0.0,0.0,0.0
0.383968358602505,0.0,0.0,0.0
0.3919676994067238,0.0,0.0,0.0
0.3999670402109427,0.0,0.0,0.0
0.4079663810151615,0.0,0.0,0.0
0.4159657218193804,0.0,0.0,0.0
0.42396506262359923,0.0,0.0,0.0
0.4319644034278181,0.0,0.0,0.0
0.43996374423203694,0.0,0.0,0.0
0.4479630850362558,0.0,0.0,0.0
0.45596242584047464,0.0,0.0,0.0
0.4639617666446935,0.0,0.0,0.0
0.47196110744891234,0.0,0.0,0.0
0.4799604482531312,0.0,0.0,0.0
0.48795978905735005,0.0,0.0,0.0
0.4959591298615689,0.0,0.0,0.0
0.5039584706657878,0.0,0.0,0.0
0.5119578114700066,-0.0040307410325257104,0.0,0.0
0.5199571522742255,-0.010534270141646707,0.0,0.0
0.5279564930784444,-0.01703779925076779,0.0,0.0
0.5359558338826632,-0.02354132835988879,0.0,0.0
0.543955174686882,-0.030044857469009784,0.0,0.0
0.5519545154911009,-0.03654838657813078,0.0,0.0
0.5599538562953198,-0.04305191568725187,0.0,0.0
0.5679531970995386,-0.04955544479637286,0.0,0.0
0.5759525379037574,-0.05605897390549386,0.0,0.0
0.5839518787079763,-0.06256250301461486,0.0,0.0
0.5919512195121952,-0.06906603212373594,0.0,0.0
0.599950560316414,-0.07556956123285694,0.0,0.0
0.6079499011206329,-0.08207309034197793,0.0,0.0
0.6159492419248517,-0.08857661945109893,0.0,0.0
0.6239485827290706,-0.09508014856022001,0.0,0.0
0.6319479235332894,-0.1,0.0,0.0
0.6399472643375083,0.0048137369969612825,0.0,0.0
0.6479466051417272,0.014569030660642916,0.0,0.0
0.655945945945946,0.024324324324324412,0.0,0.0
0.6639452867501648,0.03407961798800591,0.0,0.0
0.6719446275543837,0.04383491165168741,0.0,0.0
0.6799439683586026,0.053590205315369045,0.0,0.0
0.6879433091628214,0.06334549897905054,0.0,0.0
0.6959426499670402,0.07310079264273203,0.0,0.0
0.7039419907712591,0.08285608630641354,0.0,0.0
0.711941331575478,0.09261137997009516,0.0,0.0
0.7199406723796968,0.0029663810151570047,0.0,0.0
0.7279400131839157,-0.05940013183915677,0.0,0.0
0.7359393539881345,-0.29896774287018185,0.10103225712981813,0.0
0.7439386947923534,-0.29017725846994125,0.10982274153005872,0.0
0.7519380355965722,-0.2813867740697008,0.11861322593029919,0.0
0.7599373764007911,-0.27259628966946037,0.12740371033053965,0.0
0.76793671720501,-0.26380580526921976,0.13619419473078026,0.0
0.7759360580092288,-0.25501532086897927,0.14498467913102073,0.0
0.7839353988134476,-0.24622483646873883,0.1537751635312612,0.0
0.7919347396176665,-0.23743435206849833,0.16256564793150166,0.0
0.7999340804218854,-0.22864386766825778,0.17135613233174224,0.0
0.8079334212261042,-0.2198533832680173,0.18014661673198273,0.0
0.815932762030323,-0.21106289886777685,0.18893710113222317,0.0
0.8239321028345419,-0.20227241446753635,0.19772758553246367,0.0
0.8319314436387608,0.09879033293667422,0.09879033293667422,0.0
0.8399307844429796,0.08840157864548095,0.08840157864548095,0.0
0.8479301252471985,0.07801282435428769,0.07801282435428769,0.0
0.8559294660514173,0.06762407006309441,0.06762407006309441,0.0
0.8639288068556362,0.057235315771901,0.057235315771901,0.0
0.871928147659855,0.04684656148070773,0.04684656148070773,0.0
0.8799274884640739,0.03645780718951447,0.03645780718951447,0.0
0.8879268292682927,0.02606905289832119,0.02606905289832119,0.0
0.8959261700725116,0.015680298607127788,0.015680298607127788,0.0
0.9039255108767305,0.00529154431593451,0.00529154431593451,0.0
0.9119248516809493,-0.9236980883322357,0.05375741595253776,0.14624258404746227
0.9199241924851682,-2.3185103419111703,0.3,0.40370206838223416
0.927923533289387,-2.3562430815537123,0.3,0.4112486163107425
0.9359228740936059,-2.393975821196254,0.3,0.4187951642392508
0.9439222148978247,-2.4317085608387954,0.3,0.4263417121677591
0.9519215557020436,-2.4694413004813374,0.3,0.4338882600962676
0.9599208965062624,-2.5071740401238793,0.3,0.44143480802477586
0.9679202373104813,-2.544906779766421,0.3,0.4489813559532842
0.9759195781147001,-2.5826395194089624,0.3,0.45652790388179254
0.983918918918919,-2.6203722590515044,0.3,0.46407445181030094
0.9919182597231379,-2.6581049986940464,0.3,0.4716209997388093
0.9999176005273567,-2.695837738336588,0.3,0.4791675476673176
1.0079169413315756,-2.73357047797913,0.3,0.486714095595826
1.0159162821357943,-2.771303217621671,0.3,0.49426064352433424
1.0239156229400133,-3.0873434410019858,0.3,0.3084377059986762
1.0319149637442322,-1.4626035367286674,0.10534235189590466,0.3213694075836186
1.039914304548451,-1.4017389871313513,0.11403728755266412,0.3561491502106564
1.0479136453526698,-1.3408744375340333,0.12273222320942383,0.3909288928376953
1.0559129861568888,-1.2800098879367154,0.13142715886618353,0.4257086354647341
1.0639123269611075,-1.219145338339399,0.140122094522943,0.4604883780917719
1.0719116677653264,-1.1582807887420812,0.1488170301797027,0.49526812071881077
1.0799110085695451,-1.0974162391447648,0.15751196583646215,0.5300478633458486
1.087910349373764,-1.036551689547447,0.16620690149322187,0.5648276059728874
1.095909690177983,-0.9756871399501291,0.1749018371499816,0.5996073485999263
1.1039090309822017,-0.9148225903528129,0.18359677280674103,0.634387091226964
1.1119083717864207,-0.853958040755495,0.19229170846350074,0.6691668338540029
1.1199077125906396,-1.072313777191849,0.01845748187210078,0.5184574818721007
1.1279070533948583,-1.8907053394858369,-0.23721160184575102,0.18371786420566533
1.1359063941990772,-2.469149637442334,-0.4476598549769335,-0.12148978246540035
1.143905735003296,-2.1792447499764576,-2.154338449948207,-0.691697899990583
1.1519050758075149,-2.122106601374894,-2.0286345230247664,-0.6688426405499575
1.1599044166117338,-2.0649684527733303,-1.9029305961013263,-0.645987381109332
1.1679037574159525,-2.007830304171768,-1.7772266691778895,-0.6231321216687071
1.1759030982201715,-1.9506921555702041,-1.6515227422544492,-0.6002768622280816
1.1839024390243904,-1.8935540069686403,-1.5258188153310088,-0.5774216027874561
1.1919017798286091,-1.8364158583670782,-1.400114888407572,-0.5545663433468313
1.199901120632828,-1.7792777097655144,-1.2744109614841317,-0.5317110839062057
1.207900461437047,-1.7221395611639505,-1.1487070345606913,-0.5088558244655802
1.2158998022412657,0.5100197758734266,-0.6050098879367133,-0.7
1.2238991430454846,0.42100856954515337,-0.608776825606094,-0.7
1.2318984838497034,0.3410151615029663,-0.6176649820552259,-0.7
1.2398978246539223,0.26102175346077705,-0.6265531385043581,-0.7
1.2478971654581412,0.18102834541858775,-0.6354412949534902,-0.7
1.25589650626236,0.10103493737640068,-0.6443294514026221,-0.7
1.2638958470665789,0.02104152933421144,-0.6532176078517542,-0.7
1.2718951878707978,-0.05895187870797791,-0.6621057643008864,-0.7
1.2798945286750165,-0.13894528675016493,-0.6709939207500183,-0.7
1.2878938694792355,-0.21893869479235417,-0.6798820771991504,-0.7
1.2958932102834544,-0.2989321028345435,-0.6887702336482826,-0.7
1.303892551087673,-0.37892551087673054,-0.6976583900974145,-0.7
1.311891891891892,-1.2940540540540528,-0.5991505791505789,-1.000849420849421
1.3198912326961107,-1.2407251153592613,-0.5915321593370373,-1.0084678406629626
1.3278905735003297,-1.1873961766644685,-0.5839137395234955,-1.0160862604765046
1.3358899143045486,-1.1340672379696755,-0.5762953197099536,-1.0237046802900465
1.3438892551087673,-1.080738299274884,-0.568676899896412,-1.031323100103588
1.3518885959129863,-1.0274093605800911,-0.5610584800828702,-1.03894151991713
1.3598879367172052,-0.9740804218852982,-0.5534400602693283,-1.0465599397306717
1.367887277521424,-0.9207514831905068,-0.5458216404557866,-1.0541783595442134
1.3758866183256429,-0.8674225444957139,-0.5382032206422448,-1.0617967793577552
1.3838859591298616,-0.8140936058009225,-0.5305848008287032,-1.0694151991712968
1.3918852999340805,-0.7607646671061294,-0.5229663810151614,-1.0770336189848386
1.3998846407382994,-0.7074357284113366,-0.5153479612016195,-1.0846520387983807
1.4078839815425181,-0.6541067897165451,-0.5077295413880779,-1.0922704586119223
1.415883322346737,-0.6007778510217522,-0.5001111215745361,-1.0998888784254641
1.423882663150956,-1.491724557578215,-0.5979311393945538,-1.402068860605446
1.4318820039551747,-1.4565626199772537,-0.5891406549943133,-1.4108593450056865
1.4398813447593937,-1.4214006823762912,-0.5803501705940728,-1.4196498294059272
1.4478806855636126,-1.3862387447753288,-0.5715596861938322,-1.4284403138061676
1.4558800263678313,-1.3510768071743675,-0.5627692017935919,-1.437230798206408
1.4638793671720502,-1.315914869573405,-0.5539787173933512,-1.4460212826066488
1.471878707976269,-1.2807529319724438,-0.5451882329931109,-1.454811767006889
1.479878048780488,-1.2455909943714816,-0.5363977485928704,-1.4636022514071296
1.4878773895847068,-1.2104290567705192,-0.5276072641926297,-1.4723927358073703
1.4958767303889255,-1.1752671191695576,-0.5188167797923894,-1.4811832202076105
1.5038760711931445,-1.1401051815685954,-0.5100262953921488,-1.4899737046078512
1.5118754119973634,-1.104943243967633,-0.5012358109919082,-1.4987641890080918
1.5198747528015821,-1.2083278400351591,-0.3458360799824204,-1.5
1.527874093605801,-1.793704680290052,-0.012590639419896021,-1.6
1.53587343441002,-1.7837661146185155,0.008116942690742245,-1.6
1.5438727752142387,-1.7672726284242501,0.01636368578787494,-1.6
1.5518721160184576,-1.7507791422299843,0.024610428885007866,-1.6
1.5598714568226764,-1.734285656035719,0.03285717198214056,-1.6
1.5678707976268953,-1.717792169841453,0.04110391507927349,-1.6
1.5758701384311142,-1.7012986836471873,0.049350658176406416,-1.6
1.583869479235333,-1.684805197452922,0.05759740127353911,-1.6
1.5918688200395519,-1.668311711258656,0.06584414437067204,-1.6
1.5998681608437708,-1.6518182250643902,0.07409088746780496,-1.6
1.6078675016479895,-1.6353247388701249,0.08233763056493766,-1.6
1.6158668424522085,-1.618831252675859,0.09058437366207059,-1.6
1.6238661832564272,-1.6023377664815937,0.09883111675920328,-1.6
1.631865524060646,-1.8621841353548738,1.3865524060646215,-1.7689079323225632
1.639864864864865,-1.9882882882882875,1.8195195195195208,-1.6960960960960958
1.6478642056690838,-1.9640478616088368,1.8599202306519387,-1.6880159538696122
1.6558635464733027,-1.9398074349293857,1.9003209417843574,-1.6799358116431284
1.6638628872775216,-1.9155670082499343,1.9407216529167761,-1.6718556694166447
1.6718622280817403,-1.8913265815704836,1.9811223640491937,-1.6637755271901613
1.6798615688859593,-1.8670861548910325,2.0215230751816127,-1.6556953849636775
1.6878609096901782,-1.842845728211581,2.0619237863140314,-1.6476152427371937
1.695860250494397,-1.8186053015321306,2.102324497446449,-1.6395351005107102
1.7038595912986159,-1.7943648748526793,2.1427252085788675,-1.6314549582842264
1.7118589321028346,-1.7701244481732288,2.1831259197112853,-1.623374816057743
1.7198582729070535,-1.7458840214937774,2.223526630843704,-1.6152946738312592
1.7278576137112724,-1.721643594814326,2.2639273419761228,-1.6072145316047755
1.7358569545154912,-1.6485827290705353,2.368556361239286,-1.5828609096901785
1.74385629531971,-2.199110085695486,3.8571852340145005,-1.1
1.751855636123929,-3.520871152578447,1.7391308757162354,-2.3970437604583905
1.7598549769281477,-2.7297275565568158,1.5193687657102266,-2.2563960100545453
1.7678543177323667,-1.9385839605351625,1.2996066557042119,-2.1157482596506956
1.7758536585365854,-1.1474403645135314,1.079844545698203,-1.97510050924685
1.7838529993408043,-0.3562967684918781,0.8600824356921883,-1.8344527588430006
1.7918523401450233,0.43484682752977477,0.6403203256861736,-1.6938050084391512
1.799851680949242,1.2259904235514059,0.4205582156801648,-1.5531572580353057
1.807851021753461,2.017134019573059,0.20079610567415007,-1.4125095076314562
1.8158503625576798,2.8082776155947125,-0.018966004331864683,-1.2718617572276067
1.8238497033618986,3.5994212116163435,-0.23872811433787344,-1.1312140068237613
1.8318490441661175,4.390564807637997,-0.4584902243438882,-0.9905662564199118
1.8398483849703364,-0.9606460118654172,-1.6090309822018742,-1.0393539881345828
1.8478477257745551,1.716461060363498,1.7962990865429627,-0.1
1.855847066578774,1.5786595796166614,1.3439908880785647,-0.09133282711547583
1.8638464073829928,1.4368991096684818,1.1617274267166193,-0.08120707926203441
1.8718457481872117,1.295138639720298,0.9794639653546688,-0.07108133140859271
1.8798450889914307,1.1533781697721142,0.7972005039927184,-0.06095558355515102
1.8878444297956494,1.0116176998239343,0.6149370426307729,-0.050829835701709604
1.8958437705998683,0.8698572298757506,0.43267358126882227,-0.04070408784826791
1.9038431114040872,0.728096759927567,0.2504101199068718,-0.030578339994826217
1.911842452208306,0.5863362899793871,0.06814665854492641,-0.0204525921413848
1.9198417930125249,0.44457582003120333,-0.11411680281702408,-0.010326844287943102
1.9278411338167438,0.30281535008301974,-0.29638026417897456,-0.0002010964345014049
1.9358404746209625,0.19912450560316408,-0.10350197758734368,1.100875494396836
1.9438398154251815,0.1907918589321027,-0.1368325642715892,1.1092081410678973
1.9518391562294002,0.18245921226104156,-0.17016315095583384,1.1175407877389585
1.9598384970336191,0.17412656558998016,-0.2034937376400794,1.1258734344100199
1.967837837837838,0.1657939189189188,-0.2368243243243249,1.1342060810810812
1.9758371786420568,0.15746127224785764,-0.27015491100856953,1.1425387277521424
1.9838365194462757,0.14912862557679624,-0.3034854976928151,1.1508713744232038
1.9918358602504946,0.14079597890573486,-0.33681608437706057,1.1592040210942651
1.9998352010547134,0.13246333223467371,-0.37014667106130517,1.1675366677653263
2.0078345418589323,0.12413068556361233,-0.40347725774555077,1.1758693144363876
2.015833882663151,0.11579803889255094,-0.43680784442979625,1.184201961107449
2.02383322346737,0.10746539222148956,-0.47013843111404185,1.1925346077785104
2.0318325642715886,0.18325642715886012,-0.7497692814765804,1.2
2.0398319050758076,0.9064361478995628,-2.4032180739497813,0.8967819260502186
2.0478312458800265,0.9246164679091514,-2.4123082339545756,0.8876917660454243
2.0558305866842455,0.9427967879187399,-2.42139839395937,0.8786016060406301
2.0638299274884644,0.9609771079283284,-2.4304885539641643,0.8695114460358359
2.071829268292683,0.9791574279379158,-2.4395787139689578,0.8604212860310422
2.079828609096902,0.9973377479475043,-2.448668873973752,0.8513311260262479
2.0878279499011207,1.0155180679570928,-2.4577590339785464,0.8422409660214537
2.0958272907053397,1.0336983879666812,-2.4668491939833403,0.8331508060166595
2.1038266315095586,1.0518787079762697,-2.4759393539881347,0.8240606460118652
2.1118259723137776,1.0700590279858582,-2.485029513992929,0.814970486007071
2.119825313117996,1.0882393479954457,-2.494119673997723,0.8058803260022772
2.127824653922215,0.9350692155570148,-2.3350692155570147,0.7
2.135823994726434,0.6088002636783092,-2.0088002636783093,0.7088002636783092
2.143823335530653,0.6,-1.9930766942206612,0.6930766942206612
2.151822676334872,0.6,-1.9859976315620604,0.6859976315620604
2.1598220171390903,0.6,-1.97891856890346,0.67891856890346
2.167821357943309,0.6,-1.9718395062448593,0.6718395062448592
2.175820698747528,0.6,-1.9647604435862585,0.6647604435862583
2.183820039551747,0.6,-1.9576813809276574,0.6576813809276575
2.191819380355966,0.6,-1.9506023182690566,0.6506023182690567
2.199818721160185,0.6,-1.9435232556104558,0.6435232556104559
2.2078180619644034,0.6,-1.9364441929518554,0.6364441929518554
2.2158174027686224,0.6,-1.9293651302932546,0.6293651302932546
2.2238167435728413,0.6,-1.9222860676346538,0.6222860676346538
2.2318160843770602,0.6,-1.915207004976053,0.615207004976053
2.239815425181279,0.6,-1.908127942317452,0.6081279423174522
2.2478147659854977,0.6,-1.9010488796588516,0.6010488796588517
2.2558141067897166,0.51239288068556,-1.55929466051417,0.15309822017139002
2.2638134475939355,0.05932762030322308,-1.2555965721819338,0.1
2.2718127883981545,-0.21506850927582688,-1.0799086542988976,0.1
2.2798121292023734,-0.2579221207269997,-1.0227705056973337,0.1
2.287811470006592,-0.30077573217817016,-0.9656323570957732,0.1
2.295810810810811,-0.343629343629343,-0.9084942084942094,0.1
2.3038101516150298,-0.38648295508051583,-0.8513560598926456,0.1
2.3118094924192487,-0.4293365665316886,-0.7942179112910819,0.1
2.3198088332234676,-0.4721901779828615,-0.737079762689518,0.1
2.3278081740276866,-0.46986376620522363,-0.20959129861567094,-0.030136233794776347
2.335807514831905,-0.4991317044818225,0.8026048865545327,-0.4017365910363551
2.343806855636124,-0.49053026275685585,0.8284092117294325,-0.4189394744862883
2.351806196440343,-0.4819288210318893,0.8542135369043322,-0.43614235793622147
2.359805537244562,-0.47332737930692265,0.880017862079232,-0.4533452413861547
2.367804878048781,-0.4647259375819561,0.9058221872541319,-0.4705481248360879
2.3758042188529993,-0.45612449585698994,0.9316265124290303,-0.48775100828602014
2.3838035596572182,-0.44752305413202337,0.95743083760393,-0.5049538917359533
2.391802900461437,-0.43892161240705674,0.9832351627788298,-0.5221567751858865
2.399802241265656,-0.43032017068209016,1.0090394879537297,-0.5393596586358197
2.407801582069875,-0.4217187289571236,1.0348438131286295,-0.556562542085753
2.415800922874094,-0.41311728723215696,1.0606481383035293,-0.5737654255356861
2.4238002636783125,-0.40451584550719083,1.0864524634784276,-0.5909683089856184
2.4317996044825314,-0.21001977587342663,1.38497033618986,-0.7899802241265734
2.4397989452867503,-1.2074320491790724,2.6027870184421524,-0.7
2.4477982860909693,-1.281844521776458,2.630691695666172,-0.7
2.455797626895188,-1.3562569943738436,2.6585963728901914,-0.7
2.4637969676994067,-1.430669466971225,2.6865010501142095,-0.7
2.4717963085036256,-1.5050819395686106,2.714405727338229,-0.7
2.4797956493078446,-1.5794944121659962,2.7423104045622484,-0.7
2.4877949901120635,-1.6539068847633818,2.7702150817862683,-0.7
2.4957943309162824,-1.7283193573607671,2.7981197590102878,-0.7
2.5037936717205014,-1.802731829958153,2.826024436234307,-0.7
2.51179301252472,-1.8771443025555343,2.8539291134583253,-0.7
2.519792353328939,-1.95155677515292,2.881833790682345,-0.7
2.5277916941331577,-2.2791694133157723,3.086112942210515,-0.5604152933421138
2.5357910349373767,-1.7791034937376622,3.862689518787014,-0.17910349373766207
2.5437903757415956,-1.6795302720371819,3.8481878911851273,-0.29637578237025464
2.551789716545814,-1.5558291255801948,3.897668349767922,-0.3953366995358442
2.559789057350033,-1.432127979123201,3.9471488083507196,-0.4942976167014393
2.567788398154252,-1.308426832666207,3.996629266933517,-0.5932585338670344
2.575787738958471,-1.1847256862092133,4.046109725516315,-0.6922194510326295
2.58378707976269,-1.0610245397522193,4.0955901840991125,-0.7911803681982246
2.5917864205669088,-0.9373233932952254,4.14507064268191,-0.8901412853638198
2.5997857613711273,-0.8136222468382385,4.194551101264705,-0.9891022025294092
2.607785102175346,-0.6899211003812447,4.244031559847502,-1.0880631196950044
2.615784442979565,-0.5662199539242507,4.2935120184303,-1.1870240368605995
2.623783783783784,-0.4425188074672568,4.342992477013098,-1.2859849540261945
2.631783124588003,-0.3188176610102629,4.392472935595896,-1.3849458711917895
2.6397824653922215,3.3926756024317437,-1.1766937669377358,-1.626082179740719
2.6477818061964404,-1.4537391049586161,-2.9159598623013254,-0.8260602065480116
2.6557811470006594,0.5065095583388297,3.1717919138650714,0.3934904416611703
2.6637804878048783,0.5731707317073208,2.8829268292682766,0.3268292682926792
2.6717798286090972,0.6398319050758119,2.594061744671482,0.26016809492418813
2.6797791694133157,0.7064930784442992,2.305196660074704,0.1935069215557008
2.6877785102175347,0.7731542518127903,2.016331575477909,0.12684574818720973
2.6957778510217536,0.8398154251812814,1.7274664908811144,0.06018457481871864
2.7037771918259725,0.9064765985497725,1.4386014062843198,-0.00647659854977245
2.7117765326301915,0.9731377719182635,1.149736321687525,-0.07313777191826348
2.7197758734344104,1.0397989452867547,0.8608712370907305,-0.13979894528675463
2.727775214238629,0.2472643375083523,-0.17521423862877072,-0.044957152274245876
2.735774555042848,1.4710942649967547,0.3450889914304258,0.5774555042847871
2.7437738958470668,1.9,0.07054827892579713,0.7147258605371014
2.7517732366512857,1.9,0.0357685362987583,0.7321157318506208
2.7597725774555046,1.9,0.0009887936717194873,0.7495056031641403
2.767771918259723,1.9,-0.033790948955317396,0.7668954744776587
2.775771259063942,1.9,-0.06857069158235621,0.7842853457911781
2.783770599868161,1.9,-0.10335043420939505,0.8016752171046975
2.79176994067238,1.9,-0.13813017683643386,0.8190650884182169
2.799769281476599,1.9,-0.1729099194634727,0.8364549597317363
2.807768622280818,1.9,-0.2076896620905115,0.8538448310452558
2.8157679630850363,1.9,-0.24246940471754838,0.8712347023587742
2.8237673038892552,1.9,-0.27724914734458717,0.8886245736722936
2.831766644693474,0.1166776532629401,-0.2916611733685299,0.9
2.839765985497693,-0.16794905959410014,-1.4080127351014748,0.5
2.847765326301912,-0.09986956338798175,-1.4250326091530046,0.5
2.8557646671061305,-0.03179006718186714,-1.4420524832045332,0.5
2.8637640079103495,0.036289429024251224,-1.4590723572560629,0.5
2.8717633487145684,0.10436892523036961,-1.4760922313075924,0.5
2.8797626895187873,0.17244842143648798,-1.493112105359122,0.5
2.8877620303230063,0.2405279176426064,-1.5101319794106516,0.5
2.895761371127225,0.30860741384872475,-1.5271518534621813,0.5
2.9037607119314437,0.3766869100548394,-1.54417172751371,0.5
2.9117600527356626,0.4447664062609577,-1.5611916015652394,0.5
2.9197593935398816,0.5128459024670762,-1.578211475616769,0.5
2.9277587343441005,0.5809253986731946,-1.5952313496682988,0.5
2.9357580751483194,1.1879037574159732,-2.16371127224792,0.5
2.943757415952538,0.38970570971907403,-2.4,0.5
2.951756756756757,0.3677897075157345,-2.4,0.5
2.959756097560976,0.3458737053123949,-2.4,0.5
2.9677554383651947,0.32395770310905536,-2.4,0.5
2.9757547791694137,0.3020417009057158,-2.4,0.5
2.9837541199736326,0.28012569870237625,-2.4,0.5
2.991753460777851,0.2582096964990379,-2.4,0.5
2.99975280158207,0.2362936942956983,-2.4,0.5
3.007752142386289,0.21437769209235874,-2.4,0.5
3.015751483190508,0.025049439683592734,-1.8,0.6916501867721357
3.023750823994727,0.29169413315756026,-1.8,0.6027686222808132
3.0317501647989453,0.9239590199956064,-1.8,0.2880204900021968
3.0397495056031643,0.9572896066798519,-1.8,0.27135519666007407
3.047748846407383,0.9906201933640975,-1.8,0.25468990331795127
3.055748187211602,1.023950780048343,-1.8,0.23802460997582853
3.063747528015821,1.0572813667325884,-1.8,0.22135931663370578
3.07174686882004,1.090611953416834,-1.8,0.20469402329158298
3.0797462096242585,1.1239425401010776,-1.8,0.18802872994946118
3.0877455504284774,1.1572731267853231,-1.8,0.1713634366073384
3.0957448912326964,1.1906037134695688,-1.8,0.15469814326521564
3.1037442320369153,1.2239343001538143,-1.8,0.13803284992309287
3.1117435728411342,1.2572648868380598,-1.8,0.12136755658097009
3.1197429136453527,1.2905954735223035,-1.8,0.10470226323884826
3.1277422544495717,-0.0381410678971692,-1.8154647330257077,-0.09484508899143076
3.1357415952537906,-1.109899302161708,-1.2752517445957299,0.0
3.1437409360580095,-1.1236912690655338,-1.2407718273361654,0.0
3.1517402768622285,-1.1374832359693596,-1.2062919100766012,0.0
3.159739617666447,-1.1512752028731845,-1.1718119928170387,0.0
3.167738958470666,-1.1650671697770103,-1.1373320755574743,0.0
3.175738299274885,-1.178859136680836,-1.10285215829791,0.0
3.1837376400791038,-1.1926511035846619,-1.0683722410383456,0.0
3.1917369808833227,-1.2064430704884876,-1.0338923237787814,0.0
3.1997363216875416,-1.2202350373923132,-0.9994124065192169,0.0
3.20773566249176,-1.2340270042961383,-0.9649324892596546,0.0
3.215735003295979,-1.247818971199964,-0.9304525720000902,0.0
3.223734344100198,-1.2616109381037897,-0.8959726547405258,0.0
3.231733684904417,-1.2754029050076154,-0.8614927374809616,0.0
3.239733025708636,-1.2891948719114412,-0.8270128202213971,0.0
3.2477323665128544,-0.5436717205009658,0.35632827949903423,0.1
3.2557317073170733,0.5876306620209051,1.502473867595819,-0.30247386759581896
3.263731048121292,0.5304925134193411,1.5139014973161318,-0.31390149731613176
3.271730388925511,0.47335436481777715,1.5253291270364446,-0.32532912703644457
3.27972972972973,0.4162162162162132,1.5367567567567575,-0.33675675675675737
3.287729070533949,0.3590780676146492,1.5481843864770701,-0.3481843864770702
3.2957284113381675,0.3019399190130885,1.5596120161973823,-0.3596120161973823
3.3037277521423865,0.2448017704115245,1.5710396459176952,-0.3710396459176951
3.3117270929466054,0.18766362180996055,1.582467275638008,-0.3824672756380079
3.3197264337508243,0.13052547320839664,1.5938949053583207,-0.3938949053583207
3.3277257745550433,-0.6588661832565071,2.0588661832565074,-0.4
3.3357251153592617,-0.7086152319912291,2.505025551994884,-0.6985641280014617
3.3437244561634807,-0.8036569049126422,2.560466527865708,-0.6827238491812263
3.3517237969676996,-0.8986985778340553,2.6159075037365325,-0.6668835703609908
3.3597231377719186,-0.9937402507554685,2.6713484796073566,-0.6510432915407552
3.3677224785761375,-1.0887819236768814,2.726789455478181,-0.6352030127205197
3.3757218193803564,-1.1838235965982946,2.782230431349005,-0.6193627339002842
3.383721160184575,-1.2788652695197025,2.8376714072198266,-0.6035224550800495
3.391720500988794,-1.3739069424411157,2.893112383090651,-0.587682176259814
3.399719841793013,-1.4689486153625286,2.948553358961475,-0.5718418974395785
3.4077191825972317,-1.5639902882839416,3.0039943348322997,-0.556001618619343
3.4157185234014507,-1.659031961205355,3.059435310703124,-0.5401613397991075
3.423717864205669,-1.7540736341267626,3.114876286573945,-0.5243210609788729
3.431717205009888,-1.8491153070481758,3.1703172624447697,-0.5084807821586373
3.439716545814107,-2.6618545374642917,3.6,-0.009536365633927062
3.447715886618326,-2.4840914084816466,3.6,-0.05397714787958832
3.455715227422545,-2.3063282794990014,3.6,-0.09841793012524958
3.463714568226764,-2.6228345418588996,2.3839490898027385,-0.49583591095787893
3.4717139090309823,-1.98288727752142,2.18704223923736,-0.8281162212869551
3.4797132498352012,-1.3429400131839044,1.9901353886719706,-1.1603965316160496
3.48771259063942,-0.702992748846389,1.7932285381065811,-1.4926768419451442
3.495711931443639,-0.0630454845088737,1.5963216875411919,-1.8249571522742387
3.503711272247858,0.5769017798286415,1.3994148369758026,-2.1572374626033333
3.5117106130520765,1.2168490441661213,1.2025079864104242,-2.489517772932409
3.5197099538562955,1.856796308503637,1.0056011358450347,-2.8217980832615037
3.5277092946605144,-0.9476598549774056,-2.3761700725112975,-0.18895847066562443
3.5357086354647334,0.8961901319100365,1.1916182902020802,0.5977140791460219
3.5437079762689523,0.8531829232852035,1.0970024312274478,0.5719097539711221
3.5517073170731708,0.810175714660373,1.0023865722528202,0.5461054287962237
3.5597066578773897,0.76716850603554,0.9077707132781878,0.5203011036213239
3.5677059986816086,0.7241612974107069,0.8131548543035552,0.49449677844642415
3.5757053394858276,0.6811540887858739,0.7185389953289226,0.4686924532715243
3.5837046802900465,0.6381468801610409,0.6239231363542901,0.44288812809662453
3.5917040210942655,0.595139671536208,0.5293072773796574,0.41708380292172476
3.599703361898484,0.5521324629113773,0.4346914184050301,0.39127947774682637
3.607702702702703,0.5091252542865443,0.3400755594303976,0.3654751525719266
3.615702043506922,0.46611804566171133,0.24545970045576493,0.3396708273970268
3.6237013843111407,0.42311083703687835,0.1508438414811324,0.313866502222127
3.6317007251153597,0.26204350692158435,0.29197099538561044,1.0080290046143896
3.639700065919578,0.5,-1.1969317432732065,1.0
3.647699406723797,0.5,-1.1878415832684124,1.0
3.655698747528016,0.5,-1.178751423263618,1.0
3.663698088332235,0.5,-1.169661263258824,1.0
3.671697429136454,0.5,-1.1605711032540298,1.0
3.679696769940673,0.5,-1.1514809432492354,1.0
3.6876961107448913,0.5,-1.1423907832444418,1.0
3.6956954515491103,0.5,-1.1333006232396476,1.0
3.703694792353329,0.5,-1.1242104632348533,1.0
3.711694133157548,0.5,-1.1151203032300592,1.0
3.719693473961767,0.5,-1.1060301432252648,1.0
3.7276928147659856,1.1771259063941897,-1.4385629531970947,0.6614370468029052
3.7356921555702045,1.04617666446935,-1.8,0.4
3.7436914963744234,0.9590877852424295,-1.783635114096972,0.4
3.7516908371786424,0.9165381001136054,-1.7666152400454422,0.4
3.7596901779828613,0.8739884149847812,-1.7495953659939125,0.4
3.7676895187870802,0.831438729855957,-1.7325754919423828,0.4
3.7756888595912987,0.7888890447271352,-1.7155556178908542,0.4
3.7836882003955177,0.746339359598311,-1.6985357438393245,0.4
3.7916875411997366,0.7037896744694868,-1.6815158697877948,0.4
3.7996868820039555,0.6612399893406626,-1.664495995736265,0.4
3.8076862228081745,0.6186903042118383,-1.6474761216847353,0.4
3.815685563612393,0.5761406190830166,-1.6304562476332067,0.4
3.823684904416612,0.5335909339541924,-1.613436373581677,0.4
3.831684245220831,0.48315754779169195,-1.6168424522083082,0.3831575477916919
3.8396835860250498,0.4031641397495009,-1.6968358602504992,0.30316413974950085
3.8476829268292687,0.5595121951219411,-2.1936585365853727,0.2531707317073137
3.8556822676334876,0.38981417354371856,-2.2966047245145726,0.2
3.863681608437706,0.35943692998339505,-2.2864789766611318,0.2
3.871680949241925,0.3290596864230699,-2.27635322880769,0.2
3.879680290046144,0.2986824428627447,-2.266227480954248,0.2
3.887679630850363,0.26830519930241953,-2.2561017331008064,0.2
3.895678971654582,0.23792795574209435,-2.2459759852473646,0.2
3.9036783124588004,0.20755071218177087,-2.2358502373939237,0.2
3.9116776532630193,0.1771734686214457,-2.225724489540482,0.2
3.9196769940672382,0.1467962250611205,-2.21559874168704,0.2
3.927676334871457,0.11641898150079533,-2.2054729938335984,0.2
3.935675675675676,0.3702702702704527,-1.7648648648647736,0.03243243243238683
3.9436750164798946,0.5937637181539621,-1.4750548726158486,0.0
3.9516743572841135,0.5849732337537215,-1.4398929350148861,0.0
3.9596736980883325,0.5761827493534809,-1.4047309974139237,0.0
3.9676730388925514,0.5673922649532402,-1.3695690598129613,0.0
3.9756723796967703,0.5586017805529997,-1.3344071222119989,0.0
3.9836717205009893,0.549811296152759,-1.2992451846110364,0.0
3.9916710613052078,0.5410208117525189,-1.2640832470100758,0.0
3.9996704021094267,0.5322303273522784,-1.2289213094091134,0.0
4.007669742913646,0.5234398429520373,-1.1937593718081492,0.0
4.015669083717865,0.5146493585517972,-1.1585974342071885,0.0
4.023668424522083,0.5058588741515571,-1.123435496606228,0.0
4.031667765326302,-0.13355306526050528,-0.2996704021092421,-0.06677653263025264
4.039667106130521,-0.19503499347816936,0.6049650065218306,-0.3049650065218307
4.04766644693474,-0.186525056452404,0.613474943547596,-0.31347494354759603
4.055665787738959,-0.17801511942663958,0.6219848805733604,-0.3219848805733604
4.063665128543177,-0.1695051824008752,0.6304948175991248,-0.3304948175991248
4.071664469347397,-0.16099524537510984,0.6390047546248901,-0.33900475462489016
4.079663810151615,-0.15248530834934543,0.6475146916506546,-0.3475146916506546
4.0876631509558345,-0.14397537132358007,0.6560246286764199,-0.35602462867641993
4.095662491760053,-0.13546543429781568,0.6645345657021843,-0.36453456570218434
4.1036618325642715,-0.12695549727205127,0.6730445027279487,-0.37304450272794876
4.111661173368491,-0.11844556024628593,0.6815544397537141,-0.3815544397537141
4.119660514172709,-0.10993562322052151,0.6900643767794784,-0.39006437677947847
4.127659854976929,-0.10142568619475617,0.6985743138052438,-0.3985743138052439
4.135659195781147,-0.2663678312458785,1.4663678312458786,-0.5
4.143658536585366,-0.4155284552845518,1.6051761517615173,-0.5
4.151657877389585,-0.44219292463194976,1.61406430821065,-0.5
4.159657218193804,-0.4688573939793448,1.6229524646597817,-0.5
4.167656558998023,-0.49552186332674275,1.6318406211089143,-0.5
4.1756558998022415,-0.5221863326741377,1.640728777558046,-0.5
4.18365524060646,-0.5488508020215328,1.6496169340071776,-0.5
4.191654581410679,-0.5755152713689307,1.6585050904563103,-0.5
4.199653922214898,-0.6021797407163257,1.667393246905442,-0.5
4.207653263019117,-0.6288442100637237,1.6762814033545745,-0.5
4.215652603823336,-0.6555086794111187,1.6851695598037062,-0.5
4.223651944627555,-0.6821731487585166,1.694057716252839,-0.5
4.231651285431774,-1.4302570863546715,2.3302570863546714,-0.31743572841133216
4.239650626235992,-1.6156762682112085,3.1261271136853472,-0.0843237317887917
4.2476499670402115,-1.6426403383377908,3.1710672305629846,-0.05735966166220937
4.25564930784443,-1.66960440846437,3.2160073474406166,-0.03039559153563004
4.263648648648649,-1.6965684785909523,3.260947464318254,-0.003431521409047719
4.271647989452868,-1.7235325487175317,3.305887581195886,0.023532548717531618
4.279647330257086,-1.750496618844111,3.3508276980735183,0.05049661884411094
4.287646671061306,-1.7774606889706932,3.3957678149511556,0.07746068897069328
4.295646011865524,-1.8044247590972726,3.4407079318287876,0.10442475909727261
4.303645352669744,-1.831388829223855,3.485648048706425,0.13138882922385492
4.311644693473962,-1.8583528993504341,3.530588165584057,0.15835289935043426
4.3196440342781806,-1.8853169694770135,3.5755282824616894,0.18531696947701357
4.3276433750824,-4.42940013183962,3.2713249835200475,0.11783124588001188
4.335642715886618,-4.6897511372758975,3.192432954567705,-0.0816090903750844
4.343642056690838,-4.365025421461051,3.184512815157587,-0.27169243621792116
4.351641397495056,-4.040299705646241,3.1765926757474694,-0.4617757820607369
4.359640738299275,-3.715573989831431,3.1686725363373522,-0.6518591279035525
4.367640079103494,-3.390848274016585,3.1607523969272338,-0.8419424737463893
4.375639419907713,-3.066122558201775,3.1528322575171166,-1.0320258195892047
4.383638760711932,-2.741396842386929,3.1449121181069986,-1.2221091654320415
4.3916381015161505,-2.416671126572119,3.136991978696881,-1.4121925112748572
4.39963744232037,-2.0919454107572726,3.129071839286763,-1.602275857117694
4.407636783124588,-1.7672196949424626,3.1211516998766458,-1.7923592029605095
4.415636123928807,-1.4424939791276525,3.113231560466528,-1.9824425488033253
4.423635464733026,-1.1177682633128065,3.10531142105641,-2.172525894646162
4.431634805537245,1.1639310041750774,0.5969347396174598,-1.9486925950340295
4.439634146341464,1.4341463414638698,-0.009756097560839172,-0.8707317073174824
4.447633487145683,0.6904464182563237,-0.06656246389713305,0.1238839543591907
4.455632827949901,0.6739529320620589,-0.008835262217206055,0.16511766984485285
4.4636321687541205,0.6574594458677921,0.04889193946272735,0.20635138533051955
4.471631509558339,0.6409659596735273,0.10661914114265436,0.2475851008161817
4.479630850362558,0.6244724734792606,0.16434634282258778,0.28881881630184847
4.487630191166777,0.6079789872849958,0.2220735445025148,0.3300525317875106
4.495629531970995,0.591485501090731,0.2798007461824418,0.3712862472731727
4.503628872775215,0.5749920148964642,0.33752794786237517,0.4125199627588395
4.511628213579433,0.5584985287021993,0.39525514954230223,0.45375367824450163
4.519627554383653,0.5420050425079327,0.4529823512222356,0.4949873937301683
4.527626895187871,0.5255115563136679,0.5107095529021626,0.5362211092158305
4.53562623599209,0.5090180701194029,0.5684367545820896,0.5774548247014927
4.543625576796309,0.17488464073822357,-0.45023071852355284,0.5687211601845559
4.5516249176005275,-0.1,-1.2944407822456565,0.4263898044385859
4.559624258404747,-0.08459107286370796,-1.415408927136292,0.392295536431854
4.567623599208965,-0.06267507066036947,-1.4373249293396304,0.3813375353301848
4.575622940013184,-0.04075906845703099,-1.459240931542969,0.3703795342285155
4.583622280817403,-0.018843066253690074,-1.48115693374631,0.35942153312684505
4.591621621621622,0.0030729359496484004,-1.5030729359496484,0.34846353202517577
4.599620962425841,0.024988938152989318,-1.5249889381529893,0.3375055309235053
4.6076203032300596,0.04690494035632781,-1.5469049403563278,0.3265475298218361
4.615619644034279,0.0688209425596687,-1.5688209425596686,0.31558952872016566
4.623618984838497,0.0907369447630072,-1.5907369447630073,0.3046315276184964
4.631618325642716,0.780916282135798,-2.153944188090532,0.2
4.639617666446935,1.00411098459879,-2.3082219691975796,0.20411098459878999
4.647617007251154,1.0132011446035838,-2.3264022892071674,0.21320114460358372
4.655616348055373,1.0222913046083784,-2.3445826092167565,0.22229130460837845
4.663615688859592,1.0313814646131723,-2.3627629292263443,0.23138146461317216
4.67161502966381,1.040471624617966,-2.3809432492359317,0.2404716246179659
4.6796143704680295,1.0495617846227607,-2.3991235692455213,0.24956178462276063
4.687613711272248,1.0586519446275544,-2.4173038892551086,0.25865194462755436
4.695613052076467,1.0677421046323492,-2.435484209264698,0.2677421046323491
4.703612392880686,1.0768322646371429,-2.4536645292742856,0.27683226463714283
4.711611733684904,1.0859224246419368,-2.4718448492838734,0.28592242464193657
4.719611074489124,1.0950125846467313,-2.4900251692934625,0.2950125846467313
4.727610415293342,0.956398907618431,-2.791279781523686,0.6087202184763137
4.735609756097562,0.19725952315702783,-2.597944642367771,0.7
4.74360909690178,0.16130742965492206,-2.570980572241192,0.7
4.751608437705999,0.12535533615281627,-2.544016502114612,0.7
4.759607778510218,0.08940324265070651,-2.51705243198803,0.7
4.7676071193144365,0.053451149148600746,-2.4900883618614507,0.7
4.775606460118656,0.017499055646490985,-2.4631242917348684,0.7
4.783605800922874,-0.018453037855614807,-2.4361602216082887,0.7
4.791605141727094,-0.05440513135772457,-2.4091961514817064,0.7
4.799604482531312,-0.09035722485983033,-2.382232081355127,0.7
4.807603823335531,-0.1263093183619361,-2.3552680112285476,0.7
4.81560316413975,-0.16226141186404586,-2.3283039411019653,0.7
4.823602504943969,-0.19821350536615162,-2.301339870975386,0.7
4.831601845748188,0.20805537244563244,-1.5279630850362451,0.4919446275543675
4.8396011865524065,0.49808131951359774,-1.1993604398378659,0.19936043983786592
4.847600527356625,0.4725515084363045,-1.1908505028121015,0.19085050281210153
4.855599868160844,0.4470216973590085,-1.1823405657863362,0.18234056578633617
4.863599208965063,0.42149188628171524,-1.1738306287605718,0.17383062876057176
4.871598549769282,0.39596207520441923,-1.1653206917348065,0.1653206917348064
4.879597890573501,0.370432264127126,-1.156810754709042,0.156810754709042
4.887597231377719,0.3449024530498328,-1.1483008176832776,0.1483008176832776
4.8955965721819386,0.31937264197253673,-1.1397908806575123,0.13979088065751225
4.903595912986157,0.29384283089524355,-1.131280943631748,0.13128094363174786
4.911595253790376,0.2683130198179475,-1.1227710066059826,0.12277100660598249
4.919594594594595,0.2427832087406543,-1.1142610695802182,0.11426106958021809
4.927593935398813,0.21725339766336105,-1.1057511325544538,0.10575113255445369
4.935593276203033,-0.3318655240606531,-0.3044034278180406,0.11593276203032657
4.943592617007251,-0.4918523401450263,0.17555702043507915,0.19592617007251317
4.951591957811471,-0.013601406284309475,0.9485314582875873,-0.06213286457189684
4.959591298615689,0.11996216789430036,1.1066540559647668,-0.10665405596476679
4.967590639419908,0.15474191052133732,1.1182473035071125,-0.11824730350711243
4.975589980224127,0.18952165314837813,1.1298405510494594,-0.12984055104945938
4.9835893210283455,0.22430139577541508,1.141433798591805,-0.14143379859180502
4.991588661832565,0.2590811384024559,1.1530270461341519,-0.15302704613415197
4.999588002636783,0.2938608810294928,1.1646202936764976,-0.1646202936764976
5.007587343441003,0.3286406236565337,1.1762135412188446,-0.17621354121884453
5.015586684245221,0.36342036628357055,1.18780678876119,-0.18780678876119017
5.02358602504944,0.39820010891060753,1.1994000363035358,-0.19940003630353584
5.031585365853659,-0.634959349593528,1.7056910569105874,-0.4235772357723532
5.039584706657878,-0.8650955833882638,2.317452208305868,-0.3
5.047584047462097,-0.8150997033618927,2.3424501483190534,-0.3
5.0555833882663155,-0.7651038233355272,2.367448088332236,-0.3
5.063582729070534,-0.7151079433091616,2.392446028345419,-0.3
5.071582069874753,-0.6651120632827905,2.4174439683586044,-0.3
5.079581410678972,-0.615116183256425,2.442441908371787,-0.3
5.087580751483191,-0.5651203032300539,2.467439848384973,-0.3
5.09558009228741,-0.5151244232036885,2.492437788398156,-0.3
5.103579433091628,-0.4651285431773229,2.5174357284113387,-0.3
5.111578773895848,-0.41513266315095176,2.542433668424524,-0.3
5.119578114700066,-0.3651367831245862,2.567431608437707,-0.3
5.1275774555042855,-0.3151409030982152,2.5924295484508924,-0.3
5.135576796308504,-2.5730388925511893,3.315359261700793,-0.24232036914960353
5.143576137112722,-2.61496172628577,3.4231922564675172,-0.1922692478441609
5.151575477916942,-2.525173207054736,3.4476800344396175,-0.18410665518679417
5.15957481872116,-2.4353846878237118,3.472167812411715,-0.17594406252942837
5.16757415952538,-2.345596168592678,3.4966555903838152,-0.16778146987206163
5.175573500329598,-2.255807649361654,3.521143368355913,-0.1596188772146958
5.1835728411338176,-2.16601913013062,3.545631146328013,-0.1514562845573291
5.191572181938036,-2.076230610899596,3.57011892430011,-0.14329369189996327
5.1995715227422545,-1.986442091668572,3.5946067022722077,-0.13513109924259747
5.207570863546474,-1.896653572437538,3.619094480244308,-0.12696850658523073
5.215570204350692,-1.806865053206514,3.6435822582164055,-0.11880591392786492
5.223569545154912,-1.7170765339754799,3.6680700361885057,-0.1106433212704982
5.23156888595913,-1.627288014744456,3.6925578141606032,-0.10248072861313237
5.239568226763349,-2.7237310481205927,2.301120632827867,-0.6955174686885325
5.247567567567568,3.0761891891891757,-3.3269189189189143,-1.517783783783779
5.255566908371787,2.6842214897824683,-3.198929466051418,-1.3737956493078456
5.263566249176006,2.2922537903757174,-3.0709400131839075,-1.2298075148318963
5.2715655899802245,1.9002860909690098,-2.9429505603164112,-1.085819380355963
5.279564930784443,1.5083183915623024,-2.814961107448915,-0.9418312458800296
5.287564271588662,1.1163506921555513,-2.6869716545814044,-0.7978431114040803
5.295563612392881,0.7243829927488439,-2.558982201713908,-0.653854976928147
5.3035629531971,0.33241529334209297,-2.4309927488463976,-0.5098668424521977
5.311562294001319,-0.05955240606461443,-2.3030032959789013,-0.3658787079762642
5.319561634805537,-0.45152010547132226,-2.175013843111405,-0.22189057350033092
5.327560975609757,-0.8434878048780732,-2.0470243902438945,-0.07790243902438165
5.335560316413975,-1.235455504284781,-1.9190349373763982,0.06608569545155185
5.3435596572181945,-1.1522742254445424,-2.023862887277729,-0.5275543836526191
5.351558998022413,1.1014643563424003,1.966150296638081,0.2205857425369601
5.3595583388266315,0.8157736133346019,0.7662491760053274,0.10630944533384071
5.367557679630851,0.04423203691490185,0.11218047315603474,0.5198710906028323
5.375557020435069,-0.1117089650626242,-0.011708965062624206,0.6117089650626242
5.383556361239289,-0.12599350221301595,-0.025993502213015943,0.6259935022130159
5.391555702043507,-0.1402780393634061,-0.04027803936340609,0.6402780393634061
5.399555042847727,-0.15456257651379784,-0.05456257651379783,0.6545625765137978
5.407554383651945,-0.16884711366418798,-0.06884711366418798,0.6688471136641879
5.415553724456164,-0.18313165081457813,-0.08313165081457813,0.683131650814578
5.423553065260383,-0.19741618796496987,-0.09741618796496987,0.6974161879649698
5.431552406064601,1.1611898483849614,-1.6835695451548842,0.6776203032300773
5.439551746868821,1.0938313923679772,-1.512337215264046,0.806168607632023
5.447551087673039,1.0849432359188453,-1.5301135281623093,0.8150567640811547
5.455550428477258,1.0760550794697137,-1.5478898410605726,0.8239449205302863
5.463549769281477,1.0671669230205811,-1.565666153958838,0.832833076979419
5.471549110085696,1.0582787665714495,-1.5834424668571012,0.8417212334285507
5.479548450889915,1.0493906101223167,-1.6012187797553665,0.8506093898776833
5.4875477916941335,1.040502453673185,-1.6189950926536298,0.859497546326815
5.495547132498352,1.0316142972240534,-1.6367714055518932,0.8683857027759466
5.503546473302571,1.0227261407749206,-1.6545477184501585,0.8772738592250793
5.51154581410679,1.013837984325789,-1.6723240313484218,0.8861620156742109
5.519545154911009,1.0049498278766564,-1.6901003442466873,0.8950501721233437
5.527544495715228,0.6982201713909013,-1.9508899143045493,0.8
5.535543836519446,0.9011570989775449,-2.001157098977545,0.9
5.543543177323666,0.9181769730290756,-2.0181769730290755,0.9
5.551542518127884,0.9351968470806045,-2.0351968470806043,0.9
5.5595418589321035,0.9522167211321352,-2.0522167211321354,0.9
5.567541199736322,0.969236595183664,-2.069236595183664,0.9
5.575540540540541,0.9862564692351947,-2.086256469235195,0.9
5.58353988134476,1.0032763432867235,-2.1032763432867236,0.9
5.591539222148978,1.0202962173382524,-2.1202962173382525,0.9
5.599538562953198,1.037316091389783,-2.137316091389783,0.9
5.607537903757416,1.0543359654413118,-2.154335965441312,0.9
5.615537244561636,1.0713558394928426,-2.1713558394928425,0.9
5.623536585365854,1.0883757135443715,-2.1883757135443713,0.9
5.631535926170073,0.6784442979564028,-2.4,1.0
5.639535266974292,-0.4,-1.878905735003292,0.7
5.6475346077785105,-0.4,-1.8416994987046016,0.7
5.65553394858273,-0.4,-1.804493262405907,0.7
5.663533289386948,-0.4,-1.7672870261072164,0.7
5.671532630191167,-0.4,-1.730080789808526,0.7
5.679531970995386,-0.4,-1.6928745535098313,0.7
5.687531311799605,-0.4,-1.6556683172111408,0.7
5.695530652603824,-0.4,-1.6184620809124461,0.7
5.703529993408043,-0.4,-1.5812558446137557,0.7
5.711529334212261,-0.4,-1.5440496083150652,0.7
5.71952867501648,-0.4,-1.5068433720163705,0.7
5.727528015820699,-0.4,-1.4696371357176798,0.7
5.735527356624918,-0.4,-1.4324308994189854,0.7
5.743526697429137,-0.4,-1.395224663120295,0.7
5.751526038233355,-0.4,-1.3580184268216042,0.7
5.759525379037575,-0.4,-1.3208121905229095,0.7
5.767524719841793,0.1762359920896588,-0.7847528015820683,0.4542584047462047
5.7755240606460125,0.5762030323006363,-0.7047593935398727,0.21427818061961823
5.783523401450231,0.4390639419907587,-0.46953197099537936,-0.06523401450231031
5.79152274225445,0.253442359145363,-0.38669781689867516,-0.10665109155066244
5.799522083058669,0.1710962038078203,-0.3631703439450915,-0.11841482802745425
5.807521423862887,0.08875004847027765,-0.3396428709915079,-0.13017856450424606
5.815520764667107,0.006403893132725824,-0.31611539803792166,-0.1419423009810392
5.823520105471325,-0.07594226220481681,-0.29258792508433806,-0.15370603745783099
5.831519446275545,-0.15828841754236866,-0.2690604521307518,-0.16546977393462411
5.839518787079763,-0.24063457287991136,-0.24553297917716818,-0.17723351041141594
5.847518127883982,-0.322980728217454,-0.22200550622358456,-0.18899724688820774
5.855517468688201,-0.4258734344100315,-0.1223796967699055,-0.2258734344100315
5.8635168094924195,-0.337079762689518,0.262920237310482,-0.381460118655241
5.871516150296639,-0.004493125529712669,1.0044931255297127,-0.7
5.879515491100857,-0.018777662680102822,1.0187776626801028,-0.7
5.887514831905076,-0.03306219983049297,1.033062199830493,-0.7
5.895514172709295,-0.04734673698088471,1.0473467369808847,-0.7
5.903513513513514,-0.06163127413127486,1.061631274131275,-0.7
5.911512854317733,-0.07591581128166659,1.0759158112816667,-0.7
5.919512195121952,-0.09020034843205675,1.0902003484320568,-0.7
5.92751153592617,-0.6767303889255465,1.4767303889255465,-0.6744232036914845
5.9355108767303895,-0.6767963085036223,2.011601845748189,-0.5
5.943510217534608,-0.643114873538492,2.028442563230754,-0.5
5.951509558338827,-0.609433438573358,2.045283280713321,-0.5
5.959508899143046,-0.5757520036082278,2.062123998195886,-0.5
5.967508239947265,-0.5420705686430938,2.0789647156784534,-0.5
5.975507580751484,-0.5083891336779635,2.0958054331610185,-0.5
5.983506921555702,-0.4747076987128332,2.1126461506435836,-0.5
5.991506262359922,-0.4410262637476992,2.1294868681261505,-0.5
5.99950560316414,-0.40734482878256895,2.1463275856087156,-0.5
6.007504943968359,-0.37366339381743496,2.1631683030912825,-0.5
6.015504284772578,-0.3399819588523047,2.1800090205738476,-0.5
6.023503625576796,-0.30630052388717444,2.196849738056413,-0.5
6.031502966381016,-1.900711931443824,2.5502966381015932,-0.34982201713904393
6.039502307185234,-2.4631336085764772,3.4331797522811707,0.2073732782847046
6.047501647989454,-2.378930021163642,3.508962980952722,0.2242139957672716
6.055500988793672,-2.2947264337508164,3.584746209624265,0.24105471324983674
6.063500329597891,-2.210522846337991,3.660529438295808,0.25789543073240184
6.07149967040211,-2.1263192589251556,3.73631266696736,0.27473614821496883
6.0794990112063285,-2.04211567151233,3.812095895638903,0.291576865697534
6.087498352010548,-1.9579120840994952,3.8878791243104542,0.308417583180101
6.095497692814766,-1.8737084966866693,3.963662352981997,0.32525830066266614
6.103497033618985,-1.7895049092738438,4.03944558165354,0.34209901814523125
6.111496374423204,-1.705301321861009,4.115228810325092,0.35893973562779824
6.119495715227423,-1.6210977344481832,4.191012038996635,0.3757804531103634
6.127495056031642,-1.536894147035348,4.266795267668186,0.39262117059293045
6.135494396835861,-1.9494396835860444,4.250062257379328,0.3750311286896642
6.14349373764008,-2.7493737640079914,4.161180692888001,0.3305903464440005
6.1514930784442985,0.6820039551767326,1.745418589318707,-1.6246539222149372
6.159492419248517,0.7862689518787074,-2.2,-0.7343276203032316
6.167491760052736,0.7662705998681589,-2.2,-0.7843235003296026
6.175491100856955,0.7462722478576127,-2.2,-0.8343193803559682
6.183490441661174,0.7262738958470643,-2.2,-0.8843152603823392
6.191489782465393,0.706275543836518,-2.2,-0.9343111404087048
6.199489123269611,0.6862771918259718,-2.2,-0.9843070204350703
6.207488464073831,0.6662788398154235,-2.2,-1.0343029004614415
6.215487804878049,0.6462804878048772,-2.2,-1.0842987804878068
6.2234871456822685,0.6262821357943288,-2.2,-1.134294660514178
6.231486486486487,0.6062837837837826,-2.2,-1.1842905405405435
6.2394858272907054,-0.5977663113071008,0.3011168443464496,0.20223368869289918
6.247485168094925,-0.5609877328968966,0.31950613355155166,0.2390122671031033
6.255484508899143,-0.5242091544866966,0.3378954227566517,0.27579084551330335
6.263483849703363,-0.4874305760764925,0.35628471196175376,0.3125694239235075
6.271483190507581,-0.4506519976662924,0.3746740011668538,0.34934800233370755
6.2794825313118,-0.41387341925609233,0.3930632903719538,0.38612658074390765
6.287481872116019,-0.3770948408458882,0.4114525795770559,0.4229051591541118
6.2954812129202375,-0.34031626243568813,0.4298418687821559,0.45968373756431186
6.303480553724457,-0.303537684025484,0.448231157987258,0.496462315974516
6.311479894528675,-0.26675910561528393,0.46662044719235807,0.533240894384716
6.319479235332894,-0.22998052720508388,0.4850097363974581,0.5700194727949162
6.327478576137113,-0.09438741877760398,0.39438741877760397,0.6844900649779168
6.335477916941332,0.7477916941331654,-1.443375082399496,0.7261041529334173
6.343477257745551,0.38576426869109587,-1.3071178656544522,1.0071178656544522
6.35147659854977,0.3681832998906157,-1.3159083500546922,1.0159083500546922
6.359475939353989,0.35060233109013356,-1.3246988344549333,1.0246988344549333
6.3674752801582075,0.3330213622896534,-1.3334893188551733,1.0334893188551733
6.375474620962426,0.31544039348917324,-1.3422798032554133,1.0422798032554135
6.383473961766645,0.29785942468869114,-1.3510702876556544,1.0510702876556546
6.391473302570864,0.280278455888211,-1.3598607720558944,1.0598607720558946
6.399472643375083,0.2626974870877289,-1.3686512564561355,1.0686512564561357
6.407471984179302,0.2451165182872487,-1.3774417408563757,1.0774417408563757
6.41547132498352,0.22753554948676852,-1.3862322252566157,1.086232225256616
6.42347066578774,0.20995458068628642,-1.3950227096568568,1.095022709656857
6.431470006591958,1.0410019775874337,-1.870500988793717,0.5294990112062831
6.4394693473961775,1.378717393351534,-2.0914869573406136,0.2042565213296932
6.447468688200396,1.340625294283827,-2.076250117713531,0.2118749411432346
6.4554680290046145,1.30253319521612,-2.061013278086448,0.219493360956776
6.463467369808834,1.264441096148409,-2.0457764384593635,0.2271117807703182
6.471466710613052,1.226348997080702,-2.0305395988322807,0.2347302005838596
6.479466051417272,1.1882568980129908,-2.015302759205196,0.24234862039740185
6.48746539222149,1.150164798945284,-2.0000659195781134,0.24996704021094324
6.495464733025709,1.112072699877577,-1.9848290799510306,0.2575854600244846
6.503464073829928,1.0739806008098658,-1.9695922403239463,0.26520387983802685
6.511463414634147,1.0358885017421589,-1.9543554006968635,0.27282229965156823
6.519462755438366,0.9977964026744477,-1.939118561069779,0.28044071946511046
6.527462096242584,0.9597043036067407,-1.9238817214426962,0.28805913927865184
6.535461437046804,0.9216122045390296,-1.9086448818156116,0.29567755909219406
6.543460777851022,0.8370767663450501,-1.9,0.33146161682747494
6.551460118655241,0.6827455504284756,-1.905751483190508,0.3942485168094919
6.55945945945946,0.33108108108098927,-2.0,0.27702702702699644
6.567458800263679,0.2,-2.0916018457481873,0.19160184574818703
6.575458141067898,0.2,-2.0792951675878495,0.1792951675878494
6.5834574818721165,0.2,-2.0669884894275135,0.16698848942751318
6.591456822676335,0.2,-2.054681811267177,0.15468181126717695
6.599456163480554,0.2,-2.042375133106839,0.14237513310683936
6.607455504284773,0.2,-2.030068454946503,0.1300684549465031
6.615454845088992,0.2,-2.0177617767861653,0.11776177678616552
6.623454185893211,0.2,-2.0054550986258293,0.10545509862582929
6.631453526697429,0.1,-1.3837178642056476,0.2
6.639452867501649,0.2,-0.9943612241341401,0.09718061206707004
6.647452208305867,0.2,-0.9759719349290402,0.08798596746452013
6.6554515491100865,0.2,-0.9575826457239384,0.07879132286196919
6.663450889914305,0.2,-0.9391933565188385,0.06959667825941926
6.6714502307185235,0.2,-0.9208040673137387,0.06040203365686933
6.679449571522743,0.2,-0.9024147781086368,0.05120738905431839
6.687448912326961,0.2,-0.8840254889035369,0.04201274445176847
6.695448253131181,0.2,-0.8656361996984351,0.03281809984921752
6.703447593935399,0.2,-0.8472469104933352,0.023623455246667605
6.711446934739618,0.2,-0.8288576212882354,0.014428810644117676
6.719446275543837,0.2,-0.8104683320831335,0.005234166041566735
6.727445616348056,-0.2,0.011404087013834469,-0.022280817402766894
6.735444957152275,-0.09373644154131856,0.8062635584586815,-0.10313177922934072
6.7434442979564935,-0.07919218553364851,0.8208078144663515,-0.11040390723317575
6.751443638760713,-0.06464792952597684,0.8353520704740232,-0.11767603523701159
6.759442979564931,-0.050103673518306774,0.8498963264816932,-0.12494816324084662
6.76744232036915,-0.03555941751063671,0.8644405824893633,-0.13222029124468165
6.775441661173369,-0.021015161502965035,0.878984838497035,-0.1394924192485175
6.783441001977588,-0.006470905495294971,0.8935290945047051,-0.14676454725235252
6.791440342781807,0.008073350512376704,0.9080733505123767,-0.15403667525618836
6.799439683586026,0.022617606520046754,0.9226176065200468,-0.1613088032600234
6.807439024390244,0.037161862527716805,0.9371618625277168,-0.16858093126385842
6.815438365194463,0.05170611853538848,0.9517061185353886,-0.17585305926769423
6.823437705998682,0.06625037454305854,0.9662503745430586,-0.18312518727152927
6.831437046802901,0.08079463055073022,0.9807946305507302,-0.19039731527536513
6.83943638760712,0.09533888655840028,0.9953388865584003,-0.19766944327920016
6.847435728411338,-0.6089321028344812,1.2871456822675849,-0.5782135794331037
6.855435069215558,-0.9919561634805532,1.6482630191166812,-0.4839123269611063
6.863434410019776,-0.98195698747528,1.7082580751483198,-0.46391397495056014
6.8714337508239955,-0.9719578114700058,1.7682531311799652,-0.4439156229400117
6.879433091628214,-0.9619586354647327,1.8282481872116036,-0.42391727092946546
6.8874324324324325,-0.9519594594594596,1.8882432432432423,-0.4039189189189193
6.895431773236652,-0.9419602834541855,1.9482382992748877,-0.38392056690837084
6.90343111404087,-0.9319611074489124,2.008233355306526,-0.3639222148978246
6.91143045484509,-0.9219619314436381,2.0682284113381715,-0.34392386288727617
6.919429795649308,-0.911962755438365,2.12822346736981,-0.32392551087673
6.927429136453528,-0.9019635794330908,2.1882185234014555,-0.30392715886618155
6.935428477257746,-1.9999340804222925,3.257119314436533,-0.1571522742253868
6.943427818061965,-2.4,3.4079869011418973,-0.1
6.951427158866184,-2.4,3.4165883428668646,-0.1
6.9594264996704025,-2.4,3.4251897845918307,-0.1
6.967425840474622,-2.4,3.4337912263167976,-0.1
6.97542518127884,-2.4,3.442392668041764,-0.1
6.983424522083059,-2.4,3.45099410976673,-0.1
6.991423862887278,-2.4,3.459595551491697,-0.1
6.999423203691497,-2.4,3.4681969932166634,-0.1
7.007422544495716,-2.4,3.4767984349416303,-0.1
7.015421885299935,-2.4,3.4853998766665963,-0.1
7.023421226104153,-2.4,3.4940013183915624,-0.1
7.0314205669083725,-1.06868820039505,3.7420566908372637,0.021028345418631827
7.039419907712591,2.519336409580299,-0.1893061179646688,-2.265429889820128
7.04741924851681,2.2526917161063214,-0.48451988573942983,-2.151153592616995
7.055418589321029,1.9860470226323734,-0.779733653514158,-2.0368772954138743
7.063417930125247,1.7194023291584255,-1.0749474212888863,-1.9226009982107537
7.071417270929467,1.4527576356844478,-1.3701611890636474,-1.8083247010076204
7.079416611733685,1.1861129422104997,-1.6653749568383756,-1.6940484038044998
7.087415952537905,0.919468248736522,-1.9605887246131364,-1.5797721066013666
7.095415293342123,0.6528235552625739,-2.255802492387865,-1.465495809398246
7.1034146341463416,0.3861788617886259,-2.551016260162593,-1.3512195121951254
7.111413974950561,0.11953416831464825,-2.846230027937354,-1.2369432149919921
7.119413315754779,-0.14711052515930012,-3.141443795712082,-1.1226669177888715
7.127412656558999,-1.8489688294567992,-1.3678124117146675,0.36575007062826614
7.135411997363217,1.6439636976222247,-0.23410905362125453,0.30243636097294674
7.143411338167437,1.458120426413088,-0.34723104479203337,0.31051650319943097
7.151410678971655,1.272277155203972,-0.46035303596279975,0.31859664542591426
7.159410019775874,1.086433883994856,-0.573475027133566,0.32667678765239755
7.167409360580093,0.9005906127857192,-0.6865970183043449,0.3347569298788818
7.1754087013843115,0.7147473415766031,-0.7997190094751112,0.34283707210536507
7.183408042188531,0.5289040703674663,-0.91284100064589,0.3509172143318493
7.191407382992749,0.3430607991583503,-1.0259629918166564,0.3589973565583326
7.199406723796968,0.15721752794923427,-1.1390849829874228,0.36707749878481594
7.207406064601187,-0.028625743259902414,-1.2522069741582016,0.3751576410113001
7.215405405405406,-0.21446901446901845,-1.365328965328968,0.38323778323778346
7.223404746209625,-0.40031228567815513,-1.4784509564997468,0.39131792546426764
7.231404087013844,-0.586155556887271,-1.5915729476705132,0.3993980676907509
7.239403427818062,-0.3996191313264523,-0.9600380868673548,0.3198857393979357
7.2474027686222815,0.5,-1.6,-0.1
7.2554021094265,0.5,-1.6,-0.1
7.263401450230719,0.5382176133177294,-1.5904455966705677,-0.08089119334113529
7.271400791034938,0.585974871850377,-1.5785062820374058,-0.05701256407481149
7.279400131839156,0.6337321303830246,-1.566566967404244,-0.0331339348084877
7.287399472643376,0.6814893889156775,-1.5546276527710807,-0.009255305542161252
7.295398813447594,0.7292466474483251,-1.5426883381379188,0.014623323724162543
7.303398154251814,0.777003905980978,-1.5307490235047556,0.038501952990489
7.311397495056032,0.8247611645136256,-1.5188097088715937,0.06238058225681278
7.3193968358602515,0.8725184230462785,-1.5068703942384305,0.08625921152313923
7.32739617666447,1.3825477916941207,-1.9349044166117584,0.21745220830587922
7.3353955174686885,0.7406723796967202,-1.9802241265655733,0.43955174686885323
7.343394858272908,0.5,-1.893123808308701,0.606876191691299
7.351394199077126,0.5,-1.8845223665837347,0.6154776334162652
7.359393539881346,0.5,-1.8759209248587678,0.6240790751412322
7.367392880685564,0.5,-1.8673194831338016,0.6326805168661983
7.375392221489783,0.5,-1.8587180414088356,0.6412819585911644
7.383391562294002,0.5,-1.8501165996838684,0.6498834003161316
7.3913909030982206,0.5,-1.8415151579589024,0.6584848420410976
7.39939024390244,0.5,-1.8329137162339353,0.6670862837660647
7.407389584706658,0.5,-1.8243122745089693,0.6756877254910308
7.415388925510877,0.5,-1.815710832784003,0.684289167215997
7.423388266315096,0.5,-1.807109391059036,0.692890608940964
7.431387607119315,0.6387607119314607,-1.8,0.7693803559657304
7.439386947923534,0.3917691450912624,-2.0972563816970875,0.49725638169708747
7.447386288727753,0.3641852112836124,-2.0880617370945376,0.4880617370945375
7.455385629531971,0.33660127747596236,-2.0788670924919876,0.47886709249198744
7.4633849703361905,0.30901734366830924,-2.0696724478894364,0.4696724478894364
7.471384311140409,0.2814334098606592,-2.0604778032868865,0.4604778032868864
7.479383651944628,0.25384947605300606,-2.051283158684335,0.4512831586843354
7.487382992748847,0.226265542245356,-2.0420885140817853,0.44208851408178534
7.495382333553065,0.19868160843770596,-2.0328938694792353,0.43289386947923536
7.503381674357285,0.17109767463005285,-2.023699224876684,0.4236992248766843
7.511381015161503,0.1435137408224028,-2.014504580274134,0.4145045802741343
7.519380355965723,0.1159298070147497,-2.0053099356715833,0.40530993567158324
7.527379696769941,0.03966161283235045,-1.2413535486705982,0.5
7.5353790375741605,0.5989170355023989,-0.5996390118341329,0.199639011834133
7.543378378378379,0.5760617760617746,-0.5920205920205915,0.19202059202059155
7.5513777191825975,0.5532065166211503,-0.58440217220705,0.1844021722070501
7.559377059986817,0.5303512571805233,-0.5767837523935078,0.1767837523935078
7.567376400791035,0.507495997739899,-0.5691653325799663,0.16916533257996635
7.575375741595255,0.48464073829927207,-0.561546912766424,0.16154691276642405
7.583375082399473,0.46178547885864774,-0.5539284929528826,0.15392849295288258
7.591374423203692,0.43893021941802335,-0.5463100731393411,0.14631007313934113
7.599373764007911,0.41607495997739646,-0.5386916533257988,0.13869165332579883
7.60737310481213,0.39321970053677213,-0.5310732335122573,0.13107323351225736
7.615372445616349,0.3703644410961452,-0.523454813698715,0.12345481369871508
7.6233717864205675,0.34750918165552086,-0.5158363938851737,0.11583639388517362
7.631371127224786,0.3246539222148965,-0.5082179740716322,0.10821797407163217
7.639370468029005,0.3017986627742696,-0.5005995542580899,0.10059955425808986
7.647369808833224,-0.3563019116677589,0.27479235332896457,-0.1
7.655369149637443,0.10102541565956374,0.9010254156595637,-0.10051270782978187
7.663368490441662,0.12324580678239286,0.9232458067823929,-0.11162290339119643
7.67136783124588,0.14546619790522197,0.945466197905222,-0.122733098952611
7.6793671720500996,0.16768658902805356,0.9676865890280536,-0.1338432945140268
7.687366512854318,0.1899069801508827,0.9899069801508827,-0.14495349007544134
7.695365853658537,0.21212737127371428,1.0121273712737144,-0.15606368563685716
7.703365194462756,0.2343477623965434,1.0343477623965436,-0.1671738811982717
7.711364535266975,0.256568153519375,1.0565681535193752,-0.1782840767596875
7.719363876071194,0.2787885446422041,1.078788544642204,-0.18939427232110206
7.727363216875412,0.28183915622939976,1.1181608437706003,-0.21816084377060024
7.735362557679632,-0.9406394199079553,1.536255767963182,-0.5
7.74336189848385,-1.1320082542776102,1.6320082542776102,-0.5
7.7513612392880695,-1.1667879969046508,1.6667879969046508,-0.5
7.759360580092288,-1.2015677395316875,1.7015677395316875,-0.5
7.7673599208965065,-1.2363474821587244,1.7363474821587244,-0.5
7.775359261700726,-1.2711272247857648,1.7711272247857648,-0.5
7.783358602504944,-1.3059069674128014,1.8059069674128014,-0.5
7.791357943309164,-1.340686710039842,1.840686710039842,-0.5
7.799357284113382,-1.3754664526668787,1.8754664526668787,-0.5
7.807356624917601,-1.4102461952939156,1.9102461952939156,-0.5
7.81535596572182,-1.445025937920956,1.945025937920956,-0.5
7.823355306526039,-1.4798056805479929,1.9798056805479929,-0.5
7.831354647330258,-1.3306690837177415,2.635464733025807,-0.5
7.8393539881344765,-0.9191151266043728,3.003185854434062,-0.39522121834890683
7.847353328938695,-1.032046996781575,3.022007832796929,-0.3669882508046063
7.855352669742914,-1.14497886695879,3.0408298111597984,-0.3387552832603026
7.863352010547133,-1.257910737135992,3.0596517895226656,-0.310522315716002
7.871351351351352,-1.370842607313207,3.0784737678855345,-0.28228934817169826
7.879350692155571,-1.4837744774904094,3.0972957462484016,-0.25405638062739766
7.887350032959789,-1.5967063476676118,3.116117724611269,-0.2258234130830971
7.895349373764009,-1.7096382178448266,3.1349397029741377,-0.1975904455387934
7.903348714568227,-1.8225700880220288,3.153761681337005,-0.16935747799449283
7.9113480553724465,-1.9355019581992434,3.172583659699874,-0.14112451045018914
7.919347396176665,-2.048433828376446,3.191405638062741,-0.11289154290588854
7.927346736980884,-0.2879367172041165,3.4020105471326474,-0.8733684904421575
7.935346077785103,0.5382511714087425,3.096296626224075,-1.2661808809468729
7.943345418589321,0.7976892515455589,2.6566932126589142,-1.3382470143182108
7.951344759393541,1.0571273316824041,2.2170897990937037,-1.4103131476895567
7.959344100197759,1.3165654118192207,1.7774863855285428,-1.4823792810608947
7.9673434410019786,1.576003491956066,1.3378829719633325,-1.5544454144322406
7.975342781806197,1.8354415720928825,0.8982795583981713,-1.6265115478035785
7.9833421226104155,2.094879652229699,0.4586761448330101,-1.6985776811749165
7.991341463414635,2.354317732366544,0.01907273126780007,-1.7706438145462624
7.999340804218853,2.6137558125033604,-0.4205306822973611,-1.8427099479176003
8.007340145023072,2.873193892640177,-0.8601340958625228,-1.9147760812889383
8.015339485827292,3.132631972777051,-1.2997375094277812,-1.9868422146602922
8.02333882663151,3.3920700529138674,-1.7393409229929429,-2.05890834803163
8.03133816743573,3.651508133050684,-2.1789443365581036,-2.1309744814029683
8.039337508239948,3.1237310481200047,-2.7350032959791295,-1.8793671720495673
8.047336849044166,0.5528675016481588,0.8119314436388978,0.13263019116665908
8.055336189848386,1.4694585177511743,1.2847292588755872,0.7019088426405515
8.063335530652605,1.286616442226181,1.1933082211130905,0.7133364723608636
8.071334871456823,1.1037743667011877,1.1018871833505939,0.7247641020811757
8.079334212261042,0.9209322911761944,1.0104661455880972,0.7361917318014879
8.08733355306526,0.738090215651201,0.9190451078256006,0.7476193615218
8.09533289386948,0.5552481401261671,0.8276240700630836,0.7590469912421146
8.1033322346737,0.37240606460117376,0.7362030323005869,0.7704746209624267
8.111331575477918,0.18956398907618044,0.6447819945380903,0.7819022506827388
8.119330916282136,0.006721913551186898,0.5533609567755935,0.7933298804030509
8.127330257086355,0.09907712590641066,-0.13256427158867562,0.6669742913645298
8.135329597890575,0.394506701823749,-1.521973192705004,0.494506701823749
8.143328938694793,0.29630327191302647,-1.907393456173947,0.4
8.151328279499012,0.2836059055571242,-1.9327881888857514,0.4
8.15932762030323,0.270908539201222,-1.958182921597556,0.4
8.167326961107449,0.25821117284531975,-1.9835776543093604,0.4
8.175326301911669,0.2455138064894147,-2.0089723870211706,0.4
8.183325642715888,0.23281644013351244,-2.034367119732975,0.4
8.191324983520106,0.2201190737776102,-2.0597618524447796,0.4
8.199324324324325,0.20742170742170796,-2.085156585156584,0.4
8.207323665128543,0.7323665128542304,-2.089211162381923,0.6
8.215323005932763,1.097501499298674,-1.804997001402652,0.7
8.223322346736982,1.0914869573406152,-1.8170260853187699,0.7
8.2313216875412,1.0854724153825561,-1.829055169234888,0.7
8.239321028345419,1.079457873424497,-1.8410842531510059,0.7
8.247320369149637,1.0734433314664382,-1.8531133370671238,0.7
8.255319709953858,1.0674287895083778,-1.8651424209832443,0.7
8.263319050758076,1.061414247550319,-1.8771715048993625,0.7
8.271318391562295,1.05539970559226,-1.8892005888154804,0.7
8.279317732366513,1.0493851636342009,-1.9012296727315983,0.7
8.287317073170732,1.043370621676142,-1.9132587566477162,0.7
8.295316413974952,1.0373560797180816,-1.9252878405638367,0.7
8.30331575477917,1.0313415377600226,-1.9373169244799548,0.7
8.311315095583389,1.0253269958019637,-1.9493460083960727,0.7
8.319314436387607,1.0193124538439047,-1.9613750923121906,0.7
8.327313777191826,1.0132979118858456,-1.9734041762283085,0.7
8.335313117996046,1.0072833699277854,-1.9854332601444291,0.7
8.343312458800265,1.0012688279697264,-1.9974623440605472,0.7
8.351311799604483,0.21254669303444634,-2.4437266534827766,0.5281366732586116
8.359311140408701,0.10463563484806566,-2.3814574606077374,0.4
8.36731048121292,0.1132370765730318,-2.347051693707873,0.4
8.37530982201714,0.12183851829799983,-2.312645926808001,0.4
8.383309162821359,0.13043996002296596,-2.2782401599081363,0.4
8.391308503625577,0.13904140174793206,-2.243834393008272,0.4
8.399307844429796,0.1476428434728982,-2.2094286261084073,0.4
8.407307185234016,0.1562442851978662,-2.175022859208535,0.4
8.415306526038234,0.16484572692283234,-2.1406170923086707,0.4
8.423305866842453,0.17344716864779847,-2.106211325408806,0.4
8.431305207646671,0.1820486103727646,-2.0718055585089417,0.4
8.43930454845089,0.19065005209773073,-2.037399791609077,0.4
8.44730388925511,0.19925149382269874,-2.002994024709205,0.4
8.455303230059329,0.7217594534667545,-1.8,0.36087972673337726
8.463302570863547,0.15461437046781323,-1.469742913645209,0.2848714568226044
8.471301911667766,-0.2849055730955604,-0.8547167192866814,-0.007547213452219778
8.479301252471984,-0.2568377106246177,-0.7705131318738531,-0.021581144687691158
8.487300593276204,-0.2287698481536687,-0.6863095444610061,-0.03561507592316566
8.495299934080423,-0.20070198568272593,-0.6021059570481777,-0.049649007158637036
8.503299274884641,-0.17263412321178317,-0.5179023696353495,-0.06368293839410842
8.51129861568886,-0.14456626074084042,-0.43369878222252123,-0.0777168696295798
8.519297956493078,-0.11649839826989766,-0.34949519480969293,-0.09175080086505118
8.527297297297299,0.014864864864966885,0.32972972972993375,-0.22972972972993377
8.535296638101517,0.09363975949341692,0.5190807215197493,-0.4063602405065831
8.543295978905736,0.08555961726693362,0.5433211481991992,-0.4144403827330664
8.551295319709954,0.0774794750404503,0.5675615748786491,-0.4225205249595497
8.559294660514173,0.069399332813967,0.591802001558099,-0.430600667186033
8.567294001318393,0.0613191905874819,0.6160424282375543,-0.43868080941251814
8.575293342122611,0.05323904836099859,0.6402828549170043,-0.4467609516390014
8.58329268292683,0.04515890613451528,0.6645232815964541,-0.4548410938654847
8.591292023731048,0.03707876390803197,0.6887637082759042,-0.46292123609196806
8.599291364535267,0.028998621681548667,0.713004134955354,-0.47100137831845135
8.607290705339487,0.02091847945506356,0.7372445616348093,-0.47908152054493647
8.615290046143706,0.012838337228580243,0.7614849883142593,-0.48716166277141976
8.623289386947924,0.0047581950020969405,0.7857254149937092,-0.49524180499790305
8.631288727752143,-0.41443638760712764,1.3577455504285105,-0.6144363876071276
8.639288068556361,-0.3924104981303339,1.907589501869666,-0.703794750934833
8.647287409360581,-0.37825237281312984,1.92174762718687,-0.710873813593435
8.6552867501648,-0.36409424749592895,1.935905752504071,-0.7179528762520355
8.663286090969018,-0.349936122178728,1.950063877821272,-0.725031938910636
8.671285431773237,-0.3357779968615271,1.964222003138473,-0.7321110015692365
8.679284772577455,-0.32161987154432614,1.978380128455674,-0.739190064227837
8.687284113381676,-0.3074617462271221,1.992538253772878,-0.746269126886439
8.695283454185894,-0.2933036209099211,2.0066963790900787,-0.7533481895450395
8.703282794990113,-0.2791454955927202,2.02085450440728,-0.7604272522036399
8.711282135794331,-0.26498737027551933,2.0350126297244806,-0.7675063148622404
8.71928147659855,-0.2508292449583184,2.049170755041682,-0.7745853775208409
8.72728081740277,-0.2366711196411143,2.0633288803588856,-0.7816644401794429
8.735280158206988,-0.2225129943239134,2.077487005676087,-0.7887435028380434
8.743279499011207,-0.20835486900671246,2.0916451309932875,-0.7958225654966438
8.751278839815425,-0.8197099538562218,2.591825972313733,-0.7360580092287556
8.759278180619644,-1.5141038921526695,3.3,-0.5
8.767277521423864,-1.5404753453533957,3.3,-0.5
8.775276862228083,-1.5668467985541163,3.3,-0.5
8.783276203032301,-1.5932182517548368,3.3,-0.5
8.79127554383652,-1.6195897049555572,3.3,-0.5
8.79927488464074,-1.6459611581562836,3.3,-0.5
8.807274225444958,-1.672332611357004,3.3,-0.5
8.815273566249177,-1.6987040645577247,3.3,-0.5
8.823272907053395,-1.7250755177584451,3.3,-0.5
8.831272247857614,-1.7514469709591656,3.3,-0.5
8.839271588661834,-1.777818424159892,3.3,-0.5
8.847270929466053,-1.8381278839815745,3.3762557679631486,-0.47458141067895043
8.855270270270271,-2.0781081081081343,3.8562162162162683,-0.3145945945945772
8.86326961107449,-0.011233794770415436,-3.985620742693868,-0.7932597231377507
8.871268951878708,-0.3445396616128498,-3.558989233135552,-0.5932762030322901
8.879268292682928,-0.6778455284553582,-3.1323577235771416,-0.3932926829267851
8.887267633487147,-1.0111513952977926,-2.705726214018825,-0.1933091628213245
8.895266974291365,-1.3444572621402269,-2.279094704460509,0.006674357284136123
8.903266315095584,-1.6777631289826613,-1.8524631949021932,0.20665787738959684
8.911265655899802,-2.0110689958250956,-1.4258316853438773,0.40664139749505734
8.919264996704023,-2.344374862667604,-0.9992001757854667,0.6066249176005625
8.927264337508241,1.3253131179956426,0.6724456163475585,0.4321687541202102
8.93526367831246,0.6158942511188986,-0.18410574888110134,0.7923540228289908
8.943263019116678,0.5232703049647887,-0.2767296950352113,0.7839336640877081
8.951262359920896,0.4306463588106787,-0.36935364118932124,0.7755133053464254
8.959261700725117,0.33802241265654814,-0.46197758734345173,0.7670929466051407
8.967261041529335,0.24539846650243824,-0.5546015334975617,0.758672587863858
8.975260382333554,0.15277452034832828,-0.6472254796516715,0.7502522291225753
8.983259723137772,0.06015057419421832,-0.7398494258057815,0.7418318703812926
8.99125906394199,-0.03247337195989164,-0.8324733719598915,0.7334115116400098
8.999258404746211,-0.12509731811402214,-0.925097318114022,0.7249911528987253
9.00725774555043,-0.2177212642681321,-1.017721264268132,0.7165707941574425
9.015257086354648,-0.31034521042224217,-1.110345210422242,0.7081504354161597
9.023256427158866,-0.3487145682266658,-1.1871786420566663,0.7384640738300006
9.031255767963085,0.10479950630443624,-1.6,0.5976002468477819
9.039255108767305,0.12181938035596884,-1.6,0.5890903098220156
9.047254449571524,0.13883925440749764,-1.6,0.5805803727962512
9.055253790375742,0.15585912845902644,-1.6,0.5720704357704868
9.06325313117996,0.17287900251055527,-1.6,0.5635604987447224
9.07125247198418,0.18989887656208407,-1.6,0.555050561718958
9.0792518127884,0.20691875061361664,-1.6,0.5465406246931916
9.087251153592618,0.22393862466514547,-1.6,0.5380306876674272
9.095250494396836,0.24095849871667427,-1.6,0.5295207506416628
9.103249835201055,0.25797837276820307,-1.6,0.5210108136158984
9.111249176005273,0.27499824681973184,-1.6,0.512500876590134
9.119248516809494,0.29201812087126444,-1.6,0.5039909395643678
9.127247857613712,0.6752142386287706,-2.0871786420568443,0.4
9.13524719841793,0.27894202780472677,-2.2859613518698176,0.4070193240650911
9.14324653922215,0.2519779576781477,-2.267985305118765,0.41600734744061746
9.151245880026368,0.22501388755156865,-2.2500092583677125,0.4249953708161438
9.159245220830588,0.1980498174249836,-2.2320332116166557,0.43398339419167214
9.167244561634806,0.17108574729840453,-2.214057164865603,0.4429714175671985
9.175243902439025,0.14412167717182547,-2.19608111811455,0.45195944094272483
9.183243243243243,0.11715760704524641,-2.1781050713634977,0.4609474643182512
9.191242584047464,0.09019353691866139,-2.160129024612441,0.4699354876937796
9.199241924851682,0.06322946679208233,-2.142152977861388,0.47892351106930586
9.2072412656559,0.03626539666550327,-2.124176931110336,0.48791153444483226
9.215240606460119,0.009301326538924182,-2.106200884359283,0.4968995578203586
9.223239947264338,0.8239947264336982,-2.1479894528673964,0.4760052735663019
9.231239288068558,0.8695187870797574,-2.2847593935398787,0.4
9.239238628872776,0.8358373521146272,-2.2679186760573136,0.4
9.247237969676995,0.8021559171494969,-2.2510779585747485,0.4
9.255237310481213,0.7684744821843665,-2.2342372410921834,0.4
9.263236651285432,0.7347930472192363,-2.2173965236096183,0.4
9.271235992089652,0.7011116122540986,-2.200555806127049,0.4
9.27923533289387,0.6674301772889684,-2.183715088644484,0.4
9.287234673698089,0.633748742323838,-2.166874371161919,0.4
9.295234014502308,0.6000673073587077,-2.150033653679354,0.4
9.303233355306526,0.5663858723935775,-2.1331929361967887,0.4
9.311232696110746,0.5327044374284398,-2.11635221871422,0.4
9.319232036914965,0.4535926170071774,-2.0535926170071774,0.4116018457482057
9.327231377719183,0.11006034176766172,-1.5748491455808458,0.29496982911616915
9.335230718523402,0.12544368946808174,-1.5363907763297957,0.2872781552659591
9.34323005932762,0.14082703716850176,-1.4979324070787456,0.2795864814157491
9.35122940013184,0.15621038486892522,-1.4594740378276871,0.2718948075655374
9.359228740936059,0.17159373256934524,-1.4210156685766369,0.2642031337153274
9.367228081740278,0.18697708026976528,-1.3825572993255868,0.25651145986511736
9.375227422544496,0.2023604279701853,-1.3440989300745367,0.24881978601490734
9.383226763348715,0.21774377567060532,-1.3056405608234867,0.24112811216469734
9.391226104152935,0.23312712337102878,-1.2671821915724282,0.23343643831448563
9.399225444957153,0.2485104710714488,-1.2287238223213781,0.2257447644642756
9.407224785761372,0.2638938187718688,-1.190265453070328,0.21805309061406558
9.41522412656559,0.27927716647228884,-1.151807083819278,0.21036141676385556
9.423223467369809,0.2946605141727089,-1.113348714568228,0.20266974291364556
9.431222808174029,0.3,-0.6355438365194231,0.07108767303884628
9.439222148978248,0.4,-0.019050758075119245,0.06031641397496025
9.447221489782466,0.40366078384371046,0.5109823515311314,0.31098235153113135
9.455220830586684,0.4127509438485043,0.5382528315455128,0.33825283154551283
9.463220171390903,0.4218411038532981,0.5655233115598943,0.36552331155989426
9.471219512195123,0.43093126385809394,0.5927937915742818,0.3927937915742818
9.479218852999342,0.4400214238628878,0.6200642715886633,0.4200642715886633
9.48721819380356,0.44911158386768163,0.6473347516030448,0.44733475160304476
9.495217534607779,0.4582017438724754,0.6746052316174262,0.4746052316174262
9.503216875411997,0.46729190387726927,0.7018757116318077,0.5018757116318077
9.511216216216217,0.4763820638820651,0.7291461916461953,0.5291461916461953
9.519215557020436,0.4854722238868589,0.7564166716605767,0.5564166716605767
9.527214897824654,0.49456238389165275,0.7836871516749582,0.5836871516749582
9.535214238628873,0.5,0.9377530840945608,0.7377530840945608
9.543213579433091,1.4247528015819315,0.8179630850363151,1.2393210283454383
9.551212920237312,2.180861349154064,0.780143558192344,1.2
9.55921226104153,2.308509946632232,0.8085099466322322,1.2085099466322322
9.567211601845749,2.3194679477339015,0.8194679477339016,1.2194679477339014
9.575210942649967,2.330425948835571,0.830425948835571,1.2304259488355709
9.583210283454187,2.3413839499372426,0.8413839499372427,1.2413839499372428
9.591209624258406,2.352341951038912,0.8523419510389122,1.2523419510389122
9.599208965062624,2.3632999521405815,0.8632999521405815,1.2632999521405814
9.607208305866843,2.3742579532422505,0.8742579532422509,1.2742579532422509
9.615207646671061,2.38521595434392,0.8852159543439203,1.2852159543439203
9.623206987475282,2.396173955445592,0.8961739554455921,1.296173955445592
9.6312063282795,1.8002218583650538,1.2,1.5997781416349464
9.639205669083719,1.8088233000900198,1.2,1.5911766999099803
9.647205009887937,1.817424741814986,1.2,1.582575258185014
9.655204350692156,1.826026183539952,1.2,1.573973816460048
9.663203691496376,1.83462762526492,1.2,1.5653723747350798
9.671203032300594,1.8432290669898863,1.2,1.5567709330101138
9.679202373104813,1.8518305087148523,1.2,1.5481694912851476
9.687201713909031,1.8604319504398183,1.2,1.5395680495601816
9.69520105471325,1.8690333921647846,1.2,1.5309666078352153
9.70320039551747,1.8776348338897526,1.2,1.5223651661102473
9.711199736321689,1.8862362756147186,1.2,1.5137637243852813
9.719199077125907,1.8948377173396849,1.2,1.505162282660315
9.727198417930126,1.9,1.679762689518814,1.2801582069874573
9.735197758734344,0.9086551726481326,1.8913448273518674,1.0870172410278014
9.743197099538564,0.9251486588424012,1.8748513411575987,1.0622770117363982
9.751196440342783,0.9416421450366662,1.8583578549633337,1.0375367824450008
9.759195781147001,0.9581356312309313,1.8418643687690688,1.0127965531536032
9.76719512195122,0.9746291174251962,1.8253708825748036,0.9880563238622058
9.775194462755438,0.9911226036194613,1.8088773963805387,0.9633160945708082
9.783193803559659,1.0076160898137299,1.79238391018627,0.9385758652794052
9.791193144363877,1.024109576007995,1.775890423992005,0.9138356359880078
9.799192485168096,1.04060306220226,1.75939693779774,0.8890954066966101
9.807191825972314,1.057096548396525,1.742903451603475,0.8643551774052127
9.815191166776533,1.07359003459079,1.72640996540921,0.8396149481138151
9.823190507580753,1.0900835207850588,1.7099164792149413,0.8148747188224121
9.831189848384971,3.0,2.3379696769943523,0.5284772577457642
9.83918918918919,1.7407278565694109,2.576692534118254,1.141102488627249
9.847188529993408,1.4952035348557762,2.3866091882754397,1.2044636039081869
9.855187870797627,1.2496792131421415,2.1965258424326257,1.2678247191891248
9.863187211601847,1.0041548914284522,2.0064424965897696,1.3311858344700769
9.871186552406066,0.7586305697148175,1.8163591507469556,1.3945469497510148
9.879185893210284,0.5131062480011828,1.6262758049041415,1.457908065031953
9.887185234014503,0.26758192628754807,1.4361924590613273,1.5212691803128908
9.895184574818721,0.02205760457391337,1.2461091132185134,1.5846302955938287
9.903183915622941,-0.22346671713977573,1.0560257673756572,1.6479914108747808
9.91118325642716,-0.46899103885341065,0.8659424215328431,1.7113525261557188
9.919182597231378,-0.7145153605670451,0.6758590756900289,1.7747136414366569
9.927181938035597,-0.96003968228068,0.48577572984721495,1.838074756717595
9.935181278839815,-1.3087673038889283,0.1459129861573514,1.5736980883332148
9.943180619644036,-0.6547132498349446,-1.0409690177981945,-0.3272247857614444
9.951179960448254,0.33570932935507763,-0.6767113069423406,-0.5922371023141135
9.959179301252473,0.5777946431669514,-0.5188295805432925,-0.5396098601810975
9.967178642056691,0.8198799569788251,-0.3609478541442444,-0.48698261804808146
9.975177982860911,1.0619652707907528,-0.20306612774516125,-0.43435537591505374
9.98317732366513,1.3040505846026267,-0.04518440134611312,-0.38172813378203774
9.991176664469348,1.5461358984145004,0.11269732505293495,-0.3291008916490217
9.999176005273567,1.7882212122263743,0.27057905145198313,-0.2764736495160056
10.007175346077785,2.030306526038248,0.4284607778510312,-0.2238464073829896
10.015174686882006,2.2723918398501755,0.5863425042501145,-0.1712191652499619
10.023174027686224,2.514477153662049,0.7442242306491624,-0.11859192311694583
10.031173368490442,1.2149241924849241,0.36613052076459196,-0.06693473961770399
10.039172709294661,0.20917078965859534,-0.21375618448789302,0.10917078965859535
10.04717205009888,0.2267517584590757,-0.24012763768861353,0.1267517584590757
10.0551713909031,0.24433272725955993,-0.2664990908893399,0.14433272725955992
10.063170731707318,0.2619136960600403,-0.2928705440900604,0.16191369606004025
10.071170072511537,0.2794946648605206,-0.3192419972907809,0.17949466486052057
10.079169413315755,0.2970756336610009,-0.3456134504915014,0.19707563366100092
10.087168754119974,0.3146566024614813,-0.3719849036922219,0.21465660246148124
10.095168094924194,0.3322375712619655,-0.39835635689294824,0.23223757126196548
10.103167435728412,0.34981854006244584,-0.4247278100936688,0.2498185400624458
10.111166776532631,0.36739950886292616,-0.45109926329438926,0.2673995088629262
10.11916611733685,0.38498047766340654,-0.47747071649510975,0.2849804776634065
10.127165458141068,0.4,-0.44172709294659457,0.1834541858931891
10.135164798945288,1.2665919578115525,-0.21670402109422376,-0.29977587343465756
10.143164139749507,1.3411732169511916,-0.17529606982928503,-0.4
10.151163480553725,1.3871464399639408,-0.14771213602163552,-0.4
10.159162821357944,1.43311966297669,-0.12012820221398604,-0.4
10.167162162162162,1.4790928859894392,-0.09254426840633655,-0.4
10.175161502966382,1.5250661090021984,-0.06496033459868095,-0.4
10.183160843770601,1.5710393320149476,-0.03737640079103144,-0.4
10.19116018457482,1.6170125550276968,-0.009792466983381959,-0.4
10.199159525379038,1.6629857780404458,0.01779146682426755,-0.4
10.207158866183256,1.708959001053195,0.04537540063191703,-0.4
10.215158206987477,1.7549322240659544,0.07295933443957264,-0.4
10.223157547791695,1.9575477916944997,0.13150955833889993,-0.36849044166110007
10.231156888595914,0.07558239325379904,-0.1979651994378166,0.2
10.239156229400132,-0.014976181888295692,-0.1904186515093087,0.2
10.24715557020435,-0.10553475703039042,-0.1828721035808008,0.2
10.255154911008571,-0.19609333217250527,-0.17532555565229124,0.2
10.26315425181279,-0.2866519073146,-0.16777900772378335,0.2
10.271153592617008,-0.37721048245669475,-0.16023245979527545,0.2
10.279152933421226,-0.4677690575987895,-0.15268591186676755,0.2
10.287152274225445,-0.5583276327408841,-0.14513936393825966,0.2
10.295151615029665,-0.648886207882999,-0.1375928160097501,0.2
10.303150955833884,-0.7394447830250938,-0.1300462680812422,0.2
10.311150296638102,-0.8300033581671885,-0.12249972015273432,0.2
10.31914963744232,-0.9205619333092833,-0.11495317222422642,0.2
10.327148978246539,-1.011120508451378,-0.10740662429571853,0.2
10.33514831905076,-1.0925840474620723,-0.09752801582069076,0.19505603164138152
10.343147659854978,0.4073829927488946,0.10147659854977892,0.2
10.351147000659196,0.8073500329598277,0.18147000659196555,0.2
10.359146341463415,0.6782548952250048,0.29275163174166824,0.1
10.367145682267635,0.6444548636578776,0.2814849545526259,0.1
10.375145023071854,0.610654832090758,0.270218277363586,0.1
10.383144363876072,0.5768548005236382,0.2589516001745461,0.1
10.39114370468029,0.5430547689565186,0.2476849229855062,0.1
10.399143045484509,0.509254737389399,0.2364182457964663,0.1
10.40714238628873,0.4754547058222718,0.22515156860742394,0.1
10.415141727092948,0.44165467425515215,0.21388489141838407,0.1
10.423141067897166,0.4078546426880325,0.20261821422934417,0.1
10.431140408701385,0.3006950925811171,-0.09986098148377659,-0.00013901851622341715
10.439139749505603,0.3402957896317033,-0.09194084207365934,-0.008059157926340668
10.447139090309824,0.37989648668229836,-0.08402070266354034,-0.015979297336459676
10.455138431114042,0.4194971837328846,-0.07610056325342307,-0.02389943674657693
10.46313777191826,0.45909788078347086,-0.06818042384330583,-0.031819576156694174
10.471137112722479,0.49869857783405713,-0.06026028443318858,-0.039739715566811426
10.479136453526698,0.5382992748846434,-0.05234014502307133,-0.04765985497692868
10.487135794330918,0.5778999719352385,-0.04442000561295232,-0.055579994387047686
10.495135135135136,0.6175006689858247,-0.036499866202835074,-0.06350013379716493
10.503134475939355,0.6571013660364109,-0.02857972679271782,-0.07142027320728218
10.511133816743573,0.6967020630869971,-0.02065958738260057,-0.07934041261739944
10.519133157547792,0.7363027601375833,-0.012739447972483317,-0.08726055202751669
10.527132498352012,0.7759034571881784,-0.004819308562364302,-0.0951806914376357
10.53513183915623,2.309327620303706,0.5131839156230458,-0.14340804218847714
10.543131179960449,1.54241508118713,0.5856037702967825,-0.19640094257419563
10.551130520764668,1.3953007675463327,0.5488251918865832,-0.18720629797164579
10.559129861568886,1.2481864539055354,0.5120466134763838,-0.17801165336909597
10.567129202373106,1.1010721402647055,0.4752680350661763,-0.1688170087665441
10.575128543177325,0.9539578266239082,0.43848945665597705,-0.15962236416399428
10.583127883981543,0.8068435129831109,0.4017108782457777,-0.15042771956144443
10.591127224785762,0.6597291993423137,0.3649322998355784,-0.14123307495889462
10.59912656558998,0.5126148857015165,0.3281537214253791,-0.13203843035634477
10.6071259063942,0.36550057206068653,0.29137514301517164,-0.12284378575379291
10.615125247198419,0.21838625841988923,0.2545965646049723,-0.11364914115124308
10.623124588002637,0.07127194477909193,0.217817986194773,-0.10445449654869325
10.631123928806856,-1.278098220171405,-0.19049110085702525,0.0
10.639123269611074,0.2059490849734766,-0.1970254575132617,0.1
10.647122610415295,0.22118592460056277,-0.18940703769971862,0.1
10.655121951219513,0.23642276422764555,-0.18178861788617723,0.1
10.663121292023732,0.25165960385472835,-0.17417019807263584,0.1
10.67112063282795,0.26689644348181113,-0.16655177825909445,0.1
10.679119973632169,0.2821332831088939,-0.15893335844555306,0.1
10.687119314436389,0.29737012273598007,-0.15131493863200998,0.1
10.695118655240607,0.31260696236306285,-0.1436965188184686,0.1
10.703117996044826,0.3278438019901456,-0.1360780990049272,0.1
10.711117336849044,0.3430806416172284,-0.12845967919138582,0.1
10.719116677653263,0.3583174812443112,-0.12084125937784443,0.1
10.727116018457483,0.37355432087139734,-0.11322283956430135,0.1
10.735115359261702,0.3887911604984801,-0.10560441975075996,0.1
10.74311470006592,0.19713249835200392,-0.000955833882665366,0.1
10.751114040870139,-0.002851021753450811,-0.06761700725115026,0.1
10.759113381674359,-0.5,-0.2,0.0
10.767112722478577,-0.5,-0.2,0.0
10.775112063282796,-0.5,-0.2,0.0
10.783111404087014,-0.5,-0.2,0.0
10.791110744891233,-0.5,-0.2,0.0
10.799110085695453,-0.5,-0.2,0.0
10.807109426499672,-0.5,-0.2,0.0
10.81510876730389,-0.5,-0.2,0.0
10.823108108108109,-0.5,-0.2,0.0
10.831107448912327,0.10716326082184055,-0.09641836958907973,0.0
10.839106789716547,0.2937864205669058,0.1,0.0
10.847106130520766,0.27778773895846876,0.1,0.0
10.855105471324984,0.26178905735003166,0.1,0.0
10.863104812129203,0.24579037574159465,0.1,0.0
10.871104152933421,0.22979169413315761,0.1,0.0
10.879103493737642,0.21379301252471702,0.1,0.0
10.88710283454186,0.19779433091628,0.1,0.0
10.895102175346079,0.18179564930784295,0.1,0.0
10.903101516150297,0.1657969676994059,0.1,0.0
10.911100856954516,0.14979828609096887,0.1,0.0
10.919100197758736,0.13379960448252828,0.1,0.0
10.927099538562954,0.11780092287409125,0.1,0.0
10.935098879367173,0.10180224126565421,0.1,0.0
10.943098220171391,0.1,0.0,0.0
10.95109756097561,0.1,0.0,0.0
10.95909690177983,0.1,0.0,0.0
10.967096242584049,0.1,0.0,0.0
10.975095583388267,0.1,0.0,0.0
10.983094924192486,0.1,0.0,0.0
10.991094264996704,0.1,0.0,0.0
10.999093605800924,0.1,0.0,0.0
11.007092946605143,0.1,0.0,0.0
11.015092287409361,0.1,0.0,0.0
11.02309162821358,0.1,0.0,0.0
11.031090969017798,-0.1,-0.20909690177977547,0.0
11.039090309822019,-0.1,-0.2942820082080496,0.005717991791950398
11.047089650626237,-0.1,-0.28783092691432505,0.01216907308567496
11.055088991430456,-0.1,-0.2813798456206005,0.01862015437939952
11.063088332234674,-0.1,-0.2749287643268759,0.02507123567312408
11.071087673038893,-0.1,-0.26847768303315134,0.031522316966848644
11.079087013843113,-0.1,-0.2620266017394254,0.03797339826057464
11.087086354647331,-0.1,-0.2555755204457008,0.04442447955429919
11.09508569545155,-0.1,-0.24912443915197624,0.050875560848023756
11.103085036255768,-0.1,-0.2426733578582517,0.05732664214174832
11.111084377059987,-0.1,-0.23622227656452713,0.06377772343547287
11.119083717864207,-0.1,-0.22977119527080114,0.07022880472919887
11.127083058668426,-0.1,-0.22332011397707657,0.07667988602292343
11.135082399472644,-0.1,-0.216869032683352,0.08313096731664799
11.143081740276862,-0.1,-0.21041795138962746,0.08958204861037256
11.151081081081083,-0.1,-0.20396687009590148,0.09603312990409854
11.159080421885301,-0.0691957811469927,-0.26160843770601466,0.038391562293985375
11.16707976268952,-0.05398813447599843,-0.2380355965720047,-0.04601186552400158
11.175079103493738,-0.11134056451129927,-0.1962198118295669,0.003780188170433089
11.183078444297957,-0.15497333253430945,-0.18167555582189687,0.01832444417810315
11.191077785102177,-0.19860610055732933,-0.1671312998142236,0.03286870018577644
11.199077125906395,-0.24223886858033952,-0.15258704380655352,0.047412956193446494
11.207076466710614,-0.2858716366033497,-0.13804278779888346,0.06195721220111656
11.215075807514832,-0.3295044046263599,-0.1234985317912134,0.07650146820878662
11.223075148319051,-0.3731371726493701,-0.10895427578354333,0.09104572421645668
11.231074489123271,-0.43843111404088897,-0.21529334212266693,0.13843111404088898
11.23907382992749,-0.2463085036255096,-0.34630850362550963,-0.007382992748980771
11.247073170731708,0.1,-0.1,-0.27778108268887136
11.255072511535927,0.1,-0.1,-0.24851520169782837
11.263071852340145,0.1,-0.1,-0.21924932070678538
11.271071193144365,0.1,-0.1,-0.1899834397157359
11.279070533948584,0.1,-0.1,-0.1607175587246929
11.287069874752802,0.1,-0.1,-0.1314516777336499
11.295069215557021,0.1,-0.1,-0.10218579674260692
11.30306855636124,0.1,-0.1,-0.07291991575156392
11.31106789716546,0.1,-0.1,-0.04365403476051444
11.319067237969678,0.1,-0.1,-0.014388153769471446
11.327066578773897,0.012383463602943845,0.1438082681985281,0.04380826819852808
11.335065919578115,-0.1,-0.39968609724707477,-0.39989536574902496
11.343065260382334,-0.1,-0.36159399817936694,-0.3871979993931223
11.351064601186554,-0.1,-0.32350189911165067,-0.3745006330372169
11.359063941990772,-0.1,-0.2854098000439429,-0.3618032666813143
11.367063282794991,-0.1,-0.24731770097623507,-0.34910590032541167
11.37506262359921,-0.1,-0.20922560190852724,-0.3364085339695091
11.383061964403428,-0.1,-0.17113350284081943,-0.32371116761360647
11.391061305207648,-0.1,-0.1330414037731032,-0.31101380125770106
11.399060646011867,-0.1,0.4,0.0
11.407059986816085,-0.10468517297785727,0.5953148270221427,-0.19531482702214273
11.415059327620304,-0.1120919700188003,0.5879080299811997,-0.18790802998119974
11.423058668424522,-0.1194987670597433,0.5805012329402567,-0.18050123294025672
11.431058009228742,-0.12690556410068796,0.5730944358993121,-0.17309443589931206
11.43905735003296,-0.13431236114163098,0.565687638858369,-0.16568763885836904
11.44705669083718,-0.14171915818257397,0.558280841817426,-0.15828084181742602
11.455056031641398,-0.149125955223517,0.550874044776483,-0.15087404477648303
11.463055372445616,-0.15653275226446,0.54346724773554,-0.14346724773554
11.471054713249837,-0.16393954930540466,0.5360604506945954,-0.13606045069459535
11.479054054054055,-0.17134634634634766,0.5286536536536524,-0.12865365365365233
11.487053394858274,-0.17875314338729067,0.5212468566127093,-0.12124685661270934
11.495052735662492,-0.1861599404282337,0.5138400595717664,-0.11384005957176632
11.50305207646671,-0.1935667374691767,0.5064332625308233,-0.10643326253082332
11.51105141727093,-0.2,0.47897165458137847,-0.08948582729068924
11.51905075807515,-0.2,0.3189848384970052,-0.009492419248502623
11.527050098879368,-0.1918998022412637,-0.10405009887936816,-0.09594990112063186
11.535049439683586,-0.17590112063282667,-0.11204943968358667,-0.08795056031641334
11.543048780487807,-0.15990243902438608,-0.12004878048780697,-0.07995121951219304
11.551048121292025,-0.14390375741594905,-0.1280481212920255,-0.07195187870797452
11.559047462096244,-0.127905075807512,-0.13604746209624402,-0.063952537903756
11.567046802900462,-0.11190639419907496,-0.14404680290046254,-0.05595319709953748
11.57504614370468,-0.09590771259063792,-0.15204614370468106,-0.04795385629531896
11.5830454845089,-0.07990903098219733,-0.16004548450890135,-0.039954515491098665
11.59104482531312,-0.0639103493737603,-0.16804482531311987,-0.03195517468688015
11.599044166117338,-0.04791166776532327,-0.17604416611733836,-0.023955833882661634
11.607043506921556,-0.0319129861568862,-0.1840435069215569,-0.0159564930784431
11.615042847725775,-0.015914304548449165,-0.19204284772577543,-0.007957152274224583
11.623042188529995,0.0,-0.20210942649978494,-0.002109426499784923
11.631041529334214,0.3,-0.6808305866842734,0.0
11.639040870138432,0.4939591298615672,-0.5060408701384328,0.18187738958470154
11.64704021094265,0.4859597890573488,-0.5140402109426512,0.1578793671720464
11.655039551746869,0.47796044825313044,-0.5220395517468696,0.13388134475939129
11.66303889255109,0.4699611074489103,-0.5300388925510897,0.1098833223467308
11.671038233355308,0.4619617666446919,-0.5380382333553081,0.08588529993407568
11.679037574159526,0.4539624258404735,-0.5460375741595265,0.061887277521420536
11.687036914963745,0.44596308503625515,-0.5540369149637449,0.037889255108765396
11.695036255767963,0.43796374423203677,-0.5620362557679632,0.013891232696110256
11.703035596572184,0.4299644034278166,-0.5700355965721834,-0.010106789716550213
11.711034937376402,0.42196506262359823,-0.5780349373764018,-0.034104812129205325
11.71903427818062,0.41396572181937985,-0.5860342781806201,-0.05810283454186049
11.727033618984839,0.40596638101516147,-0.5940336189848385,-0.08210085695451563
11.735032959789057,0.08263678312458596,-0.5727488464073887,-0.2760448253131211
11.743032300593278,-0.0032300593277430206,0.4870797626890279,-0.19030982201677094
11.751031641397496,-0.005653529660107602,0.016960588980322808,0.011307059320215205
11.759030982201715,-0.014641553035633954,0.04392465910690187,0.029283106071267908
11.767030323005933,-0.023629576411160307,0.07088872923348093,0.04725915282232061
11.775029663810152,-0.03261759978668666,0.09785279936005997,0.06523519957337331
11.783029004614372,-0.04160562316221501,0.12481686948664503,0.08321124632443001
11.79102834541859,-0.05059364653774136,0.1517809396132241,0.10118729307548271
11.799027686222809,-0.059581669913267715,0.17874500973980315,0.11916333982653543
11.807027027027027,-0.06856969328879406,0.2057090798663822,0.13713938657758812
11.815026367831246,-0.07755771666432042,0.23267314999296126,0.15511543332864083
11.823025708635466,-0.08654574003984876,0.2596372201195463,0.17309148007969752
11.831025049439685,-0.09553376341537512,0.28660129024612535,0.19106752683075023
11.839024390243903,-0.05121951219518261,-0.05121951219518261,0.0
11.847023731048122,-0.08744067237969715,0.012559327620302863,0.09372033618984857
11.85502307185234,-0.06744232036915093,0.03255767963084907,0.08372116018457547
11.86302241265656,-0.047443968358600284,0.05255603164139972,0.07372198417930015
11.871021753460779,-0.027445616348054078,0.07255438365194593,0.06372280817402703
11.879021094264997,-0.007447264337507864,0.09255273566249214,0.053723632168753935
11.887020435069216,0.01255108767303835,0.11255108767303836,0.04372445616348083
11.895019775873434,0.03254943968358456,0.13254943968358457,0.03372528015820772
11.903019116677655,0.052547791694135204,0.1525477916941352,0.0237261041529324
11.911018457481873,0.0725461437046814,0.1725461437046814,0.0137269281476593
11.919017798286092,0.09254449571522763,0.19254449571522764,0.003727752142386187
11.92701713909031,0.1,-0.1,-0.1
11.93501647989453,0.0,-0.09384391858259174,0.19384391858259173
11.943015820698749,0.0,-0.07751873326785995,0.17751873326785994
11.951015161502967,0.0,-0.06119354795312816,0.16119354795312818
11.959014502307186,0.0,-0.04486836263839638,0.1448683626383964
11.967013843111404,0.0,-0.028543177323664598,0.1285431773236646
11.975013183915625,0.0,-0.012217992008929188,0.1122179920089292
11.983012524719843,0.0,0.0041071933058026006,0.0958928066941974
11.991011865524062,0.0,0.02043237862053439,0.07956762137946562
11.99901120632828,0.0,0.03675756393526616,0.06324243606473384
12.007010547132499,0.0,0.05308274924999795,0.046917250750002054
12.015009887936719,0.0,0.06940793456473338,0.03059206543526663
12.023009228740937,0.0,0.08573311987946516,0.014266880120534842
12.031008569545156,0.0,-0.0008569545156153352,0.10085695451561534
12.039007910349374,0.0,0.09781748875068091,0.1
12.047007251153593,0.0,0.08912255309392157,0.1
12.055006591957813,0.0,0.08042761743716029,0.1
12.063005932762032,0.0,0.07173268178040094,0.1
12.07100527356625,0.0,0.0630377461236416,0.1
12.079004614370469,0.0,0.054342810466882246,0.1
12.087003955174687,0.0,0.045647874810122904,0.1
12.095003295978907,0.0,0.03695293915336162,0.1
12.103002636783126,0.0,0.028258003496602277,0.1
12.111001977587344,0.0,0.01956306783984292,0.1
12.119001318391563,0.0,0.010868132183083579,0.1
12.127000659195781,0.0,0.0021731965263242364,0.1
12.135,0.2,-0.1,0.2
