accel_time_list,accel_x_list,accel_y_list,accel_z_list
0.0,4.5,-7.8,4.1
0.00799588477366255,4.700205761316872,-7.666803840877915,4.2
0.0159917695473251,4.218566369987559,-7.60464159249689,4.113924777490668
0.02398765432098765,4.255756531725524,-7.613939132931381,4.141817398794143
0.0319835390946502,4.292946693463489,-7.623236673365872,4.169710020097617
0.039979423868312755,4.330136855201455,-7.632534213800364,4.197602641401091
0.0479753086419753,4.36732701693942,-7.641831754234855,4.225495262704565
0.05597119341563785,4.404517178677385,-7.651129294669346,4.253387884008039
0.0639670781893004,4.44170734041535,-7.660426835103838,4.281280505311513
0.07196296296296295,4.478897502153316,-7.669724375538329,4.309173126614987
0.07995884773662551,4.516087663891281,-7.679021915972821,4.337065747918461
0.08795473251028806,4.553277825629246,-7.688319456407312,4.364958369221935
0.0959506172839506,4.590467987367211,-7.697616996841803,4.392850990525409
0.10394650205761316,4.352674897119342,-7.61604938271605,4.294650205761317
0.1119423868312757,4.285070135846719,-7.314929864153281,4.3850701358467195
0.11993827160493827,4.267874684720563,-7.332125315279437,4.367874684720563
0.1279341563786008,4.250679233594407,-7.349320766405593,4.350679233594407
0.13593004115226337,4.233483782468251,-7.366516217531749,4.333483782468251
0.1439259259259259,4.216288331342095,-7.383711668657905,4.316288331342095
0.15192181069958846,4.199092880215939,-7.400907119784061,4.299092880215939
0.15991769547325102,4.181897429089783,-7.418102570910217,4.281897429089783
0.16791358024691355,4.1647019779636265,-7.435298022036373,4.264701977963627
0.1759094650205761,4.1475065268374705,-7.452493473162529,4.247506526837471
0.18390534979423867,4.130311075711314,-7.469688924288685,4.230311075711315
0.1919012345679012,4.113115624585158,-7.486884375414841,4.213115624585159
0.19989711934156376,4.1,-7.2154320987654375,4.105144032921812
0.20789300411522632,4.203144569690464,-7.603144569690463,4.1
0.21588888888888888,4.211835748792271,-7.61183574879227,4.1
0.2238847736625514,4.220526927894078,-7.620526927894077,4.1
0.23188065843621397,4.2292181069958845,-7.629218106995885,4.1
0.23987654320987653,4.237909286097692,-7.637909286097692,4.1
0.24787242798353906,4.246600465199499,-7.646600465199499,4.1
0.2558683127572016,4.255291644301306,-7.655291644301306,4.1
0.26386419753086415,4.263982823403113,-7.6639828234031135,4.1
0.27186008230452674,4.27267400250492,-7.6726740025049205,4.1
0.27985596707818927,4.281365181606727,-7.681365181606727,4.1
0.2878518518518518,4.290056360708534,-7.690056360708534,4.1
0.2958477366255144,4.298747539810342,-7.698747539810342,4.1
0.3038436213991769,4.506255144032923,-7.596872427983539,4.1031275720164615
0.31183950617283945,4.338930041152263,-7.838930041152263,4.038930041152263
0.31983539094650204,4.3922359396433475,-7.8922359396433475,4.092235939643347
0.32783127572016457,4.391128213350436,-7.891128213350436,4.1
0.3358271604938271,4.380743947410615,-7.880743947410615,4.1
0.3438230452674897,4.370359681470793,-7.870359681470793,4.1
0.3518189300411522,4.359975415530971,-7.859975415530971,4.1
0.35981481481481475,4.3495911495911495,-7.8495911495911495,4.1
0.36781069958847734,4.339206883651328,-7.839206883651328,4.1
0.3758065843621399,4.328822617711507,-7.828822617711507,4.1
0.3838024691358024,4.318438351771685,-7.818438351771685,4.1
0.391798353909465,4.308054085831864,-7.808054085831864,4.1
0.3997942386831275,4.47942386831275,-7.710288065843625,4.27942386831275
0.4077901234567901,4.497093621399177,-7.697093621399177,4.3
0.41578600823045264,4.488764574759945,-7.688764574759945,4.3
0.4237818930041152,4.480435528120713,-7.6804355281207135,4.3
0.43177777777777776,4.4721064814814815,-7.672106481481482,4.3
0.4397736625514403,4.46377743484225,-7.66377743484225,4.3
0.4477695473251028,4.455448388203018,-7.655448388203018,4.3
0.4557654320987654,4.447119341563786,-7.647119341563786,4.3
0.46376131687242794,4.438790294924554,-7.638790294924554,4.3
0.4717572016460905,4.430461248285322,-7.6304612482853225,4.3
0.47975308641975306,4.42213220164609,-7.622132201646091,4.3
0.4877489711934156,4.4138031550068595,-7.613803155006859,4.3
0.4957448559670781,4.405474108367628,-7.605474108367627,4.3
0.5037407407407407,4.4,-7.525925925925929,4.2
0.5117366255144032,4.4,-7.501754167186266,4.2
0.5197325102880658,4.4,-7.5098308184727935,4.2
0.5277283950617283,4.4,-7.517907469759321,4.2
0.535724279835391,4.4,-7.525984121045849,4.2
0.5437201646090535,4.4,-7.534060772332377,4.2
0.551716049382716,4.4,-7.542137423618905,4.2
0.5597119341563785,4.4,-7.5502140749054325,4.2
0.5677078189300411,4.4,-7.55829072619196,4.2
0.5757037037037036,4.4,-7.566367377478488,4.2
0.5836995884773662,4.4,-7.574444028765016,4.2
0.5916954732510288,4.4,-7.582520680051544,4.2
0.5996913580246913,4.4,-7.5905973313380715,4.2
0.6076872427983538,4.4,-7.598673982624599,4.2
0.6156831275720164,4.4,-7.6,4.184156378600819
0.6236790123456789,4.4,-7.6,4.2
0.6316748971193415,4.4,-7.6,4.2
0.6396707818930041,4.4,-7.6,4.2
0.6476666666666666,4.4,-7.6,4.2
0.6556625514403291,4.4,-7.6,4.2
0.6636584362139917,4.4,-7.6,4.2
0.6716543209876542,4.4,-7.6,4.2
0.6796502057613169,4.4,-7.6,4.2
0.6876460905349794,4.4,-7.6,4.2
0.6956419753086419,4.4,-7.6,4.2
0.7036378600823044,4.421982167352538,-7.6,4.221982167352538
0.711633744855967,4.488614540466392,-7.6,4.288614540466392
0.7196296296296295,4.5,-7.7,4.206701940035273
0.7276255144032922,4.5,-7.7,4.21622085048011
0.7356213991769547,4.5,-7.7,4.225739760924946
0.7436172839506172,4.5,-7.7,4.235258671369783
0.7516131687242797,4.5,-7.7,4.244777581814619
0.7596090534979423,4.5,-7.7,4.2542964922594555
0.7676049382716048,4.5,-7.7,4.263815402704291
0.7756008230452675,4.5,-7.7,4.273334313149128
0.78359670781893,4.5,-7.7,4.282853223593964
0.7915925925925925,4.5,-7.7,4.292372134038801
0.799588477366255,4.5,-7.620576131687249,4.22057613168725
0.8075843621399176,4.586145404663918,-7.686145404663917,4.3
0.8155802469135802,4.5936588103254765,-7.6,4.206341189674523
0.8235761316872428,4.584572577628133,-7.6,4.215427422371866
0.8315720164609053,4.575486344930789,-7.6,4.22451365506921
0.8395679012345678,4.566400112233445,-7.6,4.233599887766554
0.8475637860082303,4.5573138795361015,-7.6,4.242686120463898
0.8555596707818929,4.548227646838758,-7.6,4.2517723531612415
0.8635555555555555,4.539141414141414,-7.6,4.2608585858585855
0.871551440329218,4.53005518144407,-7.6,4.2699448185559294
0.8795473251028806,4.520968948746726,-7.6,4.279031051253273
0.8875432098765431,4.511882716049382,-7.6,4.288117283950617
0.8955390946502056,4.502796483352039,-7.6,4.2972035166479605
0.9035349794238682,4.4,-7.6244170096021975,4.224417009602197
0.9115308641975308,4.4,-7.6,4.197307591279222
0.9195267489711934,4.4,-7.6,4.188801330881709
0.9275226337448559,4.4,-7.6,4.180295070484196
0.9355185185185184,4.4,-7.6,4.1717888100866825
0.943514403292181,4.4,-7.6,4.163282549689169
0.9515102880658435,4.4,-7.6,4.1547762892916555
0.9595061728395061,4.4,-7.6,4.1462700288941425
0.9675020576131687,4.4,-7.6,4.137763768496629
0.9754979423868312,4.4,-7.6,4.129257508099116
0.9834938271604937,4.4,-7.6,4.120751247701602
0.9914897119341562,4.4,-7.6,4.112244987304089
0.9994855967078188,4.4,-7.6,4.103738726906576
1.0074814814814814,4.551851851851852,-7.7,4.248148148148148
1.015477366255144,4.4,-7.794046341027017,4.2
1.0234732510288065,4.4,-7.78535516192521,4.2
1.031469135802469,4.4,-7.776663982823403,4.2
1.0394650205761315,4.4,-7.767972803721596,4.2
1.047460905349794,4.4,-7.759281624619789,4.2
1.0554567901234566,4.4,-7.750590445517982,4.2
1.0634526748971191,4.4,-7.7418992664161745,4.2
1.071448559670782,4.4,-7.733208087314368,4.2
1.0794444444444444,4.4,-7.724516908212561,4.2
1.087440329218107,4.4,-7.715825729110754,4.2
1.0954362139917695,4.4,-7.707134550008947,4.2
1.103432098765432,4.3,-7.696399176954733,4.2
1.1114279835390946,4.3,-7.629766803840878,4.2
1.119423868312757,4.3,-7.5,4.2
1.1274197530864196,4.309392092514455,-7.5,4.2
1.1354156378600821,4.319513465645674,-7.5,4.2
1.1434115226337447,4.329634838776892,-7.5,4.2
1.1514074074074072,4.33975621190811,-7.5,4.2
1.1594032921810697,4.349877585039329,-7.5,4.2
1.1673991769547325,4.359998958170547,-7.5,4.2
1.175395061728395,4.370120331301766,-7.5,4.2
1.1833909465020576,4.380241704432985,-7.5,4.2
1.19138683127572,4.390363077564203,-7.5,4.2
1.1993827160493826,4.4076543209876515,-7.5,4.2
1.2073786008230452,4.4,-7.5,4.13106995884774
1.2153744855967077,4.391806127114769,-7.5,4.108193872885231
1.2233703703703702,4.382921810699589,-7.5,4.117078189300411
1.2313662551440328,4.3740374942844085,-7.5,4.1259625057155915
1.2393621399176953,4.365153177869227,-7.5,4.134846822130773
1.2473580246913578,4.356268861454047,-7.5,4.143731138545953
1.2553539094650203,4.347384545038866,-7.5,4.152615454961134
1.263349794238683,4.338500228623685,-7.5,4.161499771376315
1.2713456790123456,4.329615912208505,-7.5,4.170384087791495
1.2793415637860082,4.320731595793324,-7.5,4.179268404206676
1.2873374485596707,4.311847279378144,-7.5,4.188152720621856
1.2953333333333332,4.302962962962963,-7.5,4.197037037037037
1.3033292181069958,4.416460905349791,-7.7,4.216460905349791
1.3113251028806583,4.506801185893181,-7.7,4.3
1.3193209876543208,4.515398911456259,-7.7,4.3
1.3273168724279834,4.523996637019337,-7.7,4.3
1.3353127572016459,4.532594362582415,-7.7,4.3
1.3433086419753084,4.541192088145493,-7.7,4.3
1.3513045267489712,4.549789813708571,-7.7,4.3
1.3593004115226337,4.558387539271649,-7.7,4.3
1.3672962962962962,4.566985264834727,-7.7,4.3
1.3752921810699588,4.575582990397805,-7.7,4.3
1.3832880658436213,4.5841807159608825,-7.7,4.3
1.3912839506172838,4.5927784415239605,-7.7,4.3
1.3992798353909464,4.596002351557909,-7.7,4.3
1.407275720164609,4.5,-7.713786008230443,4.313786008230443
1.4152716049382714,4.49287317620651,-7.8,4.4
1.423267489711934,4.483786943509166,-7.8,4.4
1.4312633744855965,4.474700710811822,-7.8,4.4
1.439259259259259,4.465614478114478,-7.8,4.4
1.4472551440329218,4.456528245417134,-7.8,4.4
1.4552510288065843,4.447442012719791,-7.8,4.4
1.4632469135802468,4.438355780022447,-7.8,4.4
1.4712427983539094,4.429269547325103,-7.8,4.4
1.479238683127572,4.42018331462776,-7.8,4.4
1.4872345679012344,4.411097081930416,-7.8,4.4
1.495230452674897,4.402010849233072,-7.8,4.4
1.5032263374485595,4.4,-7.767489711934158,4.3
1.511222222222222,4.4,-7.705982905982908,4.3
1.5192181069958846,4.396213991769548,-7.6,4.196213991769548
1.527213991769547,4.386807068506416,-7.6,4.186807068506416
1.5352098765432096,4.377400145243283,-7.6,4.177400145243283
1.5432057613168724,4.36799322198015,-7.6,4.16799322198015
1.551201646090535,4.358586298717018,-7.6,4.158586298717018
1.5591975308641974,4.349179375453885,-7.6,4.149179375453885
1.56719341563786,4.339772452190753,-7.6,4.139772452190753
1.5751893004115225,4.33036552892762,-7.6,4.13036552892762
1.583185185185185,4.320958605664488,-7.6,4.120958605664488
1.5911810699588476,4.311551682401356,-7.6,4.111551682401355
1.59917695473251,4.302144759138224,-7.6,4.102144759138223
1.6071728395061726,4.2,-7.541358024691373,4.0
1.6151687242798352,4.207965249199817,-7.492034750800183,4.0
1.6231646090534977,4.216849565614997,-7.483150434385003,4.0
1.6311604938271604,4.225733882030179,-7.4742661179698215,4.0
1.639156378600823,4.234618198445359,-7.465381801554641,4.0
1.6471522633744855,4.243502514860539,-7.456497485139461,4.0
1.655148148148148,4.25238683127572,-7.44761316872428,4.0
1.6631440329218106,4.2612711476909,-7.4387288523091,4.0
1.671139917695473,4.2701554641060815,-7.429844535893919,4.0
1.6791358024691356,4.279039780521262,-7.420960219478738,4.0
1.6871316872427982,4.287924096936442,-7.412075903063558,4.0
1.6951275720164607,4.296808413351623,-7.4031915866483775,4.0
1.7031234567901232,4.3,-7.5,4.142469135802464
1.7111193415637858,4.3,-7.506931870141746,4.2
1.7191152263374483,4.3,-7.524700502972108,4.2
1.727111111111111,4.3,-7.542469135802469,4.2
1.7351069958847736,4.3,-7.56023776863283,4.2
1.743102880658436,4.3,-7.578006401463192,4.2
1.7510987654320986,4.3,-7.595775034293553,4.2
1.7590946502057612,4.3,-7.613543667123913,4.2
1.7670905349794237,4.3,-7.631312299954275,4.2
1.7750864197530862,4.3,-7.649080932784636,4.2
1.7830823045267488,4.3,-7.6668495656149975,4.2
1.7910781893004113,4.3,-7.684618198445358,4.2
1.7990740740740738,4.335802469135794,-7.7,4.235802469135794
1.8070699588477364,4.097648442092887,-8.005878894767783,5.809406231628451
1.815065843621399,4.080075068963958,-8.049812327590105,5.879699724144167
1.8230617283950616,4.062501695835029,-8.093745760412427,5.949993216659882
1.8310576131687242,4.044928322706101,-8.137679193234748,6.020286709175597
1.8390534979423867,4.027354949577172,-8.181612626057069,6.090580201691311
1.8470493827160492,4.009781576448243,-8.225546058879392,6.160873694207026
1.8550452674897118,3.9922082033193145,-8.269479491701713,6.2311671867227405
1.8630411522633743,3.974634830190386,-8.313412924524034,6.301460679238454
1.8710370370370368,3.9570614570614575,-8.357346357346357,6.371754171754169
1.8790329218106994,3.939488083932529,-8.401279790168678,6.442047664269884
1.887028806584362,3.9219147108036,-8.445213222990999,6.512341156785599
1.8950246913580244,3.9043413376746714,-8.489146655813322,6.582634649301313
1.903020576131687,3.9,-8.650514403292174,6.800685871056231
1.9110164609053497,4.034430727023317,-8.396707818930048,7.067215363511658
1.9190123456790122,5.0125771604938265,-6.9974845679012345,6.369814814814817
1.9270082304526748,5.062551440329217,-6.987489711934157,6.249876543209879
1.9350041152263373,5.112525720164608,-6.977494855967079,6.129938271604941
1.9429999999999998,5.162499999999999,-6.9675,6.010000000000003
1.9509958847736624,5.21247427983539,-6.957505144032922,5.890061728395065
1.958991769547325,5.26244855967078,-6.947510288065844,5.770123456790127
1.9669876543209874,5.312422839506171,-6.937515432098766,5.65018518518519
1.97498353909465,5.362397119341562,-6.927520576131688,5.530246913580252
1.9829794238683125,5.412371399176952,-6.91752572016461,5.410308641975314
1.990975308641975,5.462345679012343,-6.907530864197532,5.290370370370376
1.9989711934156376,5.89423868312749,-7.491358024691235,3.327366255144423
2.0069670781893003,6.274176954732507,-7.538734567901239,1.054938271604954
2.014962962962963,6.489664082687339,-7.196554694229113,0.26899224806201677
2.0229588477366254,6.461771461383865,-7.187257153794622,0.18531438415159482
2.030954732510288,6.433878840080391,-7.17795961336013,0.10163652024117284
2.0389506172839504,6.405986218776917,-7.168662072925639,0.01795865633075089
2.046946502057613,6.378093597473443,-7.159364532491147,-0.06571920757967109
2.0549423868312755,6.350200976169969,-7.150066992056656,-0.14939707149009307
2.062938271604938,6.322308354866495,-7.140769451622165,-0.2330749354005151
2.0709341563786006,6.294415733563021,-7.131471911187673,-0.3167527993109371
2.078930041152263,6.266523112259547,-7.122174370753182,-0.40043066322135906
2.0869259259259256,6.238630490956073,-7.112876830318691,-0.48410852713178104
2.094921810699588,6.210737869652599,-7.103579289884199,-0.567786391042203
2.1029176954732507,6.211471193415635,-7.2,-1.7770576131687295
2.1109135802469132,6.208641975308696,-7.108641975308696,-1.0518518518521742
2.1189094650205758,6.20909133910411,-7.08181732179178,-0.9818173217917803
2.1269053497942383,6.218282011257745,-7.0634359774845095,-0.96343597748451
2.134901234567901,6.2274726834113805,-7.04505463317724,-0.9450546331772398
2.142897119341564,6.236663355565016,-7.026673288869969,-0.9266732888699686
2.1508930041152263,6.245854027718651,-7.008291944562698,-0.9082919445626984
2.158888888888889,6.255044699872286,-6.9899106002554285,-0.8899106002554281
2.1668847736625514,6.264235372025921,-6.971529255948158,-0.8715292559481579
2.174880658436214,6.273426044179556,-6.953147911640888,-0.8531479116408877
2.1828765432098765,6.282616716333191,-6.934766567333617,-0.8347665673336174
2.190872427983539,6.291807388486826,-6.916385223026348,-0.8163852230263472
2.1988683127572015,6.3694650205761265,-6.847901234567906,-0.7826337448559685
2.206864197530864,6.906790123456791,-6.493209876543209,0.6524691358024634
2.2148600823045266,6.677079576455353,-6.6,0.19979655060804138
2.222855967078189,6.766920978406617,-6.6,0.08300272807139761
2.2308518518518516,6.856762380357881,-6.6,-0.03379109446524614
2.238847736625514,6.946603782309146,-6.6,-0.15058491700188992
2.2468436213991767,7.03644518426041,-6.6,-0.2673787395385337
2.2548395061728392,7.126286586211674,-6.6,-0.3841725620751774
2.2628353909465018,7.216127988162939,-6.6,-0.5009663846118213
2.2708312757201643,7.305969390114203,-6.6,-0.6177602071484649
2.278827160493827,7.395810792065468,-6.6,-0.7345540296851087
2.2868230452674894,7.485652194016732,-6.6,-0.8513478522217526
2.294818930041152,7.5754935959679965,-6.6,-0.9681416747583962
2.3028148148148144,9.73407407407404,-6.828888888888875,-3.7681481481480805
2.310810699588477,6.826183647171308,-10.634069085920935,-5.897160909506589
2.3188065843621395,6.616190713721585,-10.730988901359268,-5.889084258220061
2.3268024691358025,6.406197780271851,-10.827908716797607,-5.881007606933533
2.334798353909465,6.196204846822129,-10.92482853223594,-5.872930955647005
2.3427942386831275,5.986211913372406,-11.021748347674274,-5.8648543043604775
2.35079012345679,5.7762189799226835,-11.118668163112607,-5.85677765307395
2.3587860082304526,5.566226046472961,-11.215587978550941,-5.848701001787422
2.366781893004115,5.3562331130232375,-11.312507793989274,-5.840624350500894
2.3747777777777777,5.146240179573515,-11.409427609427608,-5.832547699214366
2.38277366255144,4.936247246123792,-11.506347424865943,-5.8244710479278385
2.3907695473251027,4.72625431267407,-11.603267240304277,-5.81639439664131
2.3987654320987652,4.516261379224347,-11.70018705574261,-5.808317745354782
2.406761316872428,4.3062684457746245,-11.797106871180944,-5.800241094068254
2.4147572016460903,26.637277091906732,-4.489540466392318,15.080349794238689
2.422753086419753,24.076690182245756,-4.441945914168136,14.080864197530873
2.4307489711934154,21.516103272584783,-4.394351361943955,13.081378600823058
2.438744855967078,18.95551636292381,-4.346756809719773,12.081893004115242
2.4467407407407404,16.394929453262833,-4.299162257495592,11.082407407407427
2.454736625514403,13.834342543601856,-4.25156770527141,10.08292181069961
2.4627325102880655,11.273755633940882,-4.203973153047229,9.083436213991796
2.470728395061728,8.713168724279907,-4.1563786008230466,8.083950617283978
2.4787242798353906,6.15258181461893,-4.108784048598865,7.084465020576165
2.486720164609053,3.591994904957957,-4.061189496374683,6.084979423868349
2.4947160493827156,1.0314079952969806,-4.013594944150501,5.085493827160533
2.502711934156378,8.6641975308651,-2.362757201645895,4.45596707818915
2.5107078189300407,4.821407932755449,-3.335583574117844,4.978688381052455
2.5187037037037037,4.84692671394799,-3.4972025216706064,4.83408195429472
2.526699588477366,4.87244549514053,-3.65882146922336,4.6894755275369935
2.5346954732510287,4.89796427633307,-3.8204404167761137,4.544869100779267
2.5426913580246913,4.92348305752561,-3.982059364328867,4.40026267402154
2.550687242798354,4.94900183871815,-4.1436783118816205,4.255656247263813
2.5586831275720163,4.97452061991069,-4.305297259434374,4.111049820506086
2.566679012345679,5.000039401103231,-4.466916206987127,3.966443393748359
2.5746748971193414,5.025558182295771,-4.628535154539881,3.8218369669906327
2.582670781893004,5.051076963488311,-4.790154102092634,3.6772305402329057
2.5906666666666665,5.0765957446808505,-4.951773049645388,3.532624113475179
2.598662551440329,5.298765432098669,-6.425102880657793,2.406172839506655
2.6066584362139915,5.399775533108857,-9.200897867564573,1.8995510662177137
2.614654320987654,5.59695664656905,-8.389348262991676,2.3144559287970106
2.6226502057613166,5.559766484831085,-8.259182696908798,2.491109197052345
2.630646090534979,5.52257632309312,-8.12901713082592,2.6677624653076792
2.6386419753086416,5.485386161355155,-7.998851564743043,2.8444157335630136
2.646637860082304,5.44819599961719,-7.8686859986601645,3.021069001818348
2.6546337448559667,5.411005837879225,-7.738520432577287,3.1977222700736827
2.6626296296296292,5.37381567614126,-7.608354866494409,3.374375538329017
2.6706255144032918,5.336625514403295,-7.478189300411531,3.5510288065843514
2.6786213991769543,5.29943535266533,-7.3480237343286525,3.727682074839686
2.686617283950617,5.262245190927365,-7.217858168245774,3.9043353430950205
2.6946131687242794,5.2250550291894,-7.087692602162897,4.080988611350355
2.7026090534979423,5.043456790123467,-7.0260905349794225,4.5130864197530665
2.710604938271605,4.388271604938307,-7.281481481481451,5.55123456790121
2.7186008230452674,2.912843570593912,-8.112843570593911,5.690367322054566
2.72659670781893,2.952329421328048,-8.152329421328048,5.660752934003964
2.7345925925925925,2.991815272062184,-8.191815272062184,5.6311385459533625
2.742588477366255,3.03130112279632,-8.231301122796319,5.601524157902761
2.7505843621399175,3.070786973530456,-8.270786973530456,5.571909769852158
2.75858024691358,3.110272824264592,-8.310272824264592,5.542295381801556
2.7665761316872426,3.149758674998728,-8.349758674998728,5.512680993750954
2.774572016460905,3.189244525732864,-8.389244525732863,5.483066605700352
2.7825679012345677,3.228730376467,-8.428730376467,5.45345221764975
2.79056378600823,3.268216227201136,-8.468216227201136,5.423837829599148
2.7985596707818927,3.5559670781892736,-9.211934156378547,5.78395061728391
2.8065555555555552,3.794212962962963,-9.688425925925927,5.71736111111111
2.814551440329218,3.7858839163237317,-9.671767832647463,5.7423482510288055
2.8225473251028803,3.7775548696845,-9.655109739369,5.767335390946501
2.830543209876543,3.769225823045268,-9.638451646090536,5.792322530864197
2.8385390946502054,3.760896776406036,-9.621793552812072,5.817309670781892
2.846534979423868,3.7525677297668043,-9.605135459533608,5.842296810699588
2.8545308641975304,3.7442386831275725,-9.588477366255145,5.867283950617283
2.862526748971193,3.7359096364883406,-9.571819272976681,5.892271090534979
2.8705226337448555,3.727580589849109,-9.555161179698217,5.917258230452674
2.878518518518518,3.719251543209877,-9.538503086419754,5.94224537037037
2.886514403292181,3.7109224965706447,-9.52184499314129,5.967232510288066
2.8945102880658435,3.702593449931413,-9.505186899862826,5.992219650205762
2.902506172839506,3.475308641975309,-9.066255144032922,5.281893004115226
2.9105020576131686,5.225301706200582,-8.8,2.3746982937994177
2.918497942386831,5.30615896795672,-8.8,2.2938410320432796
2.9264938271604937,5.3870162297128585,-8.8,2.2129837702871415
2.934489711934156,5.467873491468996,-8.8,2.132126508531004
2.9424855967078187,5.548730753225134,-8.8,2.051269246774866
2.9504814814814813,5.629588014981272,-8.8,1.9704119850187278
2.958477366255144,5.71044527673741,-8.8,1.8895547232625898
2.9664732510288063,5.791302538493548,-8.8,1.8086974615064517
2.974469135802469,5.872159800249686,-8.8,1.7278401997503139
2.9824650205761314,5.953017062005824,-8.8,1.6469829379941758
2.990460905349794,6.033874323761962,-8.8,1.566125676238038
2.9984567901234565,6.318518518518484,-8.727160493827173,1.0629629629630313
3.006452674897119,6.522297044519263,-7.6108118219229475,-2.5013468013467377
3.0144485596707815,6.594986906098012,-7.320052375607949,-3.8097643097642284
3.022444444444444,6.6453929539295356,-7.263685636856371,-4.018021680216794
3.0304403292181066,6.694148348890892,-7.224681320887285,-4.1447857071163225
3.038436213991769,6.74290374385225,-7.1856770049182,-4.27154973401585
3.0464320987654316,6.791659138813607,-7.146672688949114,-4.398313760915379
3.054427983539094,6.840414533774964,-7.1076683729800285,-4.525077787814907
3.0624238683127567,6.889169928736321,-7.068664057010944,-4.651841814714435
3.0704197530864192,6.9379253236976774,-7.029659741041858,-4.778605841613963
3.078415637860082,6.986680718659038,-6.99065542507277,-4.905369868513498
3.0864115226337447,7.035436113620395,-6.951651109103684,-5.032133895413026
3.0944074074074073,7.0841915085817515,-6.9126467931345985,-5.158897922312555
3.10240329218107,7.220987654320967,-5.858847736625538,-5.240329218106989
3.1103991769547323,7.748165848046372,-5.258714987388824,-5.448165848046372
3.118395061728395,7.808349926987918,-5.207128634010356,-5.508349926987918
3.1263909465020574,7.8685340059294635,-5.155542280631888,-5.568534005929464
3.13438683127572,7.92871808487101,-5.10395592725342,-5.62871808487101
3.1423827160493825,7.988902163812556,-5.052369573874953,-5.688902163812555
3.150378600823045,8.049086242754102,-5.000783220496484,-5.749086242754101
3.1583744855967075,8.109270321695648,-4.949196867118016,-5.809270321695648
3.16637037037037,8.169454400637195,-4.897610513739549,-5.869454400637193
3.1743662551440326,8.229638479578739,-4.846024160361081,-5.929638479578739
3.182362139917695,8.289822558520285,-4.794437806982613,-5.989822558520285
3.1903580246913577,8.350006637461831,-4.742851453604144,-6.050006637461831
3.19835390946502,8.738477366255069,-4.7,-6.573868312757094
3.2063497942386827,8.67757201646105,-6.197325102880308,-6.165020576131728
3.2143456790123452,7.943140518795964,-7.706949646275478,-5.978610070744904
3.222341563786008,7.745489434503183,-7.841711749202375,-5.951657650159525
3.2303374485596703,7.547838350210401,-7.9764738521292715,-5.924705229574146
3.238333333333333,7.3501872659176195,-8.111235955056168,-5.897752808988766
3.2463292181069954,7.152536181624837,-8.245998057983066,-5.870800388403387
3.254325102880658,6.954885097332056,-8.380760160909961,-5.843847967818007
3.262320987654321,6.757234013039263,-8.515522263836866,-5.816895547232627
3.2703168724279834,6.559582928746481,-8.650284366763762,-5.789943126647247
3.278312757201646,6.3619318444537,-8.78504646969066,-5.762990706061868
3.2863086419753085,6.164280760160918,-8.919808572617555,-5.736038285476489
3.294304526748971,5.966629675868136,-9.054570675544452,-5.70908586489111
3.3023004115226335,-19.55390946502382,-16.728806584362776,3.3281893004151533
3.310296296296296,7.048825169255265,-11.637514934289129,-22.295021903624075
3.3182921810699586,8.888738439753954,-11.431169520775258,-19.11386344528522
3.326288065843621,10.728651710252645,-11.224824107261385,-15.932704986946359
3.3342839506172837,12.568564980751336,-11.018478693747515,-12.751546528607502
3.342279835390946,14.408478251250026,-10.812133280233642,-9.570388070268644
3.3502757201646087,16.248391521748715,-10.605787866719771,-6.389229611929785
3.3582716049382713,18.088304792247406,-10.399442453205898,-3.2080711535909288
3.366267489711934,19.928218062746097,-10.193097039692027,-0.026912695252072183
3.3742633744855963,21.76813133324479,-9.986751626178155,3.154245763086788
3.382259259259259,23.60804460374348,-9.780406212664282,6.3354042214256445
3.3902551440329214,25.44795787424217,-9.574060799150411,9.516562679764501
3.398251028806584,9.98600823045787,-5.772016460906457,9.572839506173642
3.4062469135802464,3.021810699588198,-3.9736625514402126,4.363580246913675
3.414242798353909,9.13004115226368,-7.459259259259063,1.1300411522636788
3.4222386831275715,8.211582856569335,-8.056002208170211,0.6
3.430234567901234,7.782535380909393,-8.338783498946082,0.6
3.4382304526748966,7.353487905249452,-8.621564789721951,0.6
3.4462263374485596,6.924440429589486,-8.904346080497838,0.6
3.454222222222222,6.495392953929545,-9.187127371273709,0.6
3.4622181069958846,6.066345478269604,-9.46990866204958,0.6
3.470213991769547,5.637298002609661,-9.752689952825449,0.6
3.4782098765432097,5.208250526949721,-10.03547124360132,0.6
3.486205761316872,4.7792030512897785,-10.31825253437719,0.6
3.4942016460905347,4.350155575629838,-10.601033825153062,0.6
3.5021975308641973,4.656296296296311,-9.504197530864207,2.323950617283948
3.51019341563786,5.004921301599422,-7.797539349200289,2.6024606507997112
3.5181893004115223,5.037894022315556,-7.781052988842221,2.618947011157778
3.526185185185185,5.070866743031691,-7.764566628484155,2.6354333715158456
3.5341810699588474,5.103839463747825,-7.748080268126087,2.6519197318739125
3.54217695473251,5.136812184463959,-7.73159390776802,2.6684060922319794
3.5501728395061725,5.1697849051800935,-7.7151075474099535,2.6848924525900464
3.558168724279835,5.202757625896227,-7.698621187051886,2.7013788129481138
3.5661646090534975,5.235730346612361,-7.682134826693819,2.7178651733061807
3.57416049382716,5.268703067328496,-7.665648466335752,2.7343515336642477
3.5821563786008226,5.30167578804463,-7.649162105977685,2.7508378940223146
3.590152263374485,5.334648508760764,-7.6326757456196175,2.767324254380382
3.5981481481481477,5.367621229476899,-7.616189385261551,2.783810614738449
3.60614403292181,5.378395061728456,-7.636008230452573,2.7855967078189705
3.6141399176954727,3.993214775622186,-8.804071134626689,3.510856359004502
3.6221358024691352,3.9456202233980044,-8.832627865961198,3.5870076425631927
3.630131687242798,3.89802567117382,-8.861184597295708,3.6631589261218878
3.6381275720164608,3.8504311189496385,-8.889741328630217,3.7393102096805784
3.6461234567901233,3.802836566725457,-8.918298059964727,3.815461493239269
3.654119341563786,3.755242014501275,-8.946854791299236,3.8916127767979596
3.6621152263374483,3.707647462277093,-8.975411522633744,3.9677640603566506
3.670111111111111,3.6600529100529116,-9.003968253968253,4.043915343915341
3.6781069958847734,3.61245835782873,-9.032524985302762,4.120066627474031
3.686102880658436,3.5648638056045483,-9.06108171663727,4.196217911032723
3.6940987654320985,3.5172692533803667,-9.08963844797178,4.2723691945914135
3.702094650205761,3.245267489711944,-9.439643347050742,4.724554183813427
3.7100905349794235,3.893803778526003,-9.792564534231204,4.5037177328843985
3.718086419753086,3.848372615039284,-9.738047138047142,4.5309764309764295
3.7260823045267486,3.8029414515525652,-9.68352974186308,4.558235129068461
3.734078189300411,3.757510288065846,-9.629012345679016,4.585493827160492
3.7420740740740737,3.7120791245791276,-9.574494949494953,4.612752525252524
3.750069958847736,3.6666479610924085,-9.519977553310891,4.640011223344555
3.7580658436213987,3.6212167976056895,-9.465460157126827,4.667269921436586
3.7660617283950613,3.575785634118971,-9.410942760942765,4.694528619528618
3.774057613168724,3.530354470632252,-9.356425364758701,4.721787317620649
3.7820534979423863,3.484923307145533,-9.301907968574639,4.74904601571268
3.790049382716049,3.439492143658814,-9.247390572390577,4.776304713804711
3.7980452674897114,3.6090534979422695,-8.834156378601028,4.695473251028865
3.806041152263374,4.4454389574759485,-8.558676268861449,4.0132373113855015
3.8140370370370364,5.5207407407407265,-8.979259259259274,2.606666666666733
3.8220329218106994,5.68065843621399,-8.819341563786011,1.8870370370370497
3.830028806584362,5.718743484224966,-8.76251303155007,1.7250260631001388
3.8380246913580245,5.740065843621399,-8.719868312757203,1.6397366255144055
3.846020576131687,5.761388203017832,-8.677223593964337,1.5544471879286719
3.8540164609053496,5.782710562414266,-8.634578875171469,1.4691577503429385
3.862012345679012,5.804032921810699,-8.591934156378603,1.3838683127572051
3.8700082304526746,5.825355281207132,-8.549289437585736,1.2985788751714715
3.878004115226337,5.846677640603565,-8.50664471879287,1.213289437585738
3.8859999999999997,5.867999999999999,-8.464000000000002,1.1280000000000046
3.893995884773662,5.889322359396433,-8.421355281207136,1.0427105624142712
3.9019917695473247,6.731961591220792,-7.50164609053505,-1.262277091906535
3.9099876543209873,7.196680384087792,-5.8867215363511685,-3.7
3.91798353909465,7.187796067672611,-5.851184270690446,-3.7
3.9259794238683123,7.178911751257431,-5.8156470050297235,-3.7
3.933975308641975,7.17002743484225,-5.780109739369001,-3.7
3.9419711934156374,7.161143118427069,-5.744572473708279,-3.7
3.9499670781893,7.152258802011889,-5.709035208047556,-3.7
3.9579629629629625,7.143374485596708,-5.673497942386834,-3.7
3.965958847736625,7.134490169181528,-5.637960676726111,-3.7
3.9739547325102875,7.125605852766347,-5.602423411065389,-3.7
3.98195061728395,7.116721536351166,-5.566886145404666,-3.7
3.9899465020576126,7.107837219935986,-5.531348879743944,-3.7
3.997942386831275,7.571193415637459,-5.028806584362541,-4.171193415637459
4.005938271604938,9.293814165042237,-3.8154645873944104,-6.696907082521118
4.013934156378601,9.276980723413473,-3.8575481914663183,-6.688490361706736
4.021930041152263,9.26014728178471,-3.8996317955382267,-6.6800736408923544
4.029925925925926,9.243313840155947,-3.9417153996101346,-6.671656920077973
4.037921810699588,9.226480398527183,-3.983799003682043,-6.6632401992635915
4.045917695473251,9.20964695689842,-4.025882607753951,-6.6548234784492095
4.053913580246913,9.192813515269656,-4.067966211825859,-6.646406757634828
4.061909465020576,9.175980073640893,-4.110049815897767,-6.6379900368204465
4.069905349794238,9.15914663201213,-4.152133419969676,-6.629573316006065
4.077901234567901,9.142313190383366,-4.194217024041584,-6.621156595191683
4.085897119341563,9.125479748754604,-4.236300628113492,-6.612739874377302
4.093893004115226,9.10864630712584,-4.2783842321854,-6.60432315356292
4.1018888888888885,7.244444444444563,-6.366666666666577,-5.277777777777851
4.109884773662551,6.211412009380954,-6.944293995309524,-4.5430505774591845
4.1178806584362135,6.0910438514978615,-7.004478074251069,-4.465671047391482
4.125876543209876,5.97067569361477,-7.064662153192615,-4.388291517323781
4.133872427983539,5.8503075357316785,-7.124846232134161,-4.310911987256079
4.141868312757201,5.729939377848586,-7.185030311075707,-4.233532457188376
4.149864197530864,5.609571219965495,-7.245214390017253,-4.156152927120675
4.157860082304526,5.489203062082403,-7.305398468958798,-4.078773397052973
4.165855967078189,5.368834904199311,-7.3655825479003445,-4.001393866985271
4.173851851851851,5.248466746316219,-7.425766626841891,-3.924014336917569
4.181847736625514,5.128098588433127,-7.485950705783436,-3.8466348068498672
4.189843621399176,5.007730430550035,-7.546134784724982,-3.7692552767821654
4.197839506172839,2.2695473251050338,-9.05514403292062,-1.9370370370384802
4.205835390946501,-22.784224965705135,-22.91467764060284,14.854320987653445
4.213831275720164,7.517283950626096,-1.1639917695502104,5.425308641975466
4.2218271604938264,5.270132381377473,-0.9923397292874809,5.5131637661758
4.229823045267489,4.422375923446981,-1.2909812087857224,5.628766919529958
4.2378189300411515,3.5746194655164882,-1.5896226882839641,5.744370072884116
4.245814814814814,2.7268630075859956,-1.8882641677822058,5.8599732262382735
4.253810699588477,1.8791065496555035,-2.1869056472804473,5.9755763795924315
4.261806584362139,1.0313500917250105,-2.4855471267786893,6.091179532946589
4.269802469135802,0.18359363379451832,-2.7841886062769303,6.206782686300747
4.277798353909464,-0.6641628241359747,-3.0828300857751723,6.322385839654905
4.285794238683128,-1.511919282066561,-3.381471565273447,6.437988993009077
4.29379012345679,-2.359675739997053,-3.680113044771689,6.5535921463632345
4.301786008230453,5.3489711934144095,-6.971193415637579,2.56831275720219
4.309781893004115,4.051510375623851,-7.773154714998686,3.598993082917433
4.317777777777778,4.23014184397163,-7.977304964539005,3.479905437352247
4.32577366255144,4.4087733123194095,-8.181455214079325,3.3608177917870603
4.333769547325103,4.587404780667189,-8.385605463619644,3.241730146221874
4.341765432098765,4.766036249014968,-8.589755713159963,3.1226425006566876
4.349761316872428,4.944667717362748,-8.793905962700283,3.0035548550915014
4.35775720164609,5.123299185710527,-8.998056212240602,2.8844672095263153
4.365753086419753,5.301930654058307,-9.202206461780921,2.7653795639611287
4.373748971193415,5.480562122406086,-9.40635671132124,2.646291918395943
4.381744855967078,5.6591935907538655,-9.61050696086156,2.5272042728307564
4.3897407407407405,5.837825059101645,-9.81465721040188,2.40811662726557
4.397736625514403,5.521193415638135,-9.742181069958995,2.3736625514402867
4.405732510288066,4.646502057613144,-7.294238683127709,3.1860082304525754
4.413728395061728,4.0609427609427655,-7.145566778900107,3.5260381593714896
4.421724279835391,4.0064253647587025,-7.209170407781513,3.5623830901608646
4.429720164609053,3.95190796857464,-7.27277403666292,3.5987280209502397
4.437716049382716,3.8973905723905773,-7.336377665544326,3.635072951739615
4.445711934156378,3.8428731762065147,-7.399981294425732,3.6714178825289903
4.453707818930041,3.788355780022452,-7.463584923307139,3.7077628133183653
4.461703703703703,3.7338383838383895,-7.527188552188545,3.7441077441077404
4.469699588477366,3.679320987654327,-7.5907921810699515,3.7804526748971155
4.477695473251028,3.624803591470264,-7.6543958099513585,3.8167976056864905
4.485691358024691,3.5702861952862017,-7.717999438832765,3.8531425364758656
4.493687242798353,3.5157687991021387,-7.781603067714171,3.8894874672652406
4.501683127572016,2.2978652263374513,-8.304269547325099,4.205692729766797
4.5096790123456785,2.2728780864197557,-8.35424382716049,4.272325102880651
4.517674897119341,2.2478909465020602,-8.404218106995879,4.338957475994506
4.5256707818930035,2.222903806584365,-8.45419238683127,4.40558984910836
4.533666666666666,2.1979166666666696,-8.504166666666661,4.472222222222214
4.541662551440329,2.172929526748974,-8.554140946502052,4.538854595336069
4.549658436213991,2.1479423868312786,-8.604115226337443,4.605486968449923
4.557654320987654,2.1229552469135835,-8.654089506172834,4.672119341563778
4.565650205761316,2.097968106995888,-8.704063786008224,4.7387517146776315
4.573646090534979,2.072980967078193,-8.754038065843615,4.805384087791486
4.581641975308641,2.0479938271604974,-8.804012345679006,4.87201646090534
4.589637860082304,2.023006687242802,-8.853986625514397,4.938648834019195
4.597633744855966,2.002880658436209,-8.92592592592588,5.0144032921810435
4.605629629629629,2.039225589225585,-9.253030303030265,5.196127946127925
4.613625514403291,2.0755705200149612,-9.580134680134652,5.377852600074806
4.621621399176954,2.6242798353908086,-10.761179698216482,5.32524005486973
4.6296172839506164,3.193843621399178,-10.244592592592603,5.355407407407397
4.637613168724279,3.1831824417009615,-10.148641975308653,5.451358024691348
4.6456090534979415,3.172521262002745,-10.052691358024703,5.547308641975297
4.653604938271605,3.161860082304527,-9.956740740740742,5.643259259259258
4.6616008230452675,3.1511989026063105,-9.860790123456791,5.7392098765432085
4.66959670781893,3.1405377229080935,-9.764839506172843,5.835160493827159
4.6775925925925925,3.129876543209877,-9.668888888888892,5.931111111111109
4.685588477366255,3.1192153635116604,-9.572938271604942,6.027061728395059
4.693584362139918,3.1085541838134434,-9.476987654320991,6.123012345679009
4.70158024691358,3.2580246913580115,-9.00493827160497,6.911111111111052
4.709576131687243,4.797137631458619,-9.008587105624143,4.754202103337906
4.717572016460905,4.7882533150434385,-9.035240054869684,4.612053040695016
4.725567901234568,4.779368998628258,-9.061893004115227,4.469903978052126
4.73356378600823,4.770484682213077,-9.088545953360768,4.327754915409237
4.741559670781893,4.7616003657978965,-9.115198902606311,4.185605852766347
4.749555555555555,4.752716049382716,-9.141851851851852,4.043456790123457
4.757551440329218,4.743831732967536,-9.168504801097393,3.9013077274805674
4.76554732510288,4.734947416552355,-9.195157750342936,3.759158664837678
4.773543209876543,4.726063100137174,-9.221810699588477,3.6170096021947886
4.781539094650205,4.717178783721994,-9.24846364883402,3.4748605395518988
4.789534979423868,4.708294467306813,-9.275116598079562,3.332711476909009
4.7975308641975305,4.646913580246939,-9.3,2.509876543210204
4.805526748971193,6.89221046443269,-8.187536743092304,-3.3077895355673097
4.813522633744856,6.85141513395482,-8.12226421432771,-3.34858486604518
4.821518518518518,6.81061980347695,-8.05699168556312,-3.38938019652305
4.829514403292181,6.76982447299908,-7.991719156798527,-3.43017552700092
4.837510288065843,6.72902914252121,-7.9264466280339345,-3.47097085747879
4.845506172839506,6.6882338120433396,-7.861174099269343,-3.5117661879566606
4.853502057613168,6.6474384815654695,-7.795901570504751,-3.5525615184345307
4.861497942386831,6.606643151087599,-7.730629041740158,-3.593356848912401
4.869493827160493,6.565847820609729,-7.665356512975567,-3.634152179390271
4.877489711934156,6.525052490131859,-7.600083984210975,-3.674947509868141
4.885485596707818,6.484257159653989,-7.534811455446382,-3.715742840346011
4.893481481481481,6.443461829176119,-7.46953892668179,-3.756538170823881
4.901477366255143,6.402666498698249,-7.404266397917198,-3.7973335013017513
4.909473251028806,8.20051440329218,-5.799485596707819,-7.099485596707819
4.9174691358024685,8.209205582393986,-5.790794417606012,-7.090794417606012
4.925465020576131,8.217896761495794,-5.782103238504205,-7.082103238504205
4.9334609053497935,8.226587940597602,-5.773412059402398,-7.073412059402398
4.941456790123456,8.235279119699408,-5.764720880300591,-7.064720880300591
4.949452674897119,8.243970298801216,-5.756029701198784,-7.056029701198784
4.957448559670781,8.252661477903024,-5.747338522096977,-7.047338522096977
4.965444444444444,8.26135265700483,-5.73864734299517,-7.03864734299517
4.973440329218106,8.270043836106638,-5.729956163893363,-7.029956163893363
4.981436213991769,8.278735015208444,-5.721264984791556,-7.021264984791556
4.989432098765431,8.287426194310251,-5.7125738056897495,-7.012573805689749
4.997427983539094,8.29611737341206,-5.703882626587942,-7.0038826265879415
5.005423868312756,6.415226337448659,-7.042386831275671,-5.215226337448659
5.013419753086419,5.434708193041545,-7.555246913580231,-4.079910213243552
5.021415637860081,5.316587167976076,-7.655195473251013,-4.043565282454177
5.029411522633745,5.198466142910593,-7.755144032921805,-4.007220351664798
5.037407407407407,5.080345117845124,-7.855092592592587,-3.970875420875423
5.04540329218107,4.962224092779655,-7.955041152263369,-3.934530490086048
5.053399176954732,4.844103067714186,-8.05498971193415,-3.8981855592966728
5.061395061728395,4.725982042648717,-8.154938271604932,-3.8618406285072977
5.0693909465020575,4.607861017583248,-8.254886831275712,-3.8254956977179226
5.07738683127572,4.489739992517779,-8.354835390946494,-3.7891507669285476
5.0853827160493825,4.37161896745231,-8.454783950617276,-3.7528058361391725
5.093378600823045,4.253497942386841,-8.554732510288058,-3.7164609053497975
5.101374485596708,-25.79231824416972,-20.570370370370146,28.49410150891599
5.10937037037037,11.00316271327508,-5.258426966292132,-5.069038701622956
5.117366255144033,11.605100106348548,-5.015855181023719,-3.7214176723539962
5.125362139917695,12.207037499422018,-4.773283395755307,-2.3737966430850364
5.133358024691358,12.808974892495486,-4.530711610486894,-1.0261756138160765
5.14135390946502,13.410912285568955,-4.288139825218481,0.3214454154528834
5.149349794238683,14.012849678642423,-4.045568039950068,1.6690664447218433
5.157345679012345,14.614787071715892,-3.8029962546816556,3.0166874739908023
5.165341563786008,15.216724464789362,-3.5604244694132428,4.364308503259763
5.17333744855967,15.81866185786283,-3.31785268414483,5.711929532528722
5.181333333333333,16.4205992509363,-3.0752808988764175,7.059550561797683
5.189329218106995,17.02253664400977,-2.8327091136080047,8.407171591066643
5.197325102880658,11.000411522646804,-3.1851851851840274,9.21234567901331
5.2053209876543205,10.805114638447497,-8.580070546737183,0.07601410934743669
5.213316872427983,5.920609242703754,-5.559543067972184,2.6645049903032
5.221312757201646,5.773558488245594,-5.669831133815805,2.783983728300455
5.229308641975308,5.626507733787434,-5.780119199659425,2.9034624662977104
5.237304526748971,5.479456979329273,-5.890407265503045,3.0229412042949657
5.245300411522633,5.332406224871113,-6.000695331346666,3.1424199422922214
5.253296296296296,5.1853554704129525,-6.110983397190286,3.2618986802894767
5.261292181069958,5.038304715954792,-6.221271463033906,3.381377418286732
5.269288065843621,4.8912539614966315,-6.331559528877527,3.5008561562839873
5.277283950617283,4.7442032070384705,-6.441847594721147,3.6203348942812426
5.285279835390946,4.5971524525803105,-6.552135660564767,3.739813632278498
5.293275720164608,4.45010169812215,-6.662423726408388,3.859292370275753
5.301271604938271,3.512933568489082,-9.497413286302184,2.692239858906551
5.309267489711933,3.8936899862825376,-9.421262002743493,2.4637860082304774
5.317263374485596,4.274446404075993,-9.345110719184802,2.2353321575544043
5.3252592592592585,4.495654320987655,-9.273925925925933,2.1608395061728234
5.333255144032921,4.484993141289439,-9.209958847736633,2.310096021947857
5.3412510288065835,4.474331961591222,-9.145991769547333,2.4593525377228906
5.349246913580246,4.463670781893006,-9.082024691358033,2.6086090534979243
5.357242798353909,4.453009602194789,-9.018057613168732,2.757865569272958
5.365238683127571,4.442348422496572,-8.954090534979432,2.907122085047991
5.373234567901234,4.431687242798356,-8.890123456790132,3.0563786008230247
5.381230452674896,4.421026063100139,-8.826156378600832,3.2056351165980583
5.389226337448559,4.410364883401923,-8.762189300411531,3.354891632373092
5.397222222222222,4.340740740740829,-8.662962962963016,3.618518518518343
5.405218106995885,2.578189300411511,-8.465432098765469,6.387242798353958
5.413213991769547,2.5237823904490577,-8.7,6.692072536516981
5.42120987654321,2.5501424501424506,-8.7,6.683285849952517
5.429205761316872,2.5765025098358434,-8.7,6.674499163388052
5.437201646090535,2.6028625695292362,-8.7,6.665712476823588
5.445197530864197,2.629222629222629,-8.7,6.656925790259123
5.45319341563786,2.655582688916022,-8.7,6.6481391036946595
5.461189300411522,2.681942748609415,-8.7,6.639352417130195
5.469185185185185,2.708302808302808,-8.7,6.63056573056573
5.4771810699588475,2.734662867996201,-8.7,6.621779044001266
5.48517695473251,2.7610229276895937,-8.7,6.612992357436802
5.4931728395061725,2.7873829873829865,-8.7,6.604205670872338
5.501168724279835,3.8098177542621734,-9.054908877131087,5.704291593180523
5.509164609053498,4.5,-9.455846042120543,4.674461389494057
5.51716049382716,4.5,-9.596949891067533,4.862599854756711
5.525156378600823,4.014256722475896,-8.985743277524104,5.793663678899602
5.533152263374485,4.112836123795022,-8.887163876204978,5.749850611646657
5.541148148148148,4.211415525114148,-8.788584474885852,5.706037544393712
5.54914403292181,4.3099949264332755,-8.690005073566725,5.662224477140767
5.557139917695473,4.408574327752402,-8.591425672247599,5.6184114098878215
5.565135802469135,4.507153729071528,-8.49284627092847,5.574598342634877
5.573131687242798,4.605733130390655,-8.394266869609345,5.530785275381931
5.58112757201646,4.704312531709782,-8.295687468290218,5.486972208128987
5.589123456790123,4.802891933028908,-8.197108066971092,5.443159140876041
5.597119341563785,5.031275720163588,-8.111934156378508,5.232921810700889
5.605115226337448,4.8067507223535575,-8.186498555292884,0.3707468698012483
5.6131111111111105,4.832269503546097,-8.135460992907804,0.26016548463357536
5.621106995884773,4.857788284738637,-8.084423430522724,0.1495840994659024
5.629102880658436,4.883307065931177,-8.033385868137644,0.039002714298229435
5.637098765432098,4.908825847123717,-7.982348305752564,-0.07157867086944353
5.645094650205761,4.934344628316257,-7.931310743367484,-0.1821600560371165
5.653090534979423,4.959863409508797,-7.880273180982404,-0.2927414412047894
5.661086419753086,4.985382190701337,-7.829235618597324,-0.4033228263724624
5.669082304526748,5.010900971893877,-7.778198056212244,-0.5139042115401353
5.677078189300411,5.036419753086417,-7.727160493827165,-0.6244855967078083
5.685074074074073,5.061938534278957,-7.676122931442086,-0.7350669818754813
5.693069958847736,5.087457315471497,-7.625085369057006,-0.8456483670431542
5.701065843621398,6.36646090534957,-6.533539094650429,-2.673045267489399
5.709061728395061,6.482304526748989,-6.064609053497978,-3.2353909465020214
5.717057613168723,6.40661008230452,-6.302644032921808,-4.303966049382712
5.725053497942386,6.456584362139911,-6.322633744855964,-4.333950617283946
5.7330493827160485,6.506558641975302,-6.34262345679012,-4.363935185185181
5.741045267489711,6.5565329218106925,-6.362613168724277,-4.393919753086415
5.7490411522633735,6.6065072016460835,-6.382602880658434,-4.42390432098765
5.757037037037036,6.656481481481475,-6.4025925925925895,-4.453888888888884
5.765032921810699,6.706455761316865,-6.422582304526745,-4.483873456790119
5.773028806584362,6.756430041152261,-6.442572016460904,-4.513858024691356
5.7810246913580245,6.806404320987652,-6.462561728395061,-4.543842592592591
5.789020576131687,6.856378600823043,-6.4825514403292175,-4.573827160493825
5.79701646090535,6.98131687242795,-6.378024691358076,-4.559341563786025
5.805012345679012,8.3,-4.901234567901243,-4.096296296296273
5.813008230452675,8.261493239271019,-5.046208112874778,-3.776895943562611
5.821004115226337,8.217559806448698,-5.098928232261564,-3.750535883869218
5.829,8.173626373626377,-5.151648351648349,-3.724175824175825
5.836995884773662,8.129692940804054,-5.204368471035135,-3.6978157644824323
5.844991769547325,8.085759507981733,-5.257088590421921,-3.6714557047890395
5.852987654320987,8.041826075159412,-5.309808709808706,-3.6450956450956467
5.86098353909465,7.9978926423370895,-5.362528829195492,-3.618735585402254
5.868979423868312,7.953959209514768,-5.415248948582278,-3.592375525708861
5.876975308641975,7.910025776692446,-5.467969067969064,-3.5660154660154677
5.8849711934156375,7.866092343870125,-5.52068918735585,-3.539655406322075
5.8929670781893,7.822158911047803,-5.573409306742636,-3.513295346628682
5.9009629629629625,7.257777777777731,-6.661481481481513,-3.7733333333331935
5.908958847736625,8.09128320239432,-7.016343995510648,-4.6
5.916954732510288,8.01859334081557,-7.152637485970804,-4.6
5.92495061728395,7.94590347923682,-7.2889309764309616,-4.6
5.932946502057613,7.87321361765807,-7.425224466891118,-4.6
5.940942386831275,7.80052375607932,-7.561517957351275,-4.6
5.948938271604938,7.72783389450057,-7.697811447811431,-4.6
5.9569341563786,7.655144032921819,-7.834104938271588,-4.6
5.964930041152263,7.582454171343069,-7.970398428731745,-4.6
5.972925925925925,7.509764309764319,-8.106691919191901,-4.6
5.980921810699588,7.437074448185569,-8.242985409652057,-4.6
5.98891769547325,7.3643845866068185,-8.379278900112215,-4.6
5.996913580246913,6.295061728396183,-9.230864197530048,-4.188888888889347
6.004909465020575,-3.9961281472632826,-6.205553343068317,9.302287711845784
6.012905349794238,-2.723664763927739,-5.810057967166729,8.055617505199475
6.0209012345679005,-1.4512013805921966,-5.414562591265142,6.808947298553165
6.028897119341563,-0.17873799725665318,-5.019067215363554,5.562277091906856
6.036893004115226,1.0937253860788898,-4.623571839461967,4.3156068852605465
6.044888888888888,2.366188769414433,-4.228076463560379,3.0689366786142376
6.052884773662551,3.6386521527499758,-3.832581087658791,1.8222664719679287
6.060880658436213,4.911115536085519,-3.4370857117572036,0.5755962653216198
6.068876543209876,6.183578919421062,-3.041590335855616,-0.6710739413246891
6.076872427983538,7.456042302756605,-2.646094959954028,-1.917744147970998
6.084868312757201,8.728505686092149,-2.2505995840524404,-3.164414354617307
6.092864197530863,10.00096906942769,-1.8551042081508529,-4.411084561263616
6.100860082304526,15.859820426488916,-1.134044145154809,6.83598952487852
6.108855967078188,-1.5857463524109612,-5.422745978301029,5.818331462776027
6.116851851851851,4.037342047930241,-8.378997821350739,2.307233115468434
6.124847736625513,4.498281287823728,-8.623577826192182,2.043839264100727
6.132843621399176,4.959220527717215,-8.868157831033624,1.78044541273302
6.1408395061728385,5.420159767610702,-9.112737835875066,1.5170515613653128
6.148835390946502,5.881099007504241,-9.357317840716536,1.2536577099975768
6.156831275720164,6.342038247397728,-9.601897845557978,0.9902638586298698
6.164827160493827,6.802977487291216,-9.84647785039942,0.7268700072621628
6.1728230452674895,7.263916727184703,-10.091057855240862,0.46347615589445557
6.180818930041152,7.72485596707819,-10.335637860082306,0.2000823045267488
6.1888148148148145,8.185795206971676,-10.580217864923748,-0.06331154684095841
6.196810699588477,6.978600823045845,-10.029835390946777,0.42962962962936974
6.20480658436214,5.196114872339486,-9.27863179786717,2.0077702553210295
6.212802469135802,5.17891942121333,-9.184056816673312,2.042161157573341
6.220798353909465,5.1617239700871735,-9.089481835479454,2.0765520598256533
6.228794238683127,5.1445285189610175,-8.994906854285595,2.1109429620779654
6.23679012345679,5.127333067834861,-8.900331873091737,2.145333864330277
6.244786008230452,5.110137616708705,-8.80575689189788,2.179724766582589
6.252781893004115,5.092942165582549,-8.711181910704022,2.2141156688349013
6.260777777777777,5.075746714456393,-8.616606929510164,2.248506571087213
6.26877366255144,5.058551263330237,-8.522031948316306,2.282897473339525
6.276769547325102,5.041355812204081,-8.427456967122447,2.317288375591837
6.284765432098765,5.024160361077925,-8.332881985928589,2.351679277844149
6.2927613168724275,5.00696490995177,-8.23830700473473,2.386070180096461
6.30075720164609,4.2897119341564,-8.124279835391,2.6448559670782
6.3087530864197525,2.7877640603566554,-7.524471879286689,4.83058984910836
6.316748971193415,2.752226794695933,-7.595546410608134,4.919433013260167
6.324744855967078,2.716689529035211,-7.666620941929579,5.008276177411973
6.33274074074074,2.6811522633744884,-7.737695473251024,5.097119341563779
6.340736625514403,2.645614997713766,-7.808770004572469,5.185962505715585
6.348732510288065,2.6100777320530435,-7.8798445358939135,5.274805669867391
6.356728395061728,2.574540466392321,-7.9509190672153585,5.363648834019197
6.36472427983539,2.5390032007315986,-8.021993598536802,5.452491998171003
6.372720164609053,2.503465935070876,-8.093068129858247,5.541335162322809
6.380716049382715,2.4679286694101537,-8.164142661179692,5.630178326474615
6.388711934156378,2.432391403749431,-8.235217192501137,5.719021490626421
6.39670781893004,2.364609053497973,-8.512345679012162,5.729218106995946
6.404703703703703,3.023456790123432,-9.285185185185147,5.523456790123432
6.412699588477365,3.0810013717421154,-9.418998628257885,5.618998628257884
6.420695473251028,3.0543484224965733,-9.445651577503426,5.645651577503426
6.4286913580246905,3.0276954732510317,-9.47230452674897,5.6723045267489685
6.436687242798353,3.0010425240054897,-9.49895747599451,5.69895747599451
6.444683127572016,2.974389574759948,-9.525610425240052,5.725610425240052
6.452679012345678,2.9477366255144064,-9.552263374485594,5.752263374485594
6.460674897119341,2.9210836762688643,-9.578916323731136,5.778916323731136
6.468670781893003,2.8944307270233227,-9.605569272976677,5.805569272976678
6.476666666666666,2.8677777777777806,-9.632222222222218,5.832222222222219
6.484662551440328,2.841124828532239,-9.658875171467761,5.858875171467761
6.492658436213991,2.814471879286697,-9.685528120713302,5.885528120713303
6.500654320987653,3.005274971941592,-9.669921436588115,5.179685746352466
6.508650205761316,3.514104002992839,-9.524541713430617,4.59816685372247
6.516646090534979,4.685843621399174,-9.46061728395062,3.6818518518518584
6.524641975308642,4.906862273528939,-9.289706589706592,3.158826358826366
6.532637860082304,4.927630805408582,-9.258553791887127,3.0342151675485085
6.540633744855967,4.948399337288225,-9.227400994067663,2.9096039762706507
6.548629629629629,4.969167869167868,-9.196248196248199,2.784992784992793
6.556625514403292,4.989936401047511,-9.165095398428734,2.660381593714935
6.564621399176954,5.010704932927154,-9.13394260060927,2.5357704024370777
6.572617283950617,5.031473464806797,-9.102789802789806,2.4111592111592195
6.5806131687242795,5.05224199668644,-9.071637004970341,2.286548019881362
6.588609053497942,5.0730105285660825,-9.040484207150875,2.1619368286035043
6.5966049382716045,5.093779060445725,-9.009331409331411,2.0373256373256465
6.604600823045267,6.080246913580035,-8.739917695473322,-1.7804526748967315
6.61259670781893,6.105164840245989,-8.384505479262033,-3.1826374439358194
6.620592592592592,6.114148980441115,-8.357553058676656,-3.3263836870578416
6.628588477366255,6.123133120636242,-8.330600638091276,-3.470129930179864
6.636584362139917,6.132117260831368,-8.303648217505897,-3.613876173301886
6.64458024691358,6.141101401026494,-8.276695796920517,-3.7576224164239087
6.652576131687242,6.15008554122162,-8.249743376335138,-3.901368659545931
6.660572016460905,6.159069681416747,-8.222790955749758,-4.045114902667954
6.668567901234567,6.168053821611873,-8.195838535164379,-4.188861145789976
6.67656378600823,6.177037961807,-8.168886114579001,-4.332607388911998
6.684559670781892,6.186022102002126,-8.141933693993622,-4.47635363203402
6.692555555555555,6.195006242197253,-8.114981273408242,-4.620099875156043
6.7005514403292175,6.551714677640585,-7.39314128943766,-5.348285322359415
6.70854732510288,7.232098765432046,-6.013168724279923,-4.5679012345679535
6.7165432098765425,7.3260110685398026,-5.847977862920395,-4.5
6.724539094650205,7.353583085000707,-5.792833829998584,-4.5
6.732534979423868,7.381155101461613,-5.737689797076774,-4.5
6.74053086419753,7.408727117922518,-5.682545764154964,-4.5
6.748526748971193,7.436299134383423,-5.627401731233154,-4.5
6.756522633744855,7.463871150844328,-5.572257698311343,-4.5
6.764518518518518,7.491443167305233,-5.517113665389533,-4.5
6.77251440329218,7.519015183766138,-5.461969632467723,-4.5
6.780510288065843,7.5465872002270435,-5.406825599545913,-4.5
6.788506172839505,7.574159216687948,-5.351681566624102,-4.5
6.796502057613168,7.650205761316762,-5.224691358024856,-4.474897119341619
6.80449794238683,7.3887251648303085,-6.616106907385273,-3.501610690738527
6.812493827160493,7.328541085888763,-6.702084163016053,-3.510208416301605
6.820489711934155,7.268357006947217,-6.788061418646833,-3.518806141864683
6.828485596707818,7.208172928005671,-6.874038674277613,-3.5274038674277612
6.8364814814814805,7.1479888490641255,-6.960015929908393,-3.5360015929908393
6.844477366255143,7.087804770122579,-7.045993185539173,-3.5445993185539173
6.852473251028806,7.027620691181033,-7.131970441169953,-3.5531970441169953
6.860469135802468,6.967436612239487,-7.217947696800732,-3.5617947696800734
6.868465020576131,6.9072525332979415,-7.303924952431513,-3.5703924952431514
6.876460905349793,6.847068454356395,-7.389902208062292,-3.5789902208062294
6.884456790123456,6.786884375414849,-7.475879463693072,-3.5875879463693074
6.892452674897119,6.726700296473297,-7.5618567193238615,-3.5961856719323864
6.900448559670782,6.295585484474393,-8.044855967078167,-3.721324354657682
6.908444444444444,5.5266666666667,-8.728888888888882,-3.928888888888883
6.916440329218107,4.567160493827176,-8.888806584362138,-4.088806584362137
6.924436213991769,0.9786113749076848,-11.024828532235935,-4.078611374907685
6.932432098765432,-2.0454732510287745,-12.090946502057601,-1.0545267489712256
6.940427983539094,-5.069557876965234,-13.157064471879268,1.9695578769652338
6.948423868312757,-8.093642502901693,-14.223182441700935,4.993642502901693
6.956419753086419,-11.117727128838151,-15.289300411522603,8.017727128838152
6.964415637860082,-14.14181175477461,-16.35541838134427,11.04181175477461
6.972411522633744,-17.16589638071107,-17.421536351165937,14.06589638071107
6.980407407407407,-20.189981006647532,-18.487654320987602,17.08998100664753
6.9884032921810695,-23.21406563258399,-19.55377229080927,20.114065632583987
6.996399176954732,-26.23815025852045,-20.61989026063094,23.138150258520447
7.0043950617283945,7.090123456796896,-2.7098765432108305,7.476543209876209
7.012390946502057,-0.8670735654506262,-6.0118925417302265,7.836676376751308
7.02038683127572,0.2200073981596682,-6.622814074998821,7.0011513386045525
7.028382716049382,1.3070883617699622,-7.233735608267416,6.165626300457798
7.036378600823045,2.3941693253802567,-7.844657141536011,5.330101262311043
7.044374485596707,3.4812502889905512,-8.455578674804606,4.4945762241642875
7.05237037037037,4.568331252600846,-9.066500208073201,3.6590511860175328
7.060366255144032,5.65541221621114,-9.677421741341796,2.823526147870778
7.068362139917695,6.742493179821434,-10.288343274610392,1.9880011097240224
7.076358024691357,7.829574143431728,-10.899264807878987,1.1524760715772677
7.08435390946502,8.916655107042022,-11.510186341147582,0.316951033430513
7.092349794238682,10.003736070652318,-12.121107874416177,-0.5185740047162426
7.100345679012345,5.1,-8.970987654320705,3.2709876543207055
7.1083415637860075,4.854051064206386,-9.0,3.0885127660515965
7.11633744855967,4.785269259701762,-9.0,3.0713173149254405
7.1243333333333325,4.716487455197138,-9.0,3.0541218637992844
7.132329218106995,4.647705650692513,-9.0,3.0369264126731284
7.140325102880658,4.57892384618789,-9.0,3.0197309615469723
7.14832098765432,4.510142041683266,-9.0,3.0025355104208162
7.156316872427983,4.441360237178642,-9.0,2.9853400592946606
7.164312757201645,4.372578432674017,-9.0,2.9681446081685046
7.172308641975308,4.303796628169394,-9.0,2.9509491570423485
7.18030452674897,4.23501482366477,-9.0,2.9337537059161924
7.188300411522633,4.1662330191601455,-9.0,2.9165582547900364
7.196296296296295,4.085185185185226,-8.955555555555678,2.944444444444321
7.204292181069958,3.4123456790126943,-7.24773662551481,3.9168724279830744
7.21228806584362,3.3588705989940624,-7.72937814357567,4.435253772290804
7.220283950617283,3.2966803840877983,-7.773799725651573,4.488559670781887
7.228279835390945,3.234490169181534,-7.818221307727476,4.5418655692729715
7.236275720164608,3.17229995427527,-7.862642889803379,4.595171467764055
7.2442716049382705,3.1101097393690056,-7.9070644718792815,4.648477366255138
7.252267489711933,3.0479195244627415,-7.951486053955184,4.701783264746222
7.260263374485596,2.9857293095564703,-7.995907636031093,4.755089163237312
7.268259259259259,2.9235390946502062,-8.040329218106995,4.808395061728395
7.2762551440329215,2.861348879743942,-8.084750800182897,4.861700960219478
7.284251028806584,2.7991586648376776,-8.129172382258801,4.915006858710562
7.292246913580247,2.7369684499314135,-8.173593964334705,4.9683127572016454
7.300242798353909,2.3,-8.262139917695443,4.5757201646091135
7.308238683127572,2.7477366255143663,-9.171604938271548,4.6
7.316234567901234,3.1289979902383003,-9.692750502440424,4.628997990238299
7.324230452674897,3.1661881519762654,-9.683452962005934,4.666188151976265
7.332226337448559,3.2033783137142304,-9.674155421571442,4.70337831371423
7.340222222222222,3.2405684754521955,-9.66485788113695,4.7405684754521955
7.348218106995884,3.2777586371901606,-9.65556034070246,4.777758637190161
7.356213991769547,3.3149487989281257,-9.646262800267968,4.814948798928126
7.364209876543209,3.3521389606660907,-9.636965259833477,4.852138960666091
7.372205761316872,3.3893291224040563,-9.627667719398985,4.889329122404056
7.380201646090534,3.4265192841420213,-9.618370178964494,4.926519284142021
7.388197530864197,3.4637094458799864,-9.609072638530003,4.963709445879986
7.3961934156378595,3.5096707818929795,-9.6,4.9903292181070205
7.404189300411522,3.2102305411743868,-9.789769458825614,5.203836452940395
7.4121851851851845,3.2790123456790097,-9.720987654320991,5.2296296296296285
7.420181069958847,3.347794150183633,-9.652205849816367,5.255422806318863
7.42817695473251,3.4165759546882564,-9.583424045311745,5.281215983008096
7.436172839506172,3.4853577591928797,-9.51464224080712,5.30700915969733
7.444168724279835,3.554139563697503,-9.445860436302498,5.332802336386564
7.452164609053497,3.6229213682021264,-9.377078631797874,5.358595513075797
7.46016049382716,3.6917031727067493,-9.308296827293251,5.384388689765031
7.468156378600822,3.7604849772113726,-9.239515022788627,5.4101818664542645
7.476152263374485,3.829266781715996,-9.170733218284004,5.4359750431434986
7.484148148148147,3.8980485862206193,-9.10195141377938,5.461768219832733
7.49214403292181,3.9668303907252427,-9.033169609274758,5.487561396521966
7.500139917695472,4.743004115226383,-8.413991769547234,3.2300411522638273
7.508135802469135,5.037448559670775,-8.189300411522636,1.346502057613179
7.5161316872427975,5.095751886145397,-8.172642318244172,1.263211591220861
7.52412757201646,5.15405521262002,-8.155984224965708,1.179921124828543
7.5321234567901225,5.212358539094643,-8.139326131687245,1.0966306584362253
7.540119341563785,5.270661865569265,-8.122668038408781,1.0133401920439074
7.548115226337448,5.328965192043888,-8.106009945130317,0.9300497256515893
7.55611111111111,5.3872685185185105,-8.089351851851854,0.8467592592592713
7.564106995884773,5.4455718449931325,-8.07269375857339,0.7634687928669535
7.572102880658435,5.503875171467755,-8.056035665294926,0.6801783264746355
7.580098765432098,5.562178497942378,-8.039377572016463,0.5968878600823175
7.58809465020576,5.620481824417,-8.022719478737999,0.5135973936899996
7.596090534979423,5.678785150891623,-8.006061385459537,0.4303069272976816
7.604086419753085,5.708641975308518,-7.654320987654259,-2.8407407407394394
7.612082304526748,6.508230452674766,-7.581961591220872,-4.449211248285202
7.62007818930041,7.003621399176954,-7.492757201646093,-4.8891358024691405
7.628074074074073,7.013028322440086,-7.473943355119828,-4.860915032679743
7.636069958847736,7.022435245703219,-7.455129508593561,-4.832694262890342
7.644065843621399,7.031842168966351,-7.4363156620672966,-4.804473493100946
7.652061728395061,7.041249092229484,-7.417501815541032,-4.776252723311548
7.660057613168724,7.050656015492616,-7.398687969014767,-4.748031953522151
7.668053497942386,7.060062938755749,-7.379874122488502,-4.719811183732753
7.676049382716049,7.069469862018881,-7.361060275962237,-4.691590413943357
7.6840452674897115,7.078876785282013,-7.342246429435972,-4.663369644153959
7.692041152263374,7.088283708545146,-7.3234325829097076,-4.635148874364562
7.700037037037037,7.097690631808278,-7.304618736383443,-4.606928104575164
7.708032921810699,7.303292181069891,-5.590123456790324,-4.701646090534946
7.716028806584362,7.506625062180617,-4.993374937819383,-4.780124813458149
7.724024691358024,7.515411748745081,-4.984588251254919,-4.753764753764755
7.732020576131687,7.524198435309546,-4.975801564690454,-4.727404694071362
7.740016460905349,7.53298512187401,-4.96701487812599,-4.701044634377969
7.748012345679012,7.541771808438474,-4.958228191561526,-4.674684574684576
7.756008230452674,7.550558495002939,-4.949441504997061,-4.648324514991184
7.764004115226337,7.559345181567402,-4.940654818432598,-4.621964455297791
7.771999999999999,7.568131868131867,-4.931868131868133,-4.595604395604398
7.779995884773662,7.576918554696332,-4.923081445303668,-4.569244335911005
7.787991769547324,7.585705241260795,-4.914294758739205,-4.542884276217612
7.795987654320987,7.59449192782526,-4.90550807217474,-4.516524216524219
7.8039835390946495,6.857407407407656,-5.645884773662413,-3.952469135802552
7.811979423868312,6.286369455875618,-5.9933561957018755,-4.486712391403751
7.8199753086419745,6.401865569272966,-5.984471879286695,-4.46894375857339
7.827971193415637,6.517361682670313,-5.975587562871515,-4.4511751257430285
7.8359670781893,6.632857796067661,-5.966703246456334,-4.433406492912668
7.843962962962962,6.748353909465009,-5.957818930041153,-4.415637860082306
7.851958847736625,6.863850022862357,-5.948934613625973,-4.397869227251945
7.859954732510287,6.9793461362597045,-5.940050297210792,-4.380100594421584
7.86795061728395,7.094842249657052,-5.931165980795612,-4.362331961591223
7.875946502057612,7.2103383630544,-5.9222816643804315,-4.344563328760861
7.883942386831275,7.325834476451748,-5.91339734796525,-4.3267946959305
7.891938271604937,7.4413305898490965,-5.90451303155007,-4.309026063100139
7.8999341563786,4.510768175583416,-8.671262002743298,-2.9197530864200596
7.907930041152262,-18.42199654851993,-16.13099694676763,14.19199079605315
7.915925925925925,-17.75137395459985,-15.537753882915249,12.403663878932926
7.9239218106995875,-17.080751360679763,-14.944510819062867,10.615336961812703
7.93191769547325,-16.41012876675968,-14.351267755210486,8.827010044692482
7.9399135802469125,-15.739506172839597,-13.758024691358106,7.038683127572258
7.947909465020575,-15.068883578919513,-13.164781627505723,5.250356210452036
7.955905349794238,-14.398260984999428,-12.571538563653341,3.4620292933318133
7.9639012345679,-13.727638391079346,-11.97829549980096,1.6737023762115903
7.971897119341563,-13.057015797159263,-11.385052435948579,-0.11462454090863261
7.979893004115225,-12.38639320323918,-10.791809372096196,-1.9029514580288573
7.987888888888888,-11.715770609319096,-10.198566308243816,-3.6912783751490803
7.99588477366255,-11.045148015399011,-9.605323244391435,-5.4796052922693
8.003880658436213,21.37654320987069,-4.14012345679254,7.515432098758437
8.011876543209876,-0.27860082304540557,-4.505658436213881,5.05390946502064
8.019872427983538,1.798860398860347,-6.124287749287717,4.072950300728111
8.027868312757201,2.352421652421656,-6.470263532763535,3.719286166508387
8.035864197530863,2.9059829059828415,-6.816239316239276,3.3656220322887407
8.043860082304526,3.4595441595441496,-7.162215099715093,3.0119578980690154
8.051855967078188,4.013105413105335,-7.508190883190834,2.658293763849369
8.059851851851851,4.566666666666643,-7.854166666666652,2.3046296296296447
8.067847736625513,5.12022792022783,-8.200142450142394,1.950965495409998
8.075843621399176,5.673789173789137,-8.54611823361821,1.597301361190273
8.083839506172838,6.2273504273503235,-8.892094017093951,1.2436372269706268
8.091835390946502,6.7809116809116325,-9.23806980056977,0.889973092750902
8.099831275720163,7.334472934472817,-9.58404558404551,0.5363089585312557
8.107827160493827,7.888034188034126,-9.930021367521327,0.18264482431153084
8.115823045267488,8.441595441595311,-10.27599715099707,-0.17101930990811542
8.123818930041152,5.581618655692728,-9.286351165980797,0.17743484224965814
8.131814814814813,4.448148148149201,-8.9740740740746,2.733333333332149
8.139810699588477,4.244209288653735,-8.9,2.9111581422692527
8.147806584362138,4.187095825984724,-8.9,2.922580834803055
8.155802469135802,4.1299823633157,-8.9,2.93400352733686
8.163798353909463,4.0728689006466885,-8.9,2.9454262198706624
8.171794238683127,4.015755437977664,-8.9,2.956848912404467
8.179790123456788,3.9586419753086526,-8.9,2.9682716049382694
8.187786008230452,3.9015285126396284,-8.9,2.9796942974720744
8.195781893004115,3.8444150499706042,-8.9,2.991116990005879
8.203777777777777,3.8,-8.72222222222236,2.9111111111111803
8.21177366255144,3.0007097821572843,-8.903548910786423,3.5978706535281466
8.219769547325102,3.008045456261561,-8.940227281307806,3.5758636312153165
8.227765432098765,3.0153811303658395,-8.976905651829199,3.5538566089024815
8.235761316872427,3.0227168044701163,-9.013584022350582,3.5318495865896513
8.24375720164609,3.0300524785743947,-9.050262392871973,3.509842564276816
8.251753086419752,3.0373881526786715,-9.086940763393358,3.4878355419639857
8.259748971193416,3.04472382678295,-9.12361913391475,3.4658285196511507
8.267744855967077,3.0520595008872267,-9.160297504436134,3.4438214973383205
8.27574074074074,3.059395174991505,-9.196975874957525,3.421814475025485
8.283736625514402,3.066730849095782,-9.233654245478908,3.399807452712655
8.291732510288066,3.07406652320006,-9.2703326160003,3.37780043039982
8.299728395061727,3.0814021973043366,-9.307010986521684,3.35579340808699
8.30772427983539,3.088737871408615,-9.343689357043075,3.3337863857741548
8.315720164609052,3.096073545512892,-9.38036772756446,3.311779363461324
8.323716049382716,4.513580246913676,-10.33580246913579,3.493827160493695
8.331711934156377,3.939764693468402,-10.417210087580457,4.234420175160913
8.33970781893004,3.8680067531919367,-10.437712356230875,4.275424712461751
8.347703703703703,3.7962488129154868,-10.45821462488129,4.316429249762579
8.355699588477366,3.7244908726390213,-10.478716893531708,4.3574337870634166
8.363695473251028,3.652732932362572,-10.499219162182122,4.398438324364244
8.371691358024691,3.580974992086106,-10.519721430832542,4.439442861665082
8.379687242798353,3.5092170518096566,-10.540223699482954,4.48044739896591
8.387683127572016,3.437459111533191,-10.560725968133374,4.521451936266748
8.395679012345678,3.3657011712567417,-10.581228236783788,4.562456473567575
8.403674897119341,3.3337448559670513,-10.6,4.3637860082306394
8.411670781893003,3.916769547325064,-10.127537722908183,3.122153635116624
8.419666666666666,4.233333333333214,-9.500000000000178,2.966666666666696
8.427662551440328,4.72208504801094,-9.02597165066302,2.0856881572932195
8.435658436213991,4.806357793498867,-9.0,1.7237064780135976
8.443654320987653,4.815341933693992,-9.0,1.6158967956720929
8.451650205761316,4.82432607388912,-9.0,1.508087113330564
8.459646090534978,4.833310214084245,-9.0,1.4002774309890593
8.467641975308641,4.842294354279373,-9.0,1.2924677486475304
8.475637860082303,4.8512784944744975,-9.0,1.1846580663060258
8.483633744855966,4.860262634669626,-9.0,1.076848383964497
8.491629629629628,4.8692467748647505,-9.0,0.9690387016229921
8.499625514403292,4.878230915059878,-9.0,0.8612290192814633
8.507621399176953,4.8872150552550035,-9.0,0.7534193369399584
8.515617283950617,4.896199195450131,-9.0,0.6456096545984298
8.523613168724278,5.706584362139432,-7.970781893004796,-1.7065843621394314
8.531609053497942,5.930847514180847,-7.648587476365255,-1.9514125236347455
8.539604938271603,5.963263263263259,-7.5945612278945696,-2.005438772105431
8.547600823045267,5.995679012345677,-7.540534979423872,-2.0594650205761287
8.555596707818928,6.028094761428089,-7.486508730953186,-2.113491269046814
8.563592592592592,6.0605105105105075,-7.432482482482488,-2.1675175175175116
8.571588477366255,6.092926259592926,-7.378456234011791,-2.2215437659882094
8.579584362139917,6.125342008675338,-7.324429985541105,-2.275570014458895
8.58758024691358,6.157757757757755,-7.270403737070407,-2.3295962629295923
8.595576131687242,6.190173506840167,-7.216377488599722,-2.383622511400278
8.603572016460905,6.085596707818828,-6.685596707818828,-2.056790123456483
8.611567901234567,5.905986990574804,-6.611973981149606,-0.6940130094251966
8.61956378600823,5.914584716137883,-6.629169432275765,-0.6854152838621177
8.627559670781892,5.92318244170096,-6.646364883401918,-0.6768175582990407
8.635555555555555,5.931780167264039,-6.663560334528076,-0.6682198327359617
8.643551440329217,5.940377892827115,-6.68075578565423,-0.6596221071728847
8.65154732510288,5.948975618390194,-6.697951236780388,-0.6510243816098057
8.659543209876542,5.957573343953271,-6.715146687906542,-0.6424266560467287
8.667539094650206,5.96617106951635,-6.7323421390327,-0.6338289304836497
8.675534979423867,5.974768795079427,-6.749537590158854,-0.6252312049205727
8.68353086419753,5.983366520642506,-6.766733041285012,-0.6166334793574938
8.691526748971192,5.991964246205583,-6.7839284924111665,-0.6080357537944168
8.699522633744856,6.052263374485566,-6.747736625514434,-0.5477366255144336
8.707518518518517,5.896625514403294,-6.603374485596706,0.6151851851851781
8.71551440329218,5.878856881572931,-6.621143118427069,0.6951440329218124
8.723510288065842,5.861088248742572,-6.638911751257428,0.775102880658429
8.731506172839506,5.8433196159122085,-6.6566803840877915,0.8550617283950632
8.739502057613167,5.8255509830818495,-6.6744490169181505,0.9350205761316799
8.74749794238683,5.807782350251486,-6.692217649748514,1.014979423868314
8.755493827160493,5.790013717421127,-6.709986282578873,1.0949382716049307
8.763489711934156,5.772245084590764,-6.727754915409236,1.1748971193415652
8.771485596707818,5.754476451760405,-6.745523548239595,1.2548559670781816
8.779481481481481,5.736707818930041,-6.763292181069959,1.334814814814816
8.787477366255143,5.718939186099682,-6.781060813900318,1.4147736625514327
8.795473251028806,5.701170553269319,-6.798829446730681,1.4947325102880669
8.803469135802468,5.998877665544293,-7.398877665544292,1.6508417508417808
8.811465020576131,6.166191832858524,-7.688730610952842,1.1887306109528413
8.819460905349793,5.981671415004793,-7.627223805001597,1.1272238050015975
8.827456790123456,5.906022689356021,-7.5698865532198925,1.1
8.835452674897118,5.916827939050159,-7.515860304749206,1.1
8.843448559670781,5.927633188744299,-7.461834056278507,1.1
8.851444444444443,5.938438438438436,-7.40780780780782,1.1
8.859440329218106,5.949243688132576,-7.353781559337121,1.1
8.867436213991768,5.960048937826713,-7.299755310866434,1.1
8.875432098765431,5.970854187520853,-7.2457290623957356,1.1
8.883427983539093,5.98165943721499,-7.1917028139250485,1.1
8.891423868312756,5.99246468690913,-7.13767656545435,1.1
8.899419753086418,6.170987654320896,-7.212962962962688,0.9870370370373117
8.907415637860082,6.499532991168448,-7.499532991168448,0.6009340176631044
8.915411522633743,6.4905488509733225,-7.4905488509733225,0.6189022980533552
8.923407407407407,6.481564710778195,-7.481564710778195,0.6368705784436101
8.931403292181068,6.4725805705830695,-7.4725805705830695,0.6548388588338608
8.939399176954732,6.463596430387942,-7.463596430387942,0.6728071392241156
8.947395061728395,6.454612290192815,-7.454612290192815,0.6907754196143704
8.955390946502057,6.44562814999769,-7.44562814999769,0.7087437000046213
8.96338683127572,6.436644009802563,-7.436644009802563,0.7267119803948761
8.971382716049382,6.427659869607437,-7.427659869607437,0.7446802607851268
8.979378600823045,6.41867572941231,-7.41867572941231,0.7626485411753816
8.987374485596707,6.409691589217184,-7.409691589217184,0.7806168215656324
8.99537037037037,6.400707449022057,-7.400707449022057,0.7985851019558873
9.003366255144032,6.4,-7.4,0.7316872427984014
9.011362139917695,6.4037283247159795,-7.407456649431959,0.8
9.019358024691357,6.410562414266118,-7.421124828532235,0.8
9.02735390946502,6.417396503816257,-7.434793007632514,0.8
9.035349794238682,6.424230593366396,-7.44846118673279,0.8
9.043345679012345,6.431064682916535,-7.46212936583307,0.8
9.051341563786007,6.4378987724666725,-7.475797544933346,0.8
9.05933744855967,6.444732862016813,-7.489465724033625,0.8
9.067333333333332,6.45156695156695,-7.503133903133901,0.8
9.075329218106996,6.4584010411170905,-7.51680208223418,0.8
9.083325102880657,6.465235130667228,-7.5304702613344565,0.8
9.09132098765432,6.472069220217368,-7.544138440434735,0.8
9.099316872427982,6.478903309767506,-7.557806619535012,0.8
9.107312757201646,6.485737399317646,-7.571474798635291,0.8
9.115308641975307,6.4925714888677835,-7.585142977735567,0.8
9.12330452674897,6.499405578417924,-7.598811156835846,0.8
9.131300411522632,5.901820675894741,-6.805006858710536,1.3004551689736852
9.139296296296296,5.950280583613914,-6.938271604938262,1.3125701459034784
9.147292181069957,5.998740491333076,-7.071536351165958,1.324685122833269
9.15528806584362,6.047200399052249,-7.204801097393684,1.3368000997630622
9.163283950617283,6.095660306771411,-7.33806584362138,1.3489150766928528
9.171279835390946,6.1441202144905835,-7.4713305898491065,1.3610300536226458
9.179275720164608,6.192580122209746,-7.604595336076803,1.3731450305524364
9.187271604938271,6.241040029928919,-7.737860082304528,1.3852600074822297
9.195267489711933,6.289499937648081,-7.871124828532224,1.3973749844120202
9.203263374485596,6.195610425240056,-7.63902606310014,1.504389574759944
9.211259259259258,6.461111111111368,-7.464814814814387,1.4481481481484904
9.219255144032921,6.15318930041151,-7.88724279835396,1.2531893004115098
9.227251028806583,6.204382503924312,-7.678087480378443,1.3043825039243113
9.235246913580246,6.212625684103346,-7.6368715794832704,1.312625684103346
9.243242798353908,6.220868864282378,-7.595655678588107,1.3208688642823785
9.251238683127571,6.229112044461413,-7.554439777692935,1.329112044461413
9.259234567901233,6.237355224640446,-7.513223876797772,1.3373552246404457
9.267230452674896,6.24559840481948,-7.472007975902599,1.3455984048194802
9.275226337448558,6.253841584998513,-7.430792075007436,1.3538415849985128
9.283222222222221,6.262084765177547,-7.389576174112263,1.3620847651775474
9.291218106995883,6.27032794535658,-7.3483602732171,1.37032794535658
9.299213991769546,6.278571125535614,-7.307144372321928,1.3785711255356143
9.30720987654321,6.286814305714649,-7.265928471426755,1.386814305714649
9.315205761316872,6.295057485893682,-7.224712570531592,1.3950574858936815
9.323201646090535,6.189917695473269,-7.849588477366342,0.9201646090534636
9.331197530864197,6.108489768307119,-7.340571621850164,1.1254693049213587
9.33919341563786,6.119443035120357,-7.263898754157501,1.1583291053610711
9.347189300411522,6.130396301933592,-7.187225886464856,1.1911889058007763
9.355185185185185,6.141349568746829,-7.110553018772193,1.2240487062404888
9.363181069958847,6.152302835560064,-7.033880151079548,1.256908506680194
9.37117695473251,6.163256102373302,-6.957207283386885,1.2897683071199064
9.379172839506172,6.174209369186538,-6.88053441569424,1.3226281075596116
9.387168724279835,6.185162635999775,-6.803861548001577,1.355487907999324
9.395164609053497,6.19611590281301,-6.727188680308932,1.3883477084390292
9.40316049382716,6.112839506172784,-7.490370370370412,1.006419753086392
9.411156378600822,5.901960344182565,-7.603920688365129,1.1980396558174353
9.419152263374485,5.909229330340441,-7.618458660680881,1.1907706696595595
9.427148148148147,5.916498316498315,-7.63299663299663,1.1835016835016852
9.43514403292181,5.923767302656191,-7.647534605312381,1.1762326973438093
9.443139917695472,5.931036288814065,-7.6620725776281295,1.168963711185935
9.451135802469135,5.938305274971941,-7.676610549943882,1.1616947250280591
9.459131687242797,5.945574261129815,-7.69114852225963,1.1544257388701848
9.46712757201646,5.952843247287691,-7.705686494575382,1.147156752712309
9.475123456790122,5.960112233445566,-7.72022446689113,1.1398877665544347
9.483119341563786,5.967381219603441,-7.734762439206882,1.1326187803965588
9.491115226337447,5.974650205761315,-7.749300411522631,1.1253497942386848
9.49911111111111,5.981919191919191,-7.763838383838382,1.118080808080809
9.507106995884772,5.9891881780770655,-7.778376356154131,1.1108118219229346
9.515102880658436,5.996457164234942,-7.792914328469883,1.1035428357650587
9.523098765432097,6.069958847736569,-7.669958847736568,1.2300411522634311
9.53109465020576,6.014613838644843,-7.702435639774141,1.2
9.539090534979422,6.070399081251784,-7.711733180208631,1.2
9.547086419753086,6.126184323858738,-7.721030720643123,1.2
9.555082304526747,6.18196956646568,-7.730328261077613,1.2
9.56307818930041,6.237754809072634,-7.739625801512106,1.2
9.571074074074073,6.293540051679575,-7.748923341946596,1.2
9.579069958847736,6.349325294286529,-7.758220882381088,1.2
9.587065843621398,6.405110536893471,-7.767518422815578,1.2
9.595061728395061,6.460895779500424,-7.776815963250071,1.2
9.603057613168723,6.516681022107366,-7.786113503684561,1.2
9.611053497942386,6.572466264714319,-7.795411044119053,1.2
9.619049382716048,6.2,-7.795061728395204,1.085185185185613
9.627045267489711,6.172075249853021,-7.772075249853021,1.0
9.635041152263373,6.177058915455545,-7.792352971818515,0.9541178309110899
9.643037037037036,6.146694796061887,-7.782231598687296,0.8933895921237733
9.651032921810698,6.116330676668236,-7.772110225556078,0.8326613533364702
9.659028806584361,6.085966557274577,-7.761988852424859,0.7719331145491536
9.667024691358023,6.055602437880926,-7.751867479293642,0.7112048757618504
9.675020576131686,6.0252383184872675,-7.741746106162422,0.6504766369745338
9.68301646090535,5.9948741990936085,-7.731624733031203,0.5897483981872171
9.691012345679011,5.9645100796999575,-7.721503359899986,0.529020159399914
9.699008230452675,5.934145960306299,-7.7113819867687665,0.4682919206125974
9.707004115226336,5.9037818409126475,-7.701260613637549,0.40756368182529423
9.715,5.4,-6.9,1.4
