accel_time_list,vertical_Accel_x,vertical_Accel_y,vertical_Accel_z
0.0,5.931,-9.036,-2.484
0.007997217584863662,5.561092932665554,-7.2735063995548135,-2.064991096271564
0.015994435169727324,5.623003689910535,-7.341137185908138,-2.1316934292196397
0.023991652754590986,5.684028611788879,-7.4092980865545135,-2.1964093745986903
0.03198887033945465,5.745053533667223,-7.47745898720089,-2.2611253199777406
0.039986087924318306,5.806078455545568,-7.545619887847266,-2.3258412653567913
0.04798330550918197,5.867103377423912,-7.613780788493643,-2.390557210735842
0.05598052309404564,5.928128299302256,-7.68194168914002,-2.4552731561148926
0.0639777406789093,5.9891532211806,-7.750102589786396,-2.519989101493943
0.07197495826377295,6.050178143058944,-7.818263490432773,-2.584705046872993
0.07997217584863661,5.540294936004452,-7.400050083472454,-2.220728992765721
0.08796939343350028,5.627257589810178,-7.31755839980214,-2.555815742286527
0.09596661101836394,5.618016360601001,-7.331331385642738,-2.5313797996661105
0.1039638286032276,5.608775131391826,-7.345104371483337,-2.5069438570456937
0.11196104618809127,5.5995339021826505,-7.358877357323935,-2.482507914425277
0.11995826377295493,5.590292672973474,-7.372650343164533,-2.45807197180486
0.1279554813578186,5.581051443764299,-7.386423329005132,-2.433636029184443
0.13595269894268225,5.571810214555122,-7.400196314845731,-2.4092000865640264
0.1439499165275459,5.562568985345947,-7.413969300686329,-2.3847641439436096
0.15194713411240957,5.553327756136771,-7.427742286526928,-2.3603282013231928
0.15994435169727322,5.544086526927595,-7.441515272367527,-2.335892258702776
0.1679415692821369,5.5348452977184195,-7.4552882582081255,-2.311456316082359
0.17593878686700057,5.821429604897053,-7.788796327212021,-2.452021702838066
0.18393600445186423,5.659837662531938,-7.803244122522005,-2.277287468361247
0.19193322203672789,5.633094278995459,-7.791549266698978,-2.2494261941946254
0.19993043962159154,5.606350895458979,-7.779854410875952,-2.2215649200280034
0.2079276572064552,5.579607511922499,-7.768159555052926,-2.193703645861382
0.21592487479131886,5.55286412838602,-7.756464699229899,-2.16584237169476
0.22392209237618255,5.52612074484954,-7.744769843406873,-2.1379810975281384
0.2319193099610462,5.49937736131306,-7.733074987583847,-2.1101198233615164
0.23991652754590986,5.472633977776582,-7.72138013176082,-2.082258549194895
0.24791374513077352,5.445890594240102,-7.709685275937794,-2.054397275028273
0.2559109627156372,5.419147210703622,-7.697990420114767,-2.0265360008616513
0.26390818030050084,5.392403827167143,-7.686295564291741,-1.9986747266950293
0.2719053978853645,5.365660443630663,-7.674600708468715,-1.9708134525284078
0.27990261547022816,5.978780745687255,-7.787630495269894,-2.088084585420144
0.2878998330550918,5.730170283806343,-7.579504173622704,-1.9045025041736225
0.2958970506399555,5.594902284398048,-7.425487162147883,-1.8106707099737256
0.30389426822481913,5.581843536696181,-7.41910963420046,-1.800851341546741
0.3118914858096828,5.568784788994315,-7.412732106253038,-1.7910319731197566
0.31988870339454645,5.555726041292449,-7.406354578305614,-1.781212604692772
0.32788592097941016,5.542667293590584,-7.399977050358191,-1.7713932362657874
0.3358831385642738,5.529608545888718,-7.393599522410769,-1.7615738678388029
0.3438803561491375,5.516549798186851,-7.387221994463346,-1.7517544994118186
0.35187757373400114,5.503491050484985,-7.3808444665159225,-1.741935130984834
0.3598747913188648,5.49043230278312,-7.3744669385685,-1.7321157625578496
0.36787200890372845,5.477373555081254,-7.368089410621077,-1.722296394130865
0.3758692264885921,5.503746800222591,-7.636761268781303,-1.6075459098497504
0.38386644407345577,4.952200959933222,-7.623619991652754,-1.024619574290484
0.39186366165831943,4.867813653542942,-7.6538594706455205,-0.970055225143758
0.3998608792431831,4.783426347152662,-7.684098949638286,-0.9154908759970319
0.40785809682804675,4.699039040762382,-7.714338428631052,-0.860926526850306
0.4158553144129104,4.614651734372102,-7.7445779076238175,-0.80636217770358
0.42385253199777406,4.530264427981821,-7.774817386616584,-0.751797828556854
0.4318497495826377,4.445877121591542,-7.805056865609349,-0.697233479410128
0.4398469671675014,4.361489815201262,-7.835296344602115,-0.642669130263402
0.4478441847523651,4.277102508810981,-7.865535823594881,-0.5881047811166755
0.45584140233722875,4.1927152024207,-7.895775302587647,-0.5335404319699495
0.4638386199220924,4.108327896030421,-7.926014781580412,-0.47897608282322357
0.47183583750695607,4.023940589640141,-7.9562542605731785,-0.42441173367649754
0.4798330550918197,3.4666126878130172,-7.583018363939897,-0.9629532554257216
0.4878302726766834,2.552688369504726,-6.8034844184752306,-2.3973230383973334
0.49582749026154704,2.5011309325065585,-6.7155302488274105,-2.4361890584837163
0.5038247078464106,2.468570832339614,-6.657836036250894,-2.4517074687972014
0.5118219254312744,2.4360107321726683,-6.600141823674378,-2.467225879110687
0.5198191430161381,2.403450632005723,-6.542447611097861,-2.4827442894241725
0.5278163606010017,2.3708905318387785,-6.484753398521345,-2.498262699737658
0.5358135781858654,2.3383304316718334,-6.427059185944828,-2.5137811100511436
0.543810795770729,2.3057703315048887,-6.369364973368312,-2.529299520364629
0.5518080133555927,2.2732102313379436,-6.311670760791795,-2.5448179306781147
0.5598052309404563,2.240650131170999,-6.253976548215279,-2.5603363409916
0.56780244852532,2.208090031004054,-6.196282335638763,-2.5758547513050853
0.5757996661101836,0.121300500834705,-5.052298831385634,-3.5248280467445814
0.5837968836950473,-0.9731145736721696,-4.3076858467816725,-3.616950064923021
0.591794101279911,-0.9642287763556544,-4.224248209979596,-3.676662622890002
0.5997913188647747,-0.9553429790391392,-4.140810573177517,-3.7363751808569847
0.6077885364496383,-0.9464571817226242,-4.05737293637544,-3.796087738823966
0.615785754034502,-0.9375713844061089,-3.9739352995733626,-3.8558002967909486
0.6237829716193656,-0.9286855870895938,-3.8904976627712857,-3.91551285475793
0.6317801892042293,-0.9197997897730785,-3.8070600259692076,-3.975225412724912
0.6397774067890929,-0.9109139924565635,-3.7236223891671307,-4.034937970691894
0.6477746243739566,-0.9020281951400482,-3.6401847523650526,-4.094650528658876
0.6557718419588203,-0.893142397823533,-3.556747115562975,-4.1543630866258585
0.6637690595436839,-0.8842566005070179,-3.473309478760898,-4.21407564459284
0.6717662771285476,-0.8753708031905026,-3.38987184195882,-4.273788202559823
0.6797634947134112,-1.2098856213347058,-5.598171910449037,-7.219634947134112
0.687760712298275,-0.5608806557938378,-6.315460810752971,-7.299607122982749
0.6957579298831386,-0.18711702430880633,-6.554417077242558,-7.41108607842339
0.7037551474680023,-0.0007428437639948604,-6.46771553537739,-7.544015439010819
0.7117523650528659,0.18563133678081406,-6.381013993512222,-7.676944799598247
0.7197495826377296,0.37200551732562553,-6.294312451647053,-7.809874160185677
0.7277468002225932,0.5583796978704345,-6.207610909781885,-7.942803520773104
0.7357440178074569,0.7447538784152459,-6.120909367916717,-8.075732881360533
0.7437412353923205,0.9311280589600548,-6.034207826051549,-8.208662241947962
0.7517384529771842,1.1175022395048664,-5.947506284186381,-8.341591602535392
0.7597356705620478,1.3038764200496753,-5.860804742321213,-8.474520963122819
0.7677328881469115,1.4902506005944869,-5.774103200456044,-8.60745032371025
0.7757301057317753,3.0668386199221254,-3.7018319421257133,-11.874394546466426
0.7837273233166389,5.548732223957492,-0.701603149813608,-13.377235272646764
0.7917245409015026,5.867847003069635,-0.7050428132909689,-13.328392051268242
0.7997217584863662,6.186961782181773,-0.7084824767683295,-13.279548829889722
0.8077189760712299,6.506076561293915,-0.7119221402456902,-13.2307056085112
0.8157161936560935,6.825191340406053,-0.7153618037230509,-13.181862387132677
0.8237134112409572,7.144306119518196,-0.7188014672004117,-13.133019165754154
0.8317106288258208,7.463420898630334,-0.7222411306777724,-13.084175944375632
0.8397078464106845,7.782535677742477,-0.7256807941551331,-13.03533272299711
0.8477050639955481,8.101650456854614,-0.7291204576324938,-12.986489501618589
0.8557022815804118,8.420765235966757,-0.7325601211098546,-12.937646280240067
0.8636994991652754,8.739880015078896,-0.7359997845872153,-12.888803058861544
0.8716967167501392,9.058994794191037,-0.739439448064576,-12.839959837483022
0.8796939343350028,7.981851419031753,-2.810560934891471,-14.469664440734562
0.8876911519198665,7.465367278797997,-3.005066221480245,-14.383901502504173
0.8956883695047302,7.30354122884546,-3.037368708195577,-14.345326688271301
0.9036855870895938,7.141715178892926,-3.0696711949109083,-14.30675187403843
0.9116828046744575,6.97988912894039,-3.1019736816262404,-14.268177059805558
0.9196800222593211,6.818063078987856,-3.1342761683415716,-14.229602245572686
0.9276772398441848,6.656237029035319,-3.1665786550569037,-14.191027431339814
0.9356744574290484,6.494410979082785,-3.198881141772235,-14.152452617106944
0.9436716750139121,6.332584929130249,-3.231183628487567,-14.113877802874072
0.9516688925987757,6.170758879177715,-3.263486115202898,-14.0753029886412
0.9596661101836395,6.008932829225178,-3.2957886019182303,-14.036728174408328
0.9676633277685031,5.847106779272644,-3.3280910886335615,-13.998153360175456
0.9756605453533668,5.685280729320107,-3.360393575348893,-13.959578545942584
0.9836577629382304,4.783653589315524,-3.1555709515859762,-13.334691986644406
0.9916549805230941,4.01542904841402,-5.147095436839189,-12.362297161936555
0.9996521981079577,4.031039895552417,-3.4422709644278924,-11.43873115448825
1.0076494156928213,3.952298060870683,-3.462571593681777,-11.013340696031852
1.015646633277685,3.873556226188948,-3.482872222935662,-10.587950237575448
1.0236438508625487,3.794814391507213,-3.5031728521895467,-10.162559779119045
1.0316410684474124,3.7160725568254778,-3.5234734814434314,-9.737169320662641
1.0396382860322761,3.637330722143743,-3.543774110697316,-9.311778862206236
1.0476355036171396,3.5585888874620104,-3.5640747399512005,-8.886388403749844
1.0556327212020034,9.606371174179165,2.2503856427378772,-7.769515859766295
1.063629938786867,9.570934942075173,2.3854751353265535,-7.820689887185716
1.0716271563717308,5.726317566314225,1.1898744203301785,-7.553753478018921
1.0796243739565943,5.413328423188979,0.9877486660774519,-7.498478591770599
1.087621591541458,5.100339280063724,0.7856229118247198,-7.443203705522277
1.0956188091263217,4.7873501369384694,0.5834971575719876,-7.387928819273953
1.1036160267111854,4.474360993813215,0.38137140331925534,-7.332653933025631
1.111613244296049,4.161371850687969,0.17924564906652884,-7.27737904677731
1.1196104618809126,3.8483827075627137,-0.022880105186203314,-7.222104160528986
1.1276076794657763,3.535393564437459,-0.22500585943893547,-7.166829274280664
1.13560489705064,3.2224044213122043,-0.42713161369166763,-7.111554388032341
1.1436021146355035,2.909415278186958,-0.6292573679443942,-7.05627950178402
1.1515993322203673,2.5964261350617033,-0.8313831221971266,-7.001004615535697
1.159596549805231,2.2834369919364486,-1.0335088764498586,-6.9457297292873745
1.1675937673900947,1.9704478488111938,-1.235634630702591,-6.890454843039051
1.1755909849749584,0.8208670005564869,-2.2243427935447992,-5.455239287701713
1.183588202559822,1.0983783127195268,-1.0627798002644806,-4.743679788895472
1.1915854201446856,1.081008012158855,-0.9292348657559498,-4.628365070816953
1.1995826377295493,1.0636377115981834,-0.7956899312474192,-4.513050352738435
1.207579855314413,1.0462674110375116,-0.6621449967388885,-4.397735634659916
1.2155770728992765,1.0288971104768403,-0.5286000622303615,-4.2824209165814
1.2235742904841402,1.0115268099161687,-0.3950551277218308,-4.167106198502881
1.231571508069004,0.9941565093554969,-0.26151019321330016,-4.051791480424363
1.2395687256538677,0.9767862087948251,-0.1279652587047695,-3.936476762345844
1.2475659432387312,0.959415908234154,0.0055796758037574,-3.8211620442673286
1.2555631608235949,0.9420456076734822,0.13912461031228807,-3.7058473261888096
1.2635603784084586,0.9246753071128104,0.27266954482081873,-3.590532608110291
1.2715575959933223,0.9073050065521387,0.4062144793293496,-3.4752178900317725
1.2795548135781858,-0.14365609348914443,5.705314412910426,-9.128464106844778
1.2875520311630495,10.691061285717756,4.38452824756236,-19.86241598316034
1.2955492487479132,12.873171644770297,4.046385025767579,-19.56799667924802
1.303546466332777,15.055282003822835,3.7082418039727987,-19.2735773753357
1.3115436839176406,17.237392362875376,3.3700985821780183,-18.97915807142338
1.3195409015025041,19.419502721927856,3.0319553603832468,-18.68473876751107
1.3275381190873679,21.601613080980396,2.6938121385884664,-18.39031946359875
1.3355353366722316,23.783723440032936,2.355668916793686,-18.09590015968643
1.3435325542570953,25.965833799085473,2.017525694998905,-17.801480855774113
1.3515297718419588,28.147944158137953,1.679382473204134,-17.5070615518618
1.3595269894268225,30.330054517190497,1.3412392514093536,-17.212642247949482
1.3675242070116862,32.512164876243034,1.0030960296145728,-16.91822294403716
1.37552142459655,33.6723567056202,5.130580411798849,-16.205524763494576
1.3835186421814134,16.65645446113893,3.6563658875904332,-12.42237159154145
1.3915158597662771,15.707451307735104,4.5640500834724635,-10.704969115191968
1.3995130773511408,15.54257162959978,4.625476790819949,-10.044686847171842
1.4075102949360045,15.428220610340349,4.632370943910349,-9.452525057727108
1.4155075125208683,15.313869591080918,4.639265097000749,-8.860363268282374
1.4235047301057318,15.199518571821491,4.646159250091148,-8.268201478837653
1.4315019476905955,15.08516755256206,4.653053403181548,-7.676039689392919
1.4394991652754592,14.97081653330263,4.6599475562719475,-7.083877899948185
1.447496382860323,14.8564655140432,4.666841709362347,-6.491716110503449
1.4554936004451864,14.742114494783772,4.673735862452746,-5.899554321058731
1.46349081803005,14.627763475524343,4.680630015543146,-5.307392531613996
1.4714880356149138,14.513412456264913,4.687524168633546,-4.715230742169261
1.4794852531997775,13.848929326655504,4.151244296048938,-3.3677946577628917
1.487482470784641,11.100355175292176,1.7558127434613404,0.6070136338341335
1.4954796883695047,6.644713411241034,1.866372843628247,4.387922648859117
1.5034769059543684,5.3868081073072736,2.132259104279138,6.10093091660704
1.5114741235392322,5.239638531752054,2.056025887301346,6.545347722394467
1.5194713411240957,5.092468956196839,1.9797926703235567,6.989764528181881
1.5274685587089594,4.94529938064162,1.903559453345765,7.434181333969308
1.535465776293823,4.7981298050864005,1.827326236367973,7.878598139756734
1.5434629938786868,4.650960229531181,1.7510930193901812,8.32301494554416
1.5514602114635505,4.503790653975962,1.6748598024123895,8.767431751331587
1.559457429048414,4.356621078420747,1.5986265854345998,9.211848557119001
1.5674546466332777,4.2094515028655275,1.5223933684568078,9.656265362906428
1.5754518642181414,5.814540623261009,-0.5733358375069777,10.56444908180301
1.5834490818030051,7.8691659432386745,-6.664555759599347,7.590770784641046
1.5914462993878686,4.0388171025783715,-9.587393989983305,4.435921535893155
1.5994435169727323,4.253980337599704,-9.438303005008345,4.2002892320534215
1.607440734557596,4.469143572621038,-9.289212020033387,3.964656928213687
1.6154379521424598,4.68430680764237,-9.140121035058428,3.7290246243739524
1.6234351697273233,4.8994700426636975,-8.991030050083474,3.493392320534225
1.631432387312187,5.11463327768503,-8.841939065108514,3.2577600166944904
1.6394296048970507,5.329796512706364,-8.692848080133555,3.022127712854757
1.6474268224819144,5.544959747727696,-8.543757095158597,2.7864954090150222
1.655424040066778,5.7601229827490235,-8.39466611018364,2.550863105175295
1.6634212576516416,5.975286217770357,-8.245575125208681,2.3152308013355603
1.6714184752365053,6.19044945279169,-8.096484140233724,2.079598497495826
1.679415692821369,6.831831279082167,-5.500956736404651,-0.8911644052143751
1.6874129104062328,8.348410009590474,-6.365847310529382,-2.6642496359180443
1.6954101279910962,9.864988740098738,-7.230737884654088,-4.437334866621665
1.70340734557596,11.381567470607044,-8.095628458778819,-6.2104200973253345
1.7114045631608237,12.898146201115349,-8.960519032903548,-7.983505328029003
1.7194017807456874,14.414724931623656,-9.825409607028279,-9.756590558732672
1.7273989983305509,15.931303662131919,-10.690300181152985,-11.529675789436292
1.7353962159154146,17.447882392640224,-11.555190755277716,-13.302761020139961
1.7433934335002783,18.96446112314853,-12.420081329402446,-15.07584625084363
1.751390651085142,20.48103985365684,-13.284971903527175,-16.8489314815473
1.7593878686700055,21.997618584165103,-14.149862477651883,-18.62201671225092
1.7673850862548692,23.514197314673407,-15.014753051776612,-20.39510194295459
1.775382303839733,36.06120701168652,9.72350417362268,-14.644160267111609
1.7833795214245967,16.90462997430704,16.336865485028206,-14.703092731384462
1.7913767390094604,16.005538533489595,14.965257592441263,-14.852998022709249
1.7993739565943239,15.106447092672177,13.593649699854359,-15.002903314034029
1.8073711741791876,14.207355651854733,12.222041807267415,-15.152808605358816
1.8153683917640513,13.30826421103729,10.850433914680472,-15.302713896683601
1.823365609348915,12.409172770219847,9.478826022093529,-15.452619188008386
1.8313628269337785,11.510081329402428,8.107218129506622,-15.602524479333168
1.8393600445186422,10.610989888584987,6.73561023691968,-15.752429770657953
1.847357262103506,9.711898447767544,5.364002344332736,-15.902335061982738
1.8553544796883696,8.8128070069501,3.992394451745792,-16.052240353307525
1.8633516972732331,7.913715566132682,2.620786559158887,-16.202145644632306
1.8713489148580968,7.01462412531524,1.249178666571943,-16.35205093595709
1.8793461324429606,4.309585420144634,1.169653159305918,-12.360128952294144
1.8873433500278243,3.1755559265443587,0.736230569467718,-6.477827490261504
1.8953405676126878,5.8497141194920825,4.144945161127129,-6.338179996964637
1.9033377851975515,5.786786518496034,3.864719425754481,-6.235670207922294
1.9113350027824152,5.723858917499985,3.5844936903818327,-6.1331604188799504
1.919332220367279,5.6609313165039366,3.304267955009185,-6.030650629837607
1.9273294379521426,5.598003715507888,3.024042219636537,-5.928140840795263
1.9353266555370061,5.535076114511841,2.7438164842638963,-5.8256310517529215
1.9433238731218698,5.472148513515792,2.4635907488912485,-5.723121262710578
1.9513210907067335,5.409220912519744,2.1833650135186002,-5.620611473668234
1.9593183082915973,5.346293311523695,1.903139278145952,-5.51810168462589
1.9673155258764607,5.283365710527648,1.6229135427733117,-5.41559189558355
1.9753127434613245,5.2204381095315995,1.3426878074006638,-5.313082106541206
1.9833099610461882,5.157510508535551,1.0624620720280156,-5.210572317498862
1.9913071786310519,4.423971619365539,1.060552587646105,-4.962864774624358
1.9993043962159154,-0.7807180022259396,2.9179920701168633,-2.8864251530328264
2.007301613800779,-6.352631842120123,7.191635971385481,0.2935386755703945
2.0152988313856426,-7.436892284241833,6.745066705378538,-0.010355592654418488
2.0232960489705065,-8.521152726363603,6.2984974393715705,-0.3142498608792483
2.03129326655537,-9.605413168485313,5.851928173364628,-0.618144129104061
2.039290484140234,-10.689673610607084,5.40535890735766,-0.922038397328891
2.0472877017250974,-11.773934052728794,4.958789641350717,-1.225932665553704
2.055284919309961,-12.858194494850505,4.512220375343774,-1.5298269337785169
2.063282136894825,-13.942454936972275,4.065651109336806,-1.8337212020033467
2.0712793544796884,-15.026715379093986,3.6190818433298633,-2.1376154702281593
2.0792765720645523,-16.898185308848134,-1.8712653629066094,-5.125192622625106
2.087273789649416,-1.6749886553346227,-4.802416072241603,-13.856728980118424
2.0952710072342793,-0.08872237188243925,-4.061764670916178,-16.599138469418712
2.103268224819143,1.4975439115698324,-3.321113269590711,-19.341547958719154
2.1112654424040067,3.0838101950220156,-2.5804618682652865,-22.08395744801944
2.11926265998887,4.670076478474199,-1.8398104669398614,-24.82636693731973
2.127259877573734,6.25634276192647,-1.099159065614395,-27.56877642662017
2.1352570951585976,7.842609045378655,-0.35850766428896996,-30.311185915920454
2.1432543127434616,9.428875328830927,0.38214373703649596,-33.0535954052209
2.151251530328325,11.01514161228311,1.122795138361921,-35.79600489452119
2.1592487479131885,12.601407895735294,1.863446539687346,-38.538414383821475
2.1672459654980525,14.187674179187566,2.604097941012813,-41.28082387312192
2.175243183082916,21.981067890929225,6.560156371730924,-36.86419643850917
2.18324040066778,12.328484376134135,-2.54101569645059,-11.718375353850606
2.1912376182526434,12.198877295492489,-1.5612696160267119,-10.801216193656094
2.199234835837507,12.06927021485084,-0.5815235356028339,-9.884057033461582
2.207232053422371,11.939663134209187,0.39822254482109853,-8.96689787326702
2.2152292710072343,11.81005605356754,1.3779686252449763,-8.049738713072509
2.223226488592098,11.680448972925893,2.357714705668855,-7.132579552877997
2.2312237061769618,11.55084189228424,3.337460786092787,-6.215420392683436
2.2392209237618252,11.421234811642591,4.317206866516665,-5.298261232488924
2.247218141346689,11.291627731000938,5.296952946940598,-4.381102072294362
2.2552153589315527,11.162020650359292,6.276699027364476,-3.463942912099851
2.263212576516416,11.032413569717644,7.256445107788354,-2.5467837519053393
2.27120979410128,10.90280648907599,8.236191188212286,-1.629624591710778
2.2792070116861436,3.3259139091468253,-4.023465670854934,3.028325665582988
2.287204229271007,3.2205189995020977,-4.021529502387019,3.1092238350467123
2.295201446855871,3.115124089857364,-4.019593333919105,3.1901220045104415
2.3031986644407345,3.0097291802126365,-4.01765716545119,3.2710201739741662
2.3111958820255984,2.904334270567903,-4.015720996983276,3.3519183434378954
2.319193099610462,2.7989393609231756,-4.013784828515362,3.4328165129016197
2.3271903171953254,2.693544451278448,-4.0118486600474474,3.5137146823653445
2.3351875347801894,2.588149541633715,-4.0099124915795334,3.5946128518290736
2.343184752365053,2.4827546319889873,-4.007976323111619,3.675511021292798
2.351181969949917,2.377359722344254,-4.0060401546437046,3.7564091907565276
2.3591791875347803,2.271964812699526,-4.0041039861757906,3.837307360220252
2.367176405119644,2.166569903054799,-4.002167817707876,3.9182055296839766
2.3751736227045077,2.9328998330550355,-5.71914774624371,2.8611410684473877
2.383170840289371,5.5333651949466605,-4.016364928545212,2.4989239453462626
2.3911680578742347,5.675953882949121,-4.005560177127364,2.4585124735078567
2.3991652754590986,5.818542570951589,-3.9947554257095157,2.418101001669448
2.407162493043962,5.961131258954048,-3.9839506742916684,2.3776895298310423
2.415159710628826,6.103719946956517,-3.97314592287382,2.337278057992634
2.4231569282136896,6.246308634958976,-3.962341171455973,2.296866586154228
2.431154145798553,6.388897322961436,-3.951536420038125,2.256455114315822
2.439151363383417,6.531486010963904,-3.940731668620277,2.216043642477414
2.4471485809682805,6.674074698966364,-3.9299269172024296,2.1756321706390076
2.4551457985531444,6.816663386968832,-3.9191221657845814,2.1352206988005995
2.463143016138008,6.959252074971292,-3.908317414366734,2.0948092269621936
2.4711402337228714,7.101840762973752,-3.8975126629488863,2.0543977551237873
2.4791374513077353,7.6755852346503275,-3.303175477647904,-1.4785457243554507
2.487134668892599,6.3920766883632565,0.6872293022703289,-4.116988989139208
2.4951318864774623,7.035178781114583,1.1138673819661926,-4.925696385361359
2.5031291040623262,7.678280873865945,1.54050546166208,-5.734403781583556
2.5111263216471897,8.321382966617271,1.9671435413579437,-6.543111177805706
2.5191235392320537,8.964485059368632,2.393781621053831,-7.351818574027902
2.527120756816917,9.60758715211996,2.8204197007496945,-8.160525970250053
2.5351179744017807,10.250689244871285,3.2470577804455583,-8.969233366472205
2.5431151919866446,10.893791337622648,3.6736958601414456,-9.777940762694401
2.551112409571508,11.536893430373974,4.100333939837309,-10.586648158916553
2.5591096271563716,12.1799955231253,4.526972019533172,-11.395355555138703
2.5671068447412355,12.823097615876662,4.95361009922906,-12.2040629513609
2.575104062326099,27.130745687256567,15.961638842515274,-13.32804674457428
2.583101279910963,19.091396215915296,21.755385364496373,-14.039232053422259
2.5910984974958264,17.736471628341146,20.65774315615632,-13.7697429048414
2.59909571508069,16.84585676246554,19.472263138683974,-14.073637173066214
2.607092932665554,15.955241896589886,18.286783121211563,-14.377531441291044
2.6150901502504174,15.06462703071428,17.10130310373922,-14.681425709515857
2.6230873678352813,14.174012164838627,15.915823086266805,-14.985319977740687
2.631084585420145,13.283397298963024,14.730343068794461,-15.2892142459655
2.6390818030050083,12.392782433087419,13.544863051322114,-15.593108514190313
2.647079020589872,11.502167567211764,12.359383033849703,-15.897002782415141
2.6550762381747357,10.611552701336159,11.173903016377357,-16.200897050639952
2.663073455759599,9.720937835460555,9.988422998905012,-16.50479131886477
2.671070673344463,8.830322969584902,8.8029429814326,-16.808685587089595
2.6790678909293266,3.3927113708031977,5.206808013355435,-12.312534409200415
2.6870651085141906,3.635730105731777,-0.48734056761273936,-8.750225375626012
2.695062326099054,3.050716273153669,-1.327791159869624,-7.567742003868881
2.7030595436839175,2.959319500755229,-1.2826640034978944,-7.38799501815195
2.7110567612687815,2.867922728356784,-1.237536847126162,-7.208248032435009
2.719053978853645,2.7765259559583444,-1.1924096907544324,-7.028501046718077
2.727051196438509,2.6851291835598996,-1.1472825343827002,-6.848754061001135
2.7350484140233724,2.5937324111614597,-1.1021553780109707,-6.6690070752842034
2.743045631608236,2.50233563876302,-1.057028221639241,-6.489260089567272
2.7510428491931,2.4109388663645746,-1.0119010652675087,-6.30951310385033
2.7590400667779633,2.319542093966135,-0.9667739088957792,-6.129766118133398
2.767037284362827,2.228145321567695,-0.9216467525240495,-5.950019132416466
2.7750345019476907,0.8550704507512124,-0.405416138007776,-5.2967951029493445
2.7830317195325542,-13.624975106659244,11.61607061769616,-10.675004841402332
2.791028937117418,-13.366576120694974,11.381752142459646,-10.171979855314394
2.7990261547022817,-13.10817713473072,11.147433667223147,-9.66895486922648
2.807023372287145,-12.849778148766465,10.913115191986648,-9.165929883138569
2.815020589872009,-12.591379162802195,10.678796716750135,-8.66290489705063
2.8230178074568726,-12.33298017683794,10.444478241513636,-8.159879910962717
2.8310150250417365,-12.07458119087367,10.210159766277123,-7.656854924874778
2.8390122426266,-11.816182204909417,9.975841291040624,-7.153829938786865
2.8470094602114635,-11.557783218945161,9.741522815804124,-6.650804952698953
2.8550066777963274,-11.299384232980891,9.507204340567611,-6.147779966611014
2.863003895381191,-11.040985247016636,9.272885865331112,-5.644754980523102
2.8710011129660544,-10.782586261052382,9.038567390094611,-5.14172999443519
2.8789983305509184,-1.586599332220502,2.3461911519199443,-0.9223973288814309
2.886995548135782,-1.5924230691814965,2.134777738310896,-1.2804387217466466
2.894992765720646,-1.5968470618880168,1.922511165180731,-1.638952284540441
2.9029899833055093,-1.601271054594537,1.7102445920505773,-1.9974658473342157
2.9109872008903728,-1.6056950473010574,1.4979780189204237,-2.3559794101279903
2.9189844184752367,-1.6101190400075778,1.285711445790258,-2.714492972921785
2.9269816360601,-1.614543032714098,1.0734448726601045,-3.0730065357155594
2.9349788536449637,-1.6189670254206183,0.8611782995299508,-3.431520098509334
2.9429760712298276,-1.6233910181271387,0.6489117263997852,-3.7900336613031285
2.950973288814691,-1.6278150108336589,0.4366451532696316,-4.148547224096903
2.958970506399555,-1.6322390035401795,0.22437858013946643,-4.507060786890698
2.9669677239844185,-1.6366629962466996,0.012112007009312364,-4.865574349684472
2.974964941569282,21.060400667778175,-1.8690217028391727,-23.17296828046731
2.982962159154146,25.54953589315524,9.332954479688402,-30.223581302170263
2.9909593767390095,23.91765250284866,11.209416183056417,-28.428136152847337
2.9989565943238734,22.938469373559073,10.867344721360986,-27.02329159710624
3.006953811908737,21.95928624426954,10.525273259665576,-25.61844704136522
3.0149510294936004,20.980103114980004,10.183201797970165,-24.2136024856242
3.0229482470784643,20.000919985690413,9.841130336274736,-22.808757929883104
3.030945464663328,19.021736856400878,9.499058874579324,-21.403913374142086
3.0389426822481913,18.042553727111343,9.156987412883915,-19.999068818401067
3.0469398998330552,17.063370597821752,8.814915951188485,-18.59422426265997
3.0549371174179187,16.084187468532217,8.472844489493074,-17.18937970691895
3.0629343350027827,15.105004339242628,8.130773027797645,-15.784535151177854
3.070931552587646,14.125821209953093,7.788701566102233,-14.379690595436836
3.0789287701725097,2.921150806900813,-2.826607679465819,-2.165671675014744
3.0869259877573736,2.2096173425616774,-0.6815675315340368,1.4899023604155113
3.094923205342237,2.217198038397329,-0.6337508347245406,1.6355183639399007
3.102920422927101,2.2247787342329812,-0.5859341379150417,1.7811343674642979
3.1109176405119645,2.2323594300686334,-0.5381174411055454,1.9267503709886873
3.118914858096828,2.239940125904285,-0.4903007442960492,2.0723663745130767
3.126912075681692,2.247520821739937,-0.4424840474865503,2.217982378037474
3.1349092932665554,2.255101517575589,-0.39466735067705405,2.363598381561863
3.142906510851419,2.262682213411241,-0.3468506538675578,2.5092143850862527
3.150903728436283,2.270262909246893,-0.2990339570580589,2.65483038861065
3.1589009460211463,2.277843605082545,-0.25121726024856267,2.800446392135039
3.1668981636060103,2.2854243009181974,-0.20340056343906376,2.9460623956594363
3.1748953811908738,2.293004996753849,-0.15558386662956747,3.091678399183826
3.1828925987757373,16.429338341680914,-4.954235948803335,9.937243183083321
3.190889816360601,15.50665997636504,-5.4622832060925886,9.827182570201243
3.1988870339454647,14.157196901202344,-6.257242576578964,9.216159204166729
3.2068842515303286,12.807733826039573,-7.052201947065383,8.605135838132181
3.214881469115192,11.458270750876876,-7.847161317551757,7.994112472097666
3.2228786867000556,10.10880767571418,-8.642120688038132,7.383089106063152
3.2308759042849196,8.759344600551408,-9.43708005852455,6.772065740028604
3.238873121869783,7.4098815253887125,-10.232039429010925,6.16104237399409
3.2468703394546465,6.060418450226017,-11.0269987994973,5.550019007959576
3.2548675570395105,4.710955375063245,-11.82195816998372,4.938995641925028
3.262864774624374,3.361492299900549,-12.616917540470094,4.327972275890514
3.270861992209238,2.012029224737777,-13.411876910956511,3.716948909855965
3.2788592097941014,2.391507234279355,-8.748708124652303,4.090868391764222
3.286856427378965,3.1786456860725325,-9.19615671509253,4.4276850069264375
3.294853644963829,3.979388365952736,-9.567857179223067,4.636038048046988
3.3028508625486923,4.780131045832896,-9.93955764335358,4.844391089167527
3.310848080133556,5.5808737257130545,-10.311258107484097,5.052744130288065
3.3188452977184197,6.381616405593258,-10.682958571614634,5.261097171408615
3.3268425153032832,7.182359085473417,-11.05465903574515,5.4694502125291535
3.334839732888147,7.98310176535362,-11.426359499875685,5.677803253649704
3.3428369504730107,8.783844445233779,-11.798059964006201,5.886156294770243
3.350834168057874,9.584587125113938,-12.169760428136717,6.0945093358907805
3.358831385642738,10.385329804994141,-12.541460892267253,6.302862377011332
3.3668286032276016,11.1860724848743,-12.913161356397769,6.5112154181318695
3.3748258208124655,20.290415136339625,-14.052049712483898,12.570618438138531
3.382823038397329,24.480593109728424,0.09535589619073548,26.431811200485797
3.3908202559821925,25.769398998330598,5.337089593767377,31.085826377295515
3.3988174735670564,25.499894007158705,6.214271907225371,28.871727446979474
3.40681469115192,25.45477390300707,7.0472660401080045,26.702704322018164
3.4148119087367834,25.409653798855434,7.8802601729906385,24.533681197056854
3.4228091263216474,25.36453369470379,8.713254305873317,22.364658072095423
3.430806343906511,25.319413590552156,9.546248438755951,20.195634947134113
3.438803561491375,25.274293486400516,10.379242571638631,18.026611822172683
3.4468007790762383,25.229173382248877,11.212236704521263,15.857588697211373
3.4547979966611018,25.18405327809724,12.0452308374039,13.688565572250063
3.4627952142459657,25.1389331739456,12.878224970286578,11.519542447288632
3.470792431830829,25.093813069793963,13.711219103169212,9.350519322327322
3.478789649415693,12.775268447412222,9.289370951585802,5.015139565943128
3.4867868670005566,9.272584863661638,4.790444518642172,-0.98635614913746
3.49478408458542,8.898525436450937,4.599390301665569,-1.3940809747511949
3.502781302170284,8.647357009744919,4.465204429863724,-1.7588842838840004
3.5107785197551475,8.396188583038915,4.331018558061886,-2.123687593016786
3.518775737340011,8.145020156332912,4.1968326862600485,-2.4884909021495707
3.526772954924875,7.893851729626894,4.062646814458203,-2.8532942112823765
3.5347701725097385,7.642683302920889,3.9284609426563657,-3.218097520415162
3.5427673900946024,7.391514876214872,3.7942750708545203,-3.5829008295479676
3.550764607679466,7.140346449508868,3.660089199052683,-3.947704138680753
3.5587618252643294,6.889178022802864,3.5259033272508447,-4.312507447813538
3.5667590428491933,6.638009596096846,3.3917174554489997,-4.677310756946343
3.574756260434057,5.032601001669531,3.2975375626043397,-8.680881469114974
3.5827534780189207,8.733598775737107,-1.8165898720091003,-15.149291040623183
3.5907506956037842,6.318850306065647,-2.438057070426011,-13.92498992147405
3.5987479131886477,5.008449081803009,-1.8623843442775014,-12.987919124466707
3.6067451307735117,3.6980478575402986,-1.28671161812896,-12.050848327459311
3.614742348358375,2.3876466332776607,-0.7110388919804507,-11.11377753045197
3.6227395659432386,1.0772454090150232,-0.13536616583194094,-10.176706733444629
3.6307367835281026,-0.23315581524768803,0.4403065603166003,-9.239635936437233
3.638734001112966,-1.5435570395103264,1.0159792864651096,-8.302565139429891
3.64673121869783,-2.8539582637730367,1.5916520126136509,-7.3654943424224975
3.6547284362826935,-5.885121692284082,5.625584945215199,5.681202367931225
3.662725653867557,-6.18288016425844,5.40145602824631,5.628531038320572
3.670722871452421,-6.480638636232813,5.177327111277408,5.575859708709917
3.6787200890372844,-6.7783971082071695,4.953198194308518,5.523188379099264
3.686717306622148,-7.076155580181526,4.729069277339629,5.4705170494886115
3.694714524207012,-7.3739140521559,4.5049403603707265,5.417845719877956
3.7027117417918753,-7.671672524130257,4.280811443401837,5.3651743902673035
3.7107089593767393,-7.96943099610463,4.056682526432935,5.312503060656648
3.7187061769616028,-8.267189468078987,3.8325536094640458,5.259831731045995
3.7267033945464663,-8.564947940053344,3.608424692495156,5.207160401435343
3.73470061213133,-8.862706412027716,3.384295775526254,5.1544890718246865
3.7426978297161937,-9.160464884002074,3.1601668585573646,5.101817742214035
3.7506950473010576,-9.458223355976447,2.9360379415884625,5.0491464126033785
3.758692264885921,-9.755981827950803,2.711909024619573,4.996475082992726
3.7666894824707846,-10.05374029992516,2.4877801076506834,4.943803753382074
3.7746867000556485,0.8101871637924312,1.9177377109997742,-1.0113622704512526
3.782683917640512,18.056677425339096,-5.304294657763222,-16.113687395659973
3.7906811352253755,29.538942404006683,-10.62745409015024,-26.448237061769603
3.7986783528102395,30.177084016289804,-9.689235063489612,-25.39005977133602
3.806675570395103,30.81522562857289,-8.751016036829038,-24.33188248090249
3.814672787979967,31.453367240856007,-7.81279701016841,-23.273705190468906
3.8226700055648304,32.09150885313909,-6.874577983507835,-22.215527900035376
3.830667223149694,32.729650465422175,-5.9363589568472594,-21.15735060960185
3.838664440734558,33.367792077705296,-4.998139930186633,-20.099173319168266
3.8466616583194213,34.00593368998838,-4.0599209035260575,-19.040996028734735
3.8546588759042852,34.6440753022715,-3.12170187686543,-17.982818738301148
3.8626560934891487,35.28221691455458,-2.1834828502048556,-16.92464144786762
3.8706533110740122,35.92035852683767,-1.2452638235442794,-15.866464157434095
3.878650528658876,19.190838341680134,-12.684087646076433,-18.52193656093409
3.8866477462437397,15.820816360600968,-2.855250417362217,-1.9320801335558935
3.894644963828603,15.049321237471487,-2.464792444061225,-1.399535978768032
3.902642181413467,14.47202758565862,-2.54397368630257,-1.0981023928770073
3.9106393989983306,13.894733933845782,-2.623154928543911,-0.7966688069859995
3.9186366165831945,13.317440282032912,-2.702336170785256,-0.49523522109497486
3.926633834168058,12.740146630220076,-2.7815174130265965,-0.1938016352039671
3.9346310517529215,12.162852978407239,-2.860698655267937,0.1076319506870409
3.9426282693377854,11.58555932659437,-2.939879897509282,0.40906553657806555
3.950625486922649,11.008265674781534,-3.0190611397506224,0.7104991224690731
3.9586227045075124,10.430972022968696,-3.098242381991963,1.011932708360081
3.9666199220923763,9.853678371155826,-3.177423624233308,1.313366294251106
3.97461713967724,9.276384719342989,-3.2566048664746483,1.6147998801421135
3.9826143572621038,-2.240911853088506,2.00786076794651,2.8186257095158753
3.9906115748469673,-2.226370510422319,-8.027469939859595,4.459066690803284
3.9986087924318308,-2.059488813350228,-7.61296355371402,4.593381405421352
4.006606010016695,-1.8926071162781282,-7.198457167568423,4.727696120039428
4.014603227601558,-1.7257254192060372,-6.783950781422849,4.862010834657497
4.022600445186422,-1.5588437221339464,-6.369444395277275,4.996325549275565
4.030597662771285,-1.3919620250618556,-5.9549380091317,5.130640263893634
4.0385948803561496,-1.2250803279897464,-5.54043162298608,5.2649549785117165
4.046592097941013,-1.0581986309176556,-5.125925236840505,5.399269693129785
4.0545893155258765,-0.8913169338455649,-4.7114188506949315,5.5335844077478535
4.06258653311074,-0.7244352367734741,-4.296912464549357,5.667899122365922
4.0705837506956035,-0.5575535397013833,-3.8824060784037826,5.80221383698399
4.078580968280468,13.80984974958313,4.969992487479619,10.771910684473971
4.086578185865331,14.439521071558955,5.7584334942945885,10.718557793455044
4.094575403450195,14.77987577264379,6.269653478617314,10.762413502791393
4.102572621035058,15.120230473728625,6.780873462940039,10.80626921212774
4.110569838619922,15.460585174813462,7.292093447262765,10.850124921464088
4.118567056204786,15.800939875898335,7.803313431585547,10.893980630800442
4.12656427378965,16.14129457698317,8.314533415908272,10.93783634013679
4.134561491374513,16.481649278068005,8.825753400230997,10.981692049473137
4.142558708959377,16.82200397915284,9.336973384553723,11.025547758809486
4.15055592654424,17.162358680237677,9.848193368876448,11.069403468145834
4.158553144129105,17.50271338132255,10.35941335319923,11.113259177482188
4.166550361713968,17.843068082407385,10.870633337521955,11.157114886818535
4.174547579298832,23.621365980337384,14.593258579113224,1.7907071044334275
4.182544796883695,35.14979941878463,20.584951709639647,-4.216091881531072
4.190542014468559,31.383437952142486,20.014964712429354,-16.300057776031927
4.198539232053422,30.914801001669485,17.287443091427086,-16.67047007758025
4.206536449638286,30.44616405119643,14.559921470424518,-17.040882379128618
4.21453366722315,29.97752710072343,11.83239984942225,-17.411294680676942
4.222530884808013,29.50889015025043,9.104878228419983,-17.781706982225266
4.230528102392877,29.04025319977743,6.377356607417717,-18.152119283773594
4.23852531997774,28.571616249304427,3.649834986415449,-18.522531585321918
4.246522537562605,28.102979298831375,0.9223133654128794,-18.892943886870285
4.254519755147468,27.634342348358373,-1.8052082555893882,-19.26335618841861
4.262516972732332,27.16570539788537,-4.532729876591656,-19.633768489966933
4.270514190317195,26.69706844741237,-7.260251497593924,-20.004180791515257
4.278511407902059,-0.3552793544791544,-6.0633828603237285,-13.056744017808809
4.286508625486923,-1.2686286223753782,-3.7014408183292296,-9.103087858497679
4.294505843071787,-0.8943932360385403,-3.6316156497388086,-8.302248209381187
4.30250306065665,-0.5201578497017023,-3.5617904811483876,-7.501408560264695
4.310500278241514,-0.14592246336486436,-3.491965312557966,-6.700568911148203
4.318497495826377,0.2283129229719736,-3.422140143967545,-5.899729262031712
4.3264947134112415,0.6025483093088533,-3.3523149753771166,-5.098889612915131
4.334491930996105,0.976783695645691,-3.2824898067866957,-4.298049963798639
4.3424891485809685,1.3510190819825292,-3.2126646381962747,-3.497210314682148
4.350486366165832,1.725254468319367,-3.1428394696058533,-2.696370665565656
4.3584835837506954,2.0994898546562046,-3.0730143010154323,-1.8955310164491639
4.36648080133556,2.473725240993084,-3.0031891324250037,-1.094691367332583
4.374478018920423,3.638351419031255,-4.979641346690725,-0.322887033946032
4.382475236505287,-0.216498762109209,-8.44159381281726,2.5717536426924896
4.39047245409015,-0.5283086436578127,-8.180623385915288,2.824318830704248
4.398469671675014,-0.8401185252064165,-7.919652959013316,3.0768840187160063
4.406466889259877,-1.1519284067550202,-7.658682532111344,3.3294492067277646
4.414464106844742,-1.4637382883036587,-7.397712105209343,3.582014394739551
4.422461324429605,-1.7755481698522624,-7.136741678307371,3.834579582751309
4.430458542014469,-2.0873580514008663,-6.875771251405399,4.087144770763068
4.438455759599332,-2.39916793294947,-6.614800824503427,4.339709958774826
4.446452977184196,-2.7109778144980736,-6.353830397601456,4.592275146786584
4.45445019476906,-3.0227876960467124,-6.092859970699454,4.844840334798371
4.4624474123539235,-3.334597577595316,-5.831889543797482,5.09740552281013
4.470444629938787,-3.6464074591439197,-5.570919116895511,5.3499707108218875
4.4784418475236505,-4.792340845854081,-2.417793823038795,4.131733722871646
4.486439065108514,-23.979911519199966,0.6597378964944332,-0.559821368948271
4.494436282693378,-6.712129883138554,-3.1954222345885164,-0.37256703147220827
4.502433500278242,-5.73566961602672,-3.6333143263463756,-0.5161615161070907
4.510430717863105,-4.759209348914887,-4.071206418104235,-0.6597560007419733
4.518427935447969,-3.7827490818030522,-4.509098509862095,-0.8033504853768557
4.526425153032832,-2.806288814691218,-4.946990601619953,-0.9469449700117382
4.534422370617697,-1.8298285475792753,-5.384882693377862,-1.0905394546466365
4.54241958820256,-0.8533682804674418,-5.822774785135721,-1.2341339392815192
4.550416805787424,0.12309198664439247,-6.2606668768935805,-1.3777284239164018
4.558414023372287,1.0995522537562268,-6.69855896865144,-1.521322908551284
4.566411240957151,2.076012520868061,-7.1364510604093,-1.6649173931861667
4.574408458542014,3.0524727879798936,-7.574343152167159,-1.808511877821049
4.5824056761268785,15.199965442404588,-16.758579298831833,-1.2628138564273486
4.590402893711742,28.86519866444081,-9.12985531441291,-0.4243973288815033
4.5984001112966055,23.774354208581247,-7.700053893240866,-1.7283358874477444
4.606397328881469,23.247665660716585,-7.15070656221909,-2.0961053679208885
4.6143945464663325,22.720977112851923,-6.601359231197316,-2.463874848394033
4.622391764051197,22.194288564987204,-6.05201190017548,-2.8316443288672177
4.63038898163606,21.667600017122542,-5.502664569153705,-3.1994138093403617
4.638386199220924,21.14091146925788,-4.95331723813193,-3.5671832898135056
4.646383416805787,20.614222921393218,-4.403969907110156,-3.93495277028665
4.654380634390651,20.087534373528555,-3.8546225760883814,-4.302722250759794
4.662377851975515,19.560845825663836,-3.3052752450665457,-4.670491731232978
4.670375069560379,19.034157277799174,-2.7559279140447703,-5.038261211706123
4.678372287145242,15.954037920343332,-0.478670403052635,-3.4266661101835867
4.686369504730106,12.264259692079165,1.8904079948062438,-1.1999136523834242
4.694366722314969,0.7028738567127572,1.9425848279896698,4.3525510466161625
4.702363939899834,0.5692793116732924,1.9117237703865395,3.9502294850391406
4.710361157484697,0.43568476663384254,1.8808627127834125,3.547907923462163
4.718358375069561,0.3020902215943927,1.8500016551802856,3.145586361885186
4.726355592654424,0.1684956765549428,1.8191405975771586,2.743264800308209
4.734352810239288,0.0349011315154929,1.7882795399740317,2.3409432387312314
4.742350027824152,-0.09869341352397176,1.7574184823709014,1.9386216771542095
4.750347245409015,-0.23228795856342166,1.7265574247677744,1.5363001155772325
4.758344462993879,-0.36588250360287156,1.6956963671646474,1.133978554000255
4.766341680578742,-0.49947704864232134,1.6648353095615205,0.7316569924232779
4.774338898163606,-1.551550918197115,2.662118530884616,0.14822871452403874
4.782336115748469,1.640964761088298,18.783043917038906,6.530654589480971
4.790333333333334,1.4619999999999833,18.65033333333332,6.806666666666692
4.798330550918197,1.2830352389116886,18.51762274962775,7.082678743852384
4.806327768503061,1.1040704778233938,18.384912165922177,7.358690821038075
4.814324986087924,0.9251057167350992,18.252201582216607,7.634702898223766
4.822322203672788,0.7461409556468045,18.119490998511036,7.910714975409458
4.830319421257652,0.5671761945584899,17.986780414805448,8.18672705259518
4.838316638842516,0.38821143347019516,17.854069831099878,8.462739129780871
4.846313856427379,0.20924667238190042,17.721359247394307,8.738751206966562
4.854311074012243,1.7810845854199815,10.275124095715263,4.592703116305138
4.862308291597106,28.54775577653575,5.445856427378971,-2.5265180131136358
4.8703055091819705,29.41256793206074,5.17235158597661,-2.8516918342164685
4.878302726766834,30.277380087585627,4.898846744574279,-3.1768656553192653
4.8862999443516975,31.142192243110514,4.6253419031719485,-3.5020394764220617
4.894297161936561,32.0070043986354,4.351837061769618,-3.8272132975248585
4.902294379521424,32.87181655416029,4.078332220367287,-4.152387118627655
4.910291597106289,33.73662870968528,3.804827378964925,-4.477560939730488
4.918288814691152,34.601440865210165,3.5313225375625943,-4.802734760833285
4.926286032276016,35.46625302073505,3.2578176961602634,-5.127908581936081
4.934283249860879,36.33106517625994,2.9843128547579325,-5.453082403038879
4.942280467445743,37.19587733178483,2.7108080133556016,-5.778256224141675
4.950277685030606,38.060689487309716,2.4373031719532707,-6.103430045244472
4.958274902615471,38.9255016428347,2.163798330550909,-6.428603866347304
4.966272120200334,39.79031379835959,1.8902934891485783,-6.753777687450102
4.974269337785198,40.53159710628828,1.7201335559265167,-6.971846410684502
4.982266555370061,29.964841071673426,-6.612501181518312,-10.509895066657005
4.990263772954925,28.81868911954712,-6.562315743630691,-9.71886593598029
4.998260990539789,27.672537167420685,-6.512130305743064,-8.927836805303487
5.0062582081246525,26.52638521529438,-6.461944867855442,-8.136807674626771
5.014255425709516,25.380233263168073,-6.4117594299678204,-7.345778543950056
5.0222526432943795,24.234081311041766,-6.361573992080199,-6.55474941327334
5.030249860879243,23.08792935891546,-6.311388554192577,-5.7637202825966245
5.038247078464107,21.94177740678903,-6.26120311630495,-4.972691151919821
5.046244296048971,20.79562545466272,-6.2110176784173285,-4.181662021243105
5.054241513633834,13.021195325542509,-0.9398441847522698,-3.9449170840289245
5.062238731218698,3.7187451661860593,-0.3017191834876446,-0.7529612991349115
5.070235948803561,3.5463687762432294,-0.5864928314868283,-0.5384904639044821
5.078233166388426,3.3739923863003805,-0.8712664794860436,-0.3240196286740289
5.086230383973289,3.2016159963575506,-1.1560401274852274,-0.10954879344359947
5.094227601558153,3.0292396064147207,-1.440813775484411,0.10492204178682996
5.102224819143016,2.856863216471891,-1.7255874234835948,0.3193928770172594
5.11022203672788,2.684486826529061,-2.010361071482779,0.5338637122476888
5.118219254312743,2.512110436586231,-2.2951347194819625,0.7483345474781182
5.1262164718976075,2.3397340466433825,-2.5799083674811776,0.9628053827085714
5.134213689482471,2.1673576567005526,-2.864682015480361,1.1772762179390008
5.1422109070673345,1.9949812667577225,-3.149455663479545,1.39174705316943
5.150208124652198,1.8226048768148928,-3.434229311478729,1.6062178883998597
5.1582053422370615,1.650228486872063,-3.7190029594779124,1.8206887236302889
5.166202559821926,1.477852096929214,-4.003776607477128,2.035159558860742
5.174199777406789,-4.908475792988154,-11.628778519755322,8.94041597106298
5.182196994991653,-9.687227092773664,-6.169709802051045,5.8819810636775625
5.190194212576516,-10.383099268622283,-5.1627458621512385,5.232835487717646
5.19819143016138,-11.078971444470902,-4.15578192225143,4.583689911757729
5.206188647746244,-11.774843620319599,-3.148817982351511,3.9345443357977405
5.214185865331108,-12.470715796168218,-2.141854042451704,3.2853987598378236
5.222183082915971,-13.166587972016838,-1.1348901025518963,2.636253183877907
5.230180300500835,-13.862460147865457,-0.12792616265208867,1.9871076079179906
5.238177518085698,-14.558332323714076,0.8790377772477189,1.3379620319580736
5.246174735670563,-14.905604340567395,2.102252086811508,0.7276377295492648
5.254171953255426,-5.313321577629382,-1.4311659710628832,5.43186317473567
5.26216917084029,-5.193113400806903,-1.5929430184566842,5.537409785985901
5.270166388425153,-5.0729052239844235,-1.754720065850485,5.64295639723613
5.2781636060100166,-4.952697047161944,-1.916497113244286,5.7485030084863595
5.286160823594881,-4.832488870339452,-2.078274160638105,5.8540496197366005
5.294158041179744,-4.7122806935169725,-2.2400512080319057,5.95959623098683
5.302155258764608,-4.592072516694493,-2.4018282554257064,6.0651428422370595
5.310152476349471,-4.471864339872013,-2.5636053028195076,6.17068945348729
5.318149693934335,-4.351656163049535,-2.7253823502133088,6.276236064737519
5.326146911519198,-4.231447986227055,-2.8871593976071095,6.381782675987749
5.334144129104063,-4.111239809404562,-3.0489364450009284,6.48732928723799
5.342141346688926,-3.9910316325820836,-3.210713492394729,6.592875898488219
5.35013856427379,-2.758823594880402,-4.7959820070487265,5.727636245594546
5.358135781858653,23.402523650532586,-39.50132498607962,9.663814134668614
5.366132999443517,22.80013545832201,-19.668259812866406,7.917754228623936
5.374130217028381,21.895147998602244,-19.182568330939123,6.971664790154054
5.382127434613245,20.99016053888258,-18.69687684901189,6.025575351684276
5.390124652198108,20.085173079162914,-18.21118536708466,5.079485913214498
5.398121869782972,19.18018561944325,-17.725493885157427,4.13339647474472
5.406119087367835,18.275198159723583,-17.239802403230197,3.1873070362749427
5.4141163049526995,17.370210700003817,-16.75411092130291,2.2412175978050604
5.422113522537563,16.465223240284153,-16.26841943937568,1.295128159335282
5.4301107401224264,15.560235780564486,-15.78272795744845,0.34903872086550436
5.43810795770729,14.65524832084482,-15.297036475521217,-0.5970507176042741
5.446105175292153,13.750260861125154,-14.811344993593988,-1.5431401560740508
5.454102392877018,14.551945251542147,0.23261136172582933,-5.613819983660705
5.462099610461881,13.949431475627215,0.8536718762950192,-5.460171313891944
5.470096828046745,13.346917699712284,1.4747323908642092,-5.306522644123183
5.478094045631608,12.744403923797352,2.095792905433399,-5.152873974354422
5.486091263216472,12.14189014788242,2.7168534200025887,-4.999225304585661
5.494088480801335,11.539376371967489,3.3379139345717785,-4.8455766348169
5.5020856983862,10.936862596052489,3.9589744491410372,-4.691927965048121
5.510082915971063,10.334348820137556,4.580034963710228,-4.53827929527936
5.518080133555927,9.731835044222624,5.201095478279417,-4.384630625510599
5.52607735114079,9.129321268307693,5.822155992848607,-4.2309819557418376
5.534074568725654,8.526807492392761,6.443216507417797,-4.077333285973077
5.542071786310518,7.924293716477763,7.064277021987056,-3.9236846162042984
5.5500690038953815,0.8013216471894854,6.688383416806656,-3.3239588202554935
5.558066221480245,1.8984154145798713,10.573640790205893,-1.1605982313517416
5.5660634390651085,2.220303422370625,10.43968739565943,-0.5935781193293039
5.574060656649972,2.5421914301613784,10.305734001112967,-0.026558007306866305
5.582057874234836,2.864079437952168,10.17178060656649,0.5404621047156342
5.5900550918197,3.1859674457429215,10.037827212020026,1.1074822167380718
5.598052309404563,3.5078554535336757,9.903873817473563,1.6745023287605092
5.606049526989427,3.829743461324429,9.7699204229271,2.241522440782947
5.61404674457429,4.151631469115182,9.635967028380637,2.8085425528053847
5.622043962159155,4.473519476905972,9.50201363383416,3.3755626648278847
5.630041179744018,4.795407484696726,9.368060239287697,3.9425827768503225
5.638038397328882,5.11729549248748,9.234106844741234,4.50960288887276
5.646035614913745,5.439183500278233,9.100153450194773,5.076623000895197
5.654032832498609,2.6020027824151337,6.118320534223683,2.6631455203116765
5.662030050083473,3.2248391764051916,7.4746221480245225,0.26829178260060393
5.6700272676683365,3.8917182650096382,7.817613924442,0.02067423071372082
5.6780244852532,4.558597353614085,8.160605700859476,-0.22694332117316235
5.6860217028380635,5.2254764422185325,8.503597477276953,-0.4745608730600455
5.694018920422927,5.892355530822979,8.84658925369443,-0.7221784249469285
5.7020161380077905,6.559234619427425,9.189581030111908,-0.9697959768338118
5.710013355592655,7.226113708031946,9.532572806529423,-1.2174135287207224
5.718010573177518,7.892992796636394,9.8755645829469,-1.4650310806076057
5.726007790762382,8.55987188524084,10.218556359364376,-1.712648632494489
5.734005008347245,9.226750973845286,10.561548135781853,-1.9602661843813718
5.742002225932109,9.893630062449732,10.904539912199331,-2.207883736268255
5.749999443516973,10.560509151054253,11.247531688616846,-2.455501288155166
5.757996661101837,11.227388239658701,11.590523465034323,-2.7031188400420487
5.7659938786867,31.637422927100786,8.560272120199375,-15.673336672233322
5.773991096271564,28.99537029970584,-2.08828070593852,-19.264027585658596
5.781988313856427,28.6394421871951,-3.2009325499208794,-18.364392537345783
5.789985531441292,28.283514074684323,-4.313584393903362,-17.464757489032866
5.797982749026155,27.927585962173584,-5.426236237885721,-16.56512244072005
5.805979966611019,27.571657849662845,-6.53888808186808,-15.665487392407233
5.813977184195882,27.215729737152106,-7.6515399258504395,-14.76585234409442
5.8219744017807455,26.85980162464137,-8.764191769832799,-13.866217295781603
5.82997161936561,26.50387351213059,-9.87684361381528,-12.966582247468686
5.837968836950473,26.14794539961985,-10.98949545779764,-12.066947199155871
5.845966054535337,25.79201728710911,-12.102147301779999,-11.167312150843056
5.8539632721202,19.85681260434087,-17.51545617696133,-2.859580759599755
5.861960489705064,3.0056981104643863,-4.072731915554968,4.873982337930585
5.869957707289927,3.024862613865951,-3.8024115517855277,4.873910290925315
5.877954924874792,3.044027117267518,-3.5320911880160573,4.873838243920047
5.885952142459655,3.063191620669083,-3.261770824246617,4.873766196914778
5.893949360044519,3.082356124070648,-2.9914504604771768,4.873694149909508
5.901946577629382,3.1015206274722127,-2.7211300967077365,4.87362210290424
5.909943795214246,3.1206851308737775,-2.450809732938296,4.873550055898971
5.91794101279911,3.1398496342753446,-2.1804893691688254,4.873478008893701
5.925938230383974,3.159014137676909,-1.9101690053993852,4.873405961888433
5.933935447968837,3.178178641078474,-1.639848641629945,4.873333914883164
5.941932665553701,3.1973431444800386,-1.3695282778605042,4.873261867877894
5.949929883138564,3.2165076478816035,-1.099207914091064,4.873189820872626
5.9579271007234285,3.2356721512831705,-0.8288875503215936,4.873117773867357
5.965924318308292,3.2548366546847354,-0.5585671865521533,4.873045726862087
5.973921535893155,1.924866444073156,-2.236454090150841,5.048497495826536
5.981918753478019,-6.796027315537825,-8.51486241106745,7.183516649613165
5.989915971062882,-7.175422197090703,-8.155847535617932,6.989777604250826
5.997913188647747,-7.554817078643625,-7.796832660168375,6.796038558888467
6.00591040623261,-7.934211960196503,-7.437817784718858,6.602299513526129
6.013907623817474,-8.313606841749383,-7.078802909269341,6.408560468163791
6.021904841402337,-8.693001723302261,-6.719788033819824,6.214821422801452
6.029902058987201,-9.07239660485514,-6.360773158370307,6.0210823774391145
6.037899276572065,-9.451791486408062,-6.00175828292075,5.8273433320767545
6.045896494156929,-9.83118636796094,-5.642743407471233,5.633604286714416
6.053893711741792,-10.210581249513819,-5.2837285320217156,5.439865241352078
6.061890929326656,-10.589976131066699,-4.924713656572198,5.24612619598974
6.069888146911519,-10.969371012619577,-4.5656987811226815,5.052387150627402
6.077885364496383,-4.340475236505448,-3.9674351697272057,2.590639955481346
6.085882582081247,-3.4622763494713227,-5.36282743461322,3.392994490818049
6.0938797996661105,-2.1302582081242822,-4.053317195325196,3.581304396215922
6.101877017250974,-0.9630960079664709,-3.4842341768444527,3.2772047711097287
6.1098742348358375,-0.41781204053538734,-3.5845150762967535,2.908806629470164
6.117871452420701,0.12747192689569609,-3.6847959757490543,2.5404084878306
6.125868670005565,0.6727558943268401,-3.785076875201366,2.1720103461909943
6.133865887590429,1.2180398617579233,-3.8853577746536665,1.8036122045514302
6.141863105175292,1.763323829189007,-3.9856386741059673,1.4352140629118657
6.149860322760156,2.30860779662009,-4.085919573558268,1.0668159212723012
6.157857540345019,2.853891764051174,-4.186200473010569,0.6984177796327367
6.165854757929884,3.3991757314823174,-4.28648137246288,0.3300196379931317
6.173851975514747,38.440696160267606,-1.493198386198296,-1.6597070116888095
6.181849193099611,31.319248906908296,1.5435754829475852,-4.019896414659447
6.189846410684474,30.151697013962632,1.453204469570513,-4.404370883290334
6.197843628269338,28.964564589973183,2.1040689280113343,-4.466712829463247
6.205840845854202,27.7774321659836,2.7549333864522283,-4.529054775636167
6.2138380634390655,26.590299741994148,3.4057978448930495,-4.59139672180908
6.221835281023929,25.403167318004698,4.056662303333871,-4.653738667981993
6.2298324986087925,24.216034894015248,4.707526761774693,-4.716080614154906
6.237829716193656,23.0289024700258,5.3583912202155135,-4.77842256032782
6.2458269337785195,21.841770046036345,6.009255678656335,-4.840764506500732
6.253824151363384,20.654637622046764,6.660120137097229,-4.9031064526736525
6.261821368948247,19.46750519805731,7.31098459553805,-4.965448398846565
6.269818586533111,18.28037277406786,7.961849053978871,-5.027790345019478
6.277815804117974,7.021305843071407,7.4741515859766015,-2.98455715080675
6.285813021702838,0.5323793135078589,4.415796785851879,-2.9036251444715537
6.293810239287702,0.30371161948789116,4.5434007411620225,-2.758444886777093
6.301807456872566,0.07504392546794869,4.671004696472152,-2.6132646290826482
6.309804674457429,-0.15362376855199367,4.798608651782281,-2.468084371388204
6.317801892042293,-0.38229146257193614,4.926212607092411,-2.322904113693759
6.325799109627156,-0.6109591565918785,5.05381656240254,-2.1777238559993144
6.333796327212021,-0.8396268506118464,5.1814205177126835,-2.0325435983048536
6.341793544796884,-1.0682945446317889,5.309024473022813,-1.8873633406104091
6.3497907623817476,-1.296962238651731,5.436628428332942,-1.7421830829159646
6.357787979966611,-1.5256299326716736,5.564232383643072,-1.5970028252215198
6.3657851975514745,-1.7542976266916162,5.6918363389532,-1.4518225675270753
6.373782415136339,-3.9229577072909194,5.51205203116291,-0.1706268781296354
6.381779632721202,-4.650222036727837,5.1027946577629875,0.8429532554258192
6.389776850306066,-2.6693199777406793,6.7687691451564564,0.8720660502546982
6.397774067890929,-2.6476132442960494,6.843204785754033,0.8500077907623822
6.405771285475793,-2.62590651085142,6.917640426351609,0.8279495312700662
6.413768503060657,-2.6041997774067878,6.992076066949194,0.8058912717777479
6.421765720645521,-2.5824930439621583,7.06651170754677,0.7838330122854319
6.429762938230384,-2.5607863105175284,7.140947348144346,0.7617747527931159
6.437760155815248,-2.539079577072899,7.215382988741922,0.7397164933008
6.445757373400111,-2.5173728436282694,7.289818629339498,0.717658233808484
6.453754590984975,-2.4956661101836395,7.364254269937074,0.695599974316168
6.461751808569839,-2.473959376739008,7.4386899105346584,0.6735417148238496
6.469749026154703,-2.452252643294378,7.5131255511322355,0.6514834553315337
6.477746243739566,-2.3556126878130095,7.186680022259267,0.03465720645511583
6.48574346132443,-2.756854757929867,6.510841402337254,-1.0415882025597818
6.493740678909293,-2.763737834662715,6.053550238051086,-2.1433329005131623
6.5017378964941575,5.24709033574518,9.97197996661126,-5.107575959933112
6.509735114079021,9.170169850986543,12.215199499165466,-4.08693106566491
6.517732331663884,13.093249366227909,14.458419031719675,-3.0662861713967082
6.525729549248748,17.01632888146927,16.701638564273882,-2.0456412771285057
6.533726766833611,20.939408396710636,18.94485809682809,-1.0249963828603033
6.541723984418476,24.86248791195244,21.188077629382544,-0.004351488591987973
6.549721202003339,28.7855674271938,23.43129716193675,1.0162934056762145
6.557718419588203,32.708646942435166,25.674516694490958,2.036938299944416
6.565715637173066,36.631726457676535,27.917736227045165,3.0575831942126195
6.57371285475793,42.22736560934994,-2.198657762940422,-11.826821368947458
6.581710072342794,28.200137084395823,-12.905400814544379,-4.635917958502252
6.589707289927658,27.221840093684822,-12.59456390687776,-4.094392082041491
6.597704507512521,26.24354310297382,-12.28372699921114,-3.552866205580731
6.605701725097385,25.265246112262822,-11.97289009154452,-3.01134032911997
6.613698942682248,24.28694912155182,-11.662053183877902,-2.4698144526592096
6.621696160267112,23.30865213084082,-11.351216276211282,-1.9282885761984492
6.629693377851976,22.33035514012971,-11.040379368544627,-1.3867626997376283
6.6376905954368395,21.35205814941871,-10.729542460878008,-0.8452368232768674
6.645687813021703,20.37376115870771,-10.418705553211389,-0.303710946816107
6.6536850306065665,19.395464167996707,-10.10786864554477,0.2378149296446539
6.66168224819143,18.41716717728571,-9.79703173787815,0.7793408061054139
6.669679465776294,17.438870186574597,-9.486194830211495,1.3208666825662352
6.677676683361158,8.138269894268126,-6.255812836208447,8.050104618809247
6.685673900946021,1.6197952509371345,0.31434052480631824,11.175866902713308
6.693671118530885,1.1585930763727004,0.7191227687171002,11.040880900401767
6.701668336115748,0.697390901808266,1.1239050126278822,10.905894898090224
6.709665553700613,0.2361887272437806,1.5286872565387093,10.770908895778668
6.717662771285476,-0.22501344732065376,1.9334695004494913,10.635922893467125
6.72565998887034,-0.6862156218850881,2.338251744360273,10.500936891155584
6.733657206455203,-1.1474177964495222,2.7430339882710553,10.365950888844043
6.741654424040067,-1.6086199710139564,3.147816232181837,10.230964886532501
6.749651641624931,-2.069822145578442,3.552598476092664,10.095978884220944
6.7576488592097945,-2.531024320142876,3.9573807200034463,9.960992881909402
6.765646076794658,-2.9922264947073103,4.362162963914229,9.82600687959786
6.7736432943795215,-3.4534286692717444,4.76694520782501,9.69102087728632
6.781640511964385,0.11232665553700893,2.517041711766253,9.083041430467137
6.789637729549249,0.21629048414024565,2.5300481755306476,8.933730741712361
6.797634947134113,0.3202543127434708,2.543054639295041,8.784420052957602
6.805632164718976,0.42421814134669594,2.5560611030594345,8.635109364202844
6.81362938230384,0.5281819699499212,2.569067566823828,8.485798675448084
6.821626599888703,0.6321457985531463,2.5820740305882213,8.336487986693326
6.829623817473567,0.7361096271563715,2.5950804943526147,8.187177297938566
6.837621035058431,0.8400734557596082,2.6080869581170094,8.037866609183792
6.845618252643295,0.9440372843628333,2.621093421881403,7.888555920429033
6.853615470228158,1.0480011129660585,2.6340998856457962,7.739245231674275
6.861612687813022,1.1519649415692839,2.6471063494101896,7.589934542919515
6.869609905397885,1.255928770172509,2.660112813174583,7.440623854164757
6.87760712298275,0.6957600321523062,0.7606932541889309,5.28834477215095
6.885604340567613,-0.4763105175292785,-0.9889065108514654,2.6889232053421344
6.8936015581524765,-0.5414318864774709,-2.0662482470784713,3.7387711324429653
6.90159877573734,-0.08918923205344087,-1.6979763772955077,3.4879583959376843
6.9095959933222035,0.36305342237058913,-1.329704507512544,3.2371456594324033
6.917593210907068,0.8152960767946694,-0.9614326377295397,2.9863329229270943
6.925590428491931,1.2675387312186994,-0.5931607679465762,2.7355201864218133
6.933587646076795,1.7197813856427295,-0.2248888981636128,2.484707449916532
6.941584863661658,2.1720240400667596,0.14338297161935065,2.2338947134112512
6.949582081246522,2.6242666944907893,0.5116548414023141,1.98308197690597
6.957579298831386,3.0765093489148696,0.8799267111853188,1.7322692404006612
6.96557651641625,3.5287520033389,1.2481985809682823,1.4814565038953802
6.973573734001113,10.413553700612267,4.8614312743462005,-0.5927434613244682
6.981570951585977,22.690252231980836,15.685888800174201,-0.027579226246640803
6.98956816917084,21.897832280854576,15.050979264958515,0.6238463018073509
6.997565386755704,21.105412329728317,14.416069729742828,1.2752718298613428
7.005562604340568,20.31299237860197,13.781160194527072,1.9266973579154065
7.013559821925432,19.52057242747571,13.146250659311384,2.5781228859693983
7.021557039510295,18.72815247634945,12.511341124095697,3.22954841402339
7.029554257095159,17.93573252522319,11.87643158888001,3.8809739420773814
7.037551474680022,17.14331257409693,11.241522053664324,4.532399470131374
7.0455486922648864,16.350892622970584,10.606612518448568,5.183824998185438
7.05354590984975,15.558472671844324,9.97170298323288,5.835250526239429
7.061543127434613,14.766052720718063,9.336793448017193,6.486676054293421
7.069540345019477,13.973632769591804,8.701883912801506,7.138101582347413
7.07753756260434,8.777851419031943,0.6065459098498263,-3.0513447412348107
7.085534780189205,8.230521295557,0.5128287242021737,-4.211646996201408
7.093531997774068,8.030474954231284,0.5434267740920863,-4.455388279983551
7.101529215358932,7.8304286129055685,0.5740248239819988,-4.699129563765695
7.109526432943795,7.630382271579853,0.6046228738719113,-4.942870847547839
7.117523650528659,7.430335930254136,0.6352209237618238,-5.1866121313299836
7.125520868113523,7.2302895889283985,0.6658189736517397,-5.430353415112155
7.133518085698387,7.030243247602682,0.6964170235416522,-5.674094698894298
7.14151530328325,6.830196906276966,0.7270150734315648,-5.917835982676442
7.149512520868114,7.072326377295619,1.5379532554258872,-7.150501669449132
7.157509738452977,11.031608697711315,8.89098477367718,-7.57851422583739
7.1655069560378415,11.029141471009602,9.171142619495887,-7.598932653713639
7.173504173622705,11.026674244307888,9.45130046531456,-7.619351081589886
7.1815013912075685,11.024207017606175,9.731458311133235,-7.6397695094661335
7.189498608792432,11.021739790904462,10.01161615695191,-7.66018793734238
7.1974958263772955,11.01927256420275,10.291774002770584,-7.680606365218628
7.205493043962159,11.016805337501035,10.571931848589259,-7.7010247930948745
7.213490261547023,11.014338110799322,10.852089694407963,-7.721443220971124
7.221487479131887,11.01187088409761,11.132247540226638,-7.7418616488473715
7.22948469671675,11.009403657395895,11.412405386045313,-7.762280076723618
7.237481914301614,11.006936430694182,11.692563231863986,-7.782698504599866
7.245479131886477,11.00446920399247,11.97272107768266,-7.803116932476113
7.253476349471342,8.939339788536193,10.700507141532018,-7.175340048228451
7.261473567056205,6.389826822481658,9.063743275829921,-6.395344759784749
7.269470784641069,4.60107936143573,1.9138324499165136,-6.9078401502504185
7.277468002225932,4.748727991096272,1.348928992765719,-6.985813021702838
7.285465219810796,4.896376620756814,0.7840255356149248,-7.063785893155257
7.29346243739566,5.044025250417373,0.21912207846406773,-7.141758764607685
7.3014596549805235,5.191673880077914,-0.34578137868672654,-7.219731636060104
7.309456872565387,5.339322509738457,-0.9106848358375212,-7.297704507512522
7.3174540901502505,5.486971139398999,-1.4755882929883155,-7.375677378964942
7.325451307735114,5.634619769059541,-2.04049175013911,-7.45365025041736
7.333448525319978,5.7822683987201,-2.605395207289967,-7.531623121869789
7.341445742904842,5.9299170283806415,-3.170298664440761,-7.609595993322207
7.349442960489705,17.30860678909557,-0.8244416249295345,-12.795938564274138
7.357440178074569,31.9809571508069,-16.292752609124385,18.538630773511404
7.365437395659432,31.853001669449085,-14.889311074012287,19.022462437395646
7.373434613244296,31.72504618809127,-13.485869538900188,19.506294101279888
7.38143183082916,31.59709070673344,-12.082428003787935,19.990125765164183
7.389429048414024,31.469135225375624,-10.678986468675836,20.473957429048422
7.397426265998887,31.341179744017808,-9.275544933563738,20.957789092932664
7.405423483583751,31.213224262659992,-7.872103398451641,21.441620756816906
7.413420701168614,31.085268781302176,-6.468661863339541,21.92545242070115
7.421417918753479,30.957313299944346,-5.065220328227287,22.409284084585444
7.429415136338342,30.82935781858653,-3.6617787931151895,22.893115748469686
7.4374123539232055,30.701402337228714,-2.258337258003092,23.37694741235393
7.445409571508069,30.5734468558709,-0.8548957228909941,23.860779076238167
7.4534067890929325,30.445491374513082,0.5485458122211035,24.344610740122413
7.461404006677797,30.317535893155252,1.9519873473333575,24.828442404006708
7.46940122426266,30.189580411797436,3.3554288824454552,25.312274067890947
7.477398441847524,5.395473567055835,7.523529771842176,14.25573121869799
7.485395659432387,3.339855836115725,8.155249895659422,14.878121174179187
7.493392877017251,2.7341499084121583,7.890591976210347,14.854462738823965
7.501390094602115,2.1284439807085245,7.625934056761241,14.830804303468742
7.509387312186979,1.5227380530049577,7.361276137312165,14.80714586811352
7.517384529771842,0.9170321253013913,7.096618217863089,14.7834874327583
7.525381747356706,0.31132619759782454,6.831960298414013,14.759828997403078
7.533378964941569,-0.2943797301057418,6.567302378964937,14.736170562047857
7.541376182526433,-0.9000856578093086,6.302644459515861,14.712512126692635
7.549373400111297,-1.505791585512943,6.037986540066756,14.688853691337412
7.557370617696161,-2.1114975132165097,5.773328620617679,14.66519525598219
7.565367835281024,-2.7172034409200765,5.508670701168604,14.64153682062697
7.573365052865888,-3.3229093686236433,5.244012781719528,14.617878385271748
7.581362270450751,-15.374258764602498,-7.911259599329961,10.377257929886682
7.589359488035615,-29.33624811554604,-14.465142560833707,-0.17581049223453799
7.597356705620479,-27.682914257348074,-14.325736517933928,-0.31012739667122236
7.605353923205342,-26.029580399150102,-14.186330475034149,-0.44444430110790684
7.613351140790206,-24.37624654095213,-14.04692443213437,-0.5787612055445912
7.621348358375069,-22.722912682754163,-13.907518389234589,-0.7130781099812757
7.629345575959934,-21.06957882455601,-13.768112346334794,-0.8473950144179749
7.637342793544797,-19.41624496635804,-13.628706303435015,-0.9817119188546595
7.645340011129661,-17.76291110816007,-13.489300260535236,-1.1160288232913438
7.653337228714524,-16.1095772499621,-13.349894217635457,-1.2503457277280283
7.661334446299388,-14.45624339176413,-13.210488174735676,-1.3846626321647126
7.669331663884252,-12.802909533565977,-13.071082131835881,-1.518979536601412
7.677328881469116,-6.070875459098243,5.423969282137877,3.1820584307182065
7.685326099053979,-2.279231447474146,17.822468917331392,8.731863303036
7.693323316638843,-0.8728763061893159,19.15062904223089,11.458292493662299
7.701320534223706,0.5334788350955137,20.478789167130387,14.184721684288599
7.7093177518085705,1.9398339763805001,21.806949292030033,16.9111508749152
7.717314969393434,3.34618911766533,23.13510941692953,19.6375800655415
7.7253121869782975,4.752544258950159,24.46326954182903,22.364009256167797
7.733309404563161,6.158899400234989,25.791429666728526,25.090438446794096
7.7413066221480245,7.56525454151982,27.119589791628023,27.816867637420394
7.749303839732888,8.971609682804651,28.44774991652752,30.5432968280467
7.757301057317752,10.377964824089634,29.775910041427167,33.269726018673296
7.765298274902616,11.784319965374465,31.104070166326665,35.996155209299594
7.773295492487479,20.32740588480889,28.462571368947835,28.316721619364493
7.781292710072343,29.459644963827728,16.39873400111202,19.295649972175973
7.789289927657206,18.385327493459727,1.1135552741158643,9.555458689130672
7.797287145242071,18.255809337401406,0.5686414138506263,8.683853894421667
7.805284362826934,18.1262911813431,0.02372755358544887,7.812249099712757
7.813281580411798,17.996773025284796,-0.5211863066797284,6.940644305003849
7.821278797996661,17.86725486922649,-1.0661001669449057,6.06903951029494
7.829276015581525,17.737736713168186,-1.6110140272100832,5.197434715586031
7.837273233166389,17.608218557109865,-2.155927887475321,4.325829920877025
7.8452704507512525,17.478700401051558,-2.7008417477404985,3.454225126168116
7.853267668336116,17.349182244993255,-3.245755608005676,2.582620331459207
7.8612648859209795,17.219664088934948,-3.7906694682708535,1.7110155367502973
7.869262103505843,17.09014593287664,-4.335583328536031,0.8394107420413892
7.877259321090707,15.399107030235426,-5.135570518765907,-0.7653020466210411
7.885256538675571,3.8355055707502985,-3.8431271307182504,-1.949969069805073
7.893253756260434,3.7577453912549235,-3.7535696373388214,-1.9490048662664723
7.901250973845298,3.679985211759549,-3.664012143959393,-1.948040662727872
7.909248191430161,3.6022250322641742,-3.574454650579964,-1.9470764591892713
7.917245409015025,3.524464852768799,-3.4848971572005354,-1.9461122556506707
7.925242626599889,3.4467046732734157,-3.3953396638210966,-1.94514805211207
7.933239844184753,3.368944493778041,-3.3057821704416677,-1.9441838485734695
7.941237061769616,3.291184314282666,-3.216224677062239,-1.9432196450348689
7.94923427935448,3.2134241347872914,-3.12666718368281,-1.9422554414962683
7.957231496939343,3.1356639552919168,-3.0371096903033816,-1.941291237957668
7.9652287145242076,3.0579037757965333,-2.947552196923943,-1.940327034419067
7.973225932109071,2.9801435963011587,-2.857994703544514,-1.9393628308804667
7.9812231496939345,2.9023834168057836,-2.7684372101650854,-1.938398627341866
7.989220367278798,2.8246232373104085,-2.678879716785657,-1.9374344238032655
7.9972175848636615,2.746863057815034,-2.589322223406228,-1.9364702202646649
8.005214802448526,2.6691028783196504,-2.499764730026789,-1.9355060167260643
8.01321202003339,2.591342698824276,-2.41020723664736,-1.9345418131874637
8.021209237618253,2.513582519328901,-2.3206497432679316,-1.933577609648863
8.029206455203116,0.521125208681041,-4.586289371174156,-5.308087924318567
8.03720367278798,-3.416222407716666,-12.492161936561352,-15.722970135411128
8.045200890372843,-4.392765290635915,-16.61975987757377,-18.262340554965366
8.053198107957707,-4.489277166489607,-17.157572760155833,-18.58577347978956
8.06119532554257,-4.5857890423433,-17.695385642737897,-18.90920640461375
8.069192543127436,-4.682300918197013,-18.23319852532008,-19.232639329438015
8.077189760712299,-4.778812794050706,-18.771011407902144,-19.556072254262205
8.085186978297163,-4.875324669904399,-19.308824290484207,-19.879505179086397
8.093184195882026,-4.971836545758091,-19.84663717306627,-20.20293810391059
8.10118141346689,-5.068348421611784,-20.384450055648337,-20.52637102873478
8.109178631051753,-5.164860297465476,-20.9222629382304,-20.849803953558972
8.117175848636617,-5.2613721733191685,-21.460075820812463,-21.173236878383165
8.12517306622148,-5.357884049172861,-21.997888703394526,-21.496669803207354
8.133170283806344,23.191742904839387,-7.646050083472781,11.220347245407371
8.141167501391207,34.20991263216508,-0.11065609349081473,34.88965164162521
8.149164718976072,33.9551442476989,4.863079631809363,31.823245865148074
8.157161936560936,34.41740964448953,6.970543118312326,28.973876570239494
8.1651591541458,34.879675041280166,9.078006604815288,26.124507275330917
8.173156371730663,35.3419404380708,11.185470091318251,23.275137980422336
8.181153589315526,35.804205834861435,13.292933577821215,20.42576868551376
8.18915080690039,36.26647123165207,15.400397064324178,17.57639939060518
8.197148024485253,36.728736628442704,17.50786055082714,14.727030095696602
8.205145242070117,35.754540901502416,19.14567779632722,8.516699499164986
8.21314245965498,20.594893857704555,14.927628889679518,3.625898154483338
8.221139677239844,19.43215086163645,15.562031117436149,3.3661852358667055
8.229136894824707,18.269407865568347,16.19643334519278,3.1064723172500726
8.237134112409572,17.106664869499983,16.83083557294955,2.8467593986333823
8.245131329994436,15.94392187343188,17.46523780070618,2.58704648001675
8.2531285475793,14.781178877363775,18.09964002846281,2.327333561400117
8.261125765164163,13.618435881295671,18.734042256219443,2.0676206427834845
8.269122982749026,12.455692885227567,19.368444483976074,1.8079077241668517
8.27712020033389,-2.1898373479607267,8.868594323873033,0.1521719532556044
8.285117417918753,4.46375049731673,10.246244526317735,-0.9371639002423543
8.293114635503617,4.440494220891782,11.05672116362511,-1.6826516544175625
8.30111185308848,4.417237944466835,11.867197800932486,-2.4281394085927706
8.309109070673344,4.393981668041887,12.67767443823986,-3.1736271627679784
8.31710628825821,4.370725391616934,13.488151075547414,-3.919114916943353
8.325103505843073,4.347469115191986,14.29862771285479,-4.66460267111856
8.333100723427936,4.324212838767038,15.109104350162164,-5.410090425293769
8.3410979410128,4.3009565623420905,15.91958098746954,-6.155578179468977
8.349095158597663,4.277700285917142,16.730057624776915,-6.901065933644185
8.357092376182527,4.254444009492194,17.54053426208429,-7.646553687819393
8.36508959376739,4.231187733067246,18.351010899391664,-8.392041441994602
8.373086811352254,0.17601335559261405,13.833504173617236,-10.921457429049923
8.381084028937117,2.1355062140603915,1.929003709886869,-12.841602485624236
8.38908124652198,4.529698386199444,1.4464485253201946,-11.494558708959408
8.397078464106844,6.340730968280554,3.3366435726211043,-11.534750688647781
8.40507568169171,5.28389866444061,2.484939899832954,-11.104200486922597
8.413072899276573,4.227066360600901,1.6332362270449932,-10.67365028519751
8.421070116861436,3.170234056761191,0.7815325542570322,-10.243100083472422
8.4290673344463,2.1134017529214812,-0.07017111853092928,-9.812549881747334
8.437064552031163,1.0565694490817723,-0.9218747913188903,-9.381999680022247
8.445061769616027,-0.00026285475793663693,-1.7735784641068513,-8.951449478297159
8.45305898720089,-1.0570951585976456,-2.6252821368948123,-8.52089927657207
8.461056204785754,-2.1139274624373563,-3.4769858096827733,-8.090349074846984
8.469053422370617,-3.1707597662770652,-4.328689482470734,-7.659798873121895
8.47705063995548,-14.013266277133011,5.468833611573559,-8.199276293821793
8.485047857540346,38.384759586965906,26.675547047547813,-14.94866758177141
8.49304507512521,38.21832860322758,22.84185865331058,-10.366439621590953
8.501042292710073,38.05189761948925,19.008170259073346,-5.784211661410495
8.509039510294937,37.88546663575093,15.174481864836112,-1.2019837012300378
8.5170367278798,37.7190356520126,11.340793470598879,3.3802442589504196
8.525033945464664,37.55260466827428,7.507105076361643,7.962472219130877
8.533031163049527,37.38617368453595,3.6734166821244116,12.544700179311338
8.54102838063439,37.219742700797624,-0.16027171211282365,17.126928139491795
8.549025598219254,37.053311717059294,-3.993960106350059,21.70915609967225
8.557022815804117,36.88688073332097,-7.827648500587287,26.29138405985271
8.565020033388981,36.72044974958264,-11.661336894824522,30.873612020033164
8.573017250973846,36.827666110180175,-13.345569282135884,26.634390651079638
8.58101446855871,7.806947239551247,-4.923415282781258,7.797736695662341
8.589011686143573,7.294872770406781,-5.065681574554092,7.594018100342662
8.597008903728437,6.782798301262314,-5.207947866326926,7.390299505022982
8.6050061213133,6.270723832117849,-5.350214158099759,7.186580909703304
8.613003338898164,5.758649362973382,-5.492480449872593,6.982862314383624
8.621000556483027,5.246574893828916,-5.6347467416454275,6.779143719063946
8.62899777406789,4.73450042468445,-5.777013033418261,6.575425123744266
8.636994991652754,4.2224259555399835,-5.919279325191095,6.371706528424587
8.644992209237618,3.710351486395517,-6.061545616963929,6.167987933104907
8.652989426822483,3.1982770172509376,-6.203811908736794,5.964269337785184
8.660986644407346,2.686202548106471,-6.346078200509627,5.7605507424655045
8.66898386199221,2.1741280789620046,-6.488344492282462,5.556832147145824
8.676981079577073,-8.136291318864666,-13.05521174179172,-6.154959376739012
8.684978297161937,-5.41998301517023,-8.899060221141557,-6.049993491568081
8.6929755147468,-5.0096909825554885,-8.006385295944174,-5.865477978595576
8.700972732331664,-4.599398949940747,-7.113710370746791,-5.680962465623071
8.708969949916527,-4.189106917326006,-6.221035445549408,-5.496446952650565
8.716967167501391,-3.778814884711265,-5.328360520352025,-5.311931439678061
8.724964385086254,-3.3685228520965236,-4.435685595154641,-5.127415926705555
8.73296160267112,-2.9582308194816913,-3.5430106699570594,-4.942900413733009
8.740958820255983,-2.54793878686695,-2.6503357447596754,-4.758384900760504
8.748956037840847,3.61642125765236,-2.9628210907068544,-8.449900111297074
8.75695325542571,3.8024945279169007,-4.2127469857169775,-6.6322263030976885
8.764950473010574,3.857290278035411,-5.447280426224829,-4.7179293678764225
8.772947690595437,3.9120860281539214,-6.6818138667326785,-2.8036324326551565
8.7809449081803,-2.454173131690088,-4.638353677698128,-3.5699027791417
8.788942125765164,-3.129232380765334,-4.7919472977838895,-3.3022312023306792
8.796939343350028,-3.8042916298405793,-4.945540917869651,-3.0345596255196585
8.804936560934891,-4.479350878915825,-5.099134537955412,-2.766888048708638
8.812933778519755,-5.154410127991071,-5.252728158041174,-2.4992164718976175
8.82093099610462,-5.8294693770664665,-5.406321778126969,-2.231544895086537
8.828928213689483,-6.5045286261417115,-5.5599153982127305,-1.9638733182755164
8.836925431274347,-7.179587875216957,-5.713509018298493,-1.6962017414644956
8.84492264885921,-7.854647124292202,-5.867102638384254,-1.4285301646534752
8.852919866444074,-1.1622593384806408,-29.171658388981655,29.277758973288847
8.860917084028937,0.6693534015026241,-29.36792343721018,29.638633416805813
8.8689143016138,2.5009661414858892,-29.564188485438702,29.999507860322776
8.876911519198664,4.3325788814691535,-29.760453533667228,30.360382303839742
8.884908736783528,6.164191621452419,-29.956718581895753,30.721256747356705
8.892905954368391,7.995804361435683,-30.15298363012428,31.08213119087367
8.900903171953257,9.827417101419355,-30.349248678352847,31.443005634390715
8.90890038953812,11.65902984140262,-30.54551372658137,31.80388007790768
8.916897607122984,13.490642581385885,-30.741778774809895,32.16475452142465
8.924894824707847,15.322255321369148,-30.93804382303842,32.52562896494161
8.93289204229271,17.153868061352416,-31.134308871266942,32.88650340845857
8.940889259877574,18.98548080133568,-31.330573919495468,33.24737785197554
8.948886477462437,37.18996661101839,-24.89667612687795,30.683686143572466
8.956883695047301,19.00946484882211,-9.400914904470419,16.27853362084957
8.964880912632164,19.0921027638657,-8.298715051706578,15.321449945511063
8.972878130217028,19.174740678909288,-7.196515198942737,14.364366270172557
8.980875347801891,19.25737859395288,-6.094315346178895,13.40728259483405
8.988872565386757,19.340016508996484,-4.9921154934148095,12.450198919495332
8.99686978297162,19.422654424040076,-3.889915640650968,11.493115244156826
9.004867000556484,19.505292339083667,-2.7877157878871266,10.53603156881832
9.012864218141347,19.587930254127254,-1.685515935123286,9.578947893479814
9.02086143572621,19.670568169170842,-0.5833160823594437,8.621864218141308
9.028858653311074,19.753206084214433,0.5188837704043969,7.664780542802802
9.036855870895938,19.835843999258024,1.6210836231682393,6.707696867464296
9.044853088480801,19.918481914301612,2.72328347593208,5.75061319212579
9.052850306065665,8.531307735115028,13.067436282694437,-4.185037284362986
9.060847523650528,5.418910084709086,0.5306348420206537,-4.2786910282569846
9.068844741235393,5.5226961973660025,0.5993220552773286,-4.72031515488787
9.076841958820257,5.626482310022896,0.6680092685339882,-5.161939281518657
9.08483917640512,5.730268422679789,0.736696481790648,-5.603563408149444
9.092836393989984,5.834054535336682,0.8053836950473076,-6.045187534780231
9.100833611574847,5.937840647993575,0.8740709083039673,-6.486811661411018
9.10883082915971,6.041626760650468,0.9427581215606269,-6.928435788041805
9.116828046744574,6.145412873307362,1.0114453348172865,-7.370059914672592
9.124825264329438,6.249198985964255,1.080132548073946,-7.811684041303379
9.132822481914301,6.352985098621148,1.1488197613306057,-8.253308167934165
9.140819699499165,6.456771211278041,1.2175069745872653,-8.694932294564953
9.148816917084028,-0.1325776293827401,0.6142787979964863,-13.750394824707923
9.156814134668894,-0.8764894824708052,1.0575404563161357,-12.815129771841875
9.164811352253757,-1.3650630680765004,1.3758267482842028,-9.911954368391285
9.17280856983862,-1.7279538335899325,1.4530616323020333,-8.248498442570163
9.180805787423484,-1.9490717068129766,1.4548272517688212,-7.870136576834349
9.188803005008348,-2.1701895800360207,1.4565928712356093,-7.491774711098534
9.196800222593211,-2.3913074532590644,1.4583584907023974,-7.11341284536272
9.204797440178075,-2.6124253264821085,1.4601241101691855,-6.735050979626905
9.212794657762938,-2.8335431997051526,1.4618897296359736,-6.35668911389109
9.220791875347802,-3.054661072928196,1.4636553491027615,-5.978327248155276
9.228789092932665,-3.2757789461512403,1.4654209685695496,-5.599965382419461
9.23678631051753,-3.4968968193743333,1.4671865880363382,-5.221603516683562
9.244783528102394,-3.718014692597378,1.468952207503126,-4.843241650947748
9.252780745687257,-1.2876211463549512,2.472550695603795,-2.531038397328782
9.26077796327212,-0.4498221070204782,2.4736629821632565,-1.633612986556546
9.268775180856984,-0.14230804557303933,2.3652375479600534,-1.3867094162785998
9.276772398441848,0.16520601587439943,2.25681211375685,-1.1398058460006535
9.284769616026711,0.4727200773218382,2.148386679553647,-0.8929022757227071
9.292766833611575,0.7802341387692772,2.039961245350444,-0.6459987054447607
9.300764051196438,1.087748200216716,1.9315358111472407,-0.3990951351668144
9.308761268781302,1.3952622616641546,1.8231103769440375,-0.1521915648888681
9.316758486366165,1.7027763231115935,1.7146849427408344,0.0947120053890782
9.32475570395103,2.0102903845591005,1.606259508537607,0.34161557566707956
9.332752921535894,2.3178044460065395,1.4978340743344039,0.5885191459450259
9.340750139120757,2.625318507453978,1.3894086401312007,0.8354227162229722
9.348747356705621,2.932832568901417,1.2809832059279975,1.0823262865009184
9.356744574290484,41.68374401780758,-2.0259092932666305,7.458985531441363
9.364741791875348,37.998106635241854,-0.2601327113817155,6.092750080198984
9.372739009460211,36.117537398932996,-0.24545546499067175,6.780416707584489
9.380736227045075,34.23696816262413,-0.230778218599628,7.468083334969993
9.388733444629938,32.35639892631527,-0.21610097220858426,8.155749962355497
9.396730662214802,30.475829690006407,-0.2014237258175405,8.843416589741002
9.404727879799667,28.59526045369713,-0.1867464794264935,9.53108321712666
9.41272509738453,26.714691217388268,-0.17206923303544974,10.218749844512164
9.420722314969394,24.834121981079406,-0.157391986644406,10.90641647189767
9.428719532554258,22.953552744770548,-0.14271474025336225,11.594083099283175
9.436716750139121,21.072983508461682,-0.12803749386231852,12.281749726668679
9.444713967723985,19.192414272152824,-0.11336024747127477,12.969416354054182
9.452711185308848,-1.5054540901498663,-3.4802159154145196,8.721686143572956
9.460708402893712,-2.6788563675420543,-3.8399999581141575,7.762854739978834
9.468705620478575,-2.9576410923821346,-4.09272923211323,7.596976968783117
9.476702838063439,-3.2364258172222145,-4.345458506112304,7.4310991975873995
9.484700055648304,-3.5152105420623565,-4.5981877801114335,7.265221426391645
9.492697273233167,-3.793995266902437,-4.850917054110506,7.099343655195928
9.50069449081803,-4.072779991742516,-5.10364632810958,6.933465884000212
9.508691708402894,-4.351564716582597,-5.356375602108653,6.767588112804495
9.516688925987758,-4.630349441422677,-5.609104876107726,6.6017103416087775
9.524686143572621,-4.909134166262757,-5.8618341501068,6.43583257041306
9.532683361157485,-5.1879188911028375,-6.114563424105873,6.269954799217343
9.540680578742348,-5.466703615942917,-6.367292698104945,6.104077028021626
9.548677796327212,-6.450956594323476,-7.610589315525334,5.544602671118754
9.556675013912075,-6.880990026111923,-7.394778605368082,4.74231633919788
9.564672231496939,-6.321681135225431,-5.2964577072900845,3.761869226488668
9.572669449081804,-6.825934345704388,-4.757848288814694,3.1490077854115754
9.580666666666668,-7.005717948717955,-4.800833333333335,2.98714102564102
9.588663884251531,-7.185501551731522,-4.843818377851977,2.8252742658704646
9.596661101836395,-7.365285154745089,-4.886803422370618,2.663407506099909
9.604658319421258,-7.545068757758656,-4.92978846688926,2.5015407463293533
9.612655537006122,-7.724852360772223,-4.972773511407901,2.3396739865587977
9.620652754590985,-7.904635963785791,-5.015758555926543,2.177807226788242
9.628649972175849,-8.084419566799358,-5.058743600445184,2.015940467017687
9.636647189760712,-8.264203169812925,-5.101728644963826,1.8540737072471312
9.644644407345575,-8.443986772826491,-5.144713689482467,1.6922069474765757
9.65264162493044,-8.623770375840099,-5.187698734001119,1.5303401877059841
9.660638842515304,-8.803553978853666,-5.23068377851976,1.3684734279354287
9.668636060100168,-8.983337581867232,-5.273668823038402,1.206606668164873
9.676633277685031,-15.653622426266896,-3.608228436282029,2.977297440178358
9.684630495269895,-8.08020535433446,-5.010300845612286,11.186752969925706
9.692627712854758,-7.425998185381392,-5.3907771648399745,11.017072875081647
9.700624930439622,-6.771791016428324,-5.771253484067662,10.847392780237588
9.708622148024485,-6.117583847475255,-6.151729803295351,10.677712685393528
9.716619365609349,-5.463376678522186,-6.532206122523038,10.508032590549469
9.724616583194212,-4.809169509569118,-6.912682441750727,10.338352495705411
9.732613800779076,-4.154962340616049,-7.2931587609784145,10.168672400861352
9.740611018363941,-3.500755171662836,-7.6736350802061875,9.998992306017254
9.748608235948804,-2.846548002709768,-8.054111399433875,9.829312211173196
9.756605453533668,-2.192340833756699,-8.434587718661563,9.659632116329137
9.764602671118531,-1.538133664803631,-8.81506403788925,9.489952021485077
9.772599888703395,12.445717863115314,-21.519908180309862,7.191397328879846
9.780597106288258,27.955840573795708,3.8735276757558466,1.8776705991466711
9.788594323873122,26.775095826377196,3.4654030050083127,1.3509205342236617
9.796591541457985,25.59435107895868,3.0572783342607783,0.824170469300652
9.804588759042849,24.41360633154017,2.6491536635132444,0.2974204043776425
9.812585976627712,23.232861584121654,2.2410289927657097,-0.22932966054536696
9.820583194212578,22.05211683670288,1.8329043220180852,-0.7560797254684937
9.828580411797441,20.871372089284364,1.4247796512705508,-1.2828297903915031
9.836577629382305,19.69062734186585,1.0166549805230165,-1.8095798553145126
9.844574846967168,18.509882594447337,0.6085303097754826,-2.3363299202375227
9.852572064552032,17.329137847028825,0.20040563902794828,-2.8630799851605317
9.860569282136895,16.14839309961031,-0.20771903171958606,-3.3898300500835417
9.868566499721759,14.967648352191796,-0.61584370246712,-3.9165801150065507
9.876563717306622,4.80960842144291,-2.3319174550175474,-1.8935694676310244
9.884560934891486,3.6139643983358494,-4.288898362349951,-5.415479502875163
9.892558152476349,3.5348173322380343,-4.405238837215464,-5.44924553267792
9.900555370061213,3.4556702661402197,-4.521579312080977,-5.483011562480677
9.908552587646078,3.376523200042387,-4.637919786946515,-5.51677759228344
9.916549805230941,3.297376133944572,-4.754260261812028,-5.550543622086197
9.924547022815805,3.218229067846757,-4.870600736677542,-5.584309651888954
9.932544240400668,3.1390820017489425,-4.986941211543055,-5.61807568169171
9.940541457985532,3.0599349356511274,-5.103281686408567,-5.651841711494467
9.948538675570395,2.9807878695533128,-5.2196221612740805,-5.685607741297224
9.956535893155259,2.9016408034554977,-5.335962636139594,-5.71937377109998
9.964533110740122,2.822493737357683,-5.452303111005106,-5.753139800902737
9.972530328324986,2.743346671259868,-5.568643585870619,-5.786905830705494
9.98052754590985,2.664199605162053,-5.684984060736133,-5.82067186050825
9.988524763494715,2.5850525390642205,-5.801324535601672,-5.854437890311015
9.996521981079578,2.505905472966406,-5.917665010467184,-5.888203920113771
10.004519198664442,2.426758406868591,-6.034005485332697,-5.921969949916528
10.012516416249305,-4.222782971619355,0.9797028380634338,-9.408238731218686
10.020513633834168,-3.692898365091244,0.6963531460480111,-8.7770100742617
10.028510851419032,-3.1630137585631317,0.4130034540325883,-8.145781417304715
10.036508069003895,-2.6331291520350204,0.1296537620171655,-7.514552760347729
10.044505286588759,-2.103244545506908,-0.1536959299982572,-6.883324103390743
10.052502504173622,-1.5733599389787964,-0.43704562201368,-6.252095446433758
10.060499721758486,-1.0434753324506847,-0.7203953140291028,-5.620866789476771
10.06849693934335,-0.5135907259225729,-1.0037450060445254,-4.9896381325197865
10.076494156928215,5.297001669452447,-0.10910100166800807,-4.019433222037215
10.084491374513078,8.473646794837487,0.40916680728333665,-3.380160530394045
10.092488592097942,10.386271671423874,0.32928062302163574,-2.4836122450199936
10.100485809682805,12.298896548010259,0.24939443875993478,-1.5870639596459424
10.108483027267669,14.211521424596643,0.16950825449823387,-0.6905156742718908
10.116480244852532,16.12414630118303,0.0896220702365329,0.20603261110216042
10.124477462437396,18.036771177769413,0.009735885974831993,1.102580896476212
10.13247468002226,19.949396054355798,-0.07015029828686903,1.9991291818502637
10.140471897607123,21.862020930942183,-0.15003648254856994,2.8956774672243153
10.148469115191986,23.77464580752857,-0.22992266681027085,3.792225752598367
10.156466332776851,25.687270684115376,-0.3098088510719895,4.688774037972617
10.164463550361715,27.599895560701768,-0.38969503533369043,5.585322323346669
10.172460767946578,36.83774791318547,-17.286499165276847,29.143405676127532
10.180457985531442,19.76198966018626,-7.541242907833218,11.38563162020335
10.188455203116305,19.16529403845112,-7.312849252936472,11.58367024491239
10.196452420701169,18.568598416715982,-7.084455598039725,11.78170886962143
10.204449638286032,17.971902794980846,-6.856061943142978,11.979747494330468
10.212446855870896,17.37520717324571,-6.627668288246231,12.177786119039506
10.22044407345576,16.77851155151057,-6.399274633349485,12.375824743748545
10.228441291040623,16.181815929775432,-6.170880978452738,12.573863368457584
10.236438508625486,15.585120308040295,-5.942487323555992,12.771901993166622
10.244435726210352,14.988424686305025,-5.714093668659194,12.969940617875706
10.252432943795215,14.391729064569887,-5.485700013762448,13.167979242584746
10.260430161380079,13.79503344283475,-5.257306358865701,13.366017867293785
10.268427378964942,13.198337821099614,-5.028912703968954,13.564056492002823
10.276424596549806,3.927821925430809,-2.826106049765478,9.229851657524309
10.284421814134669,0.14568670005573003,-2.644544796883713,8.01387924318312
10.292419031719533,-1.4863608578398857,-2.285900346731755,7.298435854629556
10.300416249304396,-1.9816050275836787,-2.106557465460277,7.087847090830403
10.30841346688926,-2.1967400537246373,-1.9713946151679536,7.001654856860207
10.316410684474123,-2.411875079865596,-1.8362317648756303,6.915462622890011
10.324407902058988,-2.627010106006603,-1.7010689145832771,6.829270388919796
10.332405119643852,-2.8421451321475613,-1.565906064290954,6.7430781549496
10.340402337228715,-3.05728015828852,-1.4307432139986305,6.656885920979404
10.348399554813579,-3.2724151844294784,-1.2955803637063072,6.570693687009208
10.356396772398442,-3.4875502105704372,-1.160417513413984,6.484501453039012
10.364393989983306,-3.702685236711396,-1.0252546631216608,6.398309219068817
10.37239120756817,-3.917820262852355,-0.8900918128293376,6.312116985098621
10.380388425153033,-10.310508069003868,-4.148568169170537,6.642029493599322
10.388385642737896,-10.132789933980877,-5.126185195022005,9.519249279101533
10.39638286032276,-9.82444266960086,-5.438258435776789,9.744988920928813
10.404380077907625,-9.516095405220774,-5.7503316765316415,9.970728562756143
10.412377295492488,-9.207748140840756,-6.0624049172864245,10.196468204583425
10.420374513077352,-8.899400876460739,-6.374478158041208,10.422207846410705
10.428371730662215,-8.591053612080723,-6.6865513987959915,10.647947488237985
10.436368948247079,-8.282706347700705,-6.9986246395507745,10.873687130065267
10.444366165831942,-7.974359083320687,-7.310697880305558,11.099426771892547
10.452363383416806,-7.66601181894067,-7.6227711210603415,11.325166413719828
10.46036060100167,-7.357664554560653,-7.9348443618151245,11.55090605554711
10.468357818586533,-7.049317290180635,-8.246917602569908,11.77664569737439
10.476355036171396,-2.8154227045081006,-1.9289216471910573,11.55538631051723
10.48435225375626,0.49196000426231273,3.4644059602883996,13.422984229034128
10.492349471341125,2.777292544311804,3.968741128831821,15.026086047668354
10.500346688925989,5.062625084360787,4.47307629737513,16.629187866302225
10.508343906510852,7.347957624409772,4.97741146591844,18.23228968493609
10.516341124095716,9.633290164458757,5.481746634461748,19.835391503569962
10.52433834168058,11.91862270450774,5.986081803005058,21.438493322203833
10.532335559265443,14.203955244556724,6.490416971548367,23.0415951408377
10.540332776850306,16.489287784605708,6.994752140091676,24.64469695947157
10.54832999443517,18.77462032465469,7.499087308634985,26.24779877810544
10.556327212020033,21.059952864703675,8.003422477178294,27.850900596739308
10.564324429604897,23.34528540475266,8.507757645721604,29.454002415373182
10.572321647189762,25.63061794480215,9.012092814265024,31.057104234007404
10.580318864774625,29.811916527528513,17.604767946585422,13.732706176955572
10.588316082359489,19.119729911900645,19.600804261784123,7.048789868256833
10.596313299944352,19.366475524125757,16.43606265123479,3.878567018688659
10.604310517529216,19.613221136350873,13.271321040685452,0.7083441691204833
10.61230773511408,19.859966748575985,10.106579430136117,-2.4618786804476898
10.620304952698943,20.106712360801097,6.94183781958678,-5.6321015300158646
10.628302170283806,20.35345797302621,3.7770962090374454,-8.802324379584041
10.63629938786867,20.600203585251325,0.6123545984881105,-11.972547229152214
10.644296605453533,20.846949197476437,-2.5523870120612244,-15.14277007872039
10.652293823038397,21.09369480970155,-5.717128622610563,-18.312992928288566
10.660291040623262,21.34044042192672,-8.881870233160601,-21.483215777857446
10.668288258208126,21.58718603415183,-12.046611843709936,-24.653438627425622
10.676285475792989,12.831880912632242,-2.227742904841455,-6.008276015581572
10.684282693377853,6.731730662214719,-0.5534735670562121,3.2111541457987856
10.692279910962716,5.932008903728371,-0.6234492209237675,5.450375069560561
10.70027712854758,5.353252853855501,-0.6644964580607329,6.3280241393312995
10.708274346132443,4.966684647084463,-0.6803828227225563,6.021428108408897
10.716271563717306,4.580116440313426,-0.6962691873843798,5.714832077486495
10.72426878130217,4.193548233542389,-0.7121555520462032,5.408236046564092
10.732265998887033,3.8069800267713516,-0.7280419167080266,5.1016400156416895
10.740263216471899,3.4204118200002283,-0.7439282813698537,4.79504398471922
10.748260434056762,3.033843613229191,-0.7598146460316771,4.4884479537968165
10.756257651641626,2.6472754064581534,-0.7757010106935006,4.181851922874414
10.76425486922649,2.260707199687116,-0.791587375355324,3.875255891952012
10.772252086811353,1.0928797996659618,-3.320729549250279,-0.644422370617427
10.780249304396216,-3.319080496479587,-6.730939367544842,-5.911601154903891
10.78824652198108,-2.8934894389198997,-5.92843596815942,-5.790020267273142
10.796243739565943,-2.467898381360213,-5.125932568773997,-5.668439379642392
10.804240957150807,-2.0423073238005265,-4.323429169388575,-5.546858492011643
10.81223817473567,-1.6167162662408396,-3.520925770003152,-5.425277604380893
10.820235392320534,-1.1911252086811528,-2.7184223706177297,-5.303696716750144
10.828232609905399,-0.7655341511213716,-1.915918971232129,-5.182115829119368
10.836229827490262,-0.33994309356168495,-1.1134155718467067,-5.060534941488618
10.844227045075126,0.08564796399800212,-0.31091217246128444,-4.938954053857869
10.85222426265999,0.038908736783104914,5.7271196438502106,-7.36354368391834
10.860221480244853,-0.9793441105546346,4.220363432881959,-8.512702547455602
10.868218697829716,-1.0627817473567105,4.162072602485621,-8.059438026340171
10.87621591541458,-1.1462193841587864,4.103781772089282,-7.60617350522474
10.884213132999443,-1.2296570209608624,4.045490941692944,-7.15290898410931
10.892210350584307,-1.313094657762938,3.9872001112966053,-6.699644462993879
10.90020756816917,-1.396532294565014,3.928909280900267,-6.246379941878449
10.908204785754036,-1.4799699313671084,3.8706184505039154,-5.793115420762918
10.9162020033389,-1.5634075681691844,3.812327620107577,-5.339850899647487
10.924199220923763,-1.6468452049712603,3.7540367897112388,-4.886586378532057
10.932196438508626,-1.7302828417733362,3.6957459593149005,-4.433321857416626
10.94019365609349,-1.8137204785754122,3.637455128918562,-3.980057336301196
10.948190873678353,27.566055648302736,17.731328324986073,7.392696716750137
10.956188091263217,27.02371372923127,18.66683957389297,7.547581604261066
10.96418530884808,26.48137181015981,19.60235082279987,7.702466491771996
10.972182526432944,25.93902989108835,20.53786207170677,7.857351379282925
10.980179744017807,25.396687972016885,21.473373320613668,8.012236266793854
10.98817696160267,24.854346052945424,22.408884569520566,8.167121154304784
10.996174179187536,24.31200413387384,23.34439581842767,8.322006041815747
11.0041713967724,23.769662214802377,24.27990706733457,8.476890929326677
11.012168614357263,23.227320295730916,25.21541831624147,8.631775816837607
11.020165831942126,22.68497837665945,26.150929565148367,8.786660704348535
11.02816304952699,22.14263645758799,27.086440814055265,8.941545591859464
11.036160267111853,21.60029453851653,28.02195206296216,9.096430479370394
11.044157484696717,21.057952619445064,28.95746331186906,9.251315366881323
11.05215470228158,13.1788936499106,11.577379212267404,4.59184307178644
11.060151919866444,7.494590808209818,10.58525114406365,1.7412851026220317
11.068149137451307,6.946640276277518,10.440548548234,1.5983701201348814
11.076146355036173,6.398689744345097,10.295845952404319,1.4554551376476994
11.084143572621036,5.850739212412797,10.15114335657467,1.3125401551605491
11.0921407902059,5.3027886804804965,10.00644076074502,1.1696251726733988
11.100138007790763,4.754838148548197,9.861738164915373,1.0267101901862485
11.108135225375626,4.206887616615898,9.717035569085724,0.8837952076990983
11.11613244296049,3.658937084683598,9.572332973256074,0.740880225211948
11.124129660545353,3.1109865527512977,9.427630377426425,0.5979652427247977
11.132126878130217,2.5630360208189984,9.282927781596776,0.4550502602376474
11.14012409571508,2.0150854888866983,9.138225185767126,0.3121352777504971
11.148121313299944,-4.743082915970728,4.260426822481867,-1.368391207567957
11.15611853088481,-14.99999569904635,1.68470878017029,1.5937744263037326
11.164115748469673,-14.654353244107336,1.4763744847815587,1.6185793554228853
11.172112966054536,-14.308710789168321,1.2680401893928273,1.643384284542038
11.1801101836394,-13.963068334229307,1.0597058940040958,1.6681892136611909
11.188107401224263,-13.617425879290293,0.8513715986153645,1.6929941427803437
11.196104618809127,-13.271783424351279,0.643037303226633,1.7177990718994964
11.20410183639399,-12.926140969412264,0.4347030078379017,1.7426040010186492
11.212099053978854,-12.580498514473248,0.22636871244917023,1.7674089301378022
11.220096271563717,-12.234856059534234,0.018034417060438956,1.792213859256955
11.22809348914858,-11.88921360459522,-0.19029987832829254,1.8170187883761078
11.236090706733444,-11.543571149656206,-0.39863417371702403,1.8418237174952605
11.24408792431831,-11.197928694717115,-0.6069684691058017,1.8666286466144189
11.252085141903173,-10.8522862397781,-0.8153027644945332,1.8914335757335716
11.260082359488036,-10.506643784839085,-1.0236370598832643,1.9162385048527244
11.2680795770729,-10.16100132990007,-1.2319713552719957,1.9410434339718772
11.276076794657763,0.04877712854793481,7.700238731219845,-1.1065567612690832
11.284074012242627,0.7961646662566605,9.819966622733865,-1.6146008025071141
11.29207122982749,1.0801079811381804,10.40553131242134,-1.7125035819933898
11.300068447412354,1.3640512960197,10.991096002108815,-1.8104063614796653
11.308065664997217,1.6479946109012196,11.576660691796288,-1.9083091409659407
11.31606288258208,1.9319379257827394,12.162225381483763,-2.006211920452216
11.324060100166946,2.2158812406643222,12.747790071171368,-2.1041146999385134
11.33205731775181,2.499824555545842,13.333354760858843,-2.2020174794247893
11.340054535336673,2.783767870427362,13.918919450546316,-2.2999202589110648
11.348051752921537,3.067711185308881,14.50448414023379,-2.3978230383973402
11.3560489705064,3.351654500190401,15.090048829921265,-2.495725817883616
11.364046188091264,3.635597815071921,15.675613519608738,-2.593628597369891
11.372043405676127,4.32527545910128,16.68380968280758,-2.6588363939897635
11.38004062326099,20.163098497495906,23.69620478575399,-10.130971619365758
11.388037840845854,17.045797440178156,22.387215358931748,-16.330291040623454
11.396035058430718,15.270763668614373,17.671864461602766,-12.210828255425715
11.404032276015581,15.131312186978317,16.83685498052321,-12.160245854201454
11.412029493600446,14.991860705342228,16.001845499443466,-12.109663452977182
11.42002671118531,14.852409223706172,15.166836018363906,-12.05908105175292
11.428023928770173,14.712957742070113,14.331826537284346,-12.008498650528658
11.436021146355037,14.573506260434057,13.496817056204788,-11.957916249304397
11.4440183639399,14.434054778798,12.66180757512523,-11.907333848080135
11.452015581524764,14.294603297161943,11.826798094045671,-11.856751446855874
11.460012799109627,14.155151815525887,10.991788612966113,-11.806169045631613
11.46801001669449,14.015700333889828,10.156779131886553,-11.75558664440735
11.476007234279354,8.983797161936476,5.685215971062797,-7.314941068447316
11.484004451864218,8.285277685030485,0.20356761268814083,-1.8348603227602647
11.492001669449083,8.420230717863067,-0.7716383973289331,-1.4985472454089948
11.499998887033946,8.248023965869006,-1.0088003277067186,-1.4055129475050827
11.50799610461881,8.075817213874945,-1.245962258084504,-1.3124786496011707
11.515993322203673,7.903610461880885,-1.4831241884622894,-1.2194443516972584
11.523990539788537,7.731403709886824,-1.7202861188400749,-1.1264100537933464
11.5319877573734,7.559196957892763,-1.9574480492178603,-1.033375755889434
11.539984974958264,7.3869902058987025,-2.194609979595646,-0.940341457985522
11.547982192543127,7.2147834539046425,-2.4317719099734316,-0.8473071600816099
11.555979410127991,7.042576701910582,-2.668933840351217,-0.7542728621776978
11.563976627712854,6.870369949916521,-2.9060957707290025,-0.6612385642737857
11.571973845297718,6.69816319792246,-3.143257701106788,-0.5682042663698736
11.579971062882583,4.557879799666324,-11.21889593767506,10.755383416808048
11.587968280467447,4.558457954268329,-7.741637485697075,4.456709872258938
11.59596549805231,4.437331557589723,-7.385446805849898,4.039776281317742
11.603962715637174,4.316205160911117,-7.029256126002721,3.6228426903765465
11.611959933222037,4.195078764232511,-6.673065446155545,3.2059090994353503
11.6199571508069,4.073952367553905,-6.316874766308368,2.7889755084941545
11.627954368391764,3.952825970875299,-5.960684086461191,2.372041917552959
11.635951585976628,3.831699574196693,-5.604493406614014,1.9551083266117626
11.643948803561491,3.710573177518087,-5.248302726766838,1.5381747356705668
11.651946021146355,3.5894467808394808,-4.89211204691966,1.121241144729371
11.65994323873122,3.4683203841608483,-4.535921367072405,0.7043075537880821
11.667940456316083,3.347193987482242,-4.179730687225228,0.2873739628468863
11.675937673900947,5.679293266555649,-0.8122687813019487,-0.7669838619920324
11.68393489148581,18.663441119815097,0.7335473041149357,-11.546111981507678
11.691932109070674,19.006091134797327,1.1022981281378748,-12.27878014639787
11.699929326655537,19.348741149779556,1.471048952160814,-13.011448311288062
11.7079265442404,19.691391164761786,1.8397997761837532,-13.744116476178254
11.715923761825264,20.03404117974402,2.208550600206692,-14.476784641068445
11.723920979410128,20.37669119472625,2.5773014242296313,-15.209452805958637
11.731918196994991,20.719341209708478,2.9460522482525704,-15.94212097084883
11.739915414579855,21.061991224690708,3.3148030722755095,-16.67478913573902
11.74791263216472,21.404641239673015,3.6835538962985312,-17.407457300629375
11.755909849749584,21.747291254655245,4.05230472032147,-18.140125465519567
11.763907067334447,22.089941269637478,4.4210555443444095,-18.87279363040976
11.77190428491931,21.966334446299317,10.593857540346079,-19.347211463550348
11.779901502504174,14.520140522665942,7.212937395659441,-7.1684306215487315
11.787898720089037,14.239392047643477,7.278914440734565,-7.142055182783269
11.795895937673901,13.958643572621014,7.344891485809688,-7.115679744017806
11.803893155258764,13.67789509759855,7.4108685308848115,-7.089304305252343
11.811890372843628,13.397146622576084,7.476845575959935,-7.062928866486879
11.819887590428491,13.11639814755362,7.542822621035057,-7.036553427721416
11.827884808013357,12.835649672531092,7.608799666110196,-7.010177988955948
11.83588202559822,12.554901197508627,7.674776711185319,-6.983802550190484
11.843879243183084,12.274152722486162,7.7407537562604425,-6.957427111425021
11.851876460767947,11.993404247463697,7.806730801335565,-6.931051672659558
11.85987367835281,11.712655772441233,7.872707846410688,-6.9046762338940955
11.867870895937674,11.431907297418768,7.938684891485812,-6.878300795128633
11.875868113522538,11.151158822396305,8.004661936560934,-6.85192535636317
11.883865331107401,9.75565879029162,7.929301014511376,-6.5608098540302455
11.891862548692265,6.3636081931425705,7.600799922948519,-5.795537648217149
11.899859766277128,0.2599613915913436,6.4860714600963085,0.9487331759829599
11.907856983861993,0.15728447156497183,6.133274665950189,0.9462512808704155
11.915854201446857,0.05460755153862279,5.780477871804148,0.9437693857578718
11.92385141903172,-0.048069368487726194,5.427681077658108,0.941287490645328
11.931848636616584,-0.15074628851407523,5.074884283512067,0.9388055955327842
11.939845854201447,-0.2534232085404242,4.722087489366027,0.9363237004202404
11.94784307178631,-0.3561001285667733,4.369290695219986,0.9338418053076967
11.955840289371174,-0.4587770485931223,4.016493901073945,0.9313599101951529
11.963837506956038,-0.5614539686194713,3.6636971069279043,0.928878015082609
11.971834724540901,-0.6641308886458203,3.3109003127818633,0.9263961199700652
11.979831942125765,-0.7668078086721694,2.9581035186358227,0.9239142248575215
11.987829159710628,-3.5485834724539136,0.8861068447413529,0.6092136894824912
11.995826377295494,-5.746190574033632,5.598549377167085,-0.07349852317965543
12.003823594880357,-5.345304410484703,5.929921264786047,0.013240529086941552
12.01182081246522,-4.944418246935773,6.261293152405008,0.09997958135353856
12.019818030050084,-4.543532083386844,6.59266504002397,0.18671863362013558
12.027815247634948,-4.142645919837914,6.924036927642931,0.2734576858867326
12.035812465219811,-3.741759756288985,7.255408815261893,0.36019673815332953
12.043809682804675,-3.3408735927400555,7.586780702880855,0.4469357904199266
12.051806900389538,-2.939987429191126,7.918152590499817,0.5336748426865235
12.059804117974402,-2.5391012656421967,8.249524478118778,0.6204138949531205
12.067801335559265,-2.1382151020932674,8.58089636573774,0.7071529472197176
12.07579855314413,2.4552370617700428,9.708559529039942,-3.9385632194005513
12.083795770728994,4.240216026711562,11.02608008083676,-3.0829451190578987
12.091792988313857,6.025194991653081,12.343600632633578,-2.2273270187152465
12.09979020589872,7.810173956594601,13.661121184430396,-1.371708918372594
12.107787423483584,9.59515292153612,14.978641736227214,-0.5160908180299417
12.115784641068448,11.380131886477638,16.29616228802403,0.33952728231271045
12.123781858653311,13.165110851419161,17.613682839820846,1.1951453826553635
12.131779076238175,14.95008981636068,18.931203391617665,2.0507634829980157
12.139776293823038,16.7350687813022,20.248723943414483,2.906381583340668
12.147773511407902,18.52004774624372,21.5662444952113,3.76199968368332
12.155770728992765,20.30502671118524,22.88376504700812,4.617617784025973
12.16376794657763,22.090005676127156,24.201285598805228,5.4732358843688145
12.171765164162494,31.8469955481378,23.29338007790716,8.161112966055022
12.179762381747357,25.879109381436532,4.764268990886685,3.300741459430978
12.187759599332221,25.44227435335944,4.7534675541486875,3.5489667844676505
12.195756816917084,25.005439325282353,4.742666117410691,3.797192109504323
12.203754034501948,24.568604297205262,4.731864680672693,4.045417434540995
12.211751252086811,24.131769269128174,4.721063243934696,4.293642759577667
12.219748469671675,23.694934241051087,4.710261807196698,4.5418680846143396
12.227745687256538,23.258099212973995,4.6994603704587,4.7900934096510115
12.235742904841402,22.821264184896908,4.688658933720703,5.038318734687683
12.243740122426267,22.38442915681972,4.677857496982703,5.286544059724411
12.25173734001113,21.94759412874263,4.667056060244706,5.534769384761083
12.259734557595994,19.189191344547993,4.675910235007065,4.26311352253725
12.267731775180858,14.185845575957707,4.8406480244854535,2.247239009459789
12.275728992765721,6.40862973642939,2.7058260737592827,1.9952996914048682
12.283726210350585,4.601383208962717,0.9412242291369066,2.2052968602288994
12.291723427935448,4.29739258871881,0.7291534351093825,2.3039613277819138
12.299720645520312,3.9934019684749034,0.5170826410818583,2.4026257953349286
12.307717863105175,3.6894113482309967,0.30501184705433415,2.501290262887943
12.315715080690039,3.38542072798709,0.09294105302681,2.5999547304409574
12.323712298274902,3.0814301077431834,-0.11912974100071427,2.6986191979939718
12.331709515859767,2.777439487499209,-0.3312005350282855,2.797283665547008
12.33970673344463,2.4734488672553026,-0.5432713290558097,2.8959481331000223
12.347703951029494,2.1694582470113954,-0.7553421230833338,2.9946126006530367
12.355701168614358,1.8654676267674888,-0.967412917110858,3.093277068206051
12.363698386199221,1.5614770065235821,-1.1794837111383822,3.1919415357590655
12.371695603784085,1.305547998566873,-2.391039632263813,0.6864170421021248
12.379692821368948,1.0014346284904219,-2.632928076474477,1.0591092917419256
12.387690038953812,0.6973212584139707,-2.8748165206851417,1.4318015413817262
12.395687256538675,0.39320788833751963,-3.116704964895806,1.8044937910215268
12.403684474123539,0.08909451826106851,-3.3585934091064704,2.1771860406613275
12.411681691708404,-0.21501885181545033,-3.6004818533171883,2.549878290301211
12.419678909293268,-0.5191322218919014,-3.842370297527853,2.922570539941012
12.427676126878131,-0.8232455919683523,-4.084258741738517,3.2952627895808124
12.435673344462995,-1.1273589620448037,-4.326147185949181,3.667955039220613
12.443670562047858,-1.4314723321212546,-4.568035630159846,4.040647288860415
12.451667779632722,0.041370951586399585,0.5482103505856628,1.0513529215359516
12.459664997217585,0.5733531037688029,3.2740848728344587,5.944067933735719
12.467662214802449,0.9699623670708823,3.4816610039932248,6.355617054064467
12.475659432387312,1.3665716303729616,3.689237135151991,6.767166174393215
12.483656649972176,1.763180893675041,3.896813266310757,7.178715294721963
12.491653867557039,2.1597901569771203,4.104389397469523,7.59026441505071
12.499651085141904,2.5563994202792877,4.311965528628335,8.001813535379549
12.507648302726768,2.953008683581367,4.519541659787102,8.413362655708296
12.515645520311631,3.3496179468834466,4.727117790945867,8.824911776037045
12.523642737896495,3.746227210185526,4.934693922104634,9.236460896365791
12.531639955481358,4.142836473487605,5.142270053263399,9.648010016694538
12.539637173066222,4.539445736789684,5.349846184422166,10.059559137023285
12.547634390651085,7.157039232053634,5.878243322203706,11.484084724541002
12.555631608235949,15.208182526432912,6.44844407345618,16.96083861992203
12.563628825820812,15.030842606157645,6.839899316320859,16.654739651119197
12.571626043405676,14.867144458451154,6.946719294061535,16.37981489557425
12.579623260990541,14.703446310744628,7.053539271802235,16.10489014002924
12.587620478575404,14.539748163038137,7.1603592495429105,15.829965384484291
12.595617696160268,14.376050015331646,7.267179227283586,15.555040628939343
12.603614913745131,14.212351867625156,7.373999205024262,15.280115873394395
12.611612131329995,14.048653719918667,7.480819182764938,15.005191117849447
12.619609348914858,13.884955572212176,7.587639160505614,14.730266362304498
12.627606566499722,13.721257424505685,7.69445913824629,14.45534160675955
12.635603784084585,13.557559276799196,7.801279115986966,14.180416851214602
12.643601001669449,13.393861129092706,7.908099093727642,13.905492095669654
12.651598219254312,13.230162981386215,8.014919071468317,13.630567340124706
12.659595436839176,13.007541457985552,7.151263819328616,13.141398256353229
12.667592654424041,10.825348914856116,5.074051752920486,10.26073956594083
12.675589872008905,4.7596773937650045,6.9596796670573875,3.6515445127221278
12.683587089593768,4.6632853988325556,6.953894445825784,3.535755011307244
12.691584307178632,4.566893403900107,6.948109224594181,3.4199655098923603
12.699581524763495,4.470501408967657,6.942324003362578,3.3041760084774765
12.707578742348359,4.374109414035208,6.936538782130975,3.1883865070625927
12.715575959933222,4.277717419102759,6.930753560899371,3.072597005647709
12.723573177518086,4.18132542417031,6.9249683396677675,2.9568075042328252
12.731570395102949,4.084933429237861,6.919183118436164,2.8410180028179415
12.739567612687813,3.988541434305411,6.913397897204561,2.7252285014030577
12.747564830272678,3.8921494393729406,6.907612675972956,2.609438999988148
12.755562047857541,3.7957574444404916,6.901827454741353,2.493649498573265
12.763559265442405,3.699365449508042,6.89604223350975,2.3778599971583807
12.771556483027268,3.3121263216470007,5.592601001669807,0.7718105175294993
12.779553700612132,3.2527139143626007,5.8574423735144565,1.01852208780235
