accel_time_list,accel_x_list,accel_y_list,accel_z_list
0.0,-1.6,4.9,6.3
0.007998430141287285,0.8560565149136578,4.255978021978022,9.828028257456829
0.01599686028257457,0.5681130298273154,4.3679560439560445,9.684056514913658
0.023995290423861854,0.2801695447409731,4.479934065934066,9.540084772370486
0.03199372056514914,-0.007773940345369157,4.591912087912088,9.396113029827315
0.03999215070643643,-0.2957174254317114,4.70389010989011,9.252141287284145
0.04799058084772371,-0.5836609105180539,4.8158681318681325,9.108169544740973
0.05598901098901099,-0.871604395604396,4.927846153846154,8.964197802197802
0.06398744113029828,-1.1595478806907384,5.039824175824176,8.820226059654631
0.07198587127158557,-1.447491365777081,5.151802197802198,8.676254317111459
0.07998430141287285,-1.735434850863423,5.2637802197802195,8.532282574568288
0.08798273155416013,-2.023378335949765,5.375758241758241,8.388310832025118
0.09598116169544742,-2.3113218210361075,5.487736263736264,8.244339089481945
0.1039795918367347,-2.59926530612245,5.599714285714286,8.100367346938775
0.11197802197802198,0.49340659340659326,3.7934065934065933,8.8
0.11997645211930927,0.08961702749078165,4.293078018327187,8.893078018327188
0.12797488226059656,0.06171552699791901,4.2744770179986125,8.874477017998613
0.13597331240188384,0.03381402650505638,4.255876017670038,8.855876017670038
0.14397174254317113,0.005912526012193747,4.237275017341462,8.837275017341463
0.15197017268445842,-0.021988974480668902,4.218674017012887,8.818674017012887
0.1599686028257457,-0.04989047497353152,4.200073016684312,8.800073016684312
0.16796703296703297,-0.07779197546639408,4.181472016355737,8.781472016355737
0.17596546310832026,-0.10569347595925671,4.162871016027162,8.762871016027162
0.18396389324960755,-0.13359497645211935,4.144270015698587,8.744270015698588
0.19196232339089483,-0.161496476944982,4.125669015370011,8.725669015370011
0.19996075353218212,-0.18939797743784462,4.1070680150414365,8.707068015041436
0.2079591836734694,-0.09795918367347103,4.6,9.0
0.2159576138147567,-0.5215183932415156,4.421518393241516,8.9
0.22395604395604396,-0.5462558060496205,4.446255806049621,8.9
0.23195447409733125,-0.5709932188577256,4.470993218857726,8.9
0.23995290423861854,-0.5957306316658306,4.495730631665831,8.9
0.24795133437990582,-0.6204680444739356,4.520468044473936,8.9
0.2559497645211931,-0.6452054572820406,4.545205457282041,8.9
0.2639481946624804,-0.6699428700901455,4.569942870090146,8.9
0.2719466248037677,-0.6946802828982507,4.594680282898251,8.9
0.27994505494505495,-0.7194176957063556,4.619417695706356,8.9
0.28794348508634227,-0.7441551085144607,4.644155108514461,8.9
0.2959419152276295,-0.7688925213225657,4.668892521322566,8.9
0.30394034536891684,-0.7936299341306707,4.693629934130671,8.9
0.3119387755102041,-1.4156462585034015,5.0,8.068707482993196
0.3199372056514914,-1.5489534275248569,5.0,7.802093144950287
0.3279356357927787,-1.6,5.0,7.687504719511953
0.33593406593406594,-1.6,5.0,7.667255529280846
0.34393249607535326,-1.6,5.0,7.647006339049739
0.3519309262166405,-1.6,5.0,7.626757148818632
0.35992935635792783,-1.6,5.0,7.606507958587525
0.3679277864992151,-1.6,5.0,7.5862587683564175
0.3759262166405024,-1.6,5.0,7.5660095781253105
0.38392464678178967,-1.6,5.0,7.5457603878942034
0.39192307692307693,-1.6,5.0,7.525511197663096
0.39992150706436425,-1.6,5.0,7.505262007431989
0.4079199372056515,-3.0037548457373533,4.900938711434339,7.593429019959632
0.4159183673469388,-3.0364014993752604,4.909100374843815,7.536297376093294
0.4239167974882261,-3.069048153013168,4.917262038253292,7.4791657322269565
0.4319152276295134,-3.101694806651075,4.925423701662769,7.422034088360618
0.43991365777080066,-3.134341460288982,4.933585365072246,7.36490244449428
0.4479120879120879,-3.1669881139268896,4.941747028481722,7.307770800627943
0.45591051805337524,-3.1996347675647967,4.949908691891199,7.250639156761605
0.4639089481946625,-3.2322814212027042,4.958070355300676,7.193507512895268
0.4719073783359498,-3.2649280748406113,4.966232018710153,7.13637586902893
0.4799058084772371,-3.2975747284785184,4.97439368211963,7.079244225162593
0.4879042386185244,-3.330221382116426,4.982555345529106,7.022112581296255
0.49590266875981165,-3.362868035754333,4.990717008938583,6.964980937429917
0.5039010989010989,-3.3955146893922405,4.99887867234806,6.907849293563579
0.5118995290423862,-3.4,4.52794810231785,6.4558962046357
0.5198979591836735,-3.4,4.41032412965186,6.22064825930372
0.5278963893249607,-3.4,4.292700156985871,5.985400313971743
0.5358948194662481,-3.4,4.175076184319882,5.750152368639763
0.5438932496075354,-3.5157299843014136,3.4056200941915185,5.3106750392464654
0.5518916797488227,-3.6041846018804544,0.6330463699127284,5.416738407521819
0.5598901098901099,-3.6127850643979675,0.4954389696325185,5.451140257591871
0.5678885400313972,-3.621385526915481,0.35783156935230653,5.4855421076619235
0.5758869701726845,-3.629985989432994,0.22022416907209458,5.519943957731977
0.5838854003139717,-3.6385864519505073,0.08261676879188462,5.554345807802029
0.591883830455259,-3.6471869144680205,-0.05499063148832739,5.588747657872082
0.5998822605965464,-3.655787376985534,-0.1925980317685393,5.623149507942135
0.6078806907378337,-3.664387839503047,-0.3302054320487513,5.657551358012188
0.6158791208791209,-3.6729883020205603,-0.4678128323289612,5.69195320808224
0.6238775510204082,-3.6815887645380734,-0.6054202326091731,5.7263550581522935
0.6318759811616955,-3.690189227055587,-0.7430276328893852,5.760756908222346
0.6398744113029828,-3.6987896895731,-0.8806350331695971,5.795158758292399
0.64787284144427,-2.4190737833594964,-4.360125588697024,6.431789638932495
0.6558712715855574,-1.74652158018107,-5.746616201802111,5.840037848648416
0.6638697017268447,-1.4945162469624285,-5.658962172856497,5.905778370357627
0.6718681318681319,-1.2425109137437904,-5.571308143910883,5.971518892066837
0.6798665620094192,-0.9905055805251488,-5.483654114965269,6.037259413776048
0.6878649921507065,-0.7385002473065072,-5.396000086019654,6.1029999354852595
0.6958634222919938,-0.4864949140878656,-5.30834605707404,6.16874045719447
0.703861852433281,-0.23448958086922755,-5.220692028128427,6.23448097890368
0.7118602825745683,0.01751575234941405,-5.133037999182813,6.300221500612891
0.7198587127158557,0.2695210855680559,-5.045383970237198,6.365962022322102
0.7278571428571429,10.500000000000089,-12.671428571428688,4.071428571428555
0.7358555729984302,6.245919442592628,-14.18069933979914,7.300518268424337
0.7438540031397175,5.599470979118722,-13.80816971678028,7.651134384206794
0.7518524332810048,4.953022515644816,-13.43564009376142,8.001750499989251
0.759850863422292,4.3065740521709195,-13.063110470742563,8.352366615771704
0.7678492935635793,3.6601255886970137,-12.690580847723703,8.702982731554162
0.7758477237048667,3.0136771252231083,-12.318051224704842,9.05359884733662
0.7838461538461539,2.3672286617492118,-11.945521601685986,9.40421496311907
0.7918445839874412,1.720780198275306,-11.572991978667124,9.754831078901528
0.7998430141287285,1.0743317348014,-11.200462355648263,10.105447194683986
0.8078414442700158,-10.044747798785076,-13.28998020612927,14.911186949696269
0.815839874411303,-11.296675994812643,-12.698791891338473,15.224168998703162
0.8238383045525903,-12.548604190840228,-12.107603576547671,15.537151047710056
0.8318367346938776,-12.579999999999991,-11.958367346938772,12.331428571428567
0.8398351648351648,-12.057435897435894,-11.777069597069596,12.03282051282051
0.8478335949764522,-11.53487179487179,-11.595771847200417,11.734212454212452
0.8558320251177395,-11.012307692307685,-11.414474097331238,11.435604395604392
0.8638304552590268,-10.489743589743581,-11.23317634746206,11.136996336996333
0.871828885400314,-9.967179487179484,-11.051878597592882,10.838388278388278
0.8798273155416013,-9.44461538461538,-10.870580847723705,10.539780219780218
0.8878257456828886,-8.922051282051276,-10.689283097854526,10.241172161172159
0.8958241758241758,-8.39948717948718,-10.507985347985349,9.942564102564102
0.9038226059654632,-7.876923076923075,-10.32668759811617,9.643956043956043
0.9118210361067505,-4.526844583987434,-9.291051805337522,8.608948194662478
0.9198194662480378,-4.598025382534848,-6.982228442813639,5.196050765069698
0.927817896389325,-4.578752056893193,-6.808768512038736,5.157504113786386
0.9358163265306123,-4.559478731251536,-6.63530858126383,5.118957462503073
0.9438147566718996,-4.54020540560988,-6.461848650488925,5.080410811219761
0.9518131868131869,-4.520932079968224,-6.2883887197140185,5.041864159936448
0.9598116169544741,-4.501658754326568,-6.114928788939116,5.0033175086531365
0.9678100470957615,-4.482385428684912,-5.94146885816421,4.964770857369825
0.9758084772370488,-4.463112103043256,-5.768008927389304,4.926224206086512
0.983806907378336,-4.4438387774016,-5.594548996614401,4.8876775548032
0.9918053375196233,-4.424565451759944,-5.421089065839495,4.849130903519888
0.9998037676609106,-4.4052921261182885,-5.24762913506459,4.810584252236575
1.0078021978021978,-1.9791208791208308,-2.380219780219792,5.320329670329689
1.0158006279434852,-1.4638264471091205,-2.550642974047231,5.485530578843648
1.0237990580847725,-1.421281605932061,-2.6102057516951147,5.468512642372825
1.0317974882260597,-1.3787367647550013,-2.6697685293429982,5.451494705902
1.039795918367347,-1.3361919235779407,-2.729331306990883,5.434476769431177
1.0477943485086343,-1.293647082400881,-2.7888940846387666,5.417458832960352
1.0557927786499215,-1.2511022412238215,-2.8484568622866497,5.4004408964895285
1.063791208791209,-1.2085574000467607,-2.908019639934535,5.383422960018704
1.0717896389324961,-1.1660125588697012,-2.9675824175824186,5.36640502354788
1.0797880690737836,-1.1234677176926404,-3.0271451952303035,5.349387087077056
1.0877864992150708,-1.080922876515581,-3.086707972878187,5.332369150606232
1.095784929356358,-1.0383780353385212,-3.14627075052607,5.315351214135409
1.1037833594976454,-0.9216640502354593,-3.356671899529082,5.143328100470918
1.1117817896389326,-0.7156357927786499,-4.478178963893249,5.051632653061224
1.1197802197802198,-2.552982731554158,-6.091522762951334,6.4
1.1277786499215072,-2.791031247663903,-6.053435000373775,6.4
1.1357770800627944,-3.0290797637736415,-6.015347237796217,6.4
1.1437755102040816,-3.26712827988338,-5.977259475218659,6.4
1.151773940345369,-3.5051767959931253,-5.9391717126411,6.4
1.1597723704866563,-3.7432253121028642,-5.9010839500635415,6.4
1.1677708006279435,-3.981273828212603,-5.862996187485984,6.4
1.175769230769231,-4.219322344322348,-5.824908424908425,6.4
1.183767660910518,-4.4573708604320865,-5.786820662330866,6.4
1.1917660910518055,-4.695419376541832,-5.748732899753307,6.4
1.1997645211930927,-4.933467892651571,-5.7106451371757485,6.4
1.20776295133438,-6.523704866562009,-1.3,6.429879644165356
1.2157613814756674,-6.656559279230092,-4.131707733260536,5.562623711692037
1.2237598116169546,-6.873907924373766,-4.453383728073174,5.649563169749507
1.2317582417582418,-7.09125656951744,-4.775059722885811,5.736502627806976
1.2397566718995292,-7.30860521466112,-5.096735717698458,5.823442085864448
1.2477551020408164,-7.525953859804794,-5.418411712511094,5.910381543921917
1.2557535321821036,-7.743302504948468,-5.740087707323732,5.997321001979387
1.263751962323391,-7.960651150092147,-6.061763702136378,6.084260460036859
1.2717503924646782,-8.177999795235822,-6.383439696949015,6.171199918094328
1.2797488226059657,-8.395348440379502,-6.7051156917616614,6.2581393761518
1.2877472527472529,-8.612697085523175,-7.026791686574299,6.34507883420927
1.29574568288854,-8.83004573066685,-7.348467681386936,6.43201829226674
1.3037441130298275,-11.790580847723941,-10.913814756672181,5.366326530612149
1.3117425431711147,-20.397113112451457,-22.970090060315616,6.279791787160207
1.319740973312402,-20.388693712302732,-22.591217053623065,6.220855986119143
1.3277394034536893,-20.38027431215401,-22.212344046930504,6.161920185078078
1.3357378335949766,-20.371854912005286,-21.833471040237953,6.102984384037014
1.3437362637362638,-20.363435511856565,-21.4545980335454,6.04404858299595
1.3517346938775512,-20.35501611170784,-21.075725026852837,5.985112781954885
1.3597331240188384,-20.346596711559116,-20.696852020160286,5.926176980913821
1.3677315541601256,-20.338177311410394,-20.317979013467735,5.8672411798727575
1.375729984301413,-20.32975791126167,-19.93910600677517,5.808305378831693
1.3837284144427002,-20.32133851111295,-19.56023300008262,5.749369577790629
1.3917268445839877,-20.312919110964224,-19.181359993390057,5.690433776749564
1.3997252747252749,-20.304499710815502,-18.802486986697502,5.6314979757085
1.407723704866562,-12.28681318681315,-14.81907378335949,0.4164050235478274
1.4157221350078495,-5.302811944727165,-17.113190263425736,-1.5858384943157273
1.4237205651491367,-4.968811565200887,-16.796768851242945,-1.3924698535373552
1.431718995290424,-4.634811185674607,-16.480347439060154,-1.199101212758983
1.4397174254317113,-4.300810806148319,-16.163926026877355,-1.0057325719806056
1.4477158555729985,-3.96681042662204,-15.847504614694564,-0.8123639312022336
1.4557142857142857,-3.632810047095761,-15.531083202511773,-0.6189952904238616
1.4637127158555732,-3.298809667569473,-15.214661790328975,-0.42562664964548413
1.4717111459968604,-2.9648092880431935,-14.898240378146184,-0.232258008867112
1.4797095761381476,-2.6308089085169146,-14.581818965963393,-0.038889368088739884
1.487708006279435,-2.2968085289906264,-14.265397553780593,0.15447927268963757
1.4957064364207222,-1.9628081494643475,-13.948976141597802,0.3478479134680097
1.5037048665620096,0.5163265306125207,-9.011616954473514,0.5852433281004815
1.5117032967032968,3.638949938950017,-4.69072039072029,0.25763125763124783
1.519701726844584,11.561395747110076,-5.024561153132583,-7.8956150991865215
1.5277001569858715,13.81549878692744,-5.097274154417014,-7.58658484372769
1.5356985871271587,16.06960182674474,-5.169987155701444,-7.277554588268866
1.5436970172684459,18.323704866562043,-5.242700156985872,-6.968524332810043
1.5516954474097333,20.577807906379405,-5.315413158270303,-6.65949407735121
1.5596938775510205,22.831910946196707,-5.388126159554733,-6.350463821892387
1.5676923076923077,25.08601398601401,-5.4608391608391615,-6.041433566433563
1.5756907378335951,27.340117025831372,-5.533552162123593,-5.732403310974731
1.5836891679748824,29.594220065648674,-5.606265163408022,-5.423373055515908
1.5916875981161698,31.84832310546604,-5.678978164692452,-5.114342800057075
1.599686028257457,34.10242614528334,-5.751691165976881,-4.805312544598252
1.6076844583987442,10.796703296703116,-2.1470957613814607,-5.141287284144382
1.6156828885400316,9.516368393511252,-5.999236002093162,3.6104866562009454
1.6236813186813188,9.551916971916972,-7.083467643467651,3.850439560439562
1.631679748822606,9.587465550322694,-8.16769928484214,4.090392464678179
1.6396781789638935,9.623014128728416,-9.25193092621666,4.330345368916802
1.6476766091051807,9.658562707134136,-10.336162567591149,4.5702982731554185
1.6556750392464679,9.694111285539858,-11.42039420896564,4.810251177394035
1.6636734693877553,9.72965986394558,-12.504625850340158,5.050204081632659
1.6716718995290425,9.7652084423513,-13.588857491714649,5.290156985871275
1.6796703296703297,9.800757020757022,-14.673089133089137,5.530109890109891
1.6876687598116171,9.836305599162744,-15.757320774463658,5.770062794348514
1.6956671899529043,9.871854177568464,-16.841552415838144,6.0100156985871305
1.7036656200941918,-3.360596546311786,-30.127629513344694,-3.13249607535335
1.711664050235479,-9.77204049594723,-37.71121648031269,3.856976259891699
1.7196624803767662,-11.02077499759717,-37.73570147054112,3.326468138275711
1.7276609105180536,-12.269509499247146,-37.76018646076955,2.795960016659709
1.7356593406593408,-13.518244000897084,-37.78467145099798,2.2654518950437215
1.743657770800628,-14.766978502547026,-37.80915644122641,1.7349437734277338
1.7516562009419154,-16.015713004197,-37.83364143145484,1.2044356518117314
1.7596546310832026,-17.264447505846938,-37.858126421683274,0.6739275301957437
1.7676530612244898,-18.51318200749688,-37.882611411911704,0.143419408579756
1.7756514913657773,-19.761916509146857,-37.907096402140134,-0.38708871303624637
1.7836499215070645,-21.010651010796796,-37.931581392368564,-0.9175968346522341
1.7916483516483517,-22.259385512446734,-37.956066382596994,-1.4481049562682218
1.799646781789639,-23.50812001409671,-37.980551372825424,-1.9786130778842237
1.8076452119309263,-22.690266875981116,-29.938461538461333,-2.7290423861852515
1.8156436420722137,-10.131681159931553,-6.304947700774336,-3.158414619088772
1.823642072213501,-9.924980156280311,-6.017363695694346,-3.0325966168662766
1.8316405023547881,-9.718279152629067,-5.7297796906143565,-2.9067786146437813
1.8396389324960756,-9.51157814897782,-5.442195685534359,-2.780960612421282
1.8476373626373628,-9.304877145326579,-5.154611680454369,-2.6551426101987867
1.85563579277865,-9.098176141675335,-4.867027675374381,-2.5293246079762914
1.8636342229199374,-8.891475138024088,-4.579443670294383,-2.4035066057537926
1.8716326530612246,-8.684774134372844,-4.291859665214393,-2.2776886035312973
1.8796310832025118,-8.478073130721603,-4.004275660134404,-2.1518706013088016
1.8876295133437992,-8.271372127070354,-3.7166916550544062,-2.0260525990863028
1.8956279434850865,-8.064671123419112,-3.4291076499744166,-1.9002345968638075
1.9036263736263739,-7.755433455433427,-2.74822954822946,-1.6192918192917838
1.911624803767661,-6.943799058084736,-0.2313971742542107,-0.39387755102031596
1.9196232339089483,-5.937676609105167,0.9471829757544074,0.279225536368389
1.9276216640502357,-4.012883035332025,0.7505107137760326,-2.143558482333988
1.935620094191523,-4.262184754021495,1.0829130053619946,-2.018907622989252
1.9436185243328101,-4.511486472710967,1.4153152969479565,-1.8942567636445165
1.9516169544740976,-4.7607881914004455,1.7477175885339276,-1.7696059042997772
1.9596153846153848,-5.010089910089917,2.0801198801198897,-1.6449550449550414
1.967613814756672,-5.2593916287793885,2.4125221717058514,-1.5203041856103057
1.9756122448979594,-5.508693347468867,2.744924463291823,-1.3956533262655664
1.9836106750392466,-5.757995066158339,3.077326754877785,-1.2710024669208306
1.9916091051805338,-6.00729678484781,3.4097290464637466,-1.146351607576095
1.9996075353218212,-6.256598503537289,3.7421313380497176,-1.0217007482313558
2.0076059654631084,-1.7184016875981198,4.869888147566713,1.6983271193092617
2.0156043956043956,-1.810050366300369,4.719917582417578,1.689995421245421
2.023602825745683,-1.901699045002618,4.5699470172684435,1.68166372318158
2.0316012558869705,-1.9933477237048725,4.4199764521193,1.6733320251177388
2.0395996860282577,-2.0849964024071213,4.270005886970165,1.665000327053898
2.047598116169545,-2.1766450811093705,4.12003532182103,1.6566686289900572
2.055596546310832,-2.2682937598116197,3.9700647566718947,1.6483369309262164
2.0635949764521193,-2.359942438513869,3.82009419152276,1.6400052328623755
2.071593406593407,-2.451591117216123,3.6701236263736168,1.6316735347985343
2.079591836734694,-2.5432397959183723,3.520153061224482,1.6233418367346935
2.0875902668759814,-2.634888474620621,3.370182496075347,1.6150101386708526
2.0955886970172686,-2.7265371533228704,3.2202119309262116,1.6066784406070118
2.103587127158556,-5.633908948194554,4.547723704866614,-3.1916797488224145
2.111585557299843,-15.495360566485184,-39.15041250542771,17.896185577340592
2.1195839874411306,-15.708084772370494,-39.039795918367346,17.887676609105178
2.127582417582418,-15.920808978255792,-38.92917933130699,17.879167640869767
2.135580847723705,-16.13353318414109,-38.818562744246634,17.870658672634356
2.1435792778649922,-16.346257390026388,-38.70794615718628,17.862149704398945
2.1515777080062795,-16.558981595911686,-38.59732957012592,17.85364073616353
2.159576138147567,-16.771705801796998,-38.48671298306556,17.84513176792812
2.1675745682888543,-16.984430007682295,-38.37609639600521,17.83662279969271
2.1755729984301415,-17.197154213567593,-38.26547980894485,17.828113831457298
2.1835714285714287,-17.40987841945289,-38.1548632218845,17.819604863221883
2.191569858712716,-17.62260262533819,-38.04424663482414,17.811095894986472
2.199568288854003,-17.835326831223487,-37.933630047763785,17.80258692675106
2.2075667189952908,-0.39324960753461846,-15.129827315540151,1.088304552590025
2.215565149136578,2.076482503671449,-9.94820479060109,0.2505848989719942
2.223563579277865,2.2914940666092773,-9.39777518948025,0.19038166134940232
2.2315620094191524,2.5065056295471058,-8.84734558835941,0.13017842372681046
2.2395604395604396,2.7215171924849337,-8.29691598723857,0.06997518610421857
2.247558869701727,2.9365287554227617,-7.74648638611773,0.009771948481626658
2.2555572998430145,3.1515403183606017,-7.196056784996859,-0.05043128914096856
2.2635557299843017,3.36655188129843,-6.6456271838760195,-0.11063452676356045
2.271554160125589,3.5815634442362585,-6.095197582755179,-0.17083776438615234
2.279552590266876,3.7965750071740865,-5.544767981634339,-0.23104100200874417
2.2875510204081633,4.011586570111914,-4.994338380513499,-0.2912442396313361
2.295549450549451,4.226598133049755,-4.443908779392628,-0.3514474772539313
2.303547880690738,4.314006628292328,-3.2604570033140203,-0.5891854177568786
2.3115463108320253,4.063893249607598,0.43657770800633156,-1.8004709576139295
2.3195447409733125,5.94170283498015,0.1417028349801494,-3.7041702834980152
2.3275431711145997,6.03580201311294,0.2358020131129401,-3.713580201311294
2.335541601255887,6.1299011912457315,0.3299011912457308,-3.722990119124573
2.3435400313971746,6.224000369378527,0.4240003693785267,-3.732400036937853
2.351538461538462,6.318099547511318,0.5180995475113174,-3.741809954751132
2.359536891679749,6.412198725644108,0.612198725644108,-3.751219872564411
2.367535321821036,6.506297903776899,0.7062979037768987,-3.7606297903776897
2.3755337519623234,6.60039708190969,0.8003970819096894,-3.7700397081909687
2.383532182103611,6.694496260042485,0.8944962600424853,-3.7794496260042485
2.3915306122448983,6.788595438175276,0.988595438175276,-3.7888595438175274
2.3995290423861855,6.882694616308067,1.0826946163080666,-3.7982694616308064
2.4075274725274727,10.239120879120845,4.394505494505486,1.5305494505494515
2.41552590266876,7.649735194162196,3.6055031310918273,1.5651853640864626
2.423524332810047,7.737630030879638,3.438502941328687,1.5036589783842533
2.4315227629513347,7.8255248675970845,3.271502751565538,1.4421325926820403
2.439521193092622,7.913419704314527,3.104502561802398,1.3806062069798308
2.447519623233909,8.001314541031968,2.9375023720392583,1.3190798212776214
2.4555180533751964,8.08920937774941,2.770502182276118,1.2575534355754119
2.4635164835164836,8.177104214466853,2.603501992512978,1.1960270498732026
2.471514913657771,8.2649990511843,2.436501802749829,1.1345006641709898
2.4795133437990584,8.352893887901741,2.269501612986689,1.0729742784687804
2.4875117739403456,8.440788724619184,2.1025014232235493,1.0114478927665709
2.495510204081633,8.528683561336626,1.9355012334604094,0.9499215070643614
2.50350863422292,8.876582940868701,0.36679748822582003,1.1262951334380285
2.5115070643642072,-2.9027472527474263,-32.82684458398723,1.6970957613816933
2.519505494505495,0.9886405729101764,-38.551166810717376,-5.172169403630149
2.527503924646782,-0.008916444711037252,-38.61407581182863,-6.367440424743855
2.5355023547880693,-1.006473462332251,-38.67698481293987,-7.562711445857563
2.5435007849293565,-2.0040304799534647,-38.73989381405112,-8.757982466971267
2.5514992150706437,-3.001587497574678,-38.802802815162366,-9.953253488084975
2.5594976452119313,-3.9991445151959475,-38.86571181627362,-11.148524509198747
2.5674960753532186,-4.996701532817161,-38.92862081738487,-12.343795530312455
2.5754945054945058,-5.994258550438375,-38.99152981849612,-13.53906655142616
2.583492935635793,-6.991815568059589,-39.05443881960736,-14.734337572539868
2.59149136577708,-7.989372585680802,-39.117347820718614,-15.929608593653573
2.5994897959183674,-8.986929603302015,-39.18025682182986,-17.12487961476728
2.607488226059655,-4.7097645211930965,-15.894945054944973,-1.5367032967033516
2.6154866562009422,-4.806282263425121,-13.912048312048306,-2.8565403708260884
2.6234850863422294,-4.820693849265278,-13.710286110286106,-2.986244643387503
2.6314835164835166,-4.835105435105435,-13.508523908523905,-3.115948915948917
2.639481946624804,-4.8495170209455924,-13.306761706761705,-3.2456531885103317
2.647480376766091,-4.863928606785749,-13.104999504999505,-3.3753574610717463
2.6554788069073787,-4.878340192625908,-12.903237303237294,-3.505061733633168
2.663477237048666,-4.892751778466065,-12.701475101475094,-3.634766006194582
2.671475667189953,-4.907163364306221,-12.499712899712893,-3.7644702787559963
2.6794740973312403,-4.921574950146379,-12.297950697950693,-3.894174551317411
2.6874725274725275,-4.935986535986536,-12.096188496188493,-4.0238788238788255
2.695470957613815,-4.950398121826694,-11.894426294426282,-4.153583096440247
2.7034693877551024,-4.964809707666851,-11.692664092664081,-4.283287369001661
2.7114678178963896,-4.979221293507009,-11.490901890901881,-4.412991641563075
2.719466248037677,-4.993632879347166,-11.289139689139681,-4.54269591412449
2.727464678178964,-6.623606750392479,-7.256691522762953,-5.328257456828973
2.735463108320251,-10.980533751962344,-1.393249607535573,1.5262166405020832
2.743461538461539,-10.72781065088757,-0.26224852071005594,2.77218934911243
2.751459968602826,-10.543231493780942,-0.11458519502475356,2.956768506219058
2.7594583987441132,-10.358652336674314,0.03307813066054882,3.141347663325686
2.7674568288854005,-10.174073179567687,0.18074145634585115,3.325926820432314
2.7754552590266877,-9.98949402246106,0.32840478203115353,3.5105059775389416
2.7834536891679753,-9.80491486535442,0.47606810771646413,3.6950851346455797
2.7914521193092625,-9.620335708247792,0.6237314334017664,3.8796642917522077
2.7994505494505497,-9.435756551141164,0.7713947590870688,4.064243448858836
2.807448979591837,-2.3004628655585946,3.913885966757845,0.006480117820327609
2.815447409733124,-2.308708669827963,4.161260094838893,0.12192137759148317
2.8234458398744113,-2.316954474097331,4.4086342229199404,0.2373626373626387
2.831444270015699,-2.3252002783667,4.6560083510010015,0.35280389713380067
2.839442700156986,-2.333446082636068,4.903382479082049,0.4682451569049562
2.8474411302982734,-2.3416918869054366,5.150756607163097,0.5836864166761118
2.8554395604395606,-2.3499376911748047,5.398130735244145,0.6991276764472674
2.863437990580848,-2.358183495444173,5.645504863325192,0.8145689362184229
2.8714364207221355,-2.3664292997135417,5.892878991406254,0.9300101959895849
2.8794348508634227,-2.37467510398291,6.140253119487301,1.0454514557607404
2.88743328100471,-2.382920908252278,6.387627247568349,1.160892715531896
2.895431711145997,-2.3911667125216463,6.635001375649397,1.2763339753030516
2.9034301412872843,-2.3994125167910147,6.882375503730444,1.391775235074207
2.9114285714285715,-2.4357142857142318,5.835714285714232,3.0428571428570605
2.919427001569859,-4.806414258010941,-8.465180533752129,10.149175362452695
2.9274254317111463,-5.52156801182015,-11.18464678178978,10.49734232154402
2.9354238618524335,-6.236721765629358,-13.904113029827432,10.845509280635346
2.9434222919937207,-6.951875519438568,-16.623579277865083,11.19367623972667
2.951420722135008,-7.667029273247778,-19.34304552590273,11.541843198817997
2.959419152276295,-8.382183027056985,-22.062511773940383,11.890010157909321
2.967417582417583,-9.097336780866236,-24.781978021978187,12.238177117000667
2.97541601255887,-9.812490534675444,-27.50144427001584,12.586344076091992
2.983414442700157,-10.527644288484654,-30.22091051805349,12.934511035183318
2.9914128728414444,-11.242798042293863,-32.94037676609114,13.282677994274643
2.9994113029827316,-11.957951796103071,-35.65984301412879,13.630844953365969
3.0074097331240193,2.3054421768708844,-24.46562009419124,1.8686725972440117
3.0154081632653065,4.038435374149756,-20.866326530612046,1.6909297052154095
3.0234065934065937,5.771428571428627,-17.26703296703285,1.5131868131868074
3.031405023547881,5.996169136985466,-16.663408020550868,1.5
3.039403453689168,6.10004485310608,-16.299843014128722,1.5
3.0474018838304553,6.2039205692266925,-15.936278007706578,1.5
3.055400313971743,6.307796285347311,-15.572713001284411,1.5
3.06339874411303,6.411672001467925,-15.209147994862265,1.5
3.0713971742543174,6.515547717588538,-14.84558298844012,1.5
3.0793956043956046,6.619423433709151,-14.482017982017974,1.5
3.0873940345368918,6.723299149829764,-14.118452975595828,1.5
3.0953924646781794,6.827174865950383,-13.754887969173662,1.5
3.1033908948194666,6.719544740973323,-8.9159340659337,0.18045525902667714
3.111389324960754,3.425511048091695,-0.9344001620499278,-2.514577741766683
3.119387755102041,3.4857142857142867,-0.7795918367346916,-2.5489795918367353
3.1273861852433282,3.5459175233368785,-0.6247835114194553,-2.5833814419067878
3.1353846153846154,3.6061207609594703,-0.46997518610421896,-2.6177832919768402
3.143383045525903,3.6663239985820653,-0.31516686078897416,-2.6521851420468945
3.1513814756671903,3.726527236204657,-0.1603585354737378,-2.686586992116947
3.1593799058084775,3.786730473827249,-0.005550210158501545,-2.7209888421869994
3.1673783359497647,3.846933711449841,0.1492581151567347,-2.755390692257052
3.175376766091052,3.9071369490724326,0.30406644047197107,-2.7897925423271044
3.1833751962323396,3.967340186695028,0.45887476578721587,-2.824194392397159
3.1913736263736268,4.02754342431762,0.6136830911024522,-2.8585962424672116
3.199372056514914,4.087746661940212,0.7684914164176886,-2.892998092537264
3.207370486656201,8.456828885400386,0.5431711145996145,-1.58021978021973
3.2153689167974884,9.806434595305033,-0.2974261618779871,-2.2012869190610065
3.2233673469387756,9.945942097769343,-0.2416231608922626,-2.2291884195538687
3.2313657770800632,10.085449600233662,-0.18582015990653503,-2.2570899200467327
3.2393642072213504,10.224957102697974,-0.13001715892081053,-2.284991420539595
3.2473626373626376,10.364464605162286,-0.07421415793508604,-2.312892921032457
3.255361067503925,10.503972107626597,-0.018411156949361573,-2.3407944215253194
3.263359497645212,10.643479610090909,0.03739184403636292,-2.3686959220181816
3.2713579277864993,10.782987112555219,0.09319484502208741,-2.396597422511044
3.279356357927787,10.922494615019538,0.14899784600781502,-2.424498923003908
3.287354788069074,11.06200211748385,0.20480084699353945,-2.45240042349677
3.2953532182103613,11.20150961994816,0.260603847979264,-2.4803019239896322
3.3033516483516485,10.863265306122427,0.669544740973331,-2.567189952904242
3.3113500784929357,8.912558869701863,-0.8676609105184263,-5.1525902668761905
3.3193485086342234,17.31365063507917,-28.436848865420338,-5.872919937205694
3.3273469387755106,16.322935992578817,-29.491187384044565,-6.97270408163269
3.335345368916798,15.332221350078466,-30.54552590266879,-8.072488226059686
3.343343799058085,14.341506707578116,-31.599864421293017,-9.17227237048668
3.351342229199372,13.350792065077764,-32.65420293991724,-10.272056514913675
3.3593406593406594,12.360077422577412,-33.708541458541475,-11.371840659340672
3.367339089481947,11.369362780077006,-34.76287997716576,-12.471624803767728
3.3753375196232343,10.378648137576654,-35.81721849578999,-13.571408948194724
3.3833359497645215,9.387933495076304,-36.87155701441421,-14.671193092621719
3.3913343799058087,8.397218852575953,-37.925895533038435,-15.770977237048715
3.399332810047096,7.406504210075601,-38.98023405166266,-16.87076138147571
3.4073312401883835,-2.7796703296711645,-38.91844583987401,-17.41718995290412
3.4153296703296707,-10.848131868132299,-35.64329670329655,-16.451428571428526
3.423328100470958,-17.35352171637917,-33.297090528518986,-15.758231292516973
3.431326530612245,-4.543755102040814,-13.451999999999995,-5.75738775510204
3.4393249607535323,-4.309134484563055,-12.929435897435896,-5.693400313971742
3.4473233908948195,-4.074513867085296,-12.406871794871796,-5.629412872841444
3.455321821036107,-3.839893249607524,-11.884307692307667,-5.565425431711143
3.4633202511773944,-3.6052726321297652,-11.361743589743568,-5.501437990580845
3.4713186813186816,-3.3706520146520065,-10.839179487179468,-5.437450549450547
3.479317111459969,-3.1360313971742473,-10.31661538461537,-5.37346310832025
3.487315541601256,-2.901410779696489,-9.79405128205127,-5.309475667189951
3.4953139717425437,-2.666790162218717,-9.271487179487142,-5.24548822605965
3.503312401883831,-2.5462480376766203,-9.03874411302986,-4.460031397174073
3.511310832025118,-9.108288854003145,-1.3941287284144388,-1.898618524332809
3.5193092621664053,-9.321580324437472,-1.2430472701901245,-1.863069945927088
3.5273076923076925,-9.534871794871796,-1.0919658119658104,-1.827521367521367
3.5353061224489797,-9.748163265306122,-0.9408843537414964,-1.791972789115646
3.5433045525902673,-9.96145473574046,-0.7898028955171739,-1.7564242107099233
3.5513029827315545,-10.174746206174786,-0.6387214372928598,-1.7208756323042023
3.5593014128728417,-10.388037676609112,-0.4876399790685457,-1.6853270538984813
3.567299843014129,-10.601329147043437,-0.33655852084423166,-1.6497784754927602
3.575298273155416,-10.814620617477763,-0.1854770626199176,-1.6142298970870392
3.5832967032967034,-11.027912087912089,-0.034395604395603296,-1.5786813186813184
3.591295133437991,-11.241203558346427,0.11668585382871921,-1.5431327402755954
3.599293563579278,-11.454495028780753,0.2677673120530333,-1.5075841618698744
3.6072919937205654,-8.083202511773841,5.281397174254429,-1.539795918367509
3.6152904238618526,-7.807290423861852,5.592709576138147,-1.8906436420722121
3.62328885400314,-7.81528885400314,5.58471114599686,-1.7706671899529043
3.6312872841444275,-7.823287284144428,5.576712715855573,-1.6506907378335895
3.6392857142857147,-7.831285714285714,5.568714285714285,-1.5307142857142817
3.647284144427002,-7.839284144427002,5.560715855572998,-1.4107378335949736
3.655282574568289,-7.847282574568289,5.552717425431711,-1.2907613814756655
3.6632810047095763,-7.8552810047095765,5.544718995290424,-1.1707849293563577
3.6712794348508635,-7.863279434850863,5.536720565149136,-1.0508084772370498
3.679277864992151,-7.871277864992151,5.528722135007849,-0.9308320251177351
3.6872762951334384,-7.8792762951334385,5.520723704866562,-0.810855572998427
3.6952747252747256,-7.887274725274725,5.512725274725274,-0.6908791208791192
3.7032731554160128,-7.895273155416013,5.504726844583987,-0.5709026687598111
3.7112715855573,-1.2704081632648379,0.6667189952897753,9.823469387754946
3.7192700156985876,2.4135007849293766,-5.403938297727208,7.112050371988157
3.727268445839875,2.813422291993737,-7.1948911337110815,5.086360999249116
3.735266875981162,3.213343799058096,-8.985843969694955,3.060671626510076
3.7432653061224492,3.6132653061224564,-10.776796805678828,1.0349822537710365
3.7512637362637364,4.013186813186816,-12.567749641662699,-0.9907071189680039
3.7592621664050236,4.413108320251176,-14.358702477646572,-3.0163964917070434
3.7672605965463113,4.8130298273155585,-16.149655313630543,-5.0420858644461966
3.7752590266875985,5.212951334379918,-17.940608149614416,-7.067775237185238
3.7832574568288857,5.612872841444277,-19.73156098559829,-9.093464609924276
3.791255886970173,6.0127943485086375,-21.522513821582162,-11.119153982663317
3.79925431711146,6.412715855572998,-23.313466657566035,-13.144843355402358
3.8072527472527478,6.187362637362611,-38.226923076921004,-16.009340659335134
3.815251177394035,3.833948194662386,-34.39116954474109,0.18092621664043085
3.823249607535322,0.9345172684457772,-38.09044348508642,-2.0186420722135487
3.8312480376766094,2.3584105180533794,-22.647755102040776,-2.442480376766094
3.8392464678178966,2.468388932496078,-21.60795918367344,-2.522464678178966
3.847244897959184,2.5783673469387773,-20.568163265306104,-2.602448979591838
3.8552433281004714,2.6883457613814823,-19.528367346938712,-2.6824332810047147
3.8632417582417586,2.7983241758241815,-18.488571428571376,-2.7624175824175867
3.871240188383046,2.90830259026688,-17.44877551020404,-2.8424018838304583
3.879238618524333,3.0182810047095794,-16.408979591836705,-2.9223861852433304
3.8872370486656203,3.128259419152278,-15.369183673469369,-3.0023704866562024
3.895235478806908,3.238237833594983,-14.329387755101976,-3.082354788069079
3.903233908948195,3.3482162480376823,-13.28959183673464,-3.162339089481951
3.9112323390894823,2.414128728414155,-0.8979591836730016,-1.9605965463106163
3.9192307692307695,4.1803713527851505,1.4863837312113222,-2.6480990274093736
3.9272291993720567,4.456179288691605,1.7713852649813253,-2.7216478103177613
3.935227629513344,4.731987224598059,2.056386798751329,-2.7951965932261493
3.9432260596546316,5.00779516050453,2.3413883325213476,-2.8687453761345414
3.951224489795919,5.283603096410984,2.626389866291351,-2.9422941590429295
3.959222919937206,5.559411032317439,2.9113914000613543,-3.015842941951317
3.967221350078493,5.835218968223894,3.1963929338313575,-3.089391724859705
3.9752197802197804,6.111026904130349,3.481394467601361,-3.162940507768093
3.9832182103610676,6.386834840036803,3.7663960013713638,-3.236489290676481
3.9912166405023553,6.662642775943274,4.051397535141383,-3.310038073584873
3.9992150706436425,6.938450711849729,4.336399068911386,-3.383586856493261
4.00721350078493,9.011224489795493,3.690973312400476,0.28430141287401955
4.015211930926217,0.0025513616817988277,1.380576069892842,-1.6157613814756653
4.0232103610675045,0.19729574773054123,1.5335895160739967,-1.4557927786499125
4.031208791208791,0.39204013377926206,1.6866029622551344,-1.2958241758241775
4.039207221350079,0.5867845198280045,1.8396164084362892,-1.135855572998425
4.047205651491366,0.7815289058767253,1.992629854617427,-0.9758869701726901
4.055204081632653,0.9762732919254679,2.145643300798582,-0.8159183673469375
4.063202511773941,1.17101767797421,2.2986567469797365,-0.6559497645211847
4.071200941915228,1.3657620640229309,2.4516701931608744,-0.4959811616954499
4.079199372056515,1.5605064500716732,2.604683639342029,-0.33601255886969716
4.087197802197802,1.7552508361203942,2.7576970855231666,-0.17604395604396217
4.09519623233909,1.9499952221691363,2.9107105317043214,-0.01607535321820963
4.1031946624803775,2.144739608217879,3.0637239778854766,0.14389324960754313
4.111193092621664,2.3394839942665997,3.216737424066614,0.3038618524332779
4.119191522762952,2.534228380315342,3.3697508702477688,0.46383045525903044
4.127189952904239,5.317896389324525,0.525117739403949,4.05086342229142
4.135188383045526,17.106171787396246,-35.712545413769924,-19.878116169544736
4.143186813186814,16.397739403453627,-36.12389324960757,-19.79813186813186
4.151185243328101,15.68930701951109,-36.53524108544518,-19.718147566718994
4.159183673469388,14.980874635568473,-36.946588921282824,-19.638163265306115
4.167182103610675,14.272442251625932,-37.35793675712043,-19.558178963893248
4.175180533751963,13.564009867683316,-37.76928459295808,-19.478194662480373
4.1831789638932495,12.855577483740777,-38.18063242879568,-19.398210361067505
4.191177394034537,12.14714509979816,-38.59198026463333,-19.31822605965463
4.199175824175825,11.43871271585554,-39.00332810047098,-19.238241758241752
4.207174254317112,-1.065149136577678,-32.646059654631074,-14.012653061224508
4.215172684458399,3.0050235478803455,-23.742386185241664,-18.843171114599844
4.223171114599686,-16.96959900769429,-13.931393298060003,-18.92325328992
4.231169544740974,-15.9525146810861,-13.032804232804224,-17.817297517297508
4.239167974882261,-14.935430354477912,-12.134215167548446,-16.71134174467501
4.247166405023548,-13.918346027869836,-11.235626102292768,-15.605385972052638
4.255164835164836,-12.901261701261646,-10.337037037036989,-14.49943019943014
4.263163265306122,-11.884177374653571,-9.438447971781311,-13.393474426807767
4.27116169544741,-10.867093048045383,-8.53985890652553,-12.287518654185272
4.279160125588698,-9.850008721437195,-7.641269841269754,-11.181562881562774
4.2871585557299845,-8.832924394829119,-6.742680776014075,-10.075607108940401
4.295156985871272,-7.815840068220929,-5.844091710758297,-8.969651336317906
4.303155416012559,-5.808791208791293,-4.368916797488202,-3.2601255886969085
4.311153846153847,-7.106477732793523,-3.863967611336018,-1.5093117408906789
4.319152276295134,-7.114897132942247,-3.6871602082128185,-1.3914401388085458
4.327150706436421,-7.12331653309097,-3.5103528050896387,-1.273568536726426
4.335149136577709,-7.1317359332396935,-3.3335454019664392,-1.155696934644293
4.343147566718995,-7.1401553333884165,-3.1567379988432593,-1.0378253325621731
4.351145996860283,-7.14857473353714,-2.97993059572006,-0.91995373048004
4.35914442700157,-7.1569941336858625,-2.80312319259688,-0.8020821283979201
4.367142857142857,-7.165413533834586,-2.6263157894736806,-0.6842105263157872
4.375141287284145,-7.17383293398331,-2.449508386350481,-0.5663389242336541
4.383139717425432,-7.182252334132033,-2.272700983227301,-0.4484673221515343
4.3911381475667195,-7.190671734280757,-2.095893580104102,-0.3305957200694012
4.399136577708006,-7.19909113442948,-1.919086176980922,-0.2127241179872814
4.407135007849294,-11.022501308215645,4.188252223966597,-2.341496598639322
4.4151334379905816,-7.4371675943104085,3.8935326578183442,3.256569620855376
4.423131868131868,-7.122077922077904,3.6875124875124756,3.559540459540477
4.431130298273156,-6.8069882498453635,3.481492317206584,3.862511298225612
4.439128728414443,-6.491898577612858,3.275472146900715,4.165482136910713
4.44712715855573,-6.176808905380318,3.069451976594823,4.468452975595848
4.455125588697018,-5.861719233147777,2.8634318062889315,4.771423814280983
4.463124018838305,-5.546629560915273,2.6574116359830624,5.074394652966084
4.471122448979592,-5.2315398886827325,2.4513914656771707,5.377365491651219
4.479120879120879,-5.77765567765556,1.6637362637363593,6.377655677655561
4.487119309262167,-11.278649921508775,-17.28995290424273,-2.5692307692342267
4.495117739403454,-19.372379721119213,-39.19600147751409,-20.352239357281373
4.503116169544741,-18.02885256666763,-39.190773745395596,-19.50534675408621
4.511114599686029,-16.68532541221605,-39.18554601327711,-18.658454150891053
4.519113029827316,-15.341798257764617,-39.18031828115862,-17.811561547695987
4.527111459968603,-13.998271103313037,-39.17509054904013,-16.964668944500826
4.53510989010989,-12.654743948861604,-39.16986281692164,-16.11777634130576
4.543108320251178,-11.311216794410024,-39.16463508480315,-15.270883738110598
4.551106750392465,-9.967689639958442,-39.15940735268467,-14.42399113491544
4.559105180533752,-8.624162485507009,-39.154179620566175,-13.577098531720374
4.56710361067504,-7.280635331055429,-39.14895188844769,-12.730205928525212
4.5751020408163265,-5.937108176603996,-39.1437241563292,-11.883313325330146
4.583100470957614,-4.593581022152415,-39.138496424210715,-11.036420722134986
4.591098901098902,-3.250053867700835,-39.13326869209222,-10.189528118939826
4.599097331240189,-1.9065267132494021,-39.12804095997374,-9.34263551574476
4.607095761381476,-0.56299955879782,-39.12281322785525,-8.4957429125496
4.615094191522763,0.7805275956536128,-39.117585495736755,-7.648850309354534
4.623092621664051,2.1240547501051914,-39.11235776361827,-6.801957706159374
4.631091051805338,3.4675819045567735,-39.10713003149978,-5.955065102964214
4.639089481946625,4.811109059008206,-39.101902299381294,-5.108172499769147
4.647087912087913,2.823882783882593,-36.92915750915734,-2.0186080586078443
4.6550863422291995,-1.0686865515437134,-33.51649398220825,2.3538670852956773
4.663084772370487,-2.0773178502170073,-24.01874134269089,-4.722682149782993
4.671083202511774,-2.018505863884016,-23.2894727121618,-4.781494136115984
4.6790816326530615,-1.9596938775510184,-22.560204081632627,-4.840306122448982
4.687080062794349,-1.9008818912180208,-21.830935451103457,-4.8991181087819795
4.695078492935636,-1.8420699048850295,-21.101666820574366,-4.957930095114971
4.703076923076924,-1.7832579185520316,-20.372398190045192,-5.016742081447968
4.71107535321821,-1.7244459322190404,-19.6431295595161,-5.07555406778096
4.719073783359498,-1.6656339458860427,-18.913860928986928,-5.134366054113958
4.727072213500786,-1.606821959553045,-18.18459229845776,-5.193178040446956
4.735070643642072,1.4918367346937795,-2.7092621664052268,-6.3
4.74306907378336,2.874007970051945,0.05013645694967073,-5.995486052409096
4.751067503924647,3.0708924042990025,0.33315783117981596,-5.650938292476746
4.7590659340659345,3.267776838546082,0.6161792054099926,-5.3063905325443566
4.767064364207222,3.464661272793161,0.8992005796401694,-4.961842772611968
4.775062794348509,3.6615457070402186,1.1822219538703145,-4.617295012679617
4.7830612244897965,3.858430141287298,1.4652433281004913,-4.272747252747228
4.791059654631083,4.055314575534355,1.7482647023306366,-3.928199492814877
4.799058084772371,4.252199009781435,2.031286076560813,-3.583651732882488
4.807056514913658,7.899778372887619,1.397894542432374,-4.50072028811524
4.815054945054945,7.8684119801766865,1.0999138116785188,-4.60266106442577
4.823053375196233,7.837045587465754,0.8019330809246635,-4.7046018407362995
4.83105180533752,7.805679194754826,0.5039523501708414,-4.8065426170468175
4.839050235478807,7.774312802043894,0.20597161941698605,-4.908483393357347
4.847048665620094,7.742946409332965,-0.09200911133683598,-5.010424169667865
4.855047095761382,7.711580016622032,-0.3899898420906913,-5.112364945978395
4.8630455259026695,7.680213623911101,-0.6879705728445464,-5.214305722288923
4.871043956043956,7.648847231200172,-0.9859513035983687,-5.316246498599442
4.879042386185244,7.617480838489239,-1.2839320343522238,-5.418187274909971
4.887040816326531,7.586114445778311,-1.581912765106046,-5.520128051220489
4.895039246467818,7.554748053067379,-1.8798934958599016,-5.622068827531018
4.903037676609106,7.5233816603564465,-2.1778742266137567,-5.724009603841548
4.911036106750393,7.468602825746899,-6.267189952908975,-7.794976452122765
4.91903453689168,9.046568359409438,-28.20686328118112,-22.3840738715538
4.927032967032967,8.642153352265723,-29.01569329546855,-22.078515866156323
4.935031397174255,8.237738345121963,-29.82452330975607,-21.77295786075882
4.943029827315542,7.833323337978204,-30.63335332404359,-21.46739985536131
4.951028257456829,7.4289083308344885,-31.44218333833102,-21.161841849963835
4.959026687598117,7.024493323690729,-32.25101335261854,-20.85628384456633
4.967025117739404,6.620078316547015,-33.059843366905966,-20.550725839168855
4.975023547880691,6.215663309403254,-33.86867338119349,-20.245167833771347
4.983021978021978,5.81124830225954,-34.67750339548092,-19.939609828373875
4.991020408163266,5.4068332951157805,-35.486333409768434,-19.634051822976367
4.999018838304553,5.002418287972021,-36.29516342405596,-19.32849381757886
5.00701726844584,-9.324175824176523,-38.366169544737105,-23.966326530611273
5.015015698587128,-7.920330552272774,-6.225454641666496,-4.589834723863612
5.0230141287284145,-7.974252553225269,-6.027740638174015,-4.562873723387366
5.031012558869702,-8.02817455417777,-5.830026634681512,-4.535912722911115
5.03901098901099,-8.08209655513027,-5.632312631189009,-4.5089517224348645
5.0470094191522765,-8.136018556082766,-5.434598627696529,-4.481990721958617
5.055007849293564,-8.189940557035266,-5.236884624204025,-4.455029721482367
5.063006279434851,-8.243862557987761,-5.039170620711545,-4.428068721006119
5.071004709576139,-8.297784558940261,-4.841456617219042,-4.401107720529869
5.079003139717426,-8.351706559892762,-4.643742613726539,-4.374146720053619
5.087001569858713,-8.405628560845257,-4.446028610234059,-4.3471857195773715
5.095000000000001,-8.459550561797757,-4.248314606741555,-4.320224719101121
5.102998430141287,-6.967870225013035,-2.5678702250130345,-3.7004709576137964
5.110996860282575,-12.3,2.2966222717375033,0.8
5.118995290423863,-12.3,2.6836430850256154,0.8
5.1269937205651495,-12.3,3.0706638983136845,0.8
5.134992150706437,-12.3,3.4576847116017966,0.8
5.142990580847724,-12.3,3.844705524889866,0.8
5.1509890109890115,-12.3,4.231726338177978,0.8
5.158987441130298,-12.3,4.618747151466048,0.8
5.166985871271586,-12.3,5.00576796475416,0.8
5.174984301412874,-12.3,5.392788778042272,0.8
5.18298273155416,-12.3,5.779809591330341,0.8
5.190981161695448,-12.3,6.166830404618453,0.8
5.198979591836735,-12.3,6.553851217906523,0.8
5.206978021978022,-5.171428571429295,3.4417582417571846,1.550549450548171
5.21497645211931,-6.2671623509928,1.7671623509928,1.0050804768230401
5.222974882260597,-6.2232149326340815,1.7232149326340815,1.145712215570939
5.2309733124018845,-6.179267514275359,1.6792675142753584,1.2863439543188533
5.238971742543171,-6.13532009591664,1.63532009591664,1.426975693066752
5.246970172684459,-6.091372677557916,1.5913726775579167,1.5676074318146664
5.2549686028257465,-6.047425259199193,1.5474252591991935,1.7082391705625808
5.262967032967033,-6.003477840840475,1.5034778408404752,1.8488709093104796
5.270965463108321,-5.959530422481752,1.4595304224817518,1.989502648058394
5.278963893249608,-5.915583004123033,1.4155830041230335,2.1301343868062927
5.286962323390895,-5.87163558576431,1.3716355857643103,2.270766125554207
5.294960753532182,-5.827688167405592,1.3276881674055918,2.411397864302106
5.30295918367347,-19.000000000002043,-30.622448979597735,-4.585714285716475
5.310957613814757,-12.078696683255938,-38.95739336651188,-6.979110858746128
5.318956043956044,-11.882990413841474,-38.56598082768295,-7.1067453822773
5.326954474097332,-11.68728414442699,-38.17456828885398,-7.234379905808485
5.334952904238619,-11.491577875012528,-37.78315575002506,-7.362014429339656
5.342951334379906,-11.295871605598043,-37.391743211196086,-7.489648952870842
5.350949764521194,-11.10016533618356,-37.00033067236712,-7.617283476402027
5.358948194662481,-10.904459066769096,-36.6089181335382,-7.7449179999331985
5.366946624803768,-10.708752797354613,-36.21750559470922,-7.872552523464384
5.374945054945055,-10.51304652794015,-35.8260930558803,-8.000187046995554
5.382943485086343,-10.317340258525665,-35.43468051705133,-8.127821570526741
5.39094191522763,-10.121633989111182,-35.04326797822236,-8.255456094057926
5.398940345368917,-9.925927719696718,-34.65185543939344,-8.383090617589097
5.406938775510205,-4.811564625849807,-31.593197278911248,-7.243537414965866
5.4149372056514915,4.39564090394655,-13.74006242926506,-8.989102259866375
5.422935635792779,4.358438903289398,-13.228534920229224,-8.896097258223495
5.430934065934067,4.321236902632247,-12.717007411193388,-8.803092256580616
5.438932496075354,4.284034901975099,-12.205479902157608,-8.710087254937747
5.446930926216641,4.246832901317947,-11.693952393121773,-8.617082253294868
5.454929356357928,4.2096309006608,-11.182424884085993,-8.524077251651999
5.462927786499216,4.172428900003648,-10.670897375050156,-8.43107225000912
5.470926216640502,4.135226899346501,-10.159369866014377,-8.33806724836625
5.47892464678179,4.098024898689348,-9.64784235697854,-8.245062246723371
5.486923076923078,4.060822898032197,-9.136314847942703,-8.152057245080492
5.494921507064364,4.023620897375049,-8.624787338906925,-8.059052243437623
5.502919937205652,3.9582866113478254,-7.006884951782586,-7.4577259475217295
5.510918367346939,10.159183673469581,3.683673469387833,-2.511224489795626
5.5189167974882265,10.425938212730632,3.7368679837682337,-1.7130505612985412
5.526915227629514,10.109019282604143,3.5482257634548473,-1.7281419389236121
5.534913657770801,9.79210035247769,3.3595835431414818,-1.7432333165486815
5.542912087912089,9.475181422351199,3.170941322828095,-1.7583246941737523
5.550910518053375,9.158262492224745,2.9822991025147294,-1.7734160717988217
5.558908948194663,8.841343562098256,2.7936568822013426,-1.7885074494238926
5.566907378335951,8.524424631971765,2.605014661887956,-1.8035988270489633
5.574905808477237,8.207505701845312,2.41637244157459,-1.8186902046740328
5.582904238618525,7.890586771718823,2.2277302212612042,-1.8337815822991037
5.590902668759812,7.573667841592368,2.0390880009478383,-1.8488729599241729
5.598901098901099,7.256748911465879,1.8504457806344519,-1.8639643375492438
5.606899529042386,6.939829981339424,1.661803560321086,-1.879055715174313
5.614897959183674,6.622911051212935,1.4731613400076995,-1.894147092799384
5.6228963893249615,9.309890109891672,0.9,-3.0481946624806557
5.630894819466248,10.286638087187534,0.8075574608541645,-3.2604596868333156
5.638893249607536,10.132822122932003,0.8178118584711999,-3.3424948677695987
5.646891679748823,9.979006158676489,0.8280662560882341,-3.424530048705873
5.65489010989011,9.825190194420959,0.8383206537052695,-3.506565229642156
5.662888540031398,9.671374230165426,0.8485750513223049,-3.5886004105784393
5.670886970172685,9.517558265909912,0.8588294489393392,-3.6706355915147135
5.678885400313972,9.363742301654382,0.8690838465563746,-3.7526707724509967
5.686883830455259,9.209926337398867,0.8793382441734089,-3.834705953387271
5.694882260596547,9.056110373143337,0.8895926417904443,-3.916741134323554
5.702880690737834,8.902294408887805,0.8998470394074797,-3.9987763152598372
5.710879120879121,15.1384615384605,-39.19120879120879,-11.92307692307765
5.718877551020409,-7.257142857145393,-39.11122448979591,-27.600000000001778
5.726875981161696,-10.099175824175807,-39.108594976452125,-28.639678178963827
5.734874411302983,-9.749244505494472,-39.118593014128734,-27.289943092621538
5.742872841444271,-9.399313186813139,-39.128591051805344,-25.940208006279246
5.750871271585558,-9.049381868131842,-39.13858908948195,-24.590472919937106
5.758869701726845,-8.699450549450509,-39.14858712715856,-23.240737833594817
5.766868131868132,-8.349519230769213,-39.158585164835166,-21.891002747252678
5.77486656200942,-7.999587912087879,-39.168583202511776,-20.54126766091039
5.7828649921507065,-7.649656593406583,-39.178581240188386,-19.19153257456825
5.790863422291994,-7.299725274725249,-39.188579277864996,-17.841797488225957
5.798861852433282,-6.949793956043914,-39.198577315541606,-16.49206240188367
5.8068602825745685,-3.5606750392465623,-20.319937205652096,-14.528335949764713
5.814858712715856,-8.486377114948562,-7.003078667364322,-8.459637188208589
5.822857142857143,-8.628571428571435,-6.514285714285691,-8.228571428571417
5.830855572998431,-8.770765742194326,-6.025492761207005,-7.99750566893422
5.838854003139718,-8.912960055817216,-5.536699808128319,-7.7664399092970235
5.846852433281005,-9.055154369440091,-5.047906855049688,-7.5353741496598525
5.854850863422293,-9.19734868306298,-4.559113901971003,-7.304308390022656
5.862849293563579,-9.339542996685855,-4.0703209488923715,-7.073242630385485
5.870847723704867,-9.481737310308747,-3.5815279958136856,-6.842176870748288
5.878846153846155,-9.623931623931636,-3.0927350427350007,-6.611111111111091
5.8868445839874415,-9.766125937554511,-2.6039420896563685,-6.380045351473919
5.894843014128729,-9.9083202511774,-2.115149136577683,-6.1489795918367225
5.902841444270016,-9.63657770800634,-0.4890109890110945,-1.5006279434849432
5.9108398744113035,-12.623509435171245,1.5449748502226837,-1.0804088040239617
5.91883830455259,-12.672479415628104,1.8469563963733067,-1.0396004869765803
5.926836734693878,-12.721449396084967,2.148937942523963,-0.9987921699291942
5.934835164835166,-12.77041937654183,2.4509194886746197,-0.9579838528818082
5.942833594976452,-12.819389356998688,2.7529010348252427,-0.9171755358344267
5.95083202511774,-12.868359337455551,3.0548825809758995,-0.8763672187870406
5.958830455259027,-12.917329317912408,3.3568641271265225,-0.8355589017396592
5.966828885400314,-12.966299298369272,3.658845673277179,-0.7947505846922731
5.974827315541602,-13.015269278826135,3.9608272194278356,-0.753942267644887
5.982825745682889,-13.064239259282992,4.262808765578458,-0.7131339505975056
5.9908241758241765,-13.113209239739856,4.564790311729115,-0.6723256335501195
5.998822605965463,-13.162179220196714,4.866771857879738,-0.6315173165027381
6.006821036106751,-9.85266875981081,6.787362637362763,1.5010204081639653
6.0148194662480385,-4.696796061081774,2.8583487940630605,2.7583487940630604
6.022817896389325,-4.687706935921221,2.74019016697587,2.64019016697587
6.030816326530613,-4.678617810760667,2.622031539888666,2.522031539888666
6.0388147566719,-4.669528685600113,2.5038729128014756,2.4038729128014755
6.046813186813187,-4.660439560439559,2.385714285714272,2.2857142857142714
6.054811616954475,-4.651350435279005,2.267555658627068,2.1675556586270677
6.062810047095762,-4.642261310118452,2.1493970315398774,2.0493970315398773
6.070808477237049,-4.633172184957898,2.0312384044526732,1.9312384044526734
6.078806907378336,-4.624083059797345,1.9130797773654828,1.8130797773654828
6.086805337519624,-4.61499393463679,1.7949211502782791,1.694921150278279
6.094803767660911,-4.605904809476237,1.6767625231910883,1.5767625231910882
6.102802197802198,-5.5747252747266804,-12.703296703300659,-7.07142857143197
6.110800627943486,-6.78006279434856,-33.63558869701857,-6.461868131868024
6.118799058084773,-7.869858712715928,-33.207639979068055,-4.260282574568144
6.12679748822606,-6.735190030428002,-33.59684477779722,-4.315518344089785
6.134795918367347,-5.5403628117913435,-34.2090702947846,-4.434013605442181
6.142794348508635,-4.345535593154552,-34.821295811772046,-4.55250886679459
6.150792778649922,-3.1507083745177606,-35.4335213287595,-4.671004128146999
6.158791208791209,-1.9558811558811025,-36.045746845746876,-4.789499389499395
6.166789638932497,-0.761053937244311,-36.65797236273432,-4.907994650851804
6.1747880690737835,0.43377328139234805,-37.2701978797217,-5.0264899122042
6.182786499215071,1.6286005000291386,-37.88242339670914,-5.144985173556609
6.190784929356359,2.823427718665929,-38.494648913696594,-5.263480434909018
6.198783359497646,4.018254937302588,-39.10687443068397,-5.381975696261414
6.206781789638933,4.832731554159996,-9.098273155413253,-6.630926216639985
6.21478021978022,4.824313186813188,-7.97857142857141,-6.41895604395604
6.222778649921508,4.849308281004712,-7.5453231292516625,-6.335639063317627
6.230777080062794,4.874303375196233,-7.112074829931963,-6.252322082679224
6.238775510204082,4.899298469387756,-6.678826530612216,-6.169005102040811
6.24677394034537,4.924293563579281,-6.245578231292468,-6.085688121402398
6.2547723704866565,4.9492886577708015,-5.812329931972769,-6.002371140763994
6.262770800627944,4.974283751962325,-5.379081632653023,-5.919054160125581
6.270769230769231,4.999278846153847,-4.945833333333322,-5.835737179487177
6.2787676609105185,5.0242739403453704,-4.512585034013576,-5.752420198848765
6.286766091051806,5.049269034536894,-4.079336734693828,-5.669103218210352
6.294764521193093,5.074264128728415,-3.6460884353741294,-5.585786237571948
6.302762951334381,5.099259222919939,-3.212840136054382,-5.502469256933535
6.310761381475667,7.094819466247353,4.36248037676589,-3.104552590266949
6.318759811616955,5.984449677306804,3.9189377289377147,-3.208622012907728
6.326758241758243,5.762271062271036,3.7323076923076695,-3.217509157509159
6.334756671899529,5.540092447235292,3.545677655677645,-3.2263963021105884
6.342755102040817,5.317913832199523,3.3590476190475993,-3.2352834467120193
6.350753532182104,5.09573521716378,3.172417582417575,-3.244170591313449
6.3587519623233915,4.873556602128011,2.985787545787529,-3.2530577359148793
6.366750392464679,4.651377987092243,2.799157509157484,-3.2619448805163103
6.374748822605966,4.4291993720565,2.612527472527459,-3.27083202511774
6.3827472527472535,4.2070207570207305,2.4258974358974137,-3.2797191697191708
6.39074568288854,3.9848421419849873,2.239267399267389,-3.2886063143206004
6.398744113029828,3.762663526949219,2.0526373626373435,-3.2974934589220313
6.406742543171115,7.802982731554101,0.508948194662303,-3.7108320251180205
6.414740973312402,7.617649220080827,-0.04705233975751971,-4.315291091886842
6.42273940345369,7.532559537726703,-0.3023213868198907,-4.434416647182616
6.430737833594977,7.447469855372589,-0.5575904338822333,-4.553542202478376
6.438736263736264,7.362380173018465,-0.8128594809446041,-4.672667757774149
6.446734693877551,7.277290490664351,-1.0681285280069468,-4.791793313069909
6.454733124018839,7.192200808310227,-1.3233975750693177,-4.910918868365681
6.4627315541601265,7.107111125956104,-1.5786666221316887,-5.0300444236614545
6.470729984301413,7.022021443601989,-1.8339356691940314,-5.1491699789572145
6.478728414442701,6.936931761247866,-2.089204716256402,-5.268295534252988
6.486726844583988,6.8518420788937515,-2.3444737633187445,-5.387421089548747
6.494725274725275,6.766752396539628,-2.5997428103811155,-5.50654664484452
6.502723704866563,7.27896389325053,-11.463877551023854,-9.848021978021736
6.51072213500785,13.677708006280074,-35.379183673471786,-8.16835164835148
6.518720565149137,-3.636020661366323,-39.13999088469133,-15.055993315440308
6.526718995290424,-3.928436386961753,-39.01098394692864,-14.961388227747667
6.534717425431712,-4.220852112557216,-38.88197700916594,-14.866783140055018
6.5427158555729985,-4.513267838152646,-38.75297007140325,-14.77217805236238
6.550714285714286,-4.805683563748108,-38.623963133640544,-14.677572964669729
6.558712715855574,-5.098099289343571,-38.49495619587784,-14.58296787697708
6.566711145996861,-5.390515014939001,-38.36594925811515,-14.48836278928444
6.574709576138148,-5.682930740534464,-38.23694232035245,-14.393757701591792
6.582708006279435,-5.975346466129894,-38.10793538258976,-14.299152613899151
6.590706436420723,-6.267762191725357,-37.978928444827055,-14.204547526206502
6.59870486656201,-6.560177917320819,-37.849921507064344,-14.109942438513853
6.606703296703297,-6.852593642916249,-37.720914569301655,-14.015337350821214
6.614701726844585,-4.780690737833775,-13.462323390894122,-6.923704866561671
6.6227001569858714,-6.308297277635269,-10.560116016387777,-3.860116016387778
6.630698587127159,-6.54239767201442,-10.257736340314707,-3.5577363403147078
6.638697017268447,-6.776498066393571,-9.955356664241638,-3.2553566642416376
6.6466954474097335,-7.010598460772696,-9.6529769881686,-2.9529769881686008
6.654693877551021,-7.244698855151848,-9.35059731209553,-2.6505973120955306
6.662692307692308,-7.478799249530972,-9.048217636022493,-2.3482176360224942
6.670690737833596,-7.712899643910124,-8.745837959949423,-2.0458379599494236
6.678689167974883,-7.947000038289275,-8.443458283876353,-1.7434582838763535
6.68668759811617,-8.1811004326684,-8.141078607803317,-1.441078607803317
6.694686028257458,-8.415200827047551,-7.838698931730247,-1.1386989317302465
6.702684458398744,-10.874018838304666,-4.9048665620092855,2.3004709576139737
6.710682888540032,-10.185366186608412,2.3097536004368955,5.070732373216828
6.718681318681319,-10.115814620162443,2.8313903487816807,4.9316292403248845
6.726679748822606,-10.046263053716462,3.3530270971265246,4.792526107432926
6.734678178963894,-9.976711487270483,3.8746638454713684,4.653422974540968
6.742676609105181,-9.907159920824512,4.396300593816154,4.5143198416490256
6.7506750392464685,-9.837608354378533,4.9179373421609975,4.375216708757067
6.758673469387755,-9.768056787932561,5.439574090505783,4.236113575865124
6.766671899529043,-9.698505221486583,5.961210838850627,4.097010442973166
6.774670329670331,-9.628953655040604,6.4828475871954705,3.9579073100812074
6.782668759811617,-9.559402088594632,7.004484335540257,3.818804177189265
6.790667189952905,-9.489850522148654,7.5261210838851,3.679701044297307
6.798665620094192,-9.420298955702682,8.047757832229886,3.5405979114053636
6.806664050235479,-5.325405546833152,5.982443746728045,1.3351648351642793
6.814662480376767,-3.85492331843979,1.7309624441492124,-1.2718270740248687
6.822660910518054,-3.756481101316261,1.3618041299359795,-1.2103006883226632
6.830659340659341,-3.6580388841927216,0.9926458157227056,-1.1487743026204509
6.838657770800628,-3.5595966670691928,0.6234875015094727,-1.0872479169182454
6.846656200941916,-3.4611544499456532,0.2543291872961988,-1.0257215312160333
6.854654631083203,-3.3627122328221244,-0.11482912691703406,-0.9641951455138277
6.86265306122449,-3.2642700156985844,-0.4839874411303078,-0.9026687598116154
6.870651491365778,-3.165827798575045,-0.853145755343582,-0.8411423741094031
6.878649921507065,-2.618196089624633,-1.6540744969316723,-0.5831882403310849
6.886648351648352,-1.1639360639358682,-3.3264735264737517,0.0712287712288594
6.894646781789639,4.919605791034361,-37.86079888365604,-9.929419152276301
6.902645211930927,4.978853421710566,-37.44014070585498,-9.716127681841963
6.910643642072214,5.0381010523867715,-37.01948252805393,-9.502836211407626
6.918642072213501,5.097348683062969,-36.59882435025292,-9.28954474097331
6.926640502354789,5.156596313739175,-36.17816617245187,-9.076253270538974
6.9346389324960755,5.215843944415373,-35.75750799465086,-8.86296180010466
6.942637362637363,5.275091575091578,-35.3368498168498,-8.649670329670322
6.950635792778651,5.334339205767782,-34.91619163904875,-8.436378859235985
6.958634222919938,5.393586836443981,-34.49553346124774,-8.22308738880167
6.966632653061225,5.452834467120185,-34.07487528344668,-8.009795918367333
6.974631083202512,5.512082097796384,-33.65421710564567,-7.796504447933019
6.9826295133438,5.571329728472589,-33.23355892784462,-7.583212977498681
6.990627943485087,5.630577359148794,-32.81290075004357,-7.369921507064344
6.998626373626374,5.689824989824992,-32.39224257224256,-7.1566300366300295
7.006624803767662,5.749072620501197,-31.9715843944415,-6.943338566195692
7.0146232339089485,5.8083202511773955,-31.550926216640494,-6.730047095761378
7.022621664050236,5.8675678818536,-31.13026803883944,-6.51675562532704
7.030620094191523,7.500837965123679,-21.138828545971414,-3.9008379651236793
7.0386185243328105,7.511646654503798,-20.349794221222766,-3.9116466545037976
7.046616954474098,7.522455343883916,-19.560759896474117,-3.9224553438839163
7.054615384615385,7.533264033264033,-18.771725571725558,-3.933264033264033
7.062613814756673,7.5440727226441515,-17.98269124697691,-3.944072722644152
7.070612244897959,7.554881412024269,-17.19365692222835,-3.9548814120242692
7.078610675039247,7.565690101404387,-16.4046225974797,-3.9656901014043875
7.086609105180535,7.576498790784506,-15.615588272731053,-3.976498790784506
7.094607535321821,7.587307480164623,-14.826553947982493,-3.9873074801646236
7.102605965463109,7.598116169544742,-14.037519623233845,-3.998116169544742
7.110604395604396,4.850366300366298,-1.5992673992674034,0.030219780219779
7.1186028257456835,5.304521193092624,0.18568288854002507,-0.5954788069073763
7.126601255886971,5.364509419152281,-0.0042798273155564,-0.535490580847719
7.134599686028258,5.424497645211932,-0.19424254317111683,-0.47550235478806835
7.1425981161695455,5.484485871271589,-0.3842052590266983,-0.41551412872841104
7.150596546310832,5.544474097331239,-0.5741679748822588,-0.3555259026687604
7.15859497645212,5.604462323390897,-0.7641306907378402,-0.2955376766091031
7.166593406593407,5.664450549450548,-0.9540934065934006,-0.23554945054945242
7.174591836734694,5.724438775510205,-1.1440561224489822,-0.1755612244897951
7.182590266875982,5.7844270015698624,-1.3340188383045637,-0.1155729984301378
7.190588697017269,5.844415227629513,-1.523981554160124,-0.0555847723704872
7.198587127158556,5.577080062794153,-1.8174254317112173,-0.32291993720584783
7.206585557299843,6.406805418440166,-2.5959118937027568,-7.677625467316187
7.214583987441131,7.091207172797772,-3.0329395199793003,-7.85078735697293
7.2225824175824185,7.775608927155378,-3.4699671462558443,-8.023949246629673
7.230580847723705,8.460010681512909,-3.9069947725323395,-8.197111136286399
7.238579277864993,9.144412435870516,-4.3440223988088835,-8.370273025943142
7.24657770800628,9.828814190228046,-4.78105002508538,-8.543434915599866
7.254576138147567,10.513215944585653,-5.218077651361923,-8.71659680525661
7.262574568288855,11.197617698943258,-5.655105277638467,-8.889758694913354
7.270572998430142,11.882019453300789,-6.092132903914962,-9.062920584570078
7.278571428571429,12.566421207658394,-6.529160530191506,-9.236082474226823
7.286569858712716,13.250822962015924,-6.966188156468002,-9.409244363883547
7.294568288854004,13.935224716373533,-7.403215782744544,-9.58240625354029
7.302566718995291,14.9133437990583,-8.512794348508974,-9.913893249607623
7.310565149136578,16.51302982731559,-11.045630559916352,-10.580429094714829
7.318563579277866,-5.898116169544741,-38.605965463108234,-18.564364207221292
7.326562009419153,-5.888479506723913,-37.61338919256301,-17.87052448412172
7.33456043956044,-5.878842843903085,-36.620812922017684,-17.17668476102207
7.342558869701727,-5.869206181082257,-35.628236651472456,-16.482845037922495
7.350557299843015,-5.859569518261429,-34.63566038092713,-15.789005314822846
7.358555729984302,-5.8499328554406,-33.64308411038179,-15.095165591723196
7.366554160125589,-5.840296192619773,-32.65050783983657,-14.401325868623623
7.374552590266877,-5.830659529798944,-31.65793156929124,-13.707486145523973
7.3825510204081635,-5.821022866978117,-30.665355298746018,-13.0136464224244
7.390549450549451,-5.811386204157288,-29.672779028200686,-12.31980669932475
7.398547880690739,-5.801749541336459,-28.68020275765535,-11.6259669762251
7.4065463108320255,-9.082040816326627,-18.526844583987256,-6.526656200941649
7.414544740973313,-5.378806907378319,-11.268707482993179,-2.249502878074299
7.4225431711146,-5.165515436944005,-11.037641723356005,-2.160631432060002
7.430541601255888,-4.952223966509667,-10.806575963718807,-2.0717599860456946
7.438540031397175,-4.738932496075329,-10.575510204081608,-1.9828885400313871
7.446538461538462,-4.525641025641016,-10.344444444444434,-1.8940170940170897
7.45453689167975,-4.312349555206678,-10.113378684807236,-1.8051456480027825
7.462535321821036,-4.0990580847723646,-9.882312925170062,-1.716274201988485
7.470533751962324,-3.8857666143380265,-9.651247165532862,-1.6274027559741775
7.478532182103612,-3.672475143903689,-9.420181405895663,-1.5385313099598703
7.4865306122448985,-3.459183673469375,-9.18911564625849,-1.449659863945573
7.494529042386186,-3.2458922030350372,-8.958049886621291,-1.3607884179312655
7.502527472527473,-5.701098901099495,-6.283516483516109,-1.5098901098897664
7.5105259026687605,-9.244225162592716,-3.255774837407284,-0.23386409508854
7.518524332810047,-9.381375767090042,0.3889681746824688,0.5444840873412344
7.526522762951335,-9.235949764521175,0.49803767660911846,0.5990188383045593
7.534521193092623,-9.090523761952308,0.6071071785357681,0.6535535892678841
7.542519623233909,-8.94509775938346,0.7161766804624057,0.7080883402312028
7.550518053375197,-8.799671756814593,0.8252461823890553,0.7626230911945278
7.558516483516484,-8.654245754245743,0.9343156843156928,0.8171578421578465
7.566514913657771,-8.508819751676876,1.0433851862423424,0.8716925931211713
7.574513343799059,-8.36339374910801,1.152454688168992,0.9262273440844961
7.582511773940346,-8.217967746539161,1.2615241900956298,0.9807620950478149
7.5905102040816335,-8.072541743970294,1.3705936920222794,1.0352968460111398
7.59850863422292,-7.927115741401444,1.479663193948917,1.0898315969744585
7.606507064364208,-2.795761381475434,2.8260596546311416,2.2535321821038052
7.6145054945054955,-2.4441080196399283,2.8760462941313976,2.5718611176058066
7.622503924646782,-2.384545241992048,2.850519389425163,2.64844183172451
7.63050235478807,-2.324982464344161,2.824992484718926,2.7250225458432222
7.638500784929357,-2.26541968669628,2.7994655800126913,2.801603259961926
7.646499215070644,-2.205856909048393,2.773938675306454,2.8781839740806374
7.654497645211931,-2.1462941314005124,2.7484117706002196,2.954764688199341
7.662496075353219,-2.0867313537526253,2.7228848658939824,3.031345402318053
7.670494505494506,-2.027168576104738,2.697357961187745,3.107926116436765
7.678492935635793,-1.9676057984568578,2.6718310564815106,3.1845068305554687
7.686491365777081,-1.9080430208089707,2.646304151775273,3.2610875446741807
7.694489795918368,-1.84848024316109,2.6207772470690385,3.337668258792884
7.702488226059655,-2.643328100471472,1.3598116169537178,5.582731554161457
7.710486656200943,-1.9805337519622839,-38.53403104831663,-0.5913483342054595
7.71848508634223,-1.660596546310813,-37.4497994069422,-0.44915402058258347
7.726483516483517,-1.3406593406593066,-36.36556776556765,-0.3069597069596917
7.734481946624804,-1.0207221350078355,-35.281336124193224,-0.16476539333681572
7.742480376766092,-0.7007849293563291,-34.19710448281867,-0.022571079713923914
7.750478806907379,-0.38084772370482245,-33.11287284144412,0.11962323390896779
7.758477237048666,-0.06091051805335157,-32.02864120006969,0.26181754753184383
7.766475667189954,0.25902668759815484,-30.944409558695142,0.40401186115473553
7.7744740973312405,0.5789638932496257,-29.860177917320712,0.5462061747776116
7.782472527472528,0.8989010989011321,-28.77594627594616,0.6884004884005034
7.790470957613816,1.218838304552639,-27.69171463457161,0.8305948020233952
7.798469387755103,1.5387755102041099,-26.60748299319718,0.972789115646271
7.80646781789639,3.3061802858795386,-16.842832355614263,-2.2891844997108066
7.814466248037677,3.33985788647443,-16.531314550111517,-2.230248698669747
7.822464678178965,3.3735354870693253,-16.21979674460874,-2.17131289762868
7.830463108320251,3.407213087664217,-15.908278939105994,-2.1123770965876205
7.838461538461539,3.440890688259112,-15.596761133603213,-2.0534412955465537
7.846459968602827,3.474568288854007,-15.285243328100433,-1.9945054945054874
7.8544583987441134,3.5082458894488986,-14.973725522597688,-1.9355696934644275
7.862456828885401,3.5419234900437937,-14.662207717094908,-1.876633892423361
7.870455259026688,3.5756010906386853,-14.350689911592163,-1.8176980913823013
7.8784536891679755,3.6092786912335804,-14.039172106089381,-1.7587622903412348
7.886452119309263,3.6429562918284755,-13.727654300586602,-1.6998264893001682
7.89445054945055,3.676633892423367,-13.416136495083858,-1.6408906882591083
7.902448979591838,2.577551020408126,-8.269387755100666,-1.8102040816325045
7.910447409733124,4.263017167164638,-1.0332759406492071,0.21112067655846548
7.918445839874412,4.409225029962369,-0.8784676153339623,0.2369220641110063
7.9264442700157,4.5554328927601,-0.7236592900187175,0.2627234516635471
7.934442700156986,4.701640755557816,-0.5688509647034898,0.28852483921608507
7.942441130298274,4.847848618355547,-0.4140426393882449,0.31432622676862587
7.950439560439561,4.994056481153262,-0.2592343140730172,0.3401276143211638
7.958437990580848,5.140264343950993,-0.10442598875777231,0.3659290018737046
7.966436420722135,5.286472206748709,0.05038233655745539,0.39173038942624255
7.974434850863423,5.432680069546439,0.2051906618727002,0.41753177697878335
7.9824332810047105,5.578887932344171,0.3599989871879452,0.4433331645313242
7.990431711145997,5.725095795141886,0.5148073125031729,0.4691345520838621
7.998430141287285,5.871303657939617,0.6696156378184177,0.4949359396364029
8.006428571428572,9.042857142856901,0.5857142857143365,-4.385714285714426
8.01442700156986,8.414898940345347,0.6381083202511623,-4.831519819466281
8.022425431711147,8.323250261643103,0.5714547357404393,-4.9731586865515665
8.030423861852434,8.23160158294086,0.5048011512297164,-5.114797553636853
8.03842229199372,8.139952904238616,0.4381475667189934,-5.256436420722139
8.046420722135009,8.048304225536352,0.37149398220825564,-5.3980752878074565
8.054419152276296,7.956655546834107,0.3048403976975327,-5.539714154892743
8.062417582417583,7.8650068681318634,0.2381868131868098,-5.68135302197803
8.070416012558871,7.773358189429599,0.171533228676072,-5.822991889063347
8.078414442700158,7.681709510727355,0.10487964416534912,-5.964630756148633
8.086412872841445,7.590060832025111,0.03822605965462611,-6.10626962323392
8.094411302982731,7.498412153322867,-0.028427524856096786,-6.247908490319206
8.10240973312402,7.406763474620603,-0.09508110936683456,-6.389547357404524
8.110408163265307,-7.375056689342336,-39.2,-27.54648526077083
8.118406593406593,-6.886263736263699,-39.2,-26.49780219780212
8.126405023547882,-6.397470783184955,-39.2,-25.449119134833175
8.134403453689169,-5.908677830106319,-39.2,-24.400436071864466
8.142401883830455,-5.419884877027682,-39.2,-23.351753008895756
8.150400313971744,-4.931091923948938,-39.2,-22.303069945926815
8.15839874411303,-4.442298970870302,-39.2,-21.2543868829581
8.166397174254318,-3.9535060177916654,-39.2,-20.20570381998939
8.174395604395604,-3.4647130647130293,-39.2,-19.157020757020682
8.182394034536893,-2.9759201116342844,-39.2,-18.10833769405174
8.19039246467818,-2.4871271585556487,-39.2,-17.059654631083028
8.198390894819466,-1.9983342054770121,-39.2,-16.010971568114318
8.206389324960755,-6.589324960754371,-12.190816326528978,-4.205337519622815
8.214387755102042,-6.924924012158049,-10.787798523664781,-3.679939209726439
8.222386185243328,-6.627110123918646,-10.55805638130867,-3.4416880991349172
8.230384615384615,-6.329296235679244,-10.32831423895256,-3.203436988543395
8.238383045525904,-6.031482347439775,-10.098572096596397,-2.96518587795182
8.24638147566719,-5.733668459200373,-9.868829954240288,-2.726934767360298
8.254379905808477,-5.43585457096097,-9.639087811884178,-2.4886836567687762
8.262378335949766,-5.138040682721502,-9.409345669528015,-2.2504325461772012
8.270376766091053,-4.840226794482099,-9.179603527171906,-2.012181435585679
8.27837519623234,-4.542412906242697,-8.949861384815796,-1.773930324994157
8.286373626373628,-4.244599018003228,-8.720119242459633,-1.5356792144025824
8.294372056514915,-3.9467851297638252,-8.490377100103522,-1.2974281038110602
8.302370486656201,-3.8370486656201157,-7.797488226059576,-0.5746467817895567
8.310368916797488,-8.808712715854924,-1.7359497645219006,4.852433281004867
8.318367346938777,-11.673654916512106,1.4098330241187942,3.9829313543598683
8.326365777080063,-11.891793920365378,1.6734176537748322,3.710257599543277
8.33436420722135,-12.10993292421865,1.93700228343087,3.437583844726686
8.342362637362639,-12.328071928071973,2.2005869130869664,3.164910089910034
8.350361067503925,-12.546210931925245,2.4641715427430047,2.8922363350934432
8.358359497645212,-12.764349935778519,2.727756172399043,2.619562580276852
8.366357927786499,-12.982488939631791,2.9913408020550807,2.346888825460261
8.374356357927788,-13.200627943485113,3.254925431711177,2.0742150706436093
8.382354788069074,-13.418766947338387,3.5185100613672153,1.8015413158270182
8.390353218210361,-13.63690595119166,3.7820946910232536,1.528867561010427
8.39835164835165,-13.855044955044981,4.0456793206793495,1.2561938061937754
8.406350078492936,-7.776864207221275,3.6768642072212745,0.9587519623234046
8.414348508634223,-6.718178963893316,2.7356043956044345,1.170455259026671
8.422346938775512,-5.7977760334903135,2.191548927263192,1.403558346415498
8.430345368916798,-5.746504045405142,1.9967153725395388,1.485593527351773
8.438343799058085,-5.69523205731997,1.8018818178158855,1.5676287082880482
8.446342229199372,-5.643960069234797,1.607048263092232,1.6496638892243234
8.45434065934066,-5.592688081149614,1.4122147083685355,1.7316990701606167
8.462339089481947,-5.541416093064442,1.2173811536448822,1.813734251096892
8.470337519623234,-5.4901441049792705,1.0225475989212287,1.895769432033167
8.478335949764523,-5.438872116894087,0.8277140441975321,1.9778046129694604
8.48633437990581,-5.3876001288089155,0.6328804894738786,2.0598397939057356
8.494332810047096,-5.336328140723744,0.4380469347502254,2.1418749748420107
8.502331240188385,-12.76923076924647,-10.491679748843861,1.95635792777475
8.510329670329671,-8.6892591279688,-38.98876285005309,9.22456575682375
8.518328100470958,-8.663457740416263,-38.48133556151984,8.80314309346563
8.526326530612245,-8.637656352863724,-37.9739082729866,8.38172043010751
8.534324960753533,-8.611854965311181,-37.466480984453234,7.960297766749298
8.54232339089482,-8.586053577758642,-36.95905369591999,7.538875103391177
8.550321821036107,-8.560252190206105,-36.45162640738674,7.117452440033057
8.558320251177395,-8.534450802653561,-35.94419911885338,6.696029776674845
8.566318681318682,-8.508649415101024,-35.43677183032014,6.2746071133167245
8.574317111459969,-8.482848027548487,-34.92934454178689,5.853184449958604
8.582315541601256,-8.457046639995948,-34.42191725325364,5.431761786600484
8.590313971742544,-8.431245252443405,-33.91448996472028,5.010339123242271
8.598312401883831,-8.405443864890866,-33.40706267618704,4.588916459884151
8.606310832025118,4.305290757874348,-7.004298740772907,-6.211904205217284
8.614309262166406,4.441434249640962,-7.114915327833282,-6.518227061692166
8.622307692307693,4.577577741407546,-7.225531914893631,-6.82454991816698
8.63030612244898,4.71372123317413,-7.336148501953981,-7.1308727746417935
8.638304552590268,4.849864724940744,-7.446765089014355,-7.437195631116675
8.646302982731555,4.9860082167073285,-7.557381676074705,-7.74351848759149
8.654301412872842,5.122151708473913,-7.667998263135054,-8.049841344066303
8.662299843014129,5.258295200240497,-7.778614850195404,-8.356164200541118
8.670298273155417,5.394438692007111,-7.889231437255778,-8.662487057016
8.678296703296704,5.530582183773695,-7.999848024316128,-8.968809913490814
8.68629513343799,5.666725675540279,-8.110464611376477,-9.275132769965628
8.69429356357928,5.802869167306893,-8.22108119843685,-9.58145562644051
8.702291993720566,13.397174254321662,-7.594819466244597,-7.770015698584352
8.710290423861853,11.400601779173218,1.503427524856096,-1.421166928309794
8.71828885400314,11.158982535321847,1.5117592229199364,-1.2295378728414657
8.726287284144428,10.917363291470423,1.5200909209837785,-1.0379088173730946
8.734285714285715,10.675744047619053,1.528422619047619,-0.8462797619047662
8.742284144427002,10.434124803767682,1.5367543171114593,-0.6546507064364376
8.75028257456829,10.192505559916258,1.5450860151753014,-0.4630216509680667
8.758281004709577,9.950886316064887,1.5534177132391418,-0.27139259549973827
8.766279434850864,9.709267072213516,1.5617494113029822,-0.07976354003140962
8.774277864992152,9.467647828362091,1.5700811093668245,0.11186551543696144
8.782276295133439,9.226028584510722,1.578412807430665,0.30349457090528986
8.790274725274726,8.98440934065935,1.5867445054945053,0.4951236263736183
8.798273155416013,8.74279009680798,1.5950762035583457,0.6867526818419467
8.806271585557301,7.527158555730091,1.5364207221349544,0.2191522762942255
8.814270015698588,8.811669283097858,1.2576661433804284,-0.09708267922553532
8.822268445839875,9.274479984301415,0.6064266091051856,1.1737244897959145
8.830266875981163,9.18449764521192,0.27649136577703376,1.4336734693877917
8.83826530612245,9.094515306122442,-0.05344387755104485,1.6936224489796112
8.846263736263737,9.004532967032967,-0.3833791208791235,1.9535714285714305
8.854262166405023,8.914550627943491,-0.7133143642072022,2.2135204081632502
8.862260596546312,8.824568288853994,-1.043249607535354,2.4734693877551273
8.870259026687599,8.734585949764519,-1.3731848508634326,2.733418367346947
8.878257456828885,8.644603610675043,-1.703120094191511,2.9933673469387667
8.886255886970174,8.554621271585546,-2.033055337519663,3.2533163265306437
8.89425431711146,8.46463893249607,-2.3629905808477414,3.513265306122463
8.902252747252748,5.567032967030929,-37.10769230769427,14.1197802197597
8.910251177394036,-2.0370739859218836,-28.646180854475716,-8.685282152563342
8.918249607535323,-1.882265660606656,-28.26776050370516,-9.141106665991513
8.92624803767661,-1.7274573352914282,-27.8893401529346,-9.596931179419684
8.934246467817896,-1.5726490099762005,-27.510919802164047,-10.052755692847855
8.942244897959185,-1.4178406846609384,-27.132499451393404,-10.508580206276125
8.950243328100472,-1.2630323593457107,-26.75407910062285,-10.964404719704296
8.958241758241758,-1.108224034030483,-26.375658749852292,-11.420229233132467
8.966240188383047,-0.9534157087152209,-25.997238399081652,-11.87605374656074
8.974238618524334,-0.7986073833999932,-25.618818048311095,-12.331878259988908
8.98223704866562,-0.6437990580847655,-25.240397697540537,-12.78770277341708
8.990235478806907,-0.488990732769538,-24.86197734676998,-13.24352728684525
8.998233908948196,-0.33418240745427585,-24.48355699599934,-13.699351800273522
9.006232339089483,0.5424646781801439,-4.980769230768097,-2.5141287284140725
9.01423076923077,2.463846153846152,-2.948153846153838,-2.0373846153846227
9.022229199372058,2.423854003139709,-2.780186813186778,-2.1893547880691053
9.030227629513345,2.383861852433275,-2.6122197802197555,-2.3413249607535542
9.038226059654631,2.3438697017268413,-2.444252747252733,-2.4932951334380036
9.04622448979592,2.303877551020398,-2.276285714285673,-2.6452653061224862
9.054222919937207,2.2638854003139643,-2.1083186813186505,-2.797235478806935
9.062221350078493,2.2238932496075305,-1.9403516483516279,-2.9492056514913845
9.07021978021978,2.1839010989010967,-1.7723846153846055,-3.101175824175833
9.078218210361069,2.1439089481946536,-1.6044175824175455,-3.253145996860316
9.086216640502355,2.10391679748822,-1.4364505494505229,-3.405116169544765
9.094215070643642,2.0639246467817856,-1.2684835164835004,-3.557086342229214
9.10221350078493,2.023932496075343,-1.1005164835164405,-3.709056514913697
9.110211930926218,-0.4390894819473834,0.48178963893256715,-5.093720565149682
9.118210361067504,-16.055012334603383,7.240457501682897,-5.643686925319088
9.126208791208793,-14.397321428571312,8.714629120879088,-4.179120879120642
9.13420722135008,-14.007397959183583,8.604650706436397,-3.379277864991966
9.142205651491366,-13.617474489795853,8.494672291993703,-2.579434850863291
9.150204081632653,-13.227551020408125,8.38469387755101,-1.7795918367346157
9.158202511773942,-12.83762755102031,8.274715463108294,-0.9797488226057625
9.166200941915228,-12.44770408163258,8.1647370486656,-0.17990580847708681
9.174199372056515,-12.057780612244851,8.054758634222907,0.6199372056515884
9.182197802197804,-11.667857142857036,7.944780219780189,1.4197802197804412
9.19019623233909,-11.277933673469306,7.834801805337497,2.2196232339091164
9.198194662480377,-10.888010204081578,7.724823390894803,3.0194662480377916
9.206193092621664,-13.56988487702773,3.8573957788243716,-0.6562445491016797
9.214191522762953,-13.703192046049201,3.0131170416883912,-1.1450375021804051
9.22218995290424,-11.18100470957605,0.9072213500743512,4.38100470957605
9.230188383045526,-11.208503895026798,-4.4190545303751785,2.7809454696248213
9.238186813186815,-11.329234916027382,-6.109288824383352,1.0907111756166472
9.246185243328101,-11.449965937027939,-7.799523118391152,-0.5995231183911516
9.254183673469388,-11.570696958028497,-9.48975741239895,-2.2897574123989495
9.262182103610677,-11.691427979029081,-11.179991706407124,-3.979991706407124
9.270180533751963,-11.812159000029638,-12.870226000414922,-5.670226000414922
9.27817896389325,-12.956043956043615,-34.68351648351651,-20.098901098900935
9.286177394034537,-1.6773940345365617,-36.147925543843904,-11.830186140390245
9.294175824175825,-1.450196592398402,-25.155207178142785,-7.8229861881238145
9.302174254317112,-1.3548024714472755,-24.49478634078883,-7.867014243947411
9.310172684458399,-1.259408350496149,-23.834365503434878,-7.911042299771008
9.318171114599687,-1.1640142295450011,-23.17394466608078,-7.955070355594615
9.326169544740974,-1.0686201085938747,-22.513523828726825,-7.9990984114182115
9.334167974882261,-0.9732259876427481,-21.85310299137287,-8.043126467241809
9.342166405023548,-0.8778318666916217,-21.192682154018918,-8.087154523065406
9.350164835164836,-0.782437745740474,-20.53226131666482,-8.131182578889012
9.358163265306123,-0.6870436247893474,-19.87184047931087,-8.17521063471261
9.36616169544741,-0.5916495038382209,-19.211419641956915,-8.219238690536207
9.374160125588698,-0.49625538288707327,-18.550998804602816,-8.263266746359813
9.382158555729985,-0.4008612619359466,-17.890577967248863,-8.30729480218341
9.390156985871272,-0.3054671409848202,-17.23015712989491,-8.351322858007006
9.39815541601256,-0.21007302003367245,-16.56973629254081,-8.395350913830613
9.406153846153847,2.245054945054954,-9.525981161695432,-6.925981161695433
9.414152276295134,2.359318232787623,-9.338262903277476,-6.738262903277477
9.42215070643642,2.4735815205202925,-9.15054464485952,-6.55054464485952
9.43014913657771,2.587844808252987,-8.962826386441522,-6.3628263864415215
9.438147566718996,2.702108095985656,-8.775108128023565,-6.175108128023565
9.446145996860283,2.8163713837183253,-8.587389869605609,-5.987389869605609
9.454144427001571,2.9306346714510196,-8.39967161118761,-5.799671611187611
9.462142857142858,3.044897959183689,-8.211953352769653,-5.611953352769654
9.470141287284145,3.159161246916358,-8.024235094351697,-5.4242350943516975
9.478139717425432,3.2734245346490276,-7.8365168359337405,-5.236516835933741
9.48613814756672,3.387687822381722,-7.648798577515742,-5.0487985775157425
9.494136577708007,3.5019511101143914,-7.4610803190977855,-4.861080319097786
9.502135007849294,4.167503924646916,-5.767739403453326,-3.1109890109886345
9.510133437990582,4.8266875981164965,-2.55321821035927,-1.6400313971747447
9.518131868131869,7.007995452823049,1.2395983327017843,-1.0640015157256506
9.526130298273156,7.283803388729489,1.3407279092008126,-0.9720655370901704
9.534128728414444,7.559611324635991,1.4418574856998634,-0.8801295584546698
9.542127158555731,7.835419260542432,1.5429870621988917,-0.7881935798191895
9.550125588697018,8.111227196448873,1.6441166386979198,-0.6962576011837092
9.558124018838305,8.387035132355313,1.7452462151969481,-0.6043216225482289
9.566122448979593,8.662843068261816,1.846375791695999,-0.5123856439127282
9.57412087912088,8.938651004168257,1.9475053681950274,-0.4204496652772479
9.582119309262167,9.214458940074698,2.0486349446940557,-0.3285136866417677
9.590117739403455,9.4902668759812,2.1497645211931062,-0.23657770800626698
9.598116169544742,9.766074811887641,2.2508940976921346,-0.14464172937078668
9.606114599686029,11.732785259852935,3.3983557795588064,-0.5983557795588066
9.614113029827315,11.816979261340164,3.650937784020492,-0.8509377840204921
9.622111459968604,11.799686028256374,3.849843014128187,-1.1278649921510073
9.63010989010989,7.367244294167367,3.1393068469991596,-1.7737954353338936
9.638108320251177,7.3159723060821955,3.200833232701366,-1.732777844865756
9.646106750392466,7.264700317997012,3.262359618403586,-1.6917602543976094
9.654105180533753,7.2134283299118405,3.3238860041057925,-1.6507426639294718
9.66210361067504,7.162156341826668,3.385412389807999,-1.6097250734613342
9.670102040816328,7.1108843537414845,3.4469387755102185,-1.5687074829931875
9.678100470957615,7.059612365656313,3.508465161212425,-1.52768989252505
9.686098901098902,7.008340377571141,3.5699915469146313,-1.4866723020569124
9.694097331240188,6.957068389485969,3.6315179326168376,-1.4456547115887748
9.702095761381477,6.905796401400786,3.6930443183190578,-1.4046371211206283
9.710094191522764,11.469513343791434,-39.11623233908944,-13.37255886970581
9.71809262166405,0.5415643180348636,-39.14542432357558,-17.24002216271124
9.726091051805339,-0.644085326438484,-39.00427555637637,-17.34353125865733
9.734089481946626,-1.8297349709115687,-38.863126789177194,-17.44704035460339
9.742087912087912,-3.0153846153846526,-38.72197802197802,-17.550549450549454
9.750086342229201,-4.201034259858001,-38.58082925477881,-17.65405854649554
9.758084772370488,-5.386683904331085,-38.439680487579636,-17.757567642441604
9.766083202511775,-6.57233354880417,-38.29853172038046,-17.861076738387666
9.774081632653061,-7.757983193277253,-38.15738295318128,-17.96458583433373
9.78208006279435,-8.943632837750602,-38.01623418598207,-18.068094930279816
9.790078492935637,-10.129282482223685,-37.875085418782895,-18.17160402622588
9.798076923076923,-11.31493212669677,-37.73393665158372,-18.27511312217194
9.806075353218212,-1.9150706436424443,-7.770441803093428,-2.5313074680415237
9.814073783359499,-3.151844583987481,-3.157581704010243,-0.44344227201365716
9.822072213500785,-3.351805337519648,-2.9939774511202883,-0.22530326816038432
9.830070643642072,-3.5517660910518147,-2.8303731982303337,-0.007164264307111423
9.83806907378336,-3.751726844584026,-2.6667689453403427,0.21097473954620993
9.846067503924647,-3.9516875981161927,-2.503164692450388,0.4291137433994828
9.854065934065934,-4.15164835164836,-2.339560439560433,0.6472527472527556
9.862064364207223,-4.351609105180571,-2.175956186670442,0.8653917511060771
9.87006279434851,-4.551569858712737,-2.0123519337804874,1.0835307549593498
9.878061224489796,-4.751530612244904,-1.8487476808905328,1.3016697588126227
9.886059654631085,-4.951491365777116,-1.6851434280005417,1.519808762665944
9.894058084772372,-5.151452119309282,-1.5215391751105871,1.7379477665192171
9.902056514913658,-9.411067503925851,0.1658555729992961,2.075431711146187
9.910054945054945,-11.333928571428615,9.605769230769278,3.069093406593434
9.918053375196234,-10.61184807256228,8.828144078143994,2.613627245770054
9.92605180533752,-9.889767573696107,8.050518925518883,2.1581610849467747
9.934050235478807,-9.167687074829932,7.272893772893773,1.7026949241234957
9.942048665620096,-8.445606575963598,6.49526862026849,1.2472287633001153
9.950047095761382,-7.723526077097423,5.717643467643379,0.7917626024768363
9.95804552590267,-7.001445578231249,4.940018315018269,0.3362964416535572
9.966043956043956,-6.279365079365076,4.162393162393157,-0.11916971916972185
9.974042386185245,-5.557284580498741,3.384768009767874,-0.5746358799931017
9.982040816326531,-5.110204081632636,3.9877551020410023,-0.9346938775510458
9.990039246467818,-4.4607535321821805,0.06860282574574425,-0.7882260596546541
9.998037676609107,-2.414561180059825,-1.6936613251977304,-0.18860815734130998
10.006036106750393,-2.3013758478718045,-1.9502147448239098,-0.1735167797162406
10.01403453689168,-2.188190515683784,-2.2067681644500894,-0.15842540209117123
10.022032967032969,-2.0750051834957386,-2.4633215840763256,-0.1433340244660985
10.030031397174255,-1.9618198513077183,-2.719875003702505,-0.12824264684102912
10.038029827315542,-1.848634519119698,-2.9764284233286844,-0.11315126921595973
10.046028257456829,-1.7354491869316777,-3.232981842954864,-0.09805989159089036
10.054026687598117,-1.622263854743632,-3.4895352625811,-0.08296851396581763
10.062025117739404,-1.5090785225556118,-3.74608868220728,-0.06787713634074824
10.070023547880691,-1.3958931903675915,-4.002642101833459,-0.052785758715678865
10.07802197802198,-1.282707858179546,-4.259195521459695,-0.03769438109060613
10.086020408163266,-1.1695225259915256,-4.515748941085875,-0.02260300346553676
10.094018838304553,-1.0563371938035053,-4.772302360712055,-0.007511625840467384
10.10201726844584,-3.621437292866129,-34.87223094365939,-8.413814756671592
10.110015698587128,3.0563050303734194,-32.260721111187024,-4.823184424271408
10.118014128728415,3.4996962664664872,-32.73888813050308,-5.0057572861920825
10.126012558869702,3.943087502559555,-33.21705514981913,-5.188330148112758
10.13401098901099,4.3864787386527215,-33.69522216913529,-5.370903010033474
10.142009419152277,4.829869974745789,-34.173389188451345,-5.553475871954149
10.150007849293564,5.273261210838857,-34.6515562077674,-5.736048733874823
10.158006279434852,5.716652446932024,-35.12972322708356,-5.918621595795539
10.16600470957614,6.160043683025091,-35.60789024639961,-6.101194457716215
10.174003139717426,6.603434919118159,-36.08605726571567,-6.2837673196368895
10.182001569858713,7.046826155211227,-36.56422428503172,-6.466340181557564
10.190000000000001,7.490217391304394,-37.04239130434788,-6.64891304347828
10.197998430141288,7.9336086273974615,-37.520558323663934,-6.831485905398955
10.205996860282575,3.7021978021973028,-12.10879120878921,-3.4004709576137078
10.213995290423863,3.427446650680569,-3.1572774164610387,-2.8725533493194306
10.22199372056515,3.4713940690392873,-2.928750840995705,-2.8286059309607126
10.229992150706437,3.5153414873980053,-2.700224265530372,-2.7846585126019945
10.237990580847725,3.559288905756733,-2.471697690064988,-2.7407110942432666
10.245989010989012,3.603236324115451,-2.2431711145996545,-2.696763675884549
10.253987441130299,3.647183742474169,-2.0146445391343213,-2.652816257525831
10.261985871271586,3.691131160832887,-1.7861179636689881,-2.608868839167113
10.269984301412874,3.7350785791916143,-1.557591388203604,-2.5649214208083855
10.277982731554161,3.7790259975503324,-1.3290648127382707,-2.5209740024496674
10.285981161695448,3.8229734159090505,-1.1005382372729375,-2.4770265840909493
10.293979591836736,3.8669208342677783,-0.8720116618075533,-2.4330791657322215
10.301978021978023,6.798351648353001,2.77142857142932,-3.1620879120875953
10.30997645211931,10.50270383112325,0.9069340993352841,-6.552289655633172
10.317974882260597,10.30699756170879,0.7197367981562347,-6.85861251210798
10.325973312401885,10.111291292294286,0.5325394969771436,-7.1649353685828565
10.333971742543172,9.915585022879826,0.3453421957980942,-7.471258225057665
10.341970172684459,9.719878753465364,0.15814489461904468,-7.777581081532473
10.349968602825747,9.524172484050862,-0.029052406560046373,-8.08390393800735
10.357967032967034,9.3284662146364,-0.2162497077390959,-8.390226794482157
10.36596546310832,9.13275994522194,-0.4034470089181452,-8.696549650956966
10.37396389324961,8.937053675807435,-0.5906443100972363,-9.002872507431842
10.381962323390896,8.741347406392975,-0.7778416112762858,-9.30919536390665
10.389960753532183,8.545641136978514,-0.9650389124553354,-9.615518220381459
10.39795918367347,8.349934867564054,-1.1522362136343847,-9.921841076856266
10.405957613814758,14.052119309262126,-2.7365777080065268,-18.029513343799437
10.413956043956045,12.923607852821304,-16.38384985800749,-26.435103099148225
10.421954474097332,12.716906849170075,-18.504781895472284,-27.61240011994436
10.42995290423862,12.510205845518797,-20.62571393293755,-28.78969714074076
10.437951334379907,12.303504841867568,-22.746645970402344,-29.966994161536896
10.445949764521194,12.096803838216339,-24.867578007867138,-31.14429118233303
10.45394819466248,11.890102834565107,-26.98851004533193,-32.32158820312917
10.461946624803769,11.683401830913832,-29.109442082797198,-33.49888522392556
10.469945054945056,11.476700827262603,-31.230374120261992,-34.6761822447217
10.477943485086342,11.269999823611371,-33.35130615772679,-35.853479265517834
10.485941915227631,11.063298819960096,-35.47223819519205,-37.030776286314236
10.493940345368918,10.856597816308867,-37.593170232656846,-38.20807330711037
10.501938775510204,-8.734693877552782,-38.96530612244882,-29.54897959183142
10.509937205651493,-8.603578637106297,-12.607157274212597,-6.271438182808398
10.51793563579278,-8.407698715278864,-12.21539743055773,-6.010264953705153
10.525934065934067,-8.211818793451432,-11.823637586902864,-5.749091724601909
10.533932496075353,-8.015938871623998,-11.431877743247998,-5.487918495498666
10.541930926216642,-7.820058949796522,-11.040117899593046,-5.226745266395364
10.549929356357929,-7.624179027969089,-10.648358055938179,-4.9655720372921195
10.557927786499215,-7.428299106141656,-10.256598212283315,-4.704398808188876
10.565926216640504,-7.23241918431418,-9.86483836862836,-4.443225579085574
10.57392464678179,-7.036539262486746,-9.473078524973495,-4.18205234998233
10.581923076923077,-6.840659340659314,-9.08131868131863,-3.920879120879086
10.589921507064364,-6.644779418831881,-8.689558837663764,-3.6597058917758423
10.597919937205653,-6.448899497004405,-8.297798994008811,-3.3985326626725403
10.60591836734694,-5.532653061224142,-4.834693877549585,-2.2408163265301773
10.613916797488226,-8.300563721992308,2.290056372199231,-2.293370914799487
10.621915227629515,-8.027889967175652,2.262788996717565,-2.2751926644783764
10.629913657770802,-7.755216212359055,2.2355216212359053,-2.25701441415727
10.637912087912088,-7.482542457542458,2.2082542457542456,-2.238836163836164
10.645910518053377,-7.209868702725801,2.18098687027258,-2.2206579135150535
10.653908948194664,-6.937194947909204,2.1537194947909204,-2.2024796631939467
10.66190737833595,-6.664521193092607,2.1264521193092607,-2.1843014128728404
10.669905808477237,-6.391847438276011,2.099184743827601,-2.166123162551734
10.677904238618526,-6.119173683459354,2.071917368345935,-2.147944912230624
10.685902668759812,-5.846499928642757,2.044649992864276,-2.129766661909517
10.6939010989011,-5.573826173826161,2.017382617382616,-2.1115884115884107
10.701899529042388,-5.317990580847748,2.235981161695496,-1.1899529042387396
10.709897959183674,-3.2956043956043044,2.270800627943472,-0.714599686028264
10.717896389324961,-2.4342349957734157,2.1477478565390595,-0.7761260717304703
10.725894819466248,-2.0623475425673234,2.0435213138509853,-0.8251016382884511
10.733893249607537,-2.0008211568651033,1.9512317352976551,-0.8661192287565977
10.741891679748823,-1.9392947711628972,1.8589421567443456,-0.9071368192247353
10.74989010989011,-1.8777683854606908,1.766652578191036,-0.9481544096928729
10.757888540031399,-1.816241999758471,1.674362999637706,-0.9891720001610195
10.765886970172685,-1.7547156140562645,1.5820734210843965,-1.030189590629157
10.773885400313972,-1.6931892283540582,1.4897838425310872,-1.0712071810972945
10.78188383045526,-1.631662842651838,1.397494263977757,-1.1122247715654412
10.789882260596547,-1.5701364569496317,1.3052046854244477,-1.1532423620335788
10.797880690737834,-1.5086100712474255,1.2129151068711381,-1.1942599525017163
10.805879120879121,1.1824175824179193,-8.699999999999172,1.9417582417587882
10.81387755102041,-0.909940750493843,-14.10410357691491,-0.89901250822918
10.821875981161696,-1.7355851521750574,-16.434828919160836,-1.5956499721477044
10.829874411302983,-2.561229553856272,-18.765554261406766,-2.292287436066229
10.837872841444272,-3.38687395553767,-21.096279603653212,-2.988924899984908
10.845871271585558,-4.212518357218884,-23.42700494589914,-3.6855623639034327
10.853869701726845,-5.038162758900099,-25.75773028814507,-4.382199827821957
10.861868131868134,-5.863807160581496,-28.088455630391515,-5.078837291740636
10.86986656200942,-6.689451562262711,-30.41918097263744,-5.775474755659161
10.877864992150707,-7.515095963943925,-32.74990631488337,-6.472112219577686
10.885863422291994,-8.34074036562514,-35.080631657129295,-7.16874968349621
10.893861852433282,-9.166384767306537,-37.41135699937574,-7.865387147414889
10.90186028257457,-8.650455259025517,-35.63984301412955,-3.769984301414177
10.909858712715856,3.215266003837427,-22.00095412523984,-3.767559741845468
10.917857142857144,3.357460317460334,-22.00984126984127,-3.4653968253967897
10.925855572998431,3.49965463108321,-22.018728414442702,-3.163233908948178
10.933854003139718,3.641848944706086,-22.02761555904413,-2.8610709924995668
10.941852433281005,3.7840432583289623,-22.03650270364556,-2.5589080760509555
10.949850863422293,3.92623757195187,-22.04538984824699,-2.2567451596022767
10.95784929356358,4.068431885574745,-22.054276992848422,-1.9545822431536655
10.965847723704867,4.2106261991976215,-22.063164137449853,-1.6524193267050542
10.973846153846155,4.3528205128205295,-22.072051282051284,-1.3502564102563754
10.981844583987442,4.4950148264434056,-22.080938426652715,-1.0480934938077642
10.989843014128729,4.637209140066281,-22.089825571254146,-0.7459305773591525
10.997841444270017,4.779403453689189,-22.098712715855577,-0.44376766091047415
11.005839874411304,4.6373626373624095,-7.586106750391635,2.8946624803767986
11.013838304552591,2.869811087788609,-0.5404300354540763,0.5051205616213427
11.021836734693878,2.8069020866773653,-0.2079110295803585,0.3074065581288618
11.029835164835166,2.743993085566107,0.12460797629343312,0.10969255463633709
11.037833594976453,2.6810840844548633,0.45712698216715086,-0.08802144885614371
11.04583202511774,2.6181750833436195,0.7896459880408686,-0.28573545234862463
11.053830455259028,2.555266082232362,1.1221649939146603,-0.4834494558411494
11.061828885400315,2.492357081121118,1.4546839997883778,-0.6811634593336301
11.069827315541602,2.429448080009874,1.7872030056620958,-0.878877462826111
11.077825745682889,2.3665390788986302,2.1197220115358135,-1.0765914663185918
11.085824175824177,2.303630077787372,2.452241017409605,-1.2743054698111167
11.093822605965464,2.2407210766761283,2.784760023283323,-1.4720194733035972
11.10182103610675,1.307378335949768,11.634693877551005,-0.9416012558869773
11.10981946624804,1.8996364537718937,11.564983888292081,0.6992729075437876
11.117817896389326,2.6152854664133356,11.017722878625097,2.1305709328266715
11.125816326530613,3.082898475846038,10.476879359338668,2.3829759752002015
11.133814756671901,3.3866363293126955,9.94027581821424,1.8564970291913279
11.141813186813188,3.6903741827792857,9.403672277089928,1.3300180831825714
11.149811616954475,3.994112036245876,8.867068735965619,0.803539137173815
11.157810047095762,4.297849889712467,8.33046519484131,0.27706019116505853
11.16580847723705,4.601587743179124,7.793861653716881,-0.24941875484381493
11.173806907378337,4.9053255966457145,7.257258112592572,-0.7758977008525716
11.181805337519624,5.209063450112305,6.720654571468262,-1.3023766468613278
11.189803767660912,5.5128013035789625,6.1840510303438325,-1.8288555928702017
11.197802197802199,5.816539157045553,5.647447489219523,-2.3553345388789584
11.205800627943486,14.62543171114783,-5.024332810048558,-8.859026687597787
11.213799058084772,22.07249111790471,-39.2,-15.854047756754511
11.221797488226061,19.689800875815614,-39.2,-16.342372965380545
11.229795918367348,17.30711063372705,-39.2,-16.83069817400647
11.237794348508634,14.924420391638483,-39.2,-17.319023382632395
11.245792778649923,12.541730149549387,-39.2,-17.80734859125843
11.25379120879121,10.15903990746082,-39.2,-18.295673799884355
11.261789638932497,7.776349665372255,-39.2,-18.783999008510282
11.269788069073785,5.393659423283157,-39.2,-19.272324217136315
11.277786499215072,3.010969181194593,-39.2,-19.76064942576224
11.285784929356359,0.6282789391060248,-39.2,-20.248974634388166
11.293783359497645,-1.7544113029825432,-39.2,-20.737299843014092
11.301781789638934,-4.137101545071637,-39.2,-21.225625051640122
11.30978021978022,4.86358974358967,-15.771391941391885,-3.7017338217338254
11.317778649921507,4.490329670329621,-15.478116169544702,-3.719508110936685
11.325777080062796,4.117069597069489,-15.184840397697455,-3.737282400139548
11.333775510204083,3.743809523809439,-14.891564625850274,-3.7550566893424078
11.34177394034537,3.3705494505493894,-14.598288854003092,-3.7728309785452674
11.349772370486656,2.99728937728934,-14.30501308215591,-3.7906052677481266
11.357770800627945,2.6240293040292078,-14.011737310308664,-3.80837955695099
11.365769230769232,2.2507692307691585,-13.718461538461481,-3.82615384615385
11.373767660910518,1.8775091575091087,-13.4251857666143,-3.843928135356709
11.381766091051807,1.5042490842489764,-13.131909994767053,-3.8617024245595726
11.389764521193094,1.1309890109889271,-12.838634222919872,-3.879476713762432
11.39776295133438,0.7577289377288778,-12.545358451072689,-3.8972510029652914
11.405761381475669,-1.5215967705767393,-8.636353442475237,-1.581812065485142
11.413759811616956,-12.556424027100695,-1.8750822110219905,-2.8837974056018516
11.421758241758242,-12.430133024869852,-1.513048004626908,-2.5470213996529374
11.42975667189953,-12.303842022639008,-1.1510137982318254,-2.2102453937040236
11.437755102040818,-12.177551020408139,-0.7889795918366624,-1.8734693877550348
11.445753532182104,-12.051260018177295,-0.4269453854415799,-1.5366933818061208
11.453751962323391,-11.924969015946452,-0.06491117904649735,-1.1999173758572068
11.46175039246468,-11.798678013715582,0.2971230273486656,-0.863141369908218
11.469748822605967,-11.672387011484739,0.6591572337437479,-0.5263653639593042
11.477747252747253,-11.546096009253896,1.0211914401388307,-0.18958935801039
11.485745682888542,-11.419805007023026,1.3832256465339934,0.1471866479385988
11.493744113029829,-11.293514004792183,1.7452598529290761,0.4839626538875126
11.501742543171115,-11.16722300256134,2.1072940593241585,0.8207386598364268
11.509740973312402,-9.325902668759761,-0.322291993720717,-0.01295133437988051
11.51773940345369,-9.343807944077495,-0.28317881579334764,-0.11682118420665238
11.525737833594977,-9.389082076952702,-0.16244779479279464,-0.23755220520720538
11.533736263736264,-9.434356209827909,-0.041716773792241646,-0.3582832262077584
11.541734693877553,-9.479630342703127,0.07901424720833822,-0.47901424720833824
11.54973312401884,-9.524904475578333,0.19974526820889116,-0.5997452682088912
11.557731554160126,-9.570178608453542,0.32047628920944427,-0.7204762892094443
11.565729984301413,-9.990173288250203,-0.41544197560682294,-1.1943847361429734
11.573728414442702,-9.882502113271322,-0.5846395362879222,-1.1328583504407557
11.581726844583988,-9.774830938292466,-0.7538370969689838,-1.0713319647385513
11.589725274725275,-9.667159763313608,-0.9230346576500454,-1.0098055790363472
11.597723704866564,-9.559488588334727,-1.0922322183311446,-0.9482791933341292
11.60572213500785,-9.451817413355869,-1.2614297790122062,-0.8867528076319251
11.613720565149137,-9.344146238377013,-1.430627339693268,-0.825226421929721
11.621718995290426,-7.884301412872295,-0.5562009419148636,0.049419152276622746
11.629717425431712,-17.54002520036369,-5.6121147649345895,1.8602061472361224
11.637715855573,-19.42386598364047,-9.17983557795598,0.5657233743699541
11.645714285714286,-21.307706766917253,-12.74755639097737,-0.7287593984962144
11.653712715855574,-23.191547550194453,-16.315277203999553,-2.0232421713626705
11.661711145996861,-25.075388333471235,-19.882998017020945,-3.3177249442288383
11.669709576138148,-26.959229116748016,-23.450718830042334,-4.612207717095007
11.677708006279437,-28.843069900025213,-27.018439643064518,-5.906690489961464
11.685706436420723,-30.726910683302,-30.586160456085906,-7.2011732628276315
11.69370486656201,-32.610751466578776,-34.1538812691073,-8.495656035693798
11.701703296703297,-34.49459224985556,-37.72160208212869,-9.790138808559966
11.709701726844585,-2.2505950270926895,-36.80055029455938,-4.989021117131709
11.717700156985872,-2.0183825391198478,-35.8630998801505,-4.937418342026633
11.725698587127159,-1.7861700511470064,-34.92564946574162,-4.885815566921557
11.733697017268447,-1.5539575631741132,-33.98819905133253,-4.83421279181647
11.741695447409734,-1.3217450752012718,-33.05074863692365,-4.782610016711394
11.749693877551021,-1.0895325872284303,-32.11329822251477,-4.731007241606318
11.75769230769231,-0.8573200992555372,-31.175847808105686,-4.67940446650123
11.765690737833596,-0.6251076112826957,-30.238397393696808,-4.627801691396154
11.773689167974883,-0.3928951233098543,-29.30094697928793,-4.576198916291079
11.78168759811617,-0.16068263533701277,-28.36349656487905,-4.524596141186003
11.789686028257458,0.07152985263588052,-27.426046150469965,-4.472993366080916
11.797684458398745,0.30374234060872185,-26.488595736061086,-4.4213905909758395
11.805682888540032,6.9572998430146,-5.281789638930242,-4.3841444270016225
11.81368131868132,6.486450911725926,7.871645936481482,-11.506146600651851
11.821679748822607,7.488452050304696,9.19006848724302,-10.662356168164468
11.829678178963894,8.490453188883464,10.508491038004559,-9.818565735677083
11.83767660910518,9.492454327462234,11.826913588766097,-8.974775303189698
11.84567503924647,10.494455466041225,13.145336139527927,-8.130984870702125
11.853673469387756,11.496456604619995,14.463758690289467,-7.287194438214741
11.861671899529043,12.498457743198763,15.782181241051005,-6.443404005727357
11.869670329670331,13.500458881777757,17.100603791812837,-5.599613573239785
11.877668759811618,14.502460020356525,18.419026342574377,-4.755823140752401
11.885667189952905,15.504461158935294,19.737448893335912,-3.9120327082650164
11.893665620094193,16.506462297514286,21.055871444097743,-3.068242275777445
11.90166405023548,12.4742543171063,17.107849293558242,0.7616954474131137
11.909662480376767,6.902511773939654,9.544322344321358,3.2730507587653257
11.917660910518054,6.7660910518053345,8.278892536035393,-0.2754388468673987
11.925659340659342,5.133516483516449,6.744013880855958,-0.4874783111625664
11.933657770800629,4.933555729984282,6.5756258778815,-0.7505845658101554
11.941656200941916,4.733594976452114,6.407237874907043,-1.0136908204577444
11.949654631083204,4.533634222919902,6.238849871932549,-1.2767970751053919
11.957653061224491,4.333673469387734,6.070461868958092,-1.5399033297529812
11.965651491365778,4.133712715855567,5.902073865983636,-1.80300958440057
11.973649921507064,3.9337519623233987,5.733685863009178,-2.066115839048159
11.981648351648353,3.733791208791187,5.5652978600346845,-2.3292220936958064
11.98964678178964,3.533830455259019,5.396909857060227,-2.592328348343395
11.997645211930926,3.3338697017268517,5.22852185408577,-2.8554346029909845
12.005643642072215,7.334335505764002,-39.17919540776681,-2.721454735740475
12.013642072213502,6.518334046905441,-38.920660292088854,-2.9880690737833713
12.021640502354789,5.702332588046879,-38.662125176410896,-3.2546834118262673
12.029638932496077,4.886331129188136,-38.403590060732874,-3.521297749869223
12.037637362637364,4.070329670329574,-38.145054945054916,-3.7879120879121193
12.04563579277865,3.2543282114710133,-37.88651982937696,-4.054526425955015
12.053634222919937,2.4383267526124524,-37.62798471369899,-4.321140763997912
12.061632653061226,1.6223252937537094,-37.36944959802098,-4.587755102040867
12.069631083202513,0.8063238348951476,-37.11091448234302,-4.854369440083763
12.0776295133438,-0.009677623963413318,-36.85237936666506,-5.12098377812666
12.085627943485088,-0.8256790828221554,-36.59384425098704,-5.387598116169615
12.093626373626375,-1.6416805416807172,-36.33530913530908,-5.654212454212511
12.101624803767661,-2.457682000539279,-36.07677401963112,-5.920826792255408
12.10962323390895,-9.139089481944666,-14.820094191513398,-2.823076923071587
12.117621664050237,-7.051120001350449,-9.627983997569194,-0.5241792002160717
12.125620094191524,-7.266131564288265,-9.240963184281124,-0.5585810502861224
12.13361852433281,-7.4811431272260815,-8.853942370993055,-0.592982900356173
12.141616954474099,-7.6961546901639455,-8.4669215577049,-0.6273847504262311
12.149615384615386,-7.9111662531017615,-8.07990074441683,-0.6617866004962818
12.157613814756672,-8.126177816039577,-7.692879931128761,-0.6961884505663324
12.165612244897961,-8.341189378977441,-7.3058591178406065,-0.7305903006363905
12.173610675039248,-8.556200941915257,-6.918838304552537,-0.7649921507064412
12.181609105180534,-8.771212504853073,-6.5318174912644675,-0.7993940007764917
12.189607535321821,-8.98622406779089,-6.144796677976398,-0.8337958508465424
12.19760596546311,-9.201235630728753,-5.757775864688243,-0.8681977009166006
12.205604395604396,-10.306593406595105,-0.8670329670244765,-2.350549450552168
12.213602825745683,-11.605921097535969,4.925085318408272,3.952960548767985
12.221601255886972,-11.136448024025558,4.551245648761093,3.718224012012779
12.229599686028259,-10.66697495051525,4.177405979113996,3.4834874752576255
12.237598116169545,-10.197501877004942,3.8035663094668997,3.248750938502472
12.245596546310834,-9.728028803494531,3.4297266398197204,3.014014401747266
12.25359497645212,-9.258555729984224,3.055886970172624,2.779277864992112
12.261593406593407,-8.789082656473918,2.6820473005255274,2.544541328236959
12.269591836734694,-8.31960958296361,2.3082076308784307,2.309804791481805
12.277590266875983,-7.850136509453199,1.9343679612312514,2.0750682547265997
12.28558869701727,-7.380663435942892,1.5605282915841552,1.8403317179714458
12.293587127158556,-6.911190362432585,1.1866886219370585,1.6055951812162923
12.301585557299845,-6.441717288922173,0.8128489522898787,1.3708586444610864
12.309583987441131,-6.3,2.135882484862375,2.2572549899082506
12.317582417582418,-6.3,4.192621664050495,3.628414442700331
12.325580847723705,-5.5951334379905795,4.959654631083201,5.024175824175823
12.333579277864994,-6.532094553797873,7.532094553797873,2.9176126071730497
12.34157770800628,-6.762818500181147,7.762818500181147,2.9483758000241527
12.349576138147567,-6.993542446564421,7.993542446564421,2.979138992875256
12.357574568288856,-7.2242663929477455,8.224266392947746,3.009902185726366
12.365572998430142,-7.45499033933102,8.454990339331019,3.040665378577469
12.373571428571429,-7.685714285714294,8.685714285714294,3.0714285714285725
12.381569858712718,-8.840266875984263,7.731789638928643,4.581632653066112
12.389568288854004,-32.735199720914665,-21.209174952034346,4.741880341878392
12.397566718995291,-19.79602704987322,-39.18971138751358,8.695314575534283
12.405565149136578,-20.011369399830944,-39.16663899287526,7.787800386426739
12.413563579277866,-20.226711749788713,-39.14356659823692,6.880286197318994
12.421562009419153,-20.442054099746436,-39.1204942035986,5.972772008211451
12.42956043956044,-20.65739644970416,-39.09742180896027,5.065257819103907
12.437558869701729,-20.872738799661928,-39.07434941432194,4.157743629996163
12.445557299843015,-21.08808114961965,-39.05127701968361,3.250229440888619
12.453555729984302,-21.30342349957737,-39.028204625045284,2.342715251781076
12.461554160125589,-21.518765849535093,-39.00513223040696,1.4352010626735323
12.469552590266877,-21.734108199492862,-38.982059835768624,0.5276868735657878
12.477551020408164,-21.949450549450585,-38.9589874411303,-0.3798273155417551
12.48554945054945,-22.164792899408308,-38.935915046491964,-1.287341504649298
12.49354788069074,-22.380135249366077,-38.91284265185363,-2.1948556937570434
12.501546310832026,-10.747514390370412,-23.244427001568674,-2.4195970695969544
12.509544740973313,-5.476121622738147,-17.784329505081374,-1.9970139634801363
12.517543171114601,-4.970957613814663,-17.52332810047091,-2.215918367346979
12.525541601255888,-4.465793604891292,-17.2623266958605,-2.4348227712137733
12.533540031397175,-3.960629595967922,-17.001325291250094,-2.653727175080567
12.541538461538462,-3.455465587044551,-16.740323886639683,-2.8726315789473613
12.54953689167975,-2.9503015781210675,-16.479322482029218,-3.0915359828142037
12.557535321821037,-2.4451375691976964,-16.21832107741881,-3.310440386680998
12.565533751962324,-1.9399735602743258,-15.957319672808401,-3.529344790547792
12.573532182103612,-1.4348095513508428,-15.696318268197935,-3.748249194414635
12.581530612244899,-0.9296455424274717,-15.435316863587527,-3.967153598281429
12.589529042386186,-0.42448153350410056,-15.17431545897712,-4.186058002148223
12.597527472527474,0.08068247541938245,-14.913314054366653,-4.404962406015066
12.605525902668761,4.386656200942651,-3.6059654631055373,-11.088854003142174
12.613524332810048,10.074034536891695,5.423139717425397,-2.964270015698561
12.621522762951335,10.20491793920366,5.110473811902368,-2.7243171114599574
12.629521193092623,10.335801341515655,4.797807906379269,-2.4843642072213
12.63751962323391,10.46668474382762,4.485142000856239,-2.2444113029826958
12.645518053375197,10.597568146139587,4.172476095333209,-2.0044583987440916
12.653516483516485,10.72845154845158,3.859810189810111,-1.7645054945054344
12.661514913657772,10.859334950763548,3.5471442842870813,-1.5245525902668302
12.669513343799059,10.990218353075514,3.234478378764052,-1.284599686028226
12.677511773940346,11.12110175538748,2.9218124732410224,-1.0446467817896221
12.685510204081634,11.251985157699474,2.6091465677179233,-0.8046938775509647
12.69350863422292,11.38286856001144,2.296480662194894,-0.5647409733123605
12.701507064364208,11.513751962323406,1.9838147566718645,-0.32478806907375635
12.709505494505496,11.644635364635402,1.6711488511487653,-0.08483516483509934
12.717503924646783,11.775518766947368,1.3584829456257355,0.15511773940350482
12.72550235478807,9.394128728413952,-2.016200941915905,-1.2955416012561927
12.733500784929358,7.375039246467942,-7.575667189955017,1.0999476713760772
12.741499215070645,6.222454392897684,-17.997415146429923,0.6974151464299227
12.749497645211932,5.808742489038023,-17.9836247496346,0.6836247496346007
12.757496075353219,5.395030585178362,-17.96983435283928,0.6698343528392787
12.765494505494507,4.9813186813186086,-17.956043956043953,0.6560439560439536
12.773492935635794,4.5676067774589475,-17.94225355924863,0.6422535592486316
12.78149136577708,4.153894873599286,-17.92846316245331,0.6284631624533095
12.789489795918369,3.740182969739533,-17.914672765657983,0.6146727656579845
12.797488226059656,3.3264710658798715,-17.90088236886266,0.6008823688626623
12.805486656200943,-3.682794348508935,-22.789324960753977,1.8697331240188495
12.81348508634223,-4.951136441198545,-24.401793392942455,1.7731178759129091
12.821483516483518,-5.50754897276645,-24.89734830387012,1.6166268514094357
12.829481946624805,-6.063961504334233,-25.392903214797677,1.460135826905997
12.837480376766091,-6.620374035902016,-25.888458125725233,1.3036448024025582
12.84547880690738,-7.176786567469922,-26.3840130366529,1.1471537778990846
12.853477237048667,-7.733199099037703,-26.879567947580455,0.990662753395646
