accel_time_list,vertical_Accel_x,vertical_Accel_y,vertical_Accel_z
0.0,0.457,0.731,-9.757
0.007997316636851522,1.3332236135957074,0.8465384615384617,-8.937248658318426
0.015994633273703044,-0.8974838294707643,0.6991090832345078,-10.035160740487628
0.023991949910554568,-0.8127482161162589,0.687247894514683,-10.030038863540431
0.03198926654740609,-0.7280126027617535,0.6753867057948584,-10.024916986593233
0.03998658318425761,-0.6432769894072481,0.6635255170750336,-10.019795109646036
0.047983899821109136,-0.5585413760527426,0.6516643283552089,-10.01467323269884
0.055981216457960656,-0.47380576269823715,0.6398031396353842,-10.009551355751643
0.06397853309481218,-0.38907014934373174,0.6279419509155595,-10.004429478804445
0.0719758497316637,-0.30433453598922633,0.6160807621957347,-9.999307601857248
0.07997316636851522,-0.2195989226347208,0.6042195734759099,-9.994185724910052
0.08797048300536674,-0.1348633092802154,0.5923583847560853,-9.989063847962854
0.09596779964221827,-0.05012769592570987,0.5804971960362605,-9.983941971015657
0.10396511627906979,0.42391860465116366,-0.03358139534885485,-10.506476744186061
0.11196243291592131,1.2959463126369313,-0.2512244376997448,-10.168609133484754
0.11995974955277283,1.082534773170388,-0.26802778838616315,-10.151356495346828
0.12795706618962435,0.8691232337038446,-0.2848311390725815,-10.1341038572089
0.13595438282647587,0.6557116942373012,-0.30163448975899987,-10.116851219070973
0.1439516994633274,0.4423001547707579,-0.31843784044541823,-10.099598580933048
0.1519490161001789,0.22888861530421445,-0.3352411911318366,-10.08234594279512
0.15994633273703043,0.015477075837671217,-0.35204454181825495,-10.065093304657193
0.16794364937388195,-0.19793446362887224,-0.3688478925046733,-10.047840666519267
0.17594096601073347,-0.41134600309541547,-0.3856512431910917,-10.03058802838134
0.183938282647585,-0.6247575425619589,-0.40245459387751004,-10.013335390243412
0.19193559928443654,-0.8381690820285028,-0.4192579445639284,-9.996082752105485
0.19993291592128806,0.1466457960644028,3.1268394454382786,-9.461882826475854
0.20793023255813958,0.23953488372093887,2.344558139534882,-9.58625581395348
0.2159275491949911,0.41737964096287244,2.2248864356777447,-9.464549265605875
0.22392486583184262,0.43744308445532454,2.123166180209019,-9.505588127294983
0.23192218246869414,0.4575065279477766,2.021445924740294,-9.54662698898409
0.23991949910554566,0.4775699714402286,1.9197256692715685,-9.587665850673195
0.24791681574239718,0.4976334149326807,1.818005413802843,-9.628704712362302
0.2559141323792487,0.5176968584251327,1.7162851583341174,-9.669743574051408
0.26391144901610025,0.5377603019175848,1.6145649028653917,-9.710782435740514
0.27190876565295174,0.5578237454100369,1.5128446473966664,-9.75182129742962
0.2799060822898033,0.577887188902489,1.4111243919279408,-9.792860159118726
0.2879033989266548,0.597950632394941,1.3094041364592155,-9.833899020807834
0.29590071556350633,0.6180140758873931,1.2076838809904897,-9.87493788249694
0.3038980322003578,0.6380775193798451,1.1059636255217646,-9.915976744186047
0.3118953488372094,0.6581409628722972,1.0042433700530389,-9.957015605875153
0.31989266547406087,0.6782044063647492,0.9025231145843138,-9.998054467564259
0.3278899821109124,0.3183689624329032,3.893252236135982,-9.392632826475857
0.3358872987477639,0.2341497838401912,4.734536001788909,-8.898493142516397
0.34388461538461546,0.33070072115384685,4.763026442307693,-8.839846153846153
0.35188193202146695,0.4272516584675019,4.791516882826476,-8.78119916517591
0.3598792486583185,0.5238025957811576,4.820007323345259,-8.722552176505664
0.36787656529517,0.6203535330948126,4.848497763864043,-8.66390518783542
0.37587388193202154,0.7169044704084683,4.876988204382826,-8.605258199165174
0.3838711985688731,0.813455407722124,4.90547864490161,-8.54661121049493
0.3918685152057246,0.910006345035779,4.933969085420394,-8.487964221824686
0.3998658318425761,1.0065572823494346,4.9624595259391775,-8.42931723315444
0.4078631484794276,1.1031082196630897,4.99094996645796,-8.370670244484197
0.41586046511627917,1.1996591569767454,5.019440406976744,-8.312023255813951
0.42385778175313066,1.2962100942904005,5.047930847495528,-8.253376267143707
0.4318550983899822,2.4277531305903097,4.663883720930203,-8.028806797853347
0.4398524150268337,2.08072891151782,4.332915665729619,-8.425749975427077
0.44784973166368525,2.0745771294894726,4.337485560950677,-8.389278696259018
0.45584704830053674,2.0684253474611256,4.342055456171735,-8.35280741709096
0.4638443649373883,2.062273565432778,4.3466253513927935,-8.3163361379229
0.4718416815742398,2.0561217834044307,4.351195246613851,-8.279864858754841
0.4798389982110913,2.0499700013760833,4.355765141834909,-8.243393579586781
0.4878363148479428,2.0438182193477363,4.360335037055967,-8.206922300418723
0.49583363148479437,2.037666437319389,4.3649049322770255,-8.170451021250663
0.5038309481216459,2.0315146552910415,4.369474827498084,-8.133979742082603
0.5118282647584974,2.0253628732626945,4.374044722719142,-8.097508462914545
0.519825581395349,2.019211091234347,4.378614617940199,-8.061037183746485
0.5278228980322005,2.872864937388225,6.359136851520597,-6.3529597495527295
0.5358202146690519,2.5095198568872963,4.619869588550977,-8.868272271914137
0.5438175313059035,2.4814432175683176,4.589087101350935,-8.864350050377315
0.551814847942755,2.4665516624514217,4.597360187526989,-8.8258342380688
0.5598121645796066,2.4516601073345257,4.605633273703042,-8.787318425760285
0.567809481216458,2.43676855221763,4.613906359879095,-8.74880261345177
0.5758067978533096,2.421876997100734,4.622179446055148,-8.710286801143257
0.5838041144901611,2.406985441983838,4.630452532231201,-8.67177098883474
0.5918014311270127,2.392093886866942,4.638725618407255,-8.633255176526227
0.5997987477638641,2.377202331750046,4.646998704583308,-8.594739364217713
0.6077960644007157,2.36231077663315,4.655271790759361,-8.556223551909197
0.6157933810375672,2.347419221516254,4.663544876935415,-8.517707739600683
0.6237906976744187,2.6289302325581936,5.510720930232711,-7.663837209302176
0.6317880143112702,1.5887730971204346,7.9303404408794504,-6.661400398176467
0.6397853309481217,1.6971238386519718,7.888290034046973,-6.619521976648008
0.6477826475849733,1.805474580183509,7.846239627214495,-6.577643555119549
0.6557799642218248,1.913825321715046,7.8041892203820185,-6.53576513359109
0.6637772808586764,2.022176063246583,7.762138813549541,-6.49388671206263
0.6717745974955278,2.130526804778119,7.720088406717064,-6.452008290534172
0.6797719141323794,2.2388775463096557,7.6780379998845865,-6.410129869005712
0.6877692307692309,2.347228287841193,7.635987593052109,-6.368251447477253
0.6957665474060825,2.45557902937273,7.593937186219631,-6.326373025948794
0.7037638640429339,2.5639297709042657,7.5518867793871545,-6.284494604420336
0.7117611806797854,2.672280512435803,7.509836372554677,-6.242616182891876
0.719758497316637,2.78063125396734,7.467785965722199,-6.200737761363417
0.7277558139534885,2.8039919499105563,6.878576028622544,-6.096008050089444
0.73575313059034,2.872276730425211,7.036061648548233,-6.027723269574789
0.7437504472271915,2.5911784436493734,7.206205277280859,-6.2054673524150274
0.7517477638640431,2.565528513460447,7.22424800383961,-6.221364457437062
0.7597450805008946,2.539878583271521,7.24229073039836,-6.2372615624590955
0.7677423971377462,2.514228653082595,7.2603334569571105,-6.25315866748113
0.7757397137745976,2.488578722893669,7.278376183515861,-6.2690557725031635
0.7837370304114492,2.4629287927047425,7.296418910074611,-6.284952877525198
0.7917343470483007,2.437278862515816,7.314461636633362,-6.300849982547232
0.7997316636851522,2.41162893232689,7.332504363192112,-6.316747087569267
0.8077289803220037,2.385979002137964,7.350547089750862,-6.3326441925913
0.8157262969588552,2.3603290719490375,7.368589816309612,-6.348541297613335
0.8237236135957068,2.168398032200309,7.264880143112666,-6.893408765653105
0.8317209302325583,2.32417639782286,7.132460415635824,-6.570034388916378
0.8397182468694098,2.3188164941194382,7.139692031743615,-6.5583787253073496
0.8477155635062613,2.3134565904160165,7.146923647851406,-6.546723061698321
0.8557128801431129,2.3080966867125947,7.154155263959198,-6.535067398089293
0.8637101967799644,2.302736783009173,7.161386880066989,-6.5234117344802645
0.8717075134168158,2.297376879305751,7.16861849617478,-6.511756070871236
0.8797048300536674,2.2920169756023294,7.175850112282571,-6.500100407262209
0.887702146690519,2.2866570718989077,7.183081728390363,-6.48844474365318
0.8956994633273705,2.281297168195486,7.190313344498154,-6.476789080044152
0.903696779964222,2.2759372644920637,7.197544960605946,-6.4651334164351235
0.9116940966010735,2.2705773607886424,7.204776576713736,-6.453477752826095
0.919691413237925,2.2652174570852206,7.212008192821528,-6.441822089217067
0.9276887298747766,2.5210071556350564,7.274974955277264,-6.210119856887291
0.9356860465116281,2.7517236842105266,7.002703182374541,-6.153264075887392
0.9436833631484796,2.7668063427800274,7.000879232966136,-6.1451966073502176
0.9516806797853311,2.781889001349528,6.999055283557731,-6.137129138813043
0.9596779964221827,2.796971659919029,6.997231334149326,-6.129061670275868
0.9676753130590342,2.8120543184885296,6.995407384740922,-6.120994201738693
0.9756726296958856,2.82713697705803,6.993583435332517,-6.112926733201519
0.9836699463327372,2.8422196356275307,6.991759485924113,-6.104859264664344
0.9916672629695887,2.8573022941970314,6.989935536515707,-6.096791796127169
0.9996645796064403,2.872384952766532,6.988111587107303,-6.088724327589994
1.0076618962432917,2.8874676113360325,6.986287637698898,-6.080656859052819
1.0156592128801434,2.9025502699055337,6.984463688290493,-6.0725893905156445
1.0236565295169948,2.917632928475034,6.982639738882089,-6.06452192197847
1.0316538461538463,2.9327155870445347,6.9808157894736835,-6.056454453441295
1.039651162790698,2.9477982456140355,6.978991840065279,-6.04838698490412
1.0476484794275494,2.868152057245058,6.999423971377471,-6.364271914132413
1.055645796064401,2.6017382308633836,7.0137429149797565,-6.5982617691366166
1.0636431127012524,2.597844800395443,7.004693319838056,-6.6021551996045575
1.0716404293381039,2.593951369927502,6.9956437246963565,-6.606048630072498
1.0796377459749555,2.590057939459561,6.986594129554655,-6.609942060540439
1.087635062611807,2.5861645089916205,6.977544534412956,-6.61383549100838
1.0956323792486584,2.5822710785236795,6.968494939271255,-6.617728921476321
1.10362969588551,2.5783776480557385,6.959445344129554,-6.621622351944262
1.1116270125223615,2.574484217587798,6.950395748987854,-6.625515782412203
1.1196243291592132,2.570590787119857,6.941346153846153,-6.629409212880144
1.1276216457960646,2.5530129695885466,6.895079606440059,-6.615904740608223
1.135618962432916,2.504790697674418,6.923522361359573,-6.462830053667261
1.1436162790697677,2.4856630850750663,7.225422725934648,-6.414336914924934
1.1516135957066191,2.494267792848894,7.21793156857861,-6.4057322071511065
1.1596109123434708,2.5028725006227215,7.210440411222572,-6.397127499377278
1.1676082289803222,2.511477208396549,7.202949253866533,-6.38852279160345
1.1756055456171737,2.5200819161703767,7.195458096510496,-6.379918083829623
1.1836028622540253,2.5286866239442043,7.187966939154458,-6.371313376055795
1.1916001788908768,2.537291331718032,7.180475781798419,-6.362708668281968
1.1995974955277282,2.5458960394918595,7.172984624442381,-6.354103960508141
1.2075948121645799,2.554500747265687,7.165493467086343,-6.345499252734313
1.2155921288014313,2.5631054550395147,7.158002309730305,-6.336894544960486
1.223589445438283,2.626584257602873,7.116714311270119,-6.305204651162786
1.2315867620751344,2.693,7.163,-6.207
1.2395840787119858,2.4092091803545292,7.019,-6.401209180354529
1.2475813953488375,2.4182970401691333,7.019,-6.410297040169134
1.255578711985689,2.4273848999837373,7.019,-6.419384899983737
1.2635760286225404,2.4364727597983413,7.019,-6.428472759798342
1.271573345259392,2.4455606196129454,7.019,-6.437560619612945
1.2795706618962435,2.4546484794275494,7.019,-6.44664847942755
1.2875679785330951,2.4637363392421534,7.019,-6.455736339242153
1.2955652951699466,2.4728241990567574,7.019,-6.464824199056758
1.303562611806798,2.4819120588713615,7.019,-6.4739120588713615
1.3115599284436497,2.4909999186859655,7.019,-6.482999918685966
1.319557245080501,2.5000877785005695,7.019,-6.4920877785005695
1.3275545617173528,2.525893559928412,7.029466010733416,-6.5741064400715885
1.3355518783542042,2.666181233958155,6.883508273703041,-6.651922717196858
1.3435491949910556,2.676525589173213,6.8655143112701245,-6.667656568406316
1.3515465116279073,2.6868699443882713,6.847520348837208,-6.683390419615774
1.3595438282647587,2.697214299603329,6.829526386404293,-6.699124270825232
1.3675411449016102,2.7075586548183868,6.811532423971377,-6.7148581220346895
1.3755384615384618,2.717903010033445,6.793538461538461,-6.730591973244148
1.3835357781753133,2.728247365248503,6.775544499105545,-6.7463258244536055
1.391533094812165,2.7385917204635613,6.757550536672629,-6.762059675663064
1.3995304114490164,2.748936075678619,6.739556574239713,-6.777793526872522
1.4075277280858678,2.7592804308936767,6.721562611806798,-6.793527378081979
1.4155250447227194,2.769624786108735,6.7035686493738815,-6.809261229291438
1.4235223613595709,2.7582093023255774,6.8184007155635316,-6.689554561717327
1.4315196779964225,2.704054302037046,7.17080298920884,-5.995945697962954
1.439516994633274,2.6693132706253473,7.16065585627176,-6.030686729374652
1.4475143112701254,2.634572239213649,7.15050872333468,-6.065427760786352
1.455511627906977,2.599831207801949,7.1403615903976,-6.100168792198051
1.4635089445438285,2.5650901763902505,7.130214457460519,-6.13490982360975
1.47150626118068,2.5303491449785516,7.120067324523439,-6.169650855021448
1.4795035778175316,2.4956081135668517,7.109920191586358,-6.204391886433148
1.487500894454383,2.4608670821551533,7.099773058649277,-6.239132917844847
1.4954982110912347,2.4261260507434534,7.089625925712197,-6.273873949256546
1.5034955277280861,2.391385019331755,7.079478792775117,-6.308614980668246
1.5114928443649376,2.356643987920056,7.069331659838037,-6.343356012079944
1.5194901610017892,2.3219029565083567,7.059184526900956,-6.3780970434916435
1.5274874776386407,2.2501388843714394,7.0500136607578465,-6.44986111562856
1.5354847942754923,2.194635062611815,6.8779588550983615,-6.605364937388185
1.5434821109123438,2.2421485210300798,6.856053282439572,-6.601352123809128
1.5514794275491952,2.279717310812498,6.876418542247369,-6.610279360985148
1.5594767441860469,2.3172861005949175,6.8967838020551655,-6.619206598161169
1.5674740608228983,2.354854890377336,6.917149061862962,-6.628133835337189
1.5754713774597497,2.3924236801597543,6.937514321670758,-6.637061072513209
1.5834686940966014,2.4299924699421735,6.957879581478554,-6.64598830968923
1.5914660107334528,2.467561259724592,6.978244841286351,-6.65491554686525
1.5994633273703045,2.5051300495070117,6.9986101010941475,-6.66384278404127
1.607460644007156,2.54269883928943,7.018975360901943,-6.67277002121729
1.6154579606440074,2.5802676290718485,7.03934062070974,-6.68169725839331
1.623455277280859,2.6517477638640496,6.966500447227176,-6.721016100178896
1.6314525939177105,2.648,6.641,-6.852
1.639449910554562,2.648,6.641,-6.852
1.6474472271914136,2.648,6.641,-6.852
1.655444543828265,2.648,6.641,-6.852
1.6634418604651167,2.648,6.641,-6.852
1.671439177101968,2.648,6.641,-6.852
1.6794364937388195,2.648,6.641,-6.852
1.6874338103756712,2.648,6.641,-6.852
1.6954311270125226,2.648,6.641,-6.852
1.7034284436493743,2.648,6.641,-6.852
1.7114257602862257,2.648,6.641,-6.852
1.7194230769230772,2.648,6.641,-6.852
1.7274203935599288,2.45308527131773,6.804705426356608,-6.7010488968395965
1.7354177101967803,1.1679303230085825,7.177096842274528,-6.646237784165143
1.7434150268336317,1.1577764266044903,7.187340596168922,-6.660255552652209
1.7514123434704834,1.1476225302003977,7.197584350063316,-6.674273321139275
1.7594096601073348,1.1374686337963054,7.20782810395771,-6.68829108962634
1.7674069767441865,1.1273147373922128,7.218071857852104,-6.702308858113406
1.775404293381038,1.1171608409881206,7.228315611746498,-6.716326626600471
1.7834016100178893,1.1070069445840283,7.238559365640892,-6.730344395087537
1.791398926654741,1.0968530481799357,7.248803119535286,-6.7443621635746025
1.7993962432915924,1.0866991517758435,7.25904687342968,-6.7583799320616675
1.807393559928444,1.076545255371751,7.269290627324074,-6.7723977005487335
1.8153908765652955,1.0663913589676586,7.279534381218468,-6.7864154690357985
1.823388193202147,0.9191806797853109,7.218590339892655,-6.659180679785311
1.8313855098389986,0.8926592414265606,7.3186187530925295,-6.651838046663874
1.83938282647585,0.9116315989799423,7.334102919346859,-6.637885281467666
1.8473801431127015,0.9306039565333238,7.349587085601188,-6.623932516271457
1.8553774597495531,0.949576314086706,7.365071251855518,-6.609979751075247
1.8633747763864046,0.9685486716400875,7.380555418109847,-6.596026985879039
1.8713720930232562,0.9875210291934696,7.3960395843641775,-6.58207422068283
1.8793694096601077,1.0064933867468513,7.411523750618507,-6.5681214554866205
1.8873667262969591,1.0254657443002329,7.427007916872836,-6.554168690290411
1.8953640429338108,1.0444381018536149,7.442492083127166,-6.540215925094202
1.9033613595706622,1.0634104594069966,7.457976249381495,-6.526263159897994
1.9113586762075137,1.0823828169603782,7.473460415635825,-6.512310394701784
1.9193559928443653,1.1013551745137602,7.488944581890155,-6.498357629505575
1.9273533094812167,1.0901682568077904,7.376042138739805,-6.595995726495733
1.9353506261180684,1.256596601073362,7.128415026833643,-6.931789803220086
1.9433479427549198,1.1467181107567856,7.038580112001244,-6.889642237691529
1.9513452593917713,1.1312450416115731,7.022933188146535,-6.856435988177646
1.959342576028623,1.11577197246636,7.0072862642918246,-6.823229738663762
1.9673398926654744,1.1002989033211474,6.991639340437116,-6.7900234891498785
1.975337209302326,1.0848258341759345,6.975992416582406,-6.7568172396359945
1.9833345259391775,1.0693527650307217,6.960345492727696,-6.723610990122111
1.991331842576029,1.0538796958855092,6.944698568872987,-6.690404740608228
1.9993291592128806,1.0384066267402963,6.929051645018277,-6.657198491094343
2.007326475849732,1.0229335575950835,6.913404721163568,-6.62399224158046
2.0153237924865834,1.007460488449871,6.897757797308858,-6.590785992066577
2.023321109123435,0.9919874193046585,6.88211087345415,-6.557579742552694
2.0313184257602868,0.9967620751341896,6.924495527728159,-6.547214669051896
2.039315742397138,0.9780458727319123,7.309856376181965,-6.7568485816509165
2.0473130590339896,1.0708366129994038,7.245507453786524,-6.722807990459155
2.055310375670841,1.0736011175158462,7.241755626228494,-6.746602475761391
2.0633076923076925,1.0763656220322888,7.238003798670466,-6.7703969610636285
2.0713050089445444,1.0791301265487314,7.234251971112436,-6.794191446365867
2.079302325581396,1.0818946310651738,7.230500143554407,-6.817985931668104
2.0872996422182473,1.0846591355816162,7.226748315996378,-6.841780416970341
2.0952969588550987,1.0874236400980588,7.222996488438349,-6.865574902272577
2.10329427549195,1.0901881446145012,7.21924466088032,-6.889369387574814
2.111291592128802,1.0929526491309438,7.2154928333222905,-6.913163872877052
2.1192889087656535,1.0957171536473862,7.211741005764261,-6.9369583581792895
2.127286225402505,0.9621395348837176,7.146720930232565,-6.80722540250446
2.1352835420393563,1.1995814536828184,7.295968003811152,-6.701743942988256
2.1432808586762078,1.1969736330403669,7.270845998288869,-6.712609862331805
2.151278175313059,1.1943658123979155,7.245723992766585,-6.7234757816753525
2.159275491949911,1.1917579917554637,7.220601987244301,-6.734341701018901
2.1672728085867625,1.1891501711130121,7.195479981722017,-6.745207620362449
2.175270125223614,1.1865423504705606,7.1703579761997345,-6.756073539705998
2.1832674418604654,1.183934529828109,7.145235970677451,-6.766939459049546
2.191264758497317,1.1813267091856574,7.120113965155167,-6.777805378393094
2.1992620751341687,1.1787188885432058,7.094991959632883,-6.788671297736642
2.20725939177102,1.1761110679007543,7.0698699541106,-6.79953721708019
2.2152567084078716,1.1735032472583027,7.044747948588316,-6.810403136423739
2.223254025044723,1.170895426615851,7.019625943066033,-6.821269055767287
2.2312513416815745,1.1846681574239595,6.93753995229576,-6.905059033989275
2.2392486583184263,1.0655926128590967,7.084873008523624,-6.8893121751025985
2.247245974955278,1.0570307797537617,7.087977849100284,-6.886865937072503
2.255243291592129,1.0484689466484265,7.091082689676944,-6.884419699042407
2.2632406082289807,1.0399071135430915,7.094187530253604,-6.881973461012311
2.271237924865832,1.0313452804377563,7.097292370830264,-6.879527222982216
2.279235241502684,1.0227834473324209,7.100397211406924,-6.87708098495212
2.2872325581395354,1.0142216142270857,7.103502051983584,-6.874634746922024
2.295229874776387,1.0056597811217507,7.106606892560245,-6.872188508891929
2.3032271914132383,0.9970979480164156,7.109711733136904,-6.869742270861833
2.3112245080500897,0.9885361149110805,7.112816573713564,-6.867296032831737
2.3192218246869416,0.979974281805745,7.1159214142902245,-6.864849794801641
2.327219141323793,0.73614713774603,7.019245527728102,-6.85467531305897
2.3352164579606445,0.9073783542039356,7.072260530167507,-6.662142706131078
2.343213774597496,0.9065786225402505,7.075168645308181,-6.66875866807611
2.3512110912343474,0.9057788908765653,7.0780767604488535,-6.675374630021142
2.359208407871199,0.9049791592128802,7.080984875589527,-6.681990591966174
2.3672057245080507,0.904179427549195,7.083892990730201,-6.688606553911206
2.375203041144902,0.9033796958855098,7.086801105870873,-6.695222515856237
2.3832003577817535,0.9025799642218246,7.089709221011547,-6.701838477801269
2.391197674418605,0.9017802325581395,7.0926173361522205,-6.7084544397463
2.3991949910554564,0.9009805008944544,7.095525451292893,-6.7150704016913325
2.4071923076923083,0.9001807692307692,7.098433566433567,-6.721686363636365
2.4151896243291597,0.8993810375670841,7.10134168157424,-6.728302325581396
2.423186940966011,0.8985813059033989,7.104249796714914,-6.734918287526428
2.4311842576028626,0.8977815742397137,7.1071579118555865,-6.741534249471459
2.439181574239714,0.9033550983899903,7.129156082289828,-6.750178890876568
2.447178890876566,1.234213595706634,6.860320572450769,-6.899386046511646
2.4551762075134174,1.2819335565440229,6.778423499975826,-6.9414157641541365
2.463173524150269,1.2960909684281787,6.784151307837355,-6.940659261229029
2.4711708407871202,1.3102483803123346,6.789879115698883,-6.939902758303921
2.4791681574239717,1.3244057921964905,6.795606923560412,-6.939146255378813
2.4871654740608236,1.338563204080647,6.8013347314219414,-6.9383897524537055
2.495162790697675,1.3527206159648029,6.80706253928347,-6.937633249528598
2.5031601073345264,1.3668780278489587,6.812790347144999,-6.936876746603491
2.511157423971378,1.3810354397331146,6.818518155006528,-6.936120243678383
2.5191547406082293,1.3951928516172705,6.824245962868056,-6.935363740753275
2.5271520572450807,0.9878765652951513,7.0714293381037425,-6.932613595706606
2.5351493738819326,0.8737090884343168,6.979914083767596,-6.686361855409505
2.543146690518784,0.882575678618652,6.973568386870965,-6.680711577350859
2.5511440071556355,0.8914422688029874,6.967222689974332,-6.6750612992922145
2.559141323792487,0.9003088589873226,6.9608769930777,-6.669411021233569
2.5671386404293384,0.9091754491716579,6.954531296181068,-6.663760743174924
2.5751359570661903,0.9180420393559937,6.948185599284436,-6.658110465116279
2.5831332737030417,0.9269086295403289,6.9418399023878035,-6.652460187057634
2.591130590339893,0.9357752197246643,6.935494205491171,-6.646809908998988
2.5991279069767446,0.9446418099089995,6.9291485085945395,-6.641159630940344
2.607125223613596,0.9535084000933348,6.922802811697907,-6.635509352881699
2.615122540250448,0.9623749902776706,6.916457114801275,-6.629859074823053
2.6231198568872993,0.9810385893176656,6.918679018655767,-6.658115767952997
2.6311171735241508,1.1803899821109338,6.998616279069798,-6.770301878354167
2.639114490161002,1.1776016100178863,7.169120393559935,-6.723766368515207
2.6471118067978536,1.151038560922281,7.224529417610814,-6.727698867024448
2.6551091234347055,1.1370185737317506,7.239437995538772,-6.7194053534751195
2.663106440071557,1.1229985865412209,7.25434657346673,-6.711111839925793
2.6711037567084084,1.1089785993506913,7.269255151394687,-6.702818326376465
2.67910107334526,1.0949586121601615,7.284163729322644,-6.6945248128271375
2.6870983899821113,1.0809386249696318,7.2990723072506025,-6.68623129927781
2.695095706618963,1.0669186377791013,7.313980885178561,-6.677937785728482
2.7030930232558146,1.0528986505885718,7.328889463106519,-6.669644272179155
2.711090339892666,1.038878663398042,7.343798041034476,-6.661350758629828
2.7190876565295174,1.0248586762075125,7.358706618962434,-6.6530572450805
2.727084973166369,1.018,7.366,-6.649
2.7350822898032203,1.116151675343209,6.9658362243975,-6.946262607786778
2.743079606440072,1.1090529336093742,6.965207221965388,-6.9357492814214785
2.7510769230769236,1.1019541918755398,6.9645782195332755,-6.925235955056179
2.759074239713775,1.0948554501417054,6.963949217101164,-6.91472262869088
2.7670715563506265,1.087756708407871,6.963320214669052,-6.904209302325581
2.775068872987478,1.0806579666740366,6.9626912122369395,-6.893695975960282
2.78306618962433,1.0735592249402017,6.962062209804828,-6.883182649594982
2.7910635062611813,1.0664604832063673,6.961433207372716,-6.872669323229683
2.7990608228980327,1.0593617414725327,6.960804204940604,-6.8621559968643835
2.807058139534884,1.0522629997386983,6.960175202508492,-6.851642670499085
2.8150554561717356,1.045164258004864,6.95954620007638,-6.841129344133786
2.8230527728085875,1.1348023255814639,7.010059481216494,-6.763043381037518
2.831050089445439,1.159,7.051,-6.916
2.8390474060822903,1.159,7.051,-6.916
2.8470447227191418,1.159,7.051,-6.916
2.855042039355993,1.159,7.051,-6.916
2.863039355992845,1.159,7.051,-6.916
2.8710366726296965,1.159,7.051,-6.916
2.879033989266548,1.159,7.051,-6.916
2.8870313059033994,1.159,7.051,-6.916
2.895028622540251,1.159,7.051,-6.916
2.9030259391771023,1.159,7.051,-6.916
2.911023255813954,1.159,7.051,-6.916
2.9190205724508056,1.159,7.051,-6.916
2.927017889087657,0.930686046511607,7.133795169946341,-6.851276386404288
2.9350152057245085,0.9420101371496724,7.195323398157232,-6.701093879239039
2.94301252236136,0.94734168157424,7.195753361417277,-6.68260545905707
2.951009838998212,0.952673225998808,7.196183324677324,-6.664117038875101
2.9590071556350632,0.9580047704233756,7.196613287937369,-6.645628618693133
2.9670044722719147,0.9633363148479432,7.197043251197415,-6.627140198511165
2.975001788908766,0.9686678592725109,7.197473214457461,-6.608651778329196
2.9829991055456175,0.9739994036970785,7.197903177717507,-6.590163358147228
2.9909964221824694,0.9793309481216463,7.198333140977552,-6.571674937965258
2.998993738819321,0.9846624925462141,7.198763104237598,-6.55318651778329
3.0069910554561723,0.9899940369707817,7.199193067497644,-6.534698097601321
3.0149883720930237,0.9953255813953493,7.19962303075769,-6.516209677419353
3.022985688729875,1.0896976744186484,7.167472271914117,-6.525135062611819
3.030983005366727,1.1283103756708468,7.047625223613627,-6.8035205724507914
3.0389803220035785,1.0540239266547267,7.022451923076898,-6.8603703041145065
3.04697763864043,0.9542923375074546,6.843428416544698,-6.9830335420393554
3.0549749552772814,0.9689540846750155,6.874448311378545,-6.971037567084078
3.062972271914133,0.9836158318425766,6.905468206212394,-6.959041592128801
3.0709695885509847,0.9982775790101385,6.936488101046243,-6.947045617173523
3.078966905187836,1.0129393261776993,6.967507995880092,-6.935049642218246
3.0869642218246875,1.0276010733452605,6.998527890713939,-6.923053667262969
3.094961538461539,1.0422628205128215,7.029547785547788,-6.911057692307692
3.1029588550983904,1.0569245676803825,7.060567680381635,-6.8990617173524145
3.110956171735242,1.0181176207513376,7.200392218246879,-6.832292933810372
3.1189534883720937,1.045867420126071,7.264380352097367,-6.685425777005
3.126950805008945,1.1554381321786333,7.237548233661576,-6.690956631501514
3.1349481216457966,1.2650088442311958,7.210716115225785,-6.696487485998028
3.142945438282648,1.3745795562837584,7.1838839967899935,-6.702018340494542
3.1509427549194995,1.4841502683363208,7.157051878354202,-6.707549194991056
3.1589400715563514,1.5937209803888894,7.130219759918409,-6.71308004948757
3.166937388193203,1.7032916924414518,7.103387641482618,-6.718610903984085
3.1749347048300542,1.8128624044940143,7.076555523046827,-6.724141758480599
3.1829320214669057,1.9224331165465767,7.0497234046110355,-6.7296726129771125
3.190929338103757,2.032003828599139,7.022891286175245,-6.735203467473626
3.198926654740609,2.1415745406517077,6.9960591677394515,-6.740734321970141
3.2069239713774604,2.25114525270427,6.969227049303661,-6.746265176466655
3.214921288014312,2.3607159647568325,6.942394930867869,-6.7517960309631695
3.2229186046511633,0.978441860465141,7.183639534883696,-6.734348837209268
3.2309159212880147,1.0419159212880145,7.1307894198824435,-6.650999744441605
3.2389132379248666,1.0499132379248663,7.154895617173526,-6.65374168157424
3.246910554561718,1.0579105545617178,7.179001814464606,-6.656483618706875
3.2549078711985695,1.0659078711985692,7.203108011755687,-6.65922555583951
3.262905187835421,1.0739051878354209,7.227214209046768,-6.661967492972145
3.2709025044722724,1.0819025044722723,7.251320406337849,-6.66470943010478
3.278899821109124,1.0898998211091238,7.27542660362893,-6.6674513672374145
3.2868971377459757,1.0978971377459756,7.299532800920012,-6.670193304370049
3.294894454382827,1.105894454382827,7.323638998211093,-6.672935241502684
3.3028917710196786,1.0199697674418489,7.3652856887298785,-6.649541144901607
3.31088908765653,1.016775795286614,7.202025869176324,-6.830551590573228
3.3188864042933814,1.0147590806564515,7.193263591817686,-6.826518161312904
3.3268837209302333,1.0127423660262889,7.184501314459049,-6.822484732052578
3.3348810375670848,1.0107256513961265,7.175739037100412,-6.818451302792253
3.342878354203936,1.0087089367659638,7.166976759741774,-6.814417873531928
3.3508756708407876,1.0066922221358012,7.158214482383137,-6.810384444271603
3.358872987477639,1.0046755075056388,7.1494522050245,-6.806351015011278
3.366870304114491,1.0026587928754762,7.140689927665862,-6.802317585750952
3.3748676207513424,1.0006420782453136,7.131927650307225,-6.798284156490627
3.382864937388194,0.9986253636151511,7.123165372948588,-6.7942507272303025
3.3908622540250453,0.9966086489849886,7.11440309558995,-6.790217297969977
3.3988595706618967,0.994591934354826,7.105640818231313,-6.786183868709652
3.4068568872987486,0.9925752197246633,7.096878540872675,-6.782150439449326
3.4148542039356,0.9905585050945008,7.0881162635140385,-6.778117010189002
3.4228515205724515,0.9885417904643383,7.079353986155401,-6.774083580928676
3.430848837209303,0.895151162790697,7.147716279069782,-6.730990697674413
3.4388461538461543,0.8871538461538457,7.310861538461547,-6.657415384615381
3.4468434704830058,1.0213661193457764,7.296819064656273,-6.648343278814209
3.4548407871198576,1.158367769827084,7.27930113297555,-6.640536374478234
3.462838103756709,1.295369420308384,7.261783201294828,-6.63272947014226
3.4708354203935605,1.4323710707896842,7.244265269614106,-6.624922565806286
3.478832737030412,1.5693727212709843,7.226747337933383,-6.617115661470312
3.4868300536672634,1.7063743717522843,7.209229406252661,-6.609308757134338
3.4948273703041153,1.843376022233592,7.191711474571938,-6.601501852798363
3.5028246869409667,1.980377672714892,7.174193542891216,-6.59369494846239
3.510822003577818,2.117379323196192,7.156675611210494,-6.585888044126415
3.5188193202146696,2.2543809736774922,7.139157679529772,-6.5780811397904415
3.526816636851521,2.658288461538498,6.6913837209302285,-6.732543381037548
3.534813953488373,2.6030465116279067,7.018502527805865,-6.605244691607687
3.5428112701252243,2.601047182468694,7.017459399548884,-6.6246294917165764
3.550808586762076,2.599047853309481,7.016416271291903,-6.644014291825466
3.558805903398927,2.597048524150268,7.015373143034923,-6.663399091934356
3.5668032200357787,2.5950491949910552,7.014330014777942,-6.682783892043246
3.5748005366726305,2.5930498658318424,7.013286886520961,-6.702168692152137
3.582797853309482,2.5910505366726295,7.01224375826398,-6.721553492261027
3.5907951699463334,2.5890512075134167,7.011200630007,-6.740938292369917
3.598792486583185,2.587051878354204,7.010157501750019,-6.7603230924788065
3.6067898032200363,2.585052549194991,7.009114373493039,-6.779707892587696
3.614787119856888,2.583053220035778,7.008071245236057,-6.799092692696587
3.6227844364937396,2.5810538908765652,7.007028116979077,-6.818477492805477
3.630781753130591,2.546304710793129,6.712083780560504,-6.210045915325076
3.6387790697674425,2.761619379844961,6.629337209302328,-6.654310852713181
3.646776386404294,2.759309043927648,6.653329159212882,-6.683278910753331
3.6547737030411453,2.7569987080103355,6.677321109123437,-6.712246968793482
3.6627710196779972,2.754688372093023,6.701313059033992,-6.741215026833634
3.6707683363148487,2.75237803617571,6.725305008944546,-6.770183084873785
3.6787656529517,2.750067700258398,6.7492969588551,-6.799151142913936
3.6867629695885515,2.7477573643410853,6.773288908765655,-6.828119200954086
3.694760286225403,2.7454470284237726,6.797280858676208,-6.857087258994237
3.702757602862255,2.74313669250646,6.821272808586764,-6.88605531703439
3.7107549194991063,2.7408263565891473,6.8452647584973185,-6.91502337507454
3.7187522361359577,2.7385160206718346,6.869256708407873,-6.94399143311469
3.726749552772809,1.9460232558139179,6.906821109123325,-7.504066189624227
3.7347468694096606,2.4048229855331735,6.624960138445988,-6.9745384518161275
3.7427441860465125,2.419687563195148,6.699022244691616,-6.924902932254797
3.750741502683364,2.434552140857122,6.77308435093724,-6.875267412693469
3.7587388193202154,2.449416718519096,6.847146457182864,-6.825631893132141
3.766736135957067,2.4642812961810696,6.921208563428488,-6.7759963735708135
3.7747334525939182,2.4791458738430436,6.995270669674112,-6.726360854009486
3.78273076923077,2.4940104515050185,7.06933277591974,-6.676725334448155
3.7907280858676216,2.508875029166992,7.143394882165365,-6.627089814886827
3.798725402504473,2.523739606828966,7.217456988410989,-6.5774542953254995
3.8067227191413244,2.53860418449094,7.291519094656612,-6.527818775764171
3.814720035778176,2.5534687621529137,7.365581200902237,-6.478183256202843
3.8227173524150273,2.592107334525956,7.7385921288016375,-6.1926869409658485
3.830714669051879,2.7223722208024643,8.135838423204683,-6.540942371582007
3.8387119856887306,2.373212880142649,7.2961896243284485,-8.075982110913069
3.846709302325582,1.1820267011197267,5.675211599196096,-9.839118863049096
3.8547066189624335,1.2240866626913158,5.697920029152589,-9.826678592725104
3.862703935599285,1.266146624262905,5.72062845910908,-9.814238322401113
3.870701252236137,1.3082065858344964,5.743336889065573,-9.801798052077121
3.8786985688729883,1.3502665474060853,5.766045319022065,-9.78935778175313
3.8866958855098397,1.3923265089776744,5.788753748978556,-9.776917511429138
3.894693202146691,1.4343864705492635,5.811462178935049,-9.764477241105148
3.9026905187835426,1.4764464321208526,5.83417060889154,-9.752036970781155
3.9106878354203944,1.5185063936924441,5.856879038848033,-9.739596700457165
3.918685152057246,1.5605663552640332,5.879587468804525,-9.727156430133173
3.9266824686940973,3.86935822898039,13.194738372093259,-8.155999552773128
3.9346797853309488,5.312070718989101,13.35891059262357,-6.741460472728667
3.9426771019678,5.610268536139784,12.93258555361014,-6.866524892475173
3.950674418604652,5.908466353290484,12.506260514596686,-6.991589312221686
3.9586717352415035,6.206664170441166,12.079935475583257,-7.116653731968192
3.966669051878355,6.504861987591849,11.653610436569826,-7.241718151714698
3.9746663685152064,6.803059804742532,11.227285397556397,-7.366782571461204
3.982663685152058,7.101257621893215,10.800960358542966,-7.49184699120771
3.9906610017889097,7.399455439043915,10.374635319529514,-7.6169114109542235
3.998658318425761,7.697653256194597,9.948310280516083,-7.74197583070073
4.006655635062613,7.99585107334528,9.521985241502653,-7.867040250447236
4.014652951699464,8.294048890495963,9.095660202489224,-7.992104670193742
4.0226502683363154,8.889232558139748,8.135665474060447,-7.754229427548961
4.030647584973167,8.735745224767719,4.684327485717552,-5.618161348029315
4.038644901610018,8.5646198472695,4.278184190278312,-5.628652451574433
4.04664221824687,8.39349446977128,3.872040894839072,-5.639143555119549
4.054639534883722,8.222369092273041,3.4658975993997867,-5.6496346586646675
4.0626368515205735,8.051243714774824,3.0597543039605464,-5.660125762209785
4.070634168157425,7.880118337276604,2.653611008521306,-5.670616865754901
4.078631484794276,7.708992959778385,2.2474677130820657,-5.681107969300019
4.086628801431128,7.537867582280166,1.8413244176428254,-5.691599072845135
4.094626118067979,7.366742204781946,1.435181122203585,-5.702090176390253
4.102623434704831,7.195616827283728,1.0290378267643447,-5.71258127993537
4.110620751341682,7.024491449785509,0.6228945313251044,-5.723072383480487
4.118618067978534,6.853366072287289,0.2167512358858641,-5.733563487025604
4.126615384615385,0.4685769230764316,-3.8323461538465065,-2.8098076923073982
4.1346127012522365,-0.5156328782600532,-4.313938838150835,-1.9060858770360576
4.142610017889089,-0.5986366067225417,-4.382799943508153,-1.7997636569061155
4.15060733452594,-0.6816403351850211,-4.451661048865463,-1.693441436776185
4.158604651162792,-0.7646440636475005,-4.520522154222774,-1.5871192166462547
4.166601967799643,-0.8476477921099798,-4.589383259580084,-1.4807969965163243
4.1745992844364945,-0.9306515205724591,-4.658244364937395,-1.3744747763863938
4.182596601073346,-1.0136552490349384,-4.727105470294705,-1.2681525562564633
4.190593917710197,-1.0966589774974178,-4.795966575652016,-1.161830336126533
4.198591234347049,-1.1796627059598972,-4.864827681009326,-1.0555081159966027
4.2065885509839,-1.2626664344223766,-4.933688786366637,-0.9491858958666721
4.214585867620752,-1.345670162884856,-5.002549891723947,-0.8428636757367416
4.222583184257604,-1.4286738913473445,-5.071410997081266,-0.7365414556067995
4.2305805008944555,-1.3571949910554422,-5.4358318425760945,-0.2807182468693271
4.238577817531307,-2.526793121357256,-2.5392479369842342,1.6658890876565324
4.246575134168158,-2.440886462000109,-2.3765928357089154,1.70587567084079
4.25457245080501,-2.354979802642962,-2.213937734433597,1.7458622540250477
4.262569767441861,-2.2690731432858153,-2.0512826331582783,1.785848837209305
4.270567084078713,-2.183166483928668,-1.8886275318829595,1.8258354203935627
4.278564400715564,-2.0972598245715215,-1.7259724306076407,1.8658220035778204
4.2865617173524155,-2.0113531652143744,-1.563317329332322,1.905808586762078
4.294559033989267,-1.9254465058572277,-1.4006622280570031,1.9457951699463356
4.302556350626118,-1.2482996422182622,0.40832110912377395,-0.313916815743537
4.310553667262971,4.762213092386565,5.0644153755193155,-2.556815454352494
4.318550983899822,5.16777192929266,5.857505199963688,-2.4371268002789375
4.326548300536674,5.5733307661987554,6.6505950244080605,-2.3174381462053804
4.334545617173525,5.97888960310485,7.443684848852433,-2.1977494921318237
4.3425429338103765,6.384448440010946,8.236774673296807,-2.078060838058267
4.350540250447228,6.790007276917041,9.02986449774118,-1.9583721839847101
4.358537567084079,7.195566113823136,9.822954322185552,-1.8386835299111532
4.366534883720931,7.601124950729231,10.616044146629925,-1.7189948758375966
4.374532200357782,8.006683787635327,11.409133971074297,-1.5993062217640397
4.382529516994634,8.412242624541422,12.20222379551867,-1.4796175676904828
4.390526833631486,8.817801461447562,12.995313619963131,-1.3599289136169128
4.398524150268337,9.223360298353658,13.788403444407503,-1.240240259543356
4.406521466905189,9.628919135259753,14.581493268851876,-1.120551605469799
4.41451878354204,10.034477972165847,15.374583093296248,-1.0008629513962422
4.422516100178892,10.440036809071943,16.16767291774062,-0.8811742973226855
4.430513416815743,36.964409101073,5.186180120751165,37.344656417709835
4.438510733452595,31.629449155858396,2.397032638267594,31.67280950916786
4.446508050089446,26.29448921064379,-0.39211484421597653,26.000962600625883
4.4545053667262975,20.95952926542918,-3.181262326699546,20.32911569208391
4.462502683363149,15.624569320214572,-5.970409809183117,14.657268783541934
4.4705,10.289609374999962,-8.759557291666688,8.985421874999957
4.478497316636853,4.954649429784766,-11.548704774150567,3.3135749664573524
4.486494633273704,-0.38031051542984784,-14.337852256634138,-2.3582719420846203
4.494491949910556,-5.715270460644454,-17.126999739117707,-8.0301188506266
4.502489266547407,-11.050230405859061,-19.91614722160128,-13.701965759168573
4.510486583184258,-16.385190351073668,-22.70529470408485,-19.373812667710553
4.51848389982111,-21.720150296288274,-25.49444218656842,-25.045659576252525
4.526481216457961,-21.782396243290698,-23.451475849730762,-25.162250447226253
4.534478533094813,13.140750000003928,13.293071109129524,1.3858193202105555
4.542475849731664,4.154608228980994,5.6833855098394075,-5.390422778771132
4.550473166368516,6.84587584508516,7.1760843691192475,-3.430310898403911
4.558470483005368,7.0531829101131756,7.087075273563631,-3.2525004298027267
4.566467799642219,7.260489975141169,6.998066178008025,-3.074689961201562
4.574465116279071,7.467797040169162,6.909057082452419,-2.8968794926003976
4.582462432915922,7.675104105197155,6.820047986896812,-2.719069023999233
4.590459749552774,7.882411170225149,6.731038891341206,-2.5412585553980684
4.598457066189625,8.089718235253141,6.6420297957856,-2.363448086796904
4.606454382826477,8.297025300281135,6.553020700229993,-2.1856376181957398
4.614451699463328,8.504332365309129,6.464011604674387,-2.0078271495945748
4.622449016100179,8.138729874775493,6.115080500894033,-2.5718962432927563
4.630446332737031,8.344923191108743,2.963247668709329,-3.718813877364587
4.638443649373883,8.350027861302479,3.0309696266128867,-3.6514322308072784
4.646440966010735,8.355132531496213,3.098691584516437,-3.5840505842499772
4.654438282647586,8.360237201689948,3.166413542419987,-3.516668937692676
4.6624355992844375,8.365341871883683,3.2341355003235375,-3.4492872911353745
4.670432915921289,8.370446542077419,3.301857458227088,-3.3819056445780733
4.67843023255814,8.375551212271153,3.369579416130638,-3.314523998020772
4.686427549194992,8.380655882464888,3.4373013740341882,-3.247142351463471
4.694424865831843,8.385760552658624,3.505023331937738,-3.17976070490617
4.702422182468695,8.390865222852359,3.5727452898412886,-3.1123790583488686
4.710419499105546,8.395969893046093,3.640467247744839,-3.0449974117915675
4.718416815742398,8.401074563239828,3.708189205648389,-2.977615765234266
4.72641413237925,8.112464221824759,5.052838998211561,-3.198946332736995
4.734411449016101,7.765396978731864,5.003276346650764,-2.992434883720932
4.742408765652953,7.775704631286028,4.989858626515601,-3.0028313953488386
4.750406082289804,7.786012283840193,4.976440906380439,-3.013227906976746
4.758403398926656,7.796319936394356,4.963023186245278,-3.0236244186046526
4.766400715563507,7.806627588948521,4.949605466110116,-3.0340209302325594
4.7743980322003585,7.8169352415026845,4.936187745974954,-3.044417441860466
4.78239534883721,7.827242894056848,4.9227700258397915,-3.0548139534883734
4.790392665474061,7.837550546611013,4.90935230570463,-3.06521046511628
4.798389982110913,7.847858199165176,4.895934585569468,-3.075606976744187
4.806387298747765,7.858165851719342,4.8825168654343045,-3.086003488372095
4.814384615384617,7.868473504273506,4.869099145299143,-3.096400000000002
4.822381932021468,7.953697227191466,5.162025044722925,-3.1858430232558685
4.8303792486583195,7.445520306771286,5.365422607555927,-3.6613743247312174
4.838376565295171,7.446470483005367,5.373499105545618,-3.6437960644007124
4.846373881932022,7.447420659239448,5.3815756035353095,-3.6262178040702073
4.854371198568874,7.44837083547353,5.389652101525002,-3.6086395437397023
4.862368515205725,7.449321011707611,5.397728599514693,-3.591061283409197
4.870365831842577,7.450271187941692,5.405805097504385,-3.573483023078692
4.878363148479428,7.451221364175773,5.413881595494076,-3.555904762748187
4.8863604651162795,7.452171540409855,5.4219580934837674,-3.5383265024176818
4.894357781753132,7.4531217166439365,5.4300345914734605,-3.5207482420871745
4.902355098389983,7.454071892878018,5.438111089463152,-3.5031699817566695
4.910352415026835,7.455022069112099,5.446187587452844,-3.485591721426164
4.918349731663686,7.455972245346181,5.454264085442535,-3.468013461095659
4.926347048300538,7.456922421580262,5.462340583432226,-3.450435200765154
4.934344364937389,8.272493738819312,4.996035219141325,-3.1485180008944615
4.9423416815742405,8.191066514880463,4.9968531265246385,-3.2302178606277505
4.950338998211092,8.109639290941612,4.997671033907953,-3.3119177203610395
4.958336314847943,8.02821206700276,4.998488941291267,-3.3936175800943285
4.966333631484795,7.946784843063909,4.999306848674581,-3.4753174398276174
4.974330948121647,7.865357619125049,5.000124756057896,-3.5570172995609153
4.9823282647584985,7.783930395186198,5.000942663441211,-3.6387171592942043
4.99032558139535,7.702503171247348,5.0017605708245245,-3.7204170190274937
4.998322898032201,7.621075947308497,5.002578478207838,-3.8021168787607826
5.006320214669053,7.539648723369646,5.003396385591153,-3.8838167384940716
5.014317531305904,7.458221499430795,5.004214292974467,-3.9655165982273606
5.022314847942756,7.391964221824716,5.026094812164629,-4.167420393560221
5.030312164579607,7.467762421374573,5.220505501375341,-3.402359185950342
5.038309481216459,7.460023082693749,5.201501125281318,-3.4589423509723654
5.04630679785331,7.4522837440129255,5.182496749187295,-3.515525515994389
5.0543041144901615,7.444544405332102,5.163492373093272,-3.5721086810164127
5.062301431127014,7.436805066651277,5.1444879969992465,-3.6286918460384423
5.070298747763865,7.429065727970452,5.125483620905223,-3.685275011060466
5.078296064400717,7.421326389289629,5.1064792448112,-3.7418581760824896
5.086293381037568,7.413587050608805,5.087474868717177,-3.798441341104513
5.0942906976744196,7.405847711927981,5.068470492623154,-3.855024506126537
5.102288014311271,7.398108373247157,5.049466116529131,-3.9116076711485603
5.110285330948122,7.3903690345663335,5.030461740435108,-3.9681908361705838
5.118282647584974,7.38262969588551,5.0114573643410845,-4.024774001192608
5.126279964221825,6.911669690774318,5.020645796064277,-4.294019166879589
5.134277280858677,7.877453885907384,4.147472331544431,-3.1219789107533265
5.142274597495529,7.973865980918325,4.205319588550996,-3.093810584376858
5.1502719141323805,8.070278075929256,4.263166845557554,-3.0656422580003926
5.158269230769232,8.166690170940186,4.321014102564112,-3.037473931623927
5.166266547406083,8.263102265951117,4.37886135957067,-3.009305605247462
5.174263864042935,8.359514360962047,4.436708616577229,-2.9811372788709964
5.182261180679786,8.455926455972978,4.494555873583787,-2.952968952494531
5.190258497316638,8.552338550983908,4.552403130590345,-2.9248006261180657
5.198255813953489,8.648750645994838,4.610250387596903,-2.8966322997416003
5.206253130590341,8.74516274100577,4.668097644603462,-2.868463973365135
5.214250447227192,8.841574836016699,4.72594490161002,-2.8402956469886695
5.222247763864043,8.865626118067949,4.850506708407901,-2.896248658318463
5.230245080500896,7.771531305903477,4.897057245080516,-3.635926654740531
5.238242397137747,7.852204531902204,5.029721526535486,-3.4852793679189022
5.246239713774599,7.830510661484998,5.080830814467548,-3.4785689757983254
5.25423703041145,7.808816791067791,5.131940102399611,-3.471858583677749
5.2622343470483015,7.787122920650585,5.183049390331673,-3.4651481915571725
5.270231663685153,7.7654290502333785,5.234158678263735,-3.458437799436596
5.278228980322004,7.743735179816173,5.285267966195797,-3.4517274073160196
5.286226296958856,7.722041309398966,5.33637725412786,-3.445017015195443
5.294223613595707,7.70034743898176,5.387486542059921,-3.4383066230748667
5.302220930232559,7.678653568564553,5.438595829991984,-3.43159623095429
5.310218246869411,7.656959698147345,5.489705117924052,-3.424885838833713
5.3182155635062625,7.635265827730139,5.540814405856114,-3.418175446713136
5.326212880143114,7.076635062611667,5.020311270125145,-4.845359570661982
5.334210196779965,7.096363148479446,4.9213869074239645,-4.808915529964207
5.342207513416817,7.224320214669069,4.871903510733446,-4.703450916815728
5.350204830053668,7.224252992981972,4.90126912756296,-4.678867448740881
5.35820214669052,7.210103894316773,4.939307646438241,-4.663180404568596
5.366199463327371,7.195954795651574,4.977346165313521,-4.64749336039631
5.3741967799642225,7.181805696986376,5.015384684188802,-4.631806316224025
5.382194096601074,7.1676565983211775,5.053423203064082,-4.61611927205174
5.390191413237926,7.153507499655977,5.091461721939367,-4.600432227879453
5.398188729874778,7.139358400990778,5.1295002408146475,-4.584745183707167
5.406186046511629,7.12520930232558,5.167538759689927,-4.5690581395348815
5.414183363148481,7.111060203660381,5.205577278565208,-4.553371095362596
5.422180679785332,6.910091234346897,5.086282647584852,-4.884758497316913
5.4301779964221835,6.409174597495269,6.633143291592209,-4.499388193202097
5.438175313059035,6.046901885234607,6.489371404981397,-4.4902457685427315
5.446172629695886,5.898556055751032,6.250154966679094,-4.529529290923749
5.454169946332738,5.750210226267459,6.0109385283767915,-4.568812813304766
5.462167262969589,5.601864396783886,5.771722090074489,-4.608096335685784
5.470164579606441,5.453518567300312,5.532505651772186,-4.6473798580668015
5.478161896243293,5.305172737816722,5.293289213469857,-4.686663380447823
5.486159212880144,5.156826908333148,5.054072775167553,-4.725946902828841
5.494156529516996,5.008481078849575,4.814856336865251,-4.765230425209858
5.502153846153847,4.860135249366001,4.575639898562947,-4.804513947590875
5.510151162790699,4.711789419882428,4.336423460260645,-4.843797469971893
5.51814847942755,4.563443590398854,4.097207021958342,-4.883080992352911
5.526145796064402,4.134277025300209,4.064915921288031,-5.7021386404294985
5.534143112701253,8.362432291883328,9.243886466697154,-3.1853063194242304
5.5421404293381045,8.218945552689588,9.069898333818678,-3.2583050817489783
5.550137745974956,8.075458813495848,8.8959102009402,-3.3313038440737266
5.558135062611808,7.93197207430209,8.721922068061705,-3.4043026063984834
5.56613237924866,7.78848533510835,8.547933935183227,-3.4773013687232313
5.574129695885511,7.6449985959146085,8.373945802304751,-3.5503001310479796
5.5821270125223625,7.501511856720867,8.199957669426276,-3.623298893372728
5.590124329159214,7.358025117527126,8.025969536547798,-3.6962976556974763
5.598121645796065,7.214538378333385,7.851981403669322,-3.7692964180222246
5.606118962432917,7.071051639139644,7.677993270790846,-3.842295180346973
5.614116279069768,6.927564899945903,7.504005137912369,-3.9152939426717213
5.62211359570662,6.015663237924645,6.423825134167897,-4.646407423971563
5.630110912343471,3.9983327370316712,4.8559033989278575,-5.675461538461055
5.638108228980323,5.506690339892666,6.499353846153858,-5.065590071556349
5.646105545617175,5.5232181276088275,6.743894017094054,-5.024626038560917
5.654102862254026,5.539745915324987,6.988434188034223,-4.983662005565488
5.662100178890878,5.556273703041147,7.232974358974391,-4.942697972570061
5.670097495527729,5.572801490757307,7.4775145299145604,-4.901733939574632
5.678094812164581,5.589329278473467,7.722054700854729,-4.860769906579204
5.686092128801432,5.605857066189626,7.966594871794898,-4.8198058735837765
5.6940894454382835,5.6223848539057855,8.211135042735068,-4.778841840588348
5.702086762075135,5.638912641621945,8.455675213675235,-4.737877807592921
5.710084078711986,5.655440429338105,8.700215384615404,-4.696913774597492
5.718081395348838,5.671968217054265,8.944755555555574,-4.655949741602065
5.72607871198569,4.1391953488370605,6.329392844364686,-6.032708765653092
5.734076028622542,3.2465330948124067,4.816790697674737,-6.8845143112700455
5.742073345259393,3.4834408117944706,5.19349176485105,-6.77601492813521
5.7500706618962445,3.5653443649373977,5.374948121645818,-6.714977936791883
5.758067978533096,3.647247918080325,5.556404478440585,-6.653940945448557
5.766065295169947,3.7291514712232514,5.737860835235352,-6.592903954105231
5.774062611806799,3.8110550243661785,5.91931719203012,-6.531866962761905
5.78205992844365,3.8929585775091056,6.100773548824888,-6.4708299714185795
5.790057245080502,3.9748621306520326,6.282229905619655,-6.409792980075253
5.798054561717353,4.05676568379496,6.463686262414423,-6.348755988731927
5.8060518783542046,4.138669236937886,6.6451426192091905,-6.287718997388601
5.814049194991057,4.220572790080823,6.826598976003978,-6.226682006045268
5.822046511627908,4.3077209302327155,7.033465116279798,-6.193558139535643
5.83004382826476,2.567351137234554,5.655806158956939,-9.04672553028393
5.838041144901611,2.9001107889704407,4.6239297390660985,-7.707738510887651
5.846038461538463,2.838981874447381,4.797940318302417,-7.612230327144104
5.854035778175314,2.777852959924322,4.9719508975387345,-7.516722143400557
5.8620330948121655,2.7167240454012624,5.145961476775053,-7.42121395965701
5.870030411449017,2.6555951308782033,5.319972056011371,-7.325705775913463
5.878027728085868,2.5944662163551437,5.493982635247689,-7.230197592169916
5.88602504472272,2.533337301832084,5.667993214484007,-7.134689408426369
5.894022361359572,2.472208387309018,5.842003793720344,-7.039181224682811
5.902019677996424,2.411079472785959,6.016014372956662,-6.943673040939265
5.910016994633275,2.3499505582628992,6.19002495219298,-6.848164857195718
5.9180143112701264,2.2888216437398397,6.364035531429298,-6.7526566734521705
5.926011627906978,1.7762534883720966,4.060179069767413,-6.462753488372131
5.934008944543829,1.8016895249453415,4.119410574438497,-7.737602862254037
5.942006261180681,1.8221271119061841,4.248078513218063,-7.8295720035778285
5.950003577817532,1.8425646988670268,4.3767464519976285,-7.92154114490162
5.958000894454384,1.8630022858278692,4.505414390777194,-8.013510286225412
5.965998211091235,1.8834398727887118,4.63408232955676,-8.105479427549204
5.9739955277280865,1.9038774597495545,4.762750268336325,-8.197448568872995
5.981992844364939,1.9243150467103993,4.891418207115905,-8.289417710196798
5.98999016100179,1.944752633671242,5.020086145895471,-8.381386851520588
5.997987477638642,1.9651902206320846,5.148754084675036,-8.47335599284438
6.005984794275493,1.9856278075929272,5.277422023454601,-8.565325134168171
6.013982110912345,2.0060653945537696,5.406089962234168,-8.657294275491964
6.021979427549196,2.0021261180679546,5.704111806798058,-9.401725402505205
6.0299767441860475,1.1432718023255755,3.061517441860485,-7.839104651162804
6.037974060822899,1.096370872465707,3.2131332364341265,-7.946401982707227
6.04597137745975,1.049469942605839,3.364749031007768,-8.05369931425165
6.053968694096602,1.0025690127459705,3.5163648255814097,-8.160996645796075
6.061966010733454,0.9556680828860971,3.6679806201550686,-8.26829397734051
6.0699633273703055,0.9087671530262288,3.8195964147287103,-8.375591308884934
6.077960644007157,0.8618662231663605,3.971212209302352,-8.482888640429357
6.085957960644008,0.8149652933064921,4.122828003875993,-8.59018597197378
6.09395527728086,0.7680643634466239,4.274443798449635,-8.697483303518204
6.101952593917711,0.7211634335867556,4.426059593023277,-8.804780635062627
6.109949910554563,0.6742625037268873,4.577675387596919,-8.91207796660705
6.117947227191414,0.6273615738670191,4.72929118217056,-9.019375298151473
6.125944543828266,0.10994991055409159,4.684008944543652,-9.448368515206054
6.133941860465117,0.2930116279070915,5.104602325581495,-8.621058139534691
6.141939177101969,0.9201559928444416,4.940388908765545,-8.273761717352459
6.149936493738821,0.7645418651116406,4.95961459470761,-8.400605371372821
6.157933810375672,0.8124219036777252,4.9132924749668865,-8.440488093302054
6.165931127012524,0.8603019422438097,4.8669703552261625,-8.480370815231288
6.173928443649375,0.9081819808098943,4.8206482354854385,-8.52025353716052
6.1819257602862265,0.956062019375979,4.7743261157447145,-8.560136259089752
6.189923076923078,1.0039420579420635,4.728003996003991,-8.600018981018986
6.197920393559929,1.0518220965081482,4.681681876263267,-8.639901702948219
6.205917710196781,1.0997021350742329,4.635359756522543,-8.679784424877452
6.213915026833632,1.1475821736403173,4.589037636781819,-8.719667146806685
6.221912343470484,1.26572450805015,4.836756708408102,-8.603094812164459
6.229909660107336,1.457694029276547,4.902843932136879,-8.374722815319219
6.2379069767441875,1.4438492123030728,4.893814703675917,-8.394501125281323
6.245904293381039,1.4300043953295989,4.884785475214956,-8.41427943524343
6.25390161001789,1.416159578356125,4.875756246753995,-8.434057745205536
6.261898926654742,1.402314761382651,4.866727018293033,-8.45383605516764
6.269896243291593,1.3884699444091768,4.857697789832072,-8.473614365129746
6.277893559928445,1.3746251274357029,4.8486685613711105,-8.493392675091853
6.285890876565296,1.360780310462229,4.839639332910149,-8.513170985053959
6.2938881932021475,1.346935493488755,4.830610104449188,-8.532949295016063
6.301885509838999,1.333090676515281,4.821580875988227,-8.55272760497817
6.309882826475851,1.3192458595418053,4.812551647527264,-8.572505914940278
6.317880143112703,1.3054010425683313,4.803522419066303,-8.592284224902384
6.325877459749554,1.2968971377459908,5.2722316636854085,-8.310741949910414
6.333874776386406,1.358412962708135,5.168760463150448,-8.319198175706225
6.341872093023257,1.376253130590342,5.187567339637109,-8.30584002044467
6.3498694096601085,1.3940932984725491,5.206374216123771,-8.292481865183117
6.35786672629696,1.4119334663547565,5.225181092610433,-8.279123709921562
6.365864042933811,1.4297736342369636,5.243987969097095,-8.265765554660009
6.373861359570663,1.4476138021191707,5.262794845583756,-8.252407399398454
6.381858676207514,1.465453970001378,5.281601722070418,-8.239049244136899
6.389855992844366,1.483294137883585,5.30040859855708,-8.225691088875346
6.397853309481218,1.5011343057657942,5.319215475043744,-8.21233293361379
6.405850626118069,1.5189744736480013,5.338022351530405,-8.198974778352236
6.413847942754921,1.5368146415302086,5.356829228017068,-8.185616623090683
6.421845259391772,1.5546548094124157,5.375636104503729,-8.172258467829128
6.429842576028624,1.5751404293380795,5.155504472271924,-8.214157423971377
6.437839892665475,1.478117266053914,5.2038273394608625,-8.203820862377396
6.445837209302327,1.4762788024592355,5.222211975407648,-8.190951617214647
6.453834525939178,1.4744403388645568,5.240596611354432,-8.178082372051898
6.4618318425760295,1.4726018752698784,5.258981247301217,-8.16521312688915
6.469829159212881,1.4707634116752,5.277365883248002,-8.152343881726399
6.477826475849733,1.468924948080521,5.295750519194789,-8.139474636563648
6.485823792486585,1.4670864844858427,5.314135155141574,-8.126605391400899
6.493821109123436,1.4652480208911642,5.332519791088359,-8.11373614623815
6.501818425760288,1.4634095572964856,5.350904427035144,-8.100866901075399
6.509815742397139,1.4615710937018072,5.369289062981928,-8.08799765591265
6.51781305903399,1.4597326301071287,5.3876736989287135,-8.075128410749901
6.525810375670842,1.4997053804871248,5.242763451217812,-8.178029035365345
6.533807692307693,1.4504911242603464,5.119727810650867,-8.14111834319526
6.541805008944545,1.3526574239713711,4.7529180679785386,-8.481056171735256
6.549802325581396,1.3005431666135714,4.807653711373052,-8.598493947116916
6.557799642218248,1.3029533168328966,4.841614919008996,-8.591811257872424
6.5657969588551,1.3053634670522218,4.875576126644944,-8.58512856862793
6.573794275491951,1.307773617271547,4.909537334280889,-8.578445879383438
6.581791592128803,1.310183767490872,4.943498541916833,-8.571763190138945
6.589788908765654,1.312593917710197,4.977459749552778,-8.565080500894453
6.597786225402506,1.3150040679295223,5.011420957188721,-8.55839781164996
6.605783542039357,1.3174142181488473,5.045382164824666,-8.551715122405469
6.613780858676209,1.3198243683681723,5.0793433724606105,-8.545032433160976
6.62177817531306,1.3484579606440283,5.165250447227236,-8.44795348837202
6.6297754919499114,1.1508999557581694,4.962169898243789,-8.575978244561142
6.637772808586763,1.1414407640371622,4.940413757285473,-8.58939309827457
6.645770125223615,1.1319815723161541,4.918657616327154,-8.602807951988
6.653767441860467,1.1225223805951472,4.896901475368838,-8.616222805701428
6.661764758497318,1.11306318887414,4.875145334410522,-8.629637659414856
6.6697620751341695,1.1036039971531328,4.853389193452205,-8.643052513128284
6.677759391771021,1.0941448054321259,4.831633052493889,-8.656467366841712
6.685756708407872,1.0846856137111187,4.809876911535573,-8.66988222055514
6.693754025044724,1.0752264219901118,4.788120770577257,-8.683297074268568
6.701751341681575,1.0657672302691046,4.766364629618941,-8.696711927981996
6.709748658318427,1.0563080385480974,4.744608488660624,-8.710126781695426
6.717745974955278,1.0468488468270905,4.722852347702308,-8.723541635408854
6.72574329159213,1.4659194991055517,5.171068872987491,-8.288194841979713
6.733740608228982,1.4210391147916626,5.295397318646853,-8.095847661353545
6.741737924865833,1.4212188297722659,5.2512772909087175,-8.122715050953754
6.749735241502685,1.4213985447528694,5.207157263170582,-8.149582440553964
6.757732558139536,1.4215782597334727,5.163037235432446,-8.176449830154171
6.765729874776388,1.4217579747140763,5.118917207694311,-8.20331721975438
6.773727191413239,1.4219376896946796,5.0747971799561755,-8.23018460935459
6.7817245080500905,1.422117404675283,5.03067715221804,-8.257051998954799
6.789721824686942,1.4222971196558865,4.986557124479904,-8.283919388555008
6.797719141323793,1.4224768346364898,4.942437096741768,-8.310786778155215
6.805716457960645,1.422656549617093,4.898317069003633,-8.337654167755424
6.813713774597497,1.4228362645976966,4.854197041265492,-8.364521557355637
6.821711091234349,1.4258443649373946,4.827510733452624,-8.458686940966166
6.8297084078712,1.5971464240855484,5.498917443763548,-7.9544233243253615
6.8377057245080515,1.5178538804095323,5.439618191679661,-8.002917691165845
6.845703041144903,1.4385613367335162,5.380318939595774,-8.051412058006326
6.853700357781754,1.3592687930574998,5.321019687511885,-8.099906424846807
6.861697674418606,1.279976249381484,5.261720435427998,-8.148400791687289
6.869694991055457,1.2006837057054676,5.202421183344111,-8.196895158527772
6.877692307692309,1.1213911620294517,5.143121931260223,-8.245389525368253
6.88568962432916,1.0420986183534353,5.083822679176335,-8.293883892208735
6.8936869409660115,0.9628060746774193,5.024523427092448,-8.342378259049218
6.901684257602864,0.8835135310013944,4.9652241750085535,-8.390872625889704
6.909681574239715,0.8042209873253783,4.905924922924666,-8.439366992730186
6.917678890876567,0.7249284436493622,4.846625670840778,-8.487861359570669
6.925676207513418,0.6018767279232194,4.601793137095414,-8.640634249471487
6.93367352415027,0.4191952892068812,4.2900539654144225,-8.88080471079312
6.941670840787121,0.2013005366727108,4.112273703040949,-8.964531305903092
6.9496681574239725,0.39830926050692966,4.021013637525263,-8.994329496085314
6.957665474060824,0.3620616825035381,4.001279999070694,-9.020190948586302
6.965662790697675,0.3258141045001465,3.9815463606161257,-9.04605240108729
6.973660107334527,0.28956652649675485,3.9618127221615573,-9.071913853588276
6.981657423971379,0.25331894849335923,3.942079083706987,-9.097775306089265
6.9896547406082306,0.21707137048996766,3.922345445252418,-9.123636758590253
6.997652057245082,0.18082379248657607,3.9026118067978497,-9.14949821109124
7.005649373881933,0.14457621448318447,3.8828781683432814,-9.175359663592227
7.013646690518785,0.1083286364797929,3.8631445298887126,-9.201221116093214
7.021644007155636,0.11203041144909677,3.8633542039356397,-9.187969588550903
7.029641323792488,0.26780559562967365,3.8165185911862682,-9.223370082905335
7.037638640429339,0.2522409256160167,3.867770211783724,-9.195938426914415
7.045635957066191,0.23667625560235972,3.9190218323811803,-9.168506770923495
7.053633273703042,0.22111158558870275,3.9702734529786365,-9.141075114932574
7.061630590339894,0.20554691557504406,4.021525073576098,-9.113643458941652
7.069627906976746,0.18998224556138713,4.072776694173554,-9.086211802950732
7.077625223613597,0.17441757554773019,4.12402831477101,-9.058780146959812
7.085622540250449,0.15885290553407322,4.175279935368466,-9.031348490968892
7.0936198568873,0.14328823552041625,4.226531555965923,-9.003916834977971
7.101617173524152,0.12772356550675928,4.2777831765633785,-8.976485178987051
7.109614490161003,0.11215889549310235,4.329034797160834,-8.949053522996131
7.117611806797854,0.09659422547944538,4.38028641775829,-8.92162186700521
7.125609123434706,0.31694096601061783,4.200615831842633,-8.76123434704825
7.133606440071557,0.29978116317131964,4.375235051193249,-8.70021883682868
7.141603756708409,0.3213058558215687,4.437256794047129,-8.678694144178431
7.149601073345261,0.3428305484718201,4.499278536901015,-8.65716945152818
7.1575983899821125,0.3643552411220691,4.561300279754895,-8.63564475887793
7.165595706618964,0.3858799337723181,4.623322022608774,-8.614120066227683
7.173593023255815,0.40740462642256714,4.685343765462654,-8.592595373577433
7.181590339892667,0.4289293190728162,4.747365508316533,-8.571070680927184
7.189587656529518,0.45045401172306515,4.8093872511704125,-8.549545988276934
7.19758497316637,0.4719787043733142,4.871408994024293,-8.528021295626687
7.205582289803221,0.49350339702356316,4.933430736878172,-8.506496602976437
7.213579606440073,0.5150280896738122,4.995452479732052,-8.484971910326188
7.221576923076924,0.5525961538461814,4.853384615384302,-8.533942307692415
7.229574239713776,0.2891890280261391,3.551772212283847,-9.410810971973861
7.237571556350628,0.4607660595218708,3.7879875996097017,-9.223649089282807
7.245568872987479,0.4498606277443461,3.8247025532607015,-9.20729094161652
7.253566189624331,0.4389551959668214,3.8614175069117014,-9.190932793950232
7.261563506261182,0.42804976418929674,3.8981324605627012,-9.174574646283945
7.2695608228980335,0.41714433241177207,3.9348474142137007,-9.158216498617659
7.277558139534885,0.4062389006342474,3.9715623678647005,-9.141858350951372
7.285555456171736,0.3953334688567227,4.008277321515701,-9.125500203285085
7.293552772808588,0.38442803707919804,4.0449922751667,-9.109142055618797
7.301550089445439,0.3735226053016733,4.0817072288177,-9.09278390795251
7.309547406082291,0.36261717352414863,4.1184221824686995,-9.076425760286224
7.317544722719143,0.35171174174662273,4.155137136119704,-9.060067612619935
7.3255420393559945,0.11257602862239353,3.04657602862185,-9.518729874776824
7.333539355992846,0.3689896731175751,4.304927417059682,-9.224881281509177
7.341536672629697,0.3391814929256743,4.289023662384125,-9.163810863555039
7.349533989266549,0.3093733127337735,4.273119907708568,-9.102740445600901
7.3575313059034,0.2795651325418727,4.257216153033012,-9.041670027646763
7.365528622540252,0.24975695234997192,4.241312398357454,-8.980599609692625
7.373525939177103,0.21994877215807115,4.225408643681898,-8.919529191738487
7.3815232558139545,0.19014059196617036,4.209504889006341,-8.85845877378435
7.389520572450806,0.16033241177426957,4.193601134330784,-8.797388355830211
7.397517889087658,0.13052423158236548,4.177697379655226,-8.736317937876066
7.40551520572451,0.10071605139046469,4.161793624979669,-8.675247519921928
7.413512522361361,0.0709078711985639,4.145889870304112,-8.61417710196779
7.421509838998213,0.24387656529568047,3.973714669051479,-8.636534883721133
7.429507155635064,0.38103903246678744,3.3585191260990337,-9.214960187264493
7.4375044722719155,0.36521455486620913,3.344226049556576,-9.218022989380733
7.445501788908767,0.34939007726563076,3.329932973014118,-9.221085791496975
7.453499105545618,0.33356559966505245,3.31563989647166,-9.224148593613217
7.46149642218247,0.31774112206447414,3.3013468199292024,-9.227211395729457
7.469493738819321,0.3019166444638958,3.2870537433867444,-9.230274197845699
7.477491055456173,0.2860921668633175,3.272760666844287,-9.233336999961939
7.485488372093025,0.2702676892627374,3.2584675903018274,-9.23639980207818
7.493485688729876,0.2544432116621591,3.2441745137593694,-9.23946260419442
7.501483005366728,0.23861873406158077,3.2298814372169113,-9.242525406310662
7.509480322003579,0.22279425646100243,3.2155883606744537,-9.245588208426902
7.517477638640431,0.20696977886042411,3.2012952841319957,-9.248651010543144
7.525474955277282,0.13607206746739337,2.5186424738050217,-9.452012266803038
7.533472271914134,-0.2,2.0563202146690487,-9.683796064400715
7.541469588550985,-0.2,2.0278752134493385,-9.680342677671165
7.5494669051878365,-0.2,1.9994302122296284,-9.676889290941617
7.557464221824688,-0.2,1.9709852110099182,-9.673435904212067
7.56546153846154,-0.2,1.942540209790205,-9.669982517482516
7.573458855098392,-0.2,1.9140952085704945,-9.666529130752968
7.581456171735243,-0.2,1.8856502073507844,-9.663075744023418
7.5894534883720945,-0.2,1.8572052061310742,-9.659622357293868
7.597450805008946,-0.2,1.828760204911364,-9.65616897056432
7.605448121645797,-0.2,1.8003152036916539,-9.65271558383477
7.613445438282649,-0.2,1.7718702024719437,-9.649262197105221
7.6214427549195,-0.2,1.814291144901735,-9.654412343470499
7.629440071556352,0.07602862254081036,1.5855277280852362,-9.747384615384314
7.637437388193203,0.42395646988671654,1.1743357185450027,-9.468955500894436
7.645434704830055,0.4956522723670199,1.0519136115577048,-9.386260546636175
7.653432021466907,0.4855290867507511,0.9935028305518339,-9.419464595457535
7.661429338103758,0.47540590113448344,0.9350920495459694,-9.452668644278894
7.66942665474061,0.46528271551821576,0.8766812685401049,-9.485872693100251
7.677423971377461,0.4551595299019481,0.8182704875342404,-9.51907674192161
7.685421288014313,0.4450363442856804,0.7598597065283759,-9.552280790742968
7.693418604651164,0.43491315866941277,0.7014489255225115,-9.585484839564327
7.7014159212880156,0.4247899730531451,0.643038144516647,-9.618688888385684
7.709413237924867,0.4146667874368774,0.5846273635107825,-9.651892937207041
7.717410554561718,0.4045436018206097,0.526216582504918,-9.6850969860284
7.72540787119857,0.34780679785309515,0.3489373881930387,-9.729381037567112
7.733405187835422,0.578163799337724,0.11525428196246704,-9.678594850226473
7.741402504472274,0.5813967571270894,0.10053581623719796,-9.690335591672062
7.749399821109125,0.5846297149164549,0.08581735051192886,-9.702076333117652
7.7573971377459765,0.5878626727058204,0.07109888478665977,-9.713817074563243
7.765394454382828,0.5910956304951859,0.056380419061390685,-9.725557816008834
7.773391771019679,0.5943285882845513,0.041661953336121604,-9.737298557454425
7.781389087656531,0.5975615460739168,0.02694348761085251,-9.749039298900014
7.789386404293382,0.6007945038632823,0.012225021885583415,-9.760780040345605
7.797383720930234,0.6040274616526476,-0.002493443839685666,-9.772520781791195
7.805381037567085,0.6072604194420131,-0.01721190956495476,-9.784261523236786
7.8133783542039374,0.610493377231379,-0.03193037529022548,-9.796002264682377
7.821375670840789,0.6137263350207445,-0.04664884101549456,-9.807743006127968
7.82937298747764,0.5105465116279672,-0.18936672629686946,-9.941897137745958
7.837370304114492,0.4150352354726568,0.924157142569993,-9.33958750577879
7.845367620751343,0.43156901368816997,0.8933360233965092,-9.401050029145154
7.853364937388195,0.44810279190368313,0.8625149042230255,-9.462512552511518
7.861362254025046,0.4646365701191963,0.8316937850495416,-9.523975075877882
7.8693595706618975,0.4811703483347095,0.8008726658760579,-9.585437599244246
7.877356887298749,0.49770412655022267,0.770051546702574,-9.64690012261061
7.8853542039356,0.5142379047657358,0.7392304275290903,-9.708362645976974
7.893351520572452,0.530771682981249,0.7084093083556064,-9.769825169343338
7.901348837209304,0.547305461196764,0.6775881891821193,-9.83128769270971
7.909346153846156,0.5638392394122771,0.6467670700086354,-9.892750216076074
7.917343470483007,0.5803730176277904,0.6159459508351517,-9.954212739442438
7.9253407871198585,0.4,0.5,-9.7
7.93333810375671,0.4489300209667829,0.28928793736895236,-9.754669917479376
7.941335420393561,0.46380674976436664,0.26125433281396804,-9.778145911477875
7.949332737030413,0.47868347856195037,0.23322072825898366,-9.801621905476374
7.957330053667264,0.4935602073595341,0.20518712370399933,-9.825097899474873
7.965327370304116,0.5084369361571178,0.17715351914901498,-9.848573893473372
7.973324686940967,0.5233136649547016,0.14911991459403062,-9.87204988747187
7.981322003577819,0.5381903937522869,0.12108631003904316,-9.895525881470373
7.989319320214671,0.5530671225498707,0.0930527054840588,-9.919001875468872
7.997316636851522,0.5679438513474544,0.06501910092907448,-9.942477869467371
8.005313953488374,0.582820580145038,0.0369854963740901,-9.96595386346587
8.013311270125225,0.5976973089426217,0.008951891819105773,-9.98942985746437
8.021308586762077,0.5043032200354893,0.19523345259448974,-9.904303220035489
8.029305903398928,0.25167942754913963,0.5315717352414998,-9.822424806201523
8.03730322003578,0.034152415026788785,0.5203754919499083,-9.71152868217052
8.045300536672631,0.42894465563506606,0.3938627236135918,-9.728944655635066
8.053297853309482,0.44244012745975286,0.37856785554561345,-9.742440127459753
8.061295169946334,0.45593559928443966,0.3632729874776351,-9.75593559928444
8.069292486583185,0.46943107110912646,0.3479781194096567,-9.769431071109127
8.077289803220037,0.4829265429338132,0.33268325134167837,-9.782926542933813
8.085287119856888,0.4964220147585,0.3173883832737,-9.7964220147585
8.09328443649374,0.5099174865831868,0.30209351520572164,-9.809917486583187
8.101281753130591,0.5234129584078736,0.2867986471377433,-9.823412958407873
8.109279069767444,0.5369084302325634,0.27150377906976153,-9.836908430232564
8.117276386404296,0.5504039020572502,0.25620891100178317,-9.85040390205725
8.125273703041147,1.5132417110998968,1.0418653281692254,-9.715899022178993
8.133271019677998,1.4326473939246365,1.0087114038591711,-9.712948555846951
8.14126833631485,1.3520530767493761,0.9755574795491171,-9.70999808951491
8.149265652951701,1.2714587595741158,0.942403555239063,-9.707047623182866
8.157262969588553,1.1908644423988555,0.9092496309290089,-9.704097156850825
8.165260286225404,1.1102701252235954,0.8760957066189549,-9.701146690518783
8.173257602862256,1.029675808048335,0.8429417823089007,-9.698196224186741
8.181254919499107,0.9490814908730746,0.8097878579988467,-9.695245757854698
8.189252236135959,0.8684871736978143,0.7766339336887926,-9.692295291522656
8.19724955277281,0.787892856522554,0.7434800093787385,-9.689344825190615
8.205246869409661,0.7072985393472937,0.7103260850686843,-9.686394358858571
8.213244186046513,0.6267042221720334,0.6771721607586303,-9.68344389252653
8.221241502683364,0.546109904996773,0.6440182364485763,-9.680493426194488
8.229238819320216,0.600023703041232,0.9498618067980916,-9.614200805008899
8.237236135957067,-0.29802683363200794,0.11264221824588128,-9.972813953488151
8.245233452593919,-0.43938885858889826,-0.38441775382865606,-9.784152111784978
8.25323076923077,-0.15567917448401258,-0.10295121951215558,-9.762208255159472
8.261228085867621,0.12803050962087303,0.17851531480434502,-9.740264398533965
8.269225402504473,0.41174019372575854,0.4599818491208454,-9.718320541908458
8.277222719141326,0.6954498778307072,0.7414483834374086,-9.696376685282948
8.285220035778178,0.9791595619355928,1.022914917753909,-9.67443282865744
8.293217352415029,1.2628692460404785,1.3043814520704096,-9.652488972031934
8.30121466905188,1.5465789301453643,1.58584798638691,-9.630545115406427
8.309211985688732,1.83028861425025,1.8673145207034108,-9.60860125878092
8.317209302325583,2.1139982983551358,2.148781055019911,-9.586657402155414
8.325206618962435,0.8453094812176937,0.9373094812176936,-9.500654740608846
8.333203935599286,1.705893094812154,1.8727125581395463,-9.931194704830048
8.341201252236138,1.6593487119856785,1.9226158139534995,-9.908242406082286
8.349198568872989,1.612804329159203,1.9725190697674526,-9.885290107334521
8.35719588550984,1.5662599463327274,2.0224223255814056,-9.862337808586757
8.365193202146692,1.5197155635062518,2.0723255813953587,-9.839385509838994
8.373190518783543,1.4731711806797763,2.122228837209312,-9.81643321109123
8.381187835420395,1.426626797853301,2.172132093023265,-9.793480912343467
8.389185152057246,1.3800824150268252,2.222035348837218,-9.770528613595703
8.397182468694098,1.3335380322003498,2.2719386046511714,-9.74757631484794
8.40517978533095,1.2869936493738743,2.3218418604651245,-9.724624016100176
8.4131771019678,1.2404492665473987,2.3717451162790777,-9.701671717352411
8.421174418604652,1.1939048837209232,2.421648372093031,-9.678719418604649
8.429171735241503,-0.6013846153846354,1.6835259391771198,-9.607094812164506
8.437169051878355,-0.5739590041741182,1.8849044424567694,-9.668844066785935
8.445166368515208,0.7141377459769769,2.3670751341688208,-10.061903398926146
8.45316368515206,1.4938139302557907,2.442047173756412,-9.877722393885188
8.461161001788911,1.4936062077457426,2.2400370327346453,-9.890808912018219
8.469158318425762,1.4933984852356945,2.038026891712878,-9.903895430151248
8.477155635062614,1.4931907627256464,1.8360167506911111,-9.916981948284278
8.485152951699465,1.4929830402155984,1.6340066096693442,-9.930068466417307
8.493150268336317,1.4927753177055503,1.4319964686475772,-9.943154984550338
8.501147584973168,1.4925675951955022,1.2299863276258103,-9.956241502683367
8.50914490161002,1.4923598726854541,1.0279761866040433,-9.969328020816397
8.517142218246871,1.492152150175406,0.8259660455822764,-9.982414538949426
8.525139534883722,2.8947674418596194,1.7687209302314097,-10.38546511627903
8.533136851520574,0.6319186046503228,0.7455008944539069,-9.639297853309822
8.541134168157425,0.003475849731672226,0.4154291716936466,-9.895633772933392
8.549131484794277,0.09144633273703955,0.49437942546907665,-9.862714585846817
8.557128801431128,0.1794168157424068,0.5733296792445067,-9.829795398760242
8.56512611806798,0.26738729874777417,0.6522799330199369,-9.796876211673666
8.573123434704831,0.3553577817531415,0.7312301867953669,-9.763957024587091
8.581120751341683,0.4433282647585088,0.810180440570797,-9.731037837500516
8.589118067978534,0.5312987477638761,0.889130694346227,-9.69811865041394
8.597115384615385,0.6192692307692435,0.9680809481216571,-9.665199463327365
8.605112701252237,0.7072397137746108,1.047031201897087,-9.63228027624079
8.61311001788909,0.7952101967799976,1.1259814556725347,-9.599361089154208
8.621107334525941,0.44522987477534726,0.521847942753279,-9.809630590340475
8.629104651162793,0.8112458471758823,0.7308388704318475,-9.697624584717753
8.637101967799644,0.5491135143925729,0.6759856074158405,-9.87230427711823
8.645099284436496,0.5116715319564052,0.6775305435843231,-9.871213733940477
8.653096601073347,0.47422954952023755,0.6790754797528058,-9.870123190762724
8.661093917710199,0.4367875670840699,0.6806204159212884,-9.869032647584973
8.66909123434705,0.39934558464790226,0.682165352089771,-9.86794210440722
8.677088550983902,0.36190360221173457,0.6837102882582536,-9.866851561229469
8.685085867620753,0.32446161977556687,0.6852552244267363,-9.865761018051716
8.693083184257604,0.2870196373393992,0.686800160595219,-9.864670474873963
8.701080500894456,0.24957765490323153,0.6883450967637016,-9.863579931696211
8.709077817531307,0.21213567246706388,0.6898900329321842,-9.862489388518458
8.717075134168159,0.1746936900308962,0.6914349691006668,-9.861398845340707
8.72507245080501,0.4374001192606488,0.8345830351818031,-9.633777579010152
8.733069767441862,0.3042547917199118,0.523525428060314,-9.897431382570916
8.741067084078713,0.3284225068312762,0.5371472311230829,-9.895234317560792
8.749064400715564,0.3525902219426406,0.550769034185852,-9.893037252550668
8.757061717352416,0.37675793705400507,0.564390837248621,-9.890840187540544
8.765059033989267,0.40092565216536946,0.5780126403113901,-9.88864312253042
8.773056350626119,0.42509336727673386,0.5916344433741592,-9.886446057520297
8.781053667262972,0.4492610823881037,0.6052562464369312,-9.884248992510171
8.789050983899823,0.4734287974994681,0.6188780494997003,-9.882051927500047
8.797048300536675,0.4975965126108325,0.6324998525624693,-9.879854862489923
8.805045617173526,0.5217642277221969,0.6461216556252383,-9.8776577974798
8.813042933810378,0.5459319428335613,0.6597434586880073,-9.875460732469676
8.82104025044723,0.5700996579449258,0.6733652617507764,-9.873263667459552
8.82903756708408,0.18777388193206593,0.5524661896243273,-9.78702254025045
8.837034883720932,0.35251860465120904,0.5452686046511608,-9.791820930232559
8.845032200357783,0.5965277280859544,0.5627191413239203,-9.79330769230767
8.853029516994635,0.7220119375257918,0.7780182675106606,-9.760662687491402
8.861026833631486,0.6835632998486221,0.7621261639374305,-9.773478900050458
8.869024150268338,0.6451146621714523,0.7462340603642003,-9.786295112609515
8.87702146690519,0.6066660244942825,0.7303419567909701,-9.799111325168571
8.88501878354204,0.5682173868171128,0.7144498532177399,-9.811927537727628
8.893016100178892,0.529768749139943,0.6985577496445098,-9.824743750286686
8.901013416815744,0.49132011146277316,0.6826656460712796,-9.837559962845742
8.909010733452595,0.45287147378560333,0.6667735424980494,-9.850376175404799
8.917008050089446,0.41442283610843356,0.6508814389248192,-9.863192387963855
8.925005366726298,0.3765339892665657,0.6350536672629714,-9.875728980321993
8.93300268336315,0.6642899150268415,0.5829677996422119,-9.714222830948117
8.941,2.194,1.459,-6.994
