gyro_time_list,gyro_x_list,gyro_y_list,gyro_z_list
0.0,0.1,-0.1,0.0
0.007996891191709845,-0.19545737164390015,0.09545737164390014,0.09091474328780029
0.01599378238341969,-0.18818747056052756,0.08818747056052756,0.07637494112105511
0.023990673575129535,-0.18091756947715498,0.08091756947715498,0.061835138954309934
0.03198756476683938,-0.1736476683937824,0.07364766839378238,0.047295336787564764
0.03998445595854923,-0.16637776731040982,0.0663777673104098,0.03275553462081959
0.04798134715025907,-0.1591078662270372,0.05910786622703721,0.018215732454074415
0.05597823834196891,-0.15183796514366463,0.05183796514366463,0.0036759302873292515
0.06397512953367876,-0.14456806406029205,0.04456806406029204,-0.010863871879415926
0.07197202072538861,-0.13729816297691944,0.037298162976919444,-0.025403674046161118
0.07996891191709846,-0.13002826189354688,0.030028261893546862,-0.03994347621290628
0.08796580310880829,-0.12275836081017429,0.02275836081017428,-0.054483278379651445
0.09596269430051814,-0.1154884597268017,0.015488459726801698,-0.06902308054639661
0.10395958549222799,-0.10821855864342911,0.008218558643429102,-0.0835628827131418
0.11195647668393782,-0.10094865756005653,0.0009486575600565206,-0.09810268487988696
0.11995336787564767,-0.019067357512953503,0.0,0.0
0.12795025906735752,-0.1,0.0,0.0
0.13594715025906737,-0.1,0.0,0.0
0.14394404145077722,-0.1,0.0,0.0
0.15194093264248706,-0.1,0.0,0.0
0.1599378238341969,-0.1,0.0,0.0
0.16793471502590673,-0.1,0.0,0.0
0.17593160621761658,-0.1,0.0,0.0
0.18392849740932643,-0.1,0.0,0.0
0.19192538860103628,-0.1,0.0,0.0
0.19992227979274613,-0.1,0.0,0.0
0.20791917098445598,-0.1,0.0,0.0
0.21591606217616582,-0.1,0.0,0.0
0.22391295336787564,0.0,0.0,0.0
0.2319098445595855,0.0,-0.09549222797927406,0.0
0.23990673575129534,0.0,-0.1,0.0
0.2479036269430052,0.0,-0.1,0.0
0.25590051813471504,0.0,-0.1,0.0
0.26389740932642486,0.0,-0.1,0.0
0.27189430051813473,0.0,-0.1,0.0
0.27989119170984456,0.0,-0.1,0.0
0.28788808290155443,0.0,-0.1,0.0
0.29588497409326425,0.0,-0.1,0.0
0.30388186528497413,0.0,-0.1,0.0
0.31187875647668395,0.0,-0.1,0.0
0.3198756476683938,-0.04378238341969095,-0.1,0.0
0.32787253886010365,-0.1,-0.02363845710995964,0.0
0.33586943005181347,-0.20512172616935193,0.0025608630846759577,0.0
0.34386632124352334,-0.22703101710554338,0.013515508552771687,0.0
0.35186321243523316,-0.2489403080417347,0.02447015402086734,0.0
0.35986010362694304,-0.27084959897792615,0.03542479948896307,0.0
0.36785699481865286,-0.29275888991411747,0.04637944495705872,0.0
0.37585388601036274,-0.3146681808503089,0.05733409042515445,0.0
0.38385077720207256,-0.3365774717865002,0.0682887358932501,0.0
0.3918476683937824,-0.35848676272269153,0.07924338136134576,0.0
0.39984455958549225,-0.38039605365888296,0.09019802682944149,0.0
0.4078414507772021,-0.414024179620035,0.11402417962003503,0.0
0.41583834196891195,-0.667668393782394,0.2,-0.16766839378239404
0.42383523316062177,-1.0,0.4,-0.09344355824649238
0.43183212435233165,-1.0,0.4,-0.08445828724457118
0.43982901554404147,-1.0,0.4,-0.07547301624265003
0.4478259067357513,-1.0,0.4,-0.06648774524072888
0.45582279792746117,-1.0,0.4,-0.05750247423880767
0.463819689119171,-1.0,0.4,-0.048517203236886526
0.47181658031088086,-1.0,0.4,-0.03953193223496532
0.4798134715025907,-1.0,0.4,-0.03054666123304417
0.48781036269430056,-1.0,0.4,-0.021561390231122968
0.4958072538860104,-1.0,0.4,-0.012576119229201821
0.5038041450777202,-1.0,0.4,-0.003590848227280674
0.5118010362694301,-0.9801036269430066,0.5,-0.18010362694300658
0.51979792746114,-0.9879209844559584,0.5,-0.1
0.5277948186528497,-0.9712607944732298,0.5,-0.1
0.5357917098445596,-0.9546006044905009,0.5,-0.1
0.5437886010362695,-0.937940414507772,0.5,-0.1
0.5517854922279793,-0.9212802245250431,0.5,-0.1
0.5597823834196891,-0.9046200345423143,0.5,-0.1
0.567779274611399,-0.8879598445595854,0.5,-0.1
0.5757761658031089,-0.8712996545768565,0.5,-0.1
0.5837730569948186,-0.8546394645941279,0.5,-0.1
0.5917699481865285,-0.837979274611399,0.5,-0.1
0.5997668393782384,-0.8213190846286701,0.5,-0.1
0.6077637305699483,-0.8046588946459412,0.5,-0.1
0.615760621761658,-0.6619689119170984,0.2619689119170985,-0.1
0.6237575129533679,-0.6959596634910022,0.1,-0.1
0.6317544041450778,-0.6873608557579808,0.1,-0.1
0.6397512953367877,-0.6787620480249594,0.1,-0.1
0.6477481865284974,-0.6701632402919382,0.1,-0.1
0.6557450777202073,-0.6615644325589168,0.1,-0.1
0.6637419689119172,-0.6529656248258955,0.1,-0.1
0.6717388601036269,-0.6443668170928742,0.1,-0.1
0.6797357512953368,-0.6357680093598528,0.1,-0.1
0.6877326424870467,-0.6271692016268314,0.1,-0.1
0.6957295336787566,-0.6185703938938101,0.1,-0.1
0.7037264248704663,-0.6099715861607888,0.1,-0.1
0.7117233160621762,-0.6013727784277675,0.1,-0.1
0.7197202072538861,-0.4506620610247532,0.1,-0.1
0.7277170984455958,-0.032072538860103375,0.07735751295336779,-0.2
0.7357139896373057,0.1678497409326434,0.010716753022452216,-0.2
0.7437108808290156,0.24006496017322748,-0.02003248008661374,-0.2
0.7517077720207255,0.2878075941535849,-0.043903797076792456,-0.2
0.7597046632124352,0.33555022813394164,-0.06777511406697084,-0.2
0.7677015544041451,0.3832928621142991,-0.09164643105714955,-0.2
0.775698445595855,0.4310354960946565,-0.11551774804732827,-0.2
0.7836953367875648,0.4787781300750133,-0.13938906503750664,-0.2
0.7916922279792746,0.5265207640553706,-0.16326038202768536,-0.2
0.7996891191709845,0.5742633980357281,-0.18713169901786408,-0.2
0.8076860103626944,0.3656994818652829,-0.2914248704663207,-0.19142487046632073
0.8156829015544041,-0.03414507772021011,-0.1658549222797899,-0.1
0.823679792746114,-0.1,-0.1,-0.09265956841086366
0.8316766839378239,-0.1,-0.1,-0.08387177589250117
0.8396735751295337,-0.1,-0.1,-0.0750839833741388
0.8476704663212435,-0.1,-0.1,-0.06629619085577632
0.8556673575129534,-0.1,-0.1,-0.057508398337413814
0.8636642487046633,-0.1,-0.1,-0.04872060581905132
0.8716611398963731,-0.1,-0.1,-0.03993281330068895
0.8796580310880829,-0.1,-0.1,-0.03114502078232645
0.8876549222797928,-0.1,-0.1,-0.02235722826396397
0.8956518134715026,-0.1,-0.1,-0.013569435745601585
0.9036487046632125,-0.1,-0.1,-0.004781643227239105
0.9116455958549223,-0.03544041450777022,-0.1,0.0
0.9196424870466322,0.09608334726168584,-0.1,0.0
0.927639378238342,0.08748453952866457,-0.1,0.0
0.9356362694300518,0.07888573179564318,-0.1,0.0
0.9436331606217617,0.0702869240626218,-0.1,0.0
0.9516300518134716,0.06168811632960041,-0.1,0.0
0.9596269430051814,0.05308930859657915,-0.1,0.0
0.9676238341968912,0.04449050086355776,-0.1,0.0
0.9756207253886011,0.035891693130536376,-0.1,0.0
0.9836176165803109,0.027292885397515107,-0.1,0.0
0.9916145077720208,0.018694077664493727,-0.1,0.0
0.9996113989637306,0.010095269931472334,-0.1,0.0
1.0076082901554404,0.001496462198451065,-0.1,0.0
1.0156051813471503,0.0,-0.1,0.0
1.0236020725388602,0.0,-0.1,0.0
1.03159896373057,0.0,-0.1,0.0
1.03959585492228,0.0,-0.1,0.0
1.0475927461139898,0.0,-0.1,0.0
1.0555896373056994,0.0,-0.1,0.0
1.0635865284974093,0.0,-0.1,0.0
1.0715834196891192,0.0,-0.1,0.0
1.079580310880829,0.0,-0.1,0.0
1.087577202072539,0.0,-0.1,0.0
1.0955740932642488,0.0,-0.1,0.0
1.1035709844559587,0.0,-0.1,0.0
1.1115678756476683,0.0,-0.1,0.0
1.1195647668393782,0.0,0.0,0.0
1.127561658031088,0.0,0.0,0.0
1.135558549222798,0.0,0.0,0.0
1.1435554404145079,0.0,0.0,0.0
1.1515523316062177,0.0,0.0,0.0
1.1595492227979276,0.0,0.0,0.0
1.1675461139896373,0.0,0.0,0.0
1.1755430051813471,0.0,0.0,0.0
1.183539896373057,0.0,0.0,0.0
1.1915367875647669,0.0,0.0,0.0
1.1995336787564768,0.0,0.0,0.0
1.2075305699481866,0.0,0.0,0.0
1.2155274611398965,0.0,0.0,0.0
1.2235243523316062,0.0,0.0,0.0
1.231521243523316,0.10380310880829016,-0.1,-0.0019015544041450765
1.239518134715026,0.12379533678756482,-0.1,-0.011897668393782413
1.2475150259067358,0.14378756476683952,-0.1,-0.021893782383419748
1.2555119170984457,0.16377979274611418,-0.1,-0.031889896373057086
1.2635088082901555,0.18377202072538884,-0.1,-0.041886010362694424
1.2715056994818654,0.20376424870466353,-0.1,-0.051882124352331756
1.2795025906735753,0.2237564766839382,-0.1,-0.061878238341969094
1.287499481865285,0.2437487046632123,-0.1,-0.07187435233160615
1.2954963730569948,0.263740932642487,-0.1,-0.08187046632124349
1.3034932642487047,0.2837331606217617,-0.1,-0.09186658031088082
1.3114901554404146,0.3745077720207265,-0.17450777202072648,-0.025492227979273516
1.3194870466321245,0.2972966884433429,-0.2972966884433429,0.0
1.3274839378238343,0.28860441540887566,-0.28860441540887566,0.0
1.3354808290155442,0.2799121423744084,-0.2799121423744084,0.0
1.3434777202072539,0.2712198693399414,-0.2712198693399414,0.0
1.3514746113989637,0.2625275963054742,-0.2625275963054742,0.0
1.3594715025906736,0.25383532327100694,-0.25383532327100694,0.0
1.3674683937823835,0.24514305023653968,-0.24514305023653968,0.0
1.3754652849740934,0.23645077720207242,-0.23645077720207242,0.0
1.3834621761658032,0.22775850416760518,-0.22775850416760518,0.0
1.3914590673575131,0.21906623113313795,-0.21906623113313795,0.0
1.3994559585492228,0.21037395809867093,-0.21037395809867093,0.0
1.4074528497409327,0.20168168506420367,-0.20168168506420367,0.0
1.4154497409326425,-0.1,0.0,0.0
1.4234466321243524,-0.1,0.0,0.0
1.4314435233160623,-0.1,0.0,0.0
1.4394404145077722,-0.1,0.0,0.0
1.447437305699482,-0.1,0.0,0.0
1.4554341968911917,-0.1,0.0,0.0
1.4634310880829016,-0.1,0.0,0.0
1.4714279792746114,-0.1,0.0,0.0
1.4794248704663213,-0.1,0.0,0.0
1.4874217616580312,-0.1,0.0,0.0
1.495418652849741,-0.1,0.0,0.0
1.503415544041451,-0.1,0.0,0.0
1.5114124352331606,-0.1,0.0,0.0
1.5194093264248705,-0.1,0.0,0.0
1.5274062176165804,-0.2,0.1,0.0
1.5354031088082902,-0.1,0.1,0.0
1.5434,-0.1,0.1,0.0
1.55139689119171,-0.1,0.1,0.0
1.5593937823834199,-0.1,0.1,0.0
1.5673906735751295,-0.1,0.1,0.0
1.5753875647668394,-0.1,0.1,0.0
1.5833844559585493,-0.1,0.1,0.0
1.5913813471502591,-0.1,0.1,0.0
1.599378238341969,-0.1,0.1,0.0
1.607375129533679,0.0,0.0812435233160546,0.0
1.6153720207253888,0.07080023028209666,0.0,0.0
1.6233689119170984,0.1,0.0,0.0
1.6313658031088083,0.1,0.0,0.0
1.6393626943005182,0.1,0.0,0.0
1.647359585492228,0.1,0.0,0.0
1.655356476683938,0.1,0.0,0.0
1.6633533678756478,0.1,0.0,0.0
1.6713502590673577,0.1,0.0,0.0
1.6793471502590673,0.1,0.0,0.0
1.6873440414507772,0.1,0.0,0.0
1.695340932642487,0.1,0.0,0.0
1.703337823834197,0.1,0.0,0.0
1.7113347150259068,0.1,0.0,0.0
1.7193316062176167,0.0,0.0,0.0
1.7273284974093266,0.0,0.0,0.0
1.7353253886010362,0.0,0.0,0.0
1.7433222797927461,0.0,0.0,0.0
1.751319170984456,0.0,0.0,0.0
1.7593160621761659,0.0,0.0,0.0
1.7673129533678757,0.0,0.0,0.0
1.7753098445595856,0.0,0.0,0.0
1.7833067357512955,0.0,0.0,0.0
1.7913036269430052,0.0,0.0,0.0
1.799300518134715,0.0,0.0,0.0
1.807297409326425,0.0,0.0,0.0
1.8152943005181348,0.0,0.0,0.0
1.8232911917098447,0.0,0.0,0.0
1.8312880829015545,0.0,0.0,0.0
1.8392849740932644,0.0,0.0,0.0
1.8472818652849743,0.0,0.0,0.0
1.855278756476684,0.0,0.0,0.0
1.8632756476683938,0.0,0.0,0.0
1.8712725388601037,0.0,0.0,0.0
1.8792694300518136,0.0,0.0,0.0
1.8872663212435234,0.0,0.0,0.0
1.8952632124352333,0.0,0.0,0.0
1.9032601036269432,0.0,0.0,0.0
1.9112569948186529,0.0,0.0,0.0
1.9192538860103627,0.0,0.0,0.0
1.9272507772020726,0.0,0.0,0.0
1.9352476683937825,0.0,0.0,0.0
1.9432445595854924,0.0,0.0,0.0
1.9512414507772022,0.0,0.0,0.0
1.9592383419689121,0.0,0.0,0.0
1.9672352331606218,0.0,0.0,0.0
1.9752321243523316,0.0,0.0,0.0
1.9832290155440415,0.0,0.0,0.0
1.9912259067357514,0.0,0.0,0.0
1.9992227979274613,0.0,0.0,0.0
2.007219689119171,0.0,0.0,0.0
2.015216580310881,-0.1,0.0,0.0
2.023213471502591,-0.09338992393341386,0.0,0.0
2.0312103626943006,-0.08488259287840362,0.0,0.0
2.0392072538860107,-0.07637526182339291,0.0,0.0
2.0472041450777203,-0.06786793076838266,0.0,0.0
2.05520103626943,-0.05936059971337242,0.0,0.0
2.06319792746114,-0.0508532686583617,0.0,0.0
2.0711948186528497,-0.04234593760335145,0.0,0.0
2.07919170984456,-0.03383860654834074,0.0,0.0
2.0871886010362695,-0.025331275493330502,0.0,0.0
2.0951854922279796,-0.016823944438319777,0.0,0.0
2.103182383419689,-0.008316613383309537,0.0,0.0
2.111179274611399,0.0,0.0,0.0
2.119176165803109,0.1,-0.1,-0.0021127823331155066
2.1271730569948186,0.1,-0.1,-0.009876754363901563
2.1351699481865287,0.1,-0.1,-0.017640726394688052
2.1431668393782384,0.1,-0.1,-0.025404698425474107
2.1511637305699485,0.1,-0.1,-0.033168670456260596
2.159160621761658,0.1,-0.1,-0.04093264248704665
2.167157512953368,0.1,-0.1,-0.04869661451783271
2.175154404145078,0.1,-0.1,-0.0564605865486192
2.1831512953367875,0.1,-0.1,-0.06422455857940526
2.1911481865284976,0.1,-0.1,-0.07198853061019174
2.1991450777202073,0.1,-0.1,-0.0797525026409778
2.2071419689119174,0.1,-0.1,-0.0875164746717643
2.215138860103627,0.1,-0.1,-0.09528044670255034
2.2231357512953367,0.21357512953367824,-0.2,-0.1
2.231132642487047,0.2851227753998643,-0.1,-0.09256138769993216
2.2391295336787564,0.2619433806412856,-0.1,-0.08097169032064279
2.2471264248704665,0.23876398588270556,-0.1,-0.06938199294135279
2.255123316062176,0.21558459112412684,-0.1,-0.057792295562063424
2.2631202072538863,0.19240519636554682,-0.1,-0.04620259818277342
2.271117098445596,0.1692258016069681,-0.1,-0.03461290080348406
2.2791139896373056,0.14604640684838938,-0.1,-0.0230232034241947
2.2871108808290157,0.12286701208980938,-0.1,-0.011433506044904687
2.2951077720207254,0.09892227979274573,-0.09946113989637287,0.0005388601036271363
2.3031046632124355,0.01895336787564482,-0.05947668393782241,0.04052331606217759
2.311101554404145,-0.06101554404145165,-0.019492227979274176,0.08050777202072583
2.319098445595855,0.0,0.2,0.0
2.327095336787565,0.0,0.2,0.0
2.3350922279792745,0.0,0.2,0.0
2.3430891191709846,0.0,0.2,0.0
2.3510860103626943,0.0,0.2,0.0
2.3590829015544044,0.0,0.2,0.0
2.367079792746114,0.0,0.2,0.0
2.375076683937824,0.0,0.2,0.0
2.3830735751295338,0.0,0.2,0.0
2.3910704663212434,0.0,0.2,0.0
2.3990673575129535,0.0,0.2,0.0
2.407064248704663,-0.10321243523315787,0.2,0.1
2.4150611398963733,-0.2,0.1938151633710475,0.0938151633710475
2.423058031088083,-0.2,0.18565507031828257,0.08565507031828258
2.431054922279793,-0.2,0.1774949772655172,0.0774949772655172
2.4390518134715027,-0.2,0.16933488421275228,0.06933488421275227
2.4470487046632123,-0.2,0.16117479115998734,0.061174791159987335
2.4550455958549224,-0.2,0.15301469810722196,0.05301469810722196
2.463042487046632,-0.2,0.14485460505445702,0.04485460505445703
2.471039378238342,-0.2,0.13669451200169164,0.036694512001691645
2.479036269430052,-0.2,0.12853441894892673,0.02853441894892672
2.487033160621762,-0.2,0.12037432589616134,0.02037432589616134
2.4950300518134716,-0.2,0.11221423284339642,0.012214232843396414
2.5030269430051812,-0.2,0.10405413979063148,0.004054139790631475
2.5110238341968913,-0.2,0.1,0.0
2.519020725388601,0.09997927461139913,0.0,0.0
2.527017616580311,0.09198238341968903,0.0,0.0
2.5350145077720208,0.0839854922279794,0.0,0.0
2.543011398963731,0.0759886010362693,0.0,0.0
2.5510082901554405,0.06799170984455966,0.0,0.0
2.5590051813471506,0.05999481865284956,0.0,0.0
2.5670020725388603,0.05199792746113991,0.0,0.0
2.57499896373057,0.04400103626943026,0.0,0.0
2.58299585492228,0.03600414507772018,0.0,0.0
2.5909927461139897,0.028007253886010525,0.0,0.0
2.5989896373056998,0.020010362694300426,0.0,0.0
2.6069865284974094,0.012013471502590786,0.0,0.0
2.6149834196891195,0.004016580310880688,0.0,0.0
2.622980310880829,0.04901554404145865,-0.04901554404145865,0.0
2.630977202072539,0.0,-0.09385530608328527,0.0
2.638974093264249,0.0,-0.08398260090833452,0.0
2.6469709844559586,0.0,-0.07410989573338433,0.0
2.6549678756476687,0.0,-0.06423719055843359,0.0
2.6629647668393783,0.0,-0.054364485383483395,0.0
2.6709616580310884,0.0,-0.04449178020853265,0.0
2.678958549222798,0.0,-0.034619075033582455,0.0
2.6869554404145077,0.0,-0.024746369858632267,0.0
2.694952331606218,0.0,-0.014873664683681523,0.0
2.7029492227979275,0.0,-0.00500095950873132,0.0
2.7109461139896376,-0.047305699481875726,0.047305699481875726,0.047305699481875726
2.7189430051813472,-0.10632234593760338,0.1,0.0
2.7269398963730573,-0.11482967699261414,0.1,0.0
2.734936787564767,-0.12333700804762442,0.1,0.0
2.7429336787564766,-0.1318443391026347,0.1,0.0
2.7509305699481867,-0.14035167015764544,0.1,0.0
2.7589274611398964,-0.14885900121265574,0.1,0.0
2.7669243523316065,-0.1573663322676665,0.1,0.0
2.774921243523316,-0.16587366332267678,0.1,0.0
2.7829181347150262,-0.17438099437768753,0.1,0.0
2.790915025906736,-0.1828883254326978,0.1,0.0
2.7989119170984456,-0.1913956564877081,0.1,0.0
2.8069088082901557,-0.19990298754271885,0.1,0.0
2.8149056994818653,-0.1,0.00157167530224403,0.0
2.8229025906735754,0.0,0.0,0.0
2.830899481865285,0.0,0.0,0.0
2.838896373056995,0.0,0.0,0.0
2.846893264248705,0.0,0.0,0.0
2.8548901554404145,0.0,0.0,0.0
2.8628870466321246,0.0,0.0,0.0
2.870883937823834,0.0,0.0,0.0
2.8788808290155443,0.0,0.0,0.0
2.886877720207254,0.0,0.0,0.0
2.894874611398964,0.0,0.0,0.0
2.9028715025906737,0.0,0.0,0.0
2.9108683937823834,0.0,0.1,0.0
2.9188652849740935,-0.3055101634117183,0.1,0.10275508170585919
2.926862176165803,-0.3208888003188523,0.1,0.11044440015942615
2.9348590673575132,-0.33626743722598706,0.1,0.11813371861299356
2.942855958549223,-0.35164607413312104,0.1,0.12582303706656053
2.950852849740933,-0.3670247110402558,0.1,0.1335123555201279
2.9588497409326426,-0.3824033479473897,0.1,0.14120167397369487
2.9668466321243523,-0.3977819848545237,0.1,0.14889099242726186
2.9748435233160624,-0.41316062176165846,0.1,0.15658031088082924
2.982840414507772,-0.4285392586687924,0.1,0.1642696293343962
2.990837305699482,-0.4439178955759272,0.1,0.1719589477879636
2.998834196891192,-0.4592965324830611,0.1,0.17964826624153057
3.006831088082902,-0.47467516939019594,0.1,0.18733758469509798
3.0148279792746115,-0.49005380629732986,0.1,0.19502690314866494
3.022824870466321,-1.17119170984459,0.2,0.2587564766839344
3.0308217616580313,-3.1397121473805516,0.442464018422569,0.869856073690276
3.038818652849741,-3.6373056994818653,0.49170984455958555,1.1124352331606218
3.046815544041451,-3.7431469064309693,0.4681895763486735,1.1477156354769897
3.0548124352331607,-3.8489881133800674,0.4446693081377628,1.182996037793356
3.062809326424871,-3.954829320329172,0.4211490399268507,1.218276440109724
3.0708062176165805,-4.06067052727827,0.39762877171594,1.25355684242609
3.07880310880829,-4.1665117342273685,0.3741085035050293,1.288837244742456
3.0868,-4.2723529411764725,0.35058823529411726,1.324117647058824
3.09479689119171,-4.378194148125571,0.3270679670832065,1.3593980493751903
3.10279378238342,-4.484035355074675,0.3035476988722945,1.3946784516915582
3.1107906735751296,-2.1837305699481746,-0.4,2.4895336787564784
3.1187875647668397,-0.4965567593028732,-0.3827837965143659,2.724102684879888
3.1267844559585494,-0.48928685821950074,-0.3464342910975038,2.774991992463495
3.134781347150259,-0.48201695713612835,-0.3100847856806417,2.8258813000471017
3.142778238341969,-0.4747470560527555,-0.2737352802637776,2.8767706076307116
3.1507751295336788,-0.4674771549693831,-0.23738577484691548,2.9276599152143183
3.158772020725389,-0.46020725388601025,-0.20103626943005135,2.978549222797928
3.1667689119170985,-0.45293735280263786,-0.16468676401318924,3.029438530381535
3.1747658031088086,-0.44566745171926503,-0.1283372585963251,3.080327837965145
3.1827626943005183,-0.4383975506358926,-0.091987753179463,3.131217145548752
3.190759585492228,-0.4311276495525202,-0.0556382477626009,3.182106453132359
3.198756476683938,-0.42385774846914737,-0.019288742345736798,3.2329957607159683
3.2067533678756477,-0.4165878473857749,0.017060763071125307,3.2838850682995755
3.214750259067358,-0.40931794630240215,0.05341026848798941,3.3347743758831854
3.2227471502590674,-0.4020480452190297,0.08975977390485151,3.385663683466792
3.2307440414507775,1.087202072538882,0.5,3.012797927461118
3.238740932642487,1.0900757273814266,0.5099242726185734,2.980151454762853
3.246737823834197,1.0798233027766706,0.5201766972233294,2.959646605553341
3.254734715025907,1.0695708781719142,0.5304291218280859,2.9391417563438282
3.2627316062176166,1.0593184535671583,0.5406815464328418,2.9186369071343163
3.2707284974093267,1.0490660289624016,0.5509339710375983,2.898132057924803
3.2787253886010364,1.038813604357646,0.5611863956423542,2.8776272087152917
3.2867222797927464,1.0285611797528893,0.5714388202471107,2.8571223595057784
3.294719170984456,1.0183087551481333,0.5816912448518666,2.8366175102962665
3.3027160621761658,1.0080563305433774,0.5919436694566226,2.8161126610867546
3.310712953367876,1.164352331606206,0.771295336787588,2.6
3.3187098445595855,0.0078101990728116945,0.9,2.796094900463594
3.3267067357512956,0.024645759476411868,0.9,2.787677120261794
3.3347036269430053,0.04148131988001111,0.9,2.7792593400599945
3.3427005181347154,0.05831688028361128,0.9,2.7708415598581944
3.350697409326425,0.07515244068721053,0.9,2.7624237796563946
3.3586943005181347,0.09198800109080976,0.9,2.754005999454595
3.3666911917098448,0.10882356149440993,0.9,2.745588219252795
3.3746880829015544,0.12565912189800918,0.9,2.7371704390509954
3.3826849740932645,0.14249468230160933,0.9,2.7287526588491953
3.390681865284974,0.1593302427052086,0.9,2.720334878647396
3.3986787564766843,0.17616580310880875,0.9,2.711917098445596
3.406675647668394,0.193001363512408,0.9,2.703499318243796
3.4146725388601036,1.3901615361170367,1.1,2.790161536117037
3.4226694300518137,1.3431209996952138,1.1,2.743120999695214
3.4306663212435233,1.2982692954713684,1.1,2.6982692954713685
3.4386632124352334,1.2774981495188746,1.1,2.6774981495188745
3.446660103626943,1.256727003566382,1.1,2.656727003566382
3.454656994818653,1.2359558576138883,1.1,2.6359558576138884
3.462653886010363,1.2151847116613956,1.1,2.6151847116613958
3.4706507772020725,1.194413565708903,1.1,2.594413565708903
3.4786476683937826,1.1736424197564093,1.1,2.573642419756409
3.4866445595854922,1.1528712738039166,1.1,2.5528712738039165
3.4946414507772023,1.1321001278514229,1.1,2.532100127851423
3.502638341968912,1.1113289818989303,1.1,2.5113289818989304
3.510635233160622,1.1841191709844423,1.0920595854922213,1.9920595854922212
3.5186321243523317,0.7471502590673031,0.9367875647668258,1.647150259067303
3.5266290155440414,0.5730740627857367,0.8910246875952456,1.4640987503809821
3.5346259067357515,0.5448497409326422,0.8816165803108807,1.426466321243523
3.542622797927461,0.5166254190795493,0.8722084730265165,1.3888338921060657
3.5506196891191713,0.4884010972264548,0.8628003657421517,1.3512014629686064
3.558616580310881,0.4601767753733619,0.8533922584577873,1.3135690338311492
3.566613471502591,0.43195245352026745,0.8439841511734225,1.27593660469369
3.5746103626943007,0.4037281316671745,0.8345760438890582,1.2383041755562327
3.5826072538860103,0.3755038098140816,0.8251679366046939,1.2006717464187755
3.5906041450777204,0.3472794879609871,0.8157598293203291,1.1630393172813163
3.59860103626943,0.3190551661078942,0.8063517220359648,1.125406888143859
3.60659792746114,0.2680414507771957,0.6680414507771957,0.6360829015543914
3.61459481865285,-0.27649740932642364,0.7,-0.7117512953367882
3.62259170984456,-0.1586484865012224,0.7,-0.7706757567493887
3.6305886010362696,-0.04079956367602772,0.7,-0.829600218161986
3.6385854922279797,0.07704935914917349,0.7,-0.8885246795745867
3.6465823834196893,0.19489828197436815,0.7,-0.947449140987184
3.654579274611399,0.3127472047995628,0.7,-1.0063736023997814
3.662576165803109,0.430596127624764,0.7,-1.065298063812382
3.6705730569948187,0.5484450504499587,0.7,-1.1242225252249791
3.678569948186529,0.6662939732751598,0.7,-1.18314698663758
3.6865668393782385,0.7841428961003545,0.7,-1.242071448050177
3.6945637305699486,0.9019918189255558,0.7,-1.3009959094627779
3.7025606217616582,1.0198407417507505,0.7,-1.359920370875375
3.710557512953368,1.446908462866996,0.5628324697754732,-2.4044214162348974
3.718554404145078,-1.3848798869524177,0.2949599623174726,-7.110080075365055
3.7265512953367876,-1.1667828544512457,0.22226095148374864,-7.255478097032502
3.7345481865284977,-0.9486858219500618,0.1495619406500206,-7.4008761186999585
3.7425450777202074,-0.7305887894488897,0.07686292981629664,-7.546274140367407
3.7505419689119175,-0.5124917569477057,0.004163918982568626,-7.6916721620348625
3.758538860103627,-0.2943947244465337,-0.06853509185115536,-7.837070183702311
3.766535751295337,-0.07629769194536173,-0.14123410268487935,-7.982468205369758
3.774532642487047,0.14179934055582244,-0.2139331135186074,-8.127866227037215
3.7825295336787566,0.3598963730569944,-0.2866321243523314,-8.273264248704663
3.7905264248704666,0.5779934055581784,-0.35933113518605936,-8.418662270372119
3.7985233160621763,0.7960904380593505,-0.43203014601978335,-8.564060292039567
3.8065202072538864,1.0141874705605343,-0.5047291568535113,-8.709458313707023
3.814517098445596,1.2322845030617064,-0.5774281676872353,-8.854856335374471
3.8225139896373057,3.1754196891191744,-3.573740932642477,-12.14692227979272
3.830510880829016,2.659222797927101,0.03756476684080701,-6.3618652849720805
3.8385077720207255,-0.4038572251007785,7.235175590097825,5.320379965457673
3.8465046632124356,-1.5145365572827356,5.558049798503069,4.853894645941251
3.854501554404145,-2.625215889464631,3.8809240069084074,4.387409326424855
3.8624984455958553,-3.7358952216465884,2.203798215313652,3.9209240069084332
3.870495336787565,-4.846574553828484,0.5266724237189901,3.4544386873920367
3.8784922279792746,-5.957253886010379,-1.1504533678756719,2.9879533678756407
3.8864891191709847,-7.067933218192336,-2.827579159470428,2.521468048359219
3.8944860103626944,-8.178612550374233,-4.50470495106509,2.054982728842823
3.9024829015544045,-9.289291882556189,-6.1818307426598444,1.5884974093264006
3.910479792746114,1.7527461139893823,-1.9715025906734671,0.48124352331591513
3.9184766839378242,-2.8859279321714526,0.030958549222803854,-2.1634126236457774
3.926473575129534,-2.840491050400375,0.13091968911917495,-2.045276731040975
3.9344704663212435,-2.795054168629297,0.23088082901554605,-1.927140838436173
3.9424673575129536,-2.749617286858217,0.3308419689119227,-1.8090049458313642
3.9504642487046633,-2.704180405087139,0.4308031088082938,-1.690869053226562
3.9584611398963734,-2.658743523316059,0.5307642487046704,-1.5727331606217532
3.966458031088083,-2.6133066415449813,0.6307253886010415,-1.454597268016951
3.974454922279793,-2.5678697597739006,0.7306865284974182,-1.3364613754121422
3.982451813471503,-2.522432878002823,0.8306476683937893,-1.21832548280734
3.9904487046632124,-2.476995996231745,0.9306088082901605,-1.1001895902025378
3.9984455958549225,-2.431559114460665,1.0305699481865371,-0.982053697597729
4.006442487046632,-0.3076683937823671,0.8634196891191424,1.0038341968911837
4.014439378238342,0.24393782383425508,0.8598445595856378,0.8196891191712755
4.022436269430052,0.2498678465389707,1.0083553589101715,1.1334214356406862
4.030433160621762,0.1959562205274482,1.017340629912092,1.169362519648368
4.038430051813472,0.1420445945159197,1.0263259009140133,1.2053036036560536
4.046426943005182,0.0881329685043912,1.035311171915935,1.2412446876637393
4.054423834196891,0.03422134249286868,1.0442964429178552,1.277185771671421
4.062420725388601,-0.019690283518659812,1.0532817139197768,1.3131268556791067
4.070417616580311,-0.0736019095301883,1.0622669849216981,1.3490679396867922
4.078414507772021,-0.1275135355417168,1.0712522559236195,1.3850090236944779
4.0864113989637305,-0.18142516155323934,1.08023752692554,1.4209501077021596
4.094408290155441,-0.23533678756476778,1.0892227979274614,1.4568911917098453
4.102405181347151,-0.2892484135762963,1.0982080689293827,1.492832275717531
4.11040207253886,-1.3731951640760278,0.14329879101900694,0.40309153713304857
4.11839896373057,-0.5730675689965093,0.09551126149941823,-0.013466215501745338
4.12639585492228,-0.5241070106799168,0.0873511684466528,-0.037946494660041595
4.13439274611399,-0.4751464523633243,0.0791910753938874,-0.06242677381833785
4.142389637305699,-0.42618589404673723,0.07103098234112287,-0.08690705297663139
4.1503865284974095,-0.3772253357301447,0.06287088928835746,-0.11138733213492763
4.15838341968912,-0.3282647774135522,0.054710796235592045,-0.1358676112932239
4.166380310880829,-0.2793042190969651,0.04655070318282754,-0.16034789045151743
4.174377202072539,-0.2303436607803726,0.03839061013006212,-0.1848281696098137
4.182374093264249,-0.18138310246378014,0.030230517077296695,-0.20930844876810992
4.190370984455959,-0.13242254414718763,0.022070424024531285,-0.23378872792640618
4.198367875647668,-0.0834619858306005,0.013910330971766777,-0.25826900708469974
4.206364766839378,-0.03450142751400809,0.0057502379190013525,-0.28274928624299595
4.2143616580310885,0.1836845135291209,-0.02624064478987442,-0.3262406447898744
4.222358549222798,0.6728290155440463,-0.08641450777202316,-0.3864145077720232
4.230355440414508,0.5128911917098409,-0.006445595854920466,-0.3064455958549205
4.238352331606218,-0.2,0.0,0.006307726965533268
4.246349222797928,-0.2,0.0,0.017897424344823276
4.254346113989637,-0.2,0.0,0.029487121724111994
4.262343005181347,-0.2,0.0,0.041076819103402
4.270339896373057,-0.2,0.0,0.05266651648269201
4.278336787564767,-0.2,0.0,0.06425621386198073
4.286333678756477,-0.2,0.0,0.07584591124127073
4.294330569948187,-0.2,0.0,0.08743560862056074
4.302327461139897,-0.2,0.0,0.09902530599985074
4.310324352331606,-0.37606217616580023,0.0760621761658002,0.2760621761658002
4.318321243523316,-0.2419689119171007,0.02098445595855035,0.3
4.326318134715026,-0.1,0.0,0.19491984151173378
4.334315025906736,-0.1,0.0,0.18551173422737
4.342311917098446,-0.1,0.0,0.1761036269430052
4.350308808290156,-0.1,0.0,0.16669551965864035
4.358305699481866,-0.1,0.0,0.15728741237427551
4.366302590673575,-0.1,0.0,0.14787930508991176
4.374299481865285,-0.1,0.0,0.13847119780554693
4.382296373056995,-0.1,0.0,0.1290630905211821
4.3902932642487045,-0.1,0.0,0.11965498323681832
4.398290155440415,-0.1,0.0,0.1102468759524535
4.406287046632125,-0.1,0.0,0.10083876866808866
4.414283937823835,0.12839378238346547,0.0,-0.1358031088082673
4.422280829015544,0.2234865452114321,0.0,-0.1
4.430277720207254,0.24928296841049694,0.0,-0.1
4.438274611398964,0.27507939160956174,0.0,-0.1
4.446271502590673,0.30087581480862374,0.0,-0.1
4.4542683937823835,0.3266722380076886,0.0,-0.1
4.462265284974094,0.3524686612067534,0.0,-0.1
4.470262176165804,0.3782650844058183,0.0,-0.1
4.478259067357513,0.40406150760488024,0.0,-0.1
4.486255958549223,0.4298579308039451,0.0,-0.1
4.494252849740933,0.4556543540030099,0.0,-0.1
4.502249740932642,0.48145077720207186,0.0,-0.1
4.510246632124352,0.57488773747841,0.0,-0.025112262521589906
4.5182435233160625,0.49188255613124365,0.0,0.1
4.526240414507773,0.3895191709844547,0.0,0.1
4.534237305699482,0.37352538860103635,0.0,0.1
4.542234196891192,0.35753160621761626,0.0,0.1
4.550231088082902,0.3415378238341962,0.0,0.1
4.558227979274611,0.3255440414507778,0.0,0.1
4.566224870466321,0.30955025906735767,0.0,0.1
4.574221761658031,0.2935564766839376,0.0,0.1
4.5822186528497415,0.2775626943005175,0.0,0.1
4.590215544041451,0.26156891191709913,0.0,0.1
4.598212435233161,0.24557512953367902,0.0,0.1
4.606209326424871,0.2295813471502589,0.0,0.1
4.61420621761658,0.21358756476684057,0.0,0.1
4.62220310880829,0.18997409326425152,0.0,0.0899740932642515
4.6302,0.12333333333333162,0.0,0.02333333333333161
4.63819689119171,0.07559009786988416,0.0,0.0
4.64619378238342,0.0005616880678832355,0.0,0.0
4.65419067357513,0.02374108282646325,0.0,0.0
4.66218756476684,0.04692047758504326,0.0,0.0
4.670184455958549,0.0700998723436207,0.0,0.0
4.678181347150259,0.0932792671022007,0.0,0.0
4.686178238341969,0.11645866186078073,0.0,0.0
4.694175129533679,0.13963805661936074,0.0,0.0
4.7021720207253885,0.16281745137793818,0.0,0.0
4.710168911917099,0.18599684613651818,0.0,0.0
4.718165803108809,0.18056994818651584,0.0,0.08056994818651585
4.726162694300518,0.09979141756343851,0.0,0.0
4.734159585492228,0.08953899295868202,0.0,0.0
4.742156476683938,0.07928656835392552,0.0,0.0
4.750153367875648,0.06903414374916902,0.0,0.0
4.7581502590673574,0.058781719144413665,0.0,0.0
4.7661471502590675,0.04852929453965717,0.0,0.0
4.774144041450778,0.03827686993490067,0.0,0.0
4.782140932642487,0.02802444533014531,0.0,0.0
4.790137823834197,0.017772020725388804,0.0,0.0
4.798134715025907,0.007519596120632313,0.0,0.0
4.806131606217617,-0.043419689119147335,0.0,0.0
4.814128497409326,0.0,0.0,0.1
4.8221253886010365,0.0,0.0,0.09599476834850795
4.8301222797927466,0.0,0.0,0.0882307963177215
4.838119170984456,0.0,0.0,0.08046682428693591
4.846116062176166,0.0,0.0,0.07270285225614945
4.854112953367876,0.0,0.0,0.064938880225363
4.862109844559586,0.0,0.0,0.057174908194576546
4.870106735751295,0.0,0.0,0.049410936163790956
4.878103626943005,0.0,0.0,0.0416469641330045
4.8861005181347155,0.0,0.0,0.03388299210221804
4.894097409326425,0.0,0.0,0.02611902007143245
4.902094300518135,0.0,0.0,0.018355048040646
4.910091191709845,0.0,0.0,0.010591076009859549
4.918088082901555,0.0,0.0,0.002827103979073084
4.926084974093264,0.0,0.0,-0.00424870466320162
4.934081865284974,0.0,0.0,-0.09239766839378208
4.942078756476684,0.0,0.0,-0.08240155440414447
4.950075647668394,0.0,0.0,-0.07240544041450797
4.958072538860104,0.0,0.0,-0.062409326424870355
4.966069430051814,0.0,0.0,-0.05241321243523274
4.974066321243524,0.0,0.0,-0.042417098445595124
4.982063212435233,0.0,0.0,-0.03242098445595862
4.990060103626943,0.0,0.0,-0.02242487046632101
4.998056994818653,0.0,0.0,-0.0124287564766834
5.0060538860103625,0.0,0.0,-0.0024326424870468877
5.014050777202073,0.0,0.0,0.0
5.022047668393783,0.1,0.0,0.0
5.030044559585493,0.1,0.0,0.0
5.038041450777202,0.1,0.0,0.0
5.046038341968912,0.1,0.0,0.0
5.054035233160622,0.1,0.0,0.0
5.062032124352331,0.1,0.0,0.0
5.0700290155440415,0.1,0.0,0.0
5.078025906735752,0.1,0.0,0.0
5.086022797927462,0.1,0.0,0.0
5.094019689119171,0.1,0.0,0.0
5.102016580310881,0.1,0.0,0.0
5.110013471502591,0.1,0.0,0.0
5.118010362694301,0.1,0.0,0.0
5.12600725388601,0.1,0.0,0.0
5.1340041450777205,0.1,0.0,0.0
5.142001036269431,0.1,0.0,0.0
5.14999792746114,0.1,0.0,0.0
5.15799481865285,0.1,0.0,0.0
5.16599170984456,0.1,0.0,0.0
5.17398860103627,0.1,0.0,0.0
5.181985492227979,0.1,0.0,0.0
5.189982383419689,0.1,0.0,0.0
5.1979792746113995,0.1,0.0,0.0
5.205976165803109,0.1,0.0,0.0
5.213973056994819,-0.1,0.0,0.0
5.221969948186529,-0.1,0.0,0.0
5.229966839378239,-0.1,0.0,0.0
5.237963730569948,-0.1,0.0,0.0
5.245960621761658,-0.1,0.0,0.0
5.253957512953368,-0.1,0.0,0.0
5.261954404145078,-0.1,0.0,0.0
5.269951295336788,-0.1,0.0,0.0
5.277948186528498,-0.1,0.0,0.0
5.285945077720208,-0.1,0.0,0.0
5.293941968911917,-0.1,0.0,0.0
5.301938860103627,-0.1,0.0,0.0
5.309935751295337,-0.1,0.0,0.0
5.317932642487047,-0.000962250185043742,0.0,-0.09903774981495626
5.325929533678757,0.1,0.0,0.0
5.333926424870467,0.1,0.0,0.0
5.341923316062177,0.1,0.0,0.0
5.349920207253886,0.1,0.0,0.0
5.357917098445596,0.1,0.0,0.0
5.365913989637306,0.1,0.0,0.0
5.3739108808290155,0.1,0.0,0.0
5.381907772020726,0.1,0.0,0.0
5.389904663212436,0.1,0.0,0.0
5.397901554404146,0.1,0.0,0.0
5.405898445595855,0.1,0.0,0.03796891191710198
5.413895336787565,0.1,0.0,0.005233160621732097
5.421892227979275,0.1,0.0,0.0
5.429889119170984,0.1,0.0,0.0
5.4378860103626945,0.1,0.0,0.0
5.445882901554405,0.1,0.0,0.0
5.453879792746115,0.1,0.0,0.0
5.461876683937824,0.1,0.0,0.0
5.469873575129534,0.1,0.0,0.0
5.477870466321244,0.1,0.0,0.0
5.485867357512953,0.1,0.0,0.0
5.493864248704663,0.1,0.0,0.0
5.5018611398963735,0.1,0.0,0.0
5.509858031088084,0.1,0.0,0.0
5.517854922279793,0.47098445595859706,0.0,-0.1
5.525851813471503,1.3499611398963742,-0.10713730569948204,-0.09286269430051797
5.533848704663213,1.408271804835927,-0.11546740069084672,-0.08453259930915329
5.541845595854922,1.4665824697754735,-0.12379749568221048,-0.07620250431778954
5.549842487046632,1.524893134715026,-0.13212759067357516,-0.06787240932642485
5.557839378238342,1.583203799654579,-0.14045768566493982,-0.05954231433506017
5.5658362694300525,1.6415144645941315,-0.14878778065630452,-0.05121221934369549
5.573833160621762,1.699825129533678,-0.15711787564766827,-0.04288212435233174
5.581830051813472,1.7581357944732305,-0.16544797063903294,-0.03455202936096706
5.589826943005182,1.8164464594127834,-0.17377806563039763,-0.02622193436960238
5.597823834196891,1.8747571243523296,-0.18210816062176138,-0.017891839378238628
5.605820725388601,1.9330677892918824,-0.19043825561312605,-0.009561744386873947
5.613817616580311,1.9913784542314352,-0.19876835060449075,-0.0012316493955092656
5.621814507772021,7.060880829016126,-1.8072538860107503,0.15362694300537522
5.629811398963731,7.2,-1.923202175139794,0.21546811675986285
5.637808290155441,7.2,-1.9469553172933887,0.23130354486225907
5.645805181347151,7.2,-1.970708459446983,0.2471389729646553
5.65380207253886,7.2,-1.9944616016005747,0.26297440106704983
5.66179896373057,7.2,-2.018214743754169,0.278809829169446
5.66979585492228,7.2,-2.0419678859077632,0.29464525727184226
5.67779274611399,7.2,-2.0657210280613576,0.3104806853742385
5.6857896373056995,7.2,-2.0894741702149497,0.32631611347663303
5.69378652849741,7.2,-2.113227312368544,0.3421515415790293
5.70178341968912,7.2,-2.1369804545221385,0.35798696968142546
5.709780310880829,7.2,-2.16073359667573,0.37382239778382
5.717777202072539,7.2,-2.1844867388293245,0.3896578258862162
5.725774093264249,5.3033160621756945,-1.7677720207252314,0.9644559585495371
5.733770984455959,5.055025906735692,-1.787150259067341,0.39357512953367046
5.741767875647668,4.58854058721934,-1.6538687392055258,0.3269343696027629
5.7497647668393785,4.301679414425524,-1.5621843901636632,0.3
5.757761658031089,4.13666419935849,-1.4987169997532652,0.3
5.765758549222798,3.9716489842914737,-1.4352496093428744,0.3
5.773755440414508,3.806633769224439,-1.3717822189324766,0.3
5.781752331606218,3.6416185541574047,-1.3083148285220787,0.3
5.789749222797928,3.47660333909037,-1.2448474381116807,0.3
5.797746113989637,3.311588124023354,-1.18138004770129,0.3
5.8057430051813474,3.146572908956319,-1.117912657290892,0.3
5.8137398963730575,-1.7424870466322,-0.26025906735745985,-0.6
5.821736787564767,-0.5786241530490278,0.605343961737743,0.3919840573933855
5.829733678756477,-0.4802008768433643,0.6299497807891589,0.35507532881626164
5.837730569948187,-0.38177760063770083,0.6545555998405748,0.31816660023913784
5.845727461139897,-0.28335432443203734,0.6791614188919907,0.281257871662014
5.853724352331606,-0.18493104822638473,0.7037672379434038,0.2443491430848943
5.861721243523316,-0.08650777202072124,0.7283730569948197,0.20744041450777048
5.8697181347150265,0.01191550418494225,0.7529788760462356,0.17053168593064666
5.877715025906736,0.11033878039059486,0.7775846950976487,0.13362295735352692
5.885711917098446,0.30678756476688507,0.6398186528496725,0.0822020725388525
5.893708808290156,0.1993671354552178,0.29936713545521776,0.0
5.901705699481866,0.19222705403404808,0.2922270540340481,0.0
5.909702590673575,0.18508697261287915,0.28508697261287913,0.0
5.917699481865285,0.17794689119170942,0.2779468911917094,0.0
5.925696373056995,0.1708068097705397,0.27080680977053967,0.0
5.933693264248705,0.16366672834937077,0.26366672834937077,0.0
5.941690155440415,0.15652664692820104,0.25652664692820104,0.0
5.949687046632125,0.14938656550703133,0.2493865655070313,0.0
5.957683937823835,0.1422464840858616,0.24224648408586158,0.0
5.965680829015544,0.13510640266469265,0.23510640266469265,0.0
5.973677720207254,0.12796632124352292,0.22796632124352295,0.0
5.981674611398964,0.12082623982235322,0.22082623982235322,0.0
5.9896715025906735,0.11368615840118428,0.21368615840118427,0.0
5.997668393782384,0.10654607698001456,0.20654607698001454,0.0
6.005665284974094,0.16652849740935716,0.06694300518128568,0.0
6.013662176165804,0.0,0.026158401184314256,0.09673019985196073
6.021659067357513,0.0,0.0832790525536657,0.08959011843079179
6.029655958549223,0.0,0.1403997039230235,0.08245003700962207
6.037652849740933,0.0,0.1975203552923813,0.07530995558845234
6.045649740932642,0.0,0.2546410066617328,0.0681698741672834
6.0536466321243525,0.0,0.31176165803109057,0.061029792746113684
6.061643523316063,0.0,0.36888230940044836,0.05388971132494396
6.069640414507773,0.0,0.42600296076980615,0.04674962990377424
6.077637305699482,0.0,0.4831236121391576,0.039609548482605304
6.085634196891192,0.0,0.5402442635085154,0.03246946706143558
6.093631088082902,0.0,0.5973649148778732,0.02532938564026585
6.101627979274611,0.0,0.6544855662472246,0.018189304219096925
6.109624870466321,0.0,0.7116062176165825,0.011049222797927194
6.1176217616580315,0.0,0.7687268689859402,0.003909141376757477
6.125618652849742,-0.20899251583189965,0.5,-0.6029975052772999
6.133615544041451,-0.2534196891191728,0.5,-0.6178065630397243
6.141612435233161,-0.2978468624064509,0.5,-0.6326156208021503
6.149609326424871,-0.34227403569372905,0.5,-0.6474246785645763
6.15760621761658,-0.3867012089810022,0.5,-0.6622337363270007
6.16560310880829,-0.4311283822682803,0.5,-0.6770427940894267
6.1736,-0.4755555555555584,0.5,-0.6918518518518527
6.1815968911917105,-0.23858110801112248,0.6368513351933265,-0.349135113591102
6.18959378238342,0.0689916301315418,0.8213949780789251,-0.5951933041052334
6.19759067357513,0.28931680999946574,1.2026707975001336,-0.2
6.20558756476684,0.2563399391058157,1.210915015223546,-0.2
6.213584455958549,0.2233630682121693,1.2191592329469576,-0.2
6.221581347150259,0.19038619731851925,1.2274034506703702,-0.2
6.229578238341969,0.1574093264248692,1.2356476683937827,-0.2
6.237575129533679,0.12443245553121915,1.2438918861171953,-0.2
6.245572020725389,0.09145558463757278,1.252136103840607,-0.2
6.253568911917099,0.05847871374392272,1.2603803215640192,-0.2
6.261565803108809,0.025501842850272682,1.2686245392874318,-0.2
6.269562694300518,-0.007475028043373744,1.2768687570108435,-0.2
6.277559585492228,-0.04045189893702378,1.285112974734256,-0.2
6.285556476683938,-0.07342876983067381,1.2933571924576686,-0.2
6.293553367875648,-0.1,0.6009844559580864,0.11067357512973935
6.3015502590673576,0.1,0.07063471502591895,0.058730569948162115
6.309547150259068,0.13247964470762755,0.23247964470762755,-0.24871946706144132
6.317544041450778,0.18960029607698442,0.28960029607698445,-0.33440044411547665
6.325540932642487,0.24672094744633496,0.34672094744633497,-0.4200814211695025
6.333537823834197,0.3537823834197169,0.18487046632113235,-0.4462176165802831
6.341534715025907,0.4940205908081534,-0.8920274544108712,-1.3039862727945644
6.349531606217617,0.46286387187941275,-0.8504851625058837,-1.3247574187470583
6.3575284974093265,0.4317071529506755,-0.8089428706009008,-1.3455285646995496
6.365525388601037,0.40055043402193485,-0.7674005786959132,-1.3662997106520434
6.373522279792747,0.3693937150931942,-0.7258582867909256,-1.387070856604537
6.381519170984456,0.338236996164457,-0.6843159948859427,-1.4078420025570286
6.389516062176166,0.30708027723571635,-0.6427737029809552,-1.4286131485095224
6.397512953367876,0.2759235583069757,-0.6012314110759676,-1.4493842944620163
6.405509844559586,0.244766839378235,-0.5596891191709801,-1.47015544041451
6.413506735751295,0.21361012044949784,-0.518146827265997,-1.4909265863670014
6.4215036269430055,-0.28345423143352605,0.06690846286705213,-1.5330915371329479
6.429500518134716,-0.10051073279052582,-0.1,-0.19846780162842256
6.437497409326425,-0.10867082584329034,-0.1,-0.17398752247012902
6.445494300518135,-0.11683091889605575,-0.1,-0.14950724331183277
6.453491191709845,-0.12499101194882117,-0.1,-0.1250269641535365
6.461488082901555,-0.13315110500158658,-0.1,-0.10054668499524025
6.469484974093264,-0.1413111980543511,-0.1,-0.07606640583694671
6.477481865284974,-0.14947129110711652,-0.1,-0.05158612667865045
6.4854787564766845,-0.15763138415988193,-0.1,-0.027105847520354193
6.493475647668394,-0.16579147721264642,-0.1,-0.002625568362060654
6.501472538860104,-0.17395157026541186,-0.1,0.021854710796235605
6.509469430051814,-0.18211166331817727,-0.1,0.04633498995453186
6.517466321243524,-0.19027175637094268,-0.1,0.0708152691128281
6.525463212435233,-0.1984318494237072,-0.1,0.09529554827112163
6.533460103626943,-0.07800148038490888,-0.3439970392301822,0.42699481865281885
6.541456994818653,-0.19224278312362267,-0.11551443375275466,0.027150259067320714
6.549453886010363,0.2148462867012088,0.2925768566493956,1.0148462867012087
6.557450777202073,0.24150259067357557,0.2792487046632122,1.0415025906735755
6.565447668393783,0.26815889464594234,0.26592055267702885,1.0681588946459424
6.573444559585493,0.2948151986183091,0.25259240069084543,1.094815198618309
6.581441450777202,0.3214715025906729,0.23926424870466353,1.121471502590673
6.589438341968912,0.3481278065630397,0.22593609671848014,1.1481278065630396
6.597435233160622,0.3747841105354065,0.21260794473229677,1.1747841105354064
6.6054321243523315,0.2703626943006021,0.027150259067469457,1.1567875647668673
6.613429015544042,-0.29953367875647696,-0.600932642487046,0.598601036269431
6.621425906735752,-0.29084140572200945,-0.6183171885559811,0.5725242171660283
6.629422797927462,-0.28214913268754194,-0.6357017346249162,0.5464473980626258
6.637419689119171,-0.27345685965307537,-0.6530862806938493,0.520370578959226
6.645416580310881,-0.2647645866186078,-0.6704708267627844,0.4942937598558234
6.653413471502591,-0.2560723135841403,-0.6878553728317194,0.4682169407524208
6.6614103626943,-0.24738004054967372,-0.7052399189006526,0.44214012164902117
6.6694072538860105,-0.2386877675152062,-0.7226244649695877,0.4160633025456185
6.677404145077721,-0.22999549448073867,-0.7400090110385227,0.389986483442216
6.685401036269431,-0.22130322144627113,-0.7573935571074578,0.36390966433881333
6.69339792746114,-0.21261094841180456,-0.774778103176391,0.3378328452354136
6.70139481865285,-0.20391867537733704,-0.792162649245326,0.31175602613201103
6.70939170984456,-0.09638516923490925,-0.5783110154094554,-0.5819258461745462
6.717388601036269,-0.07561402328241779,-0.4536841396945066,-0.47807011641208885
6.725385492227979,-0.054842877329924,-0.329057263979544,-0.37421438664962003
6.7333823834196895,-0.034071731377430234,-0.20443038826458138,-0.27035865688715116
6.7413792746114,-0.01330058542493645,-0.0798035125496187,-0.1665029271246823
6.749376165803109,0.007470560527555015,0.04482336316533009,-0.0626471973622249
6.757373056994819,0.028241706480048784,0.16945023888029276,0.041208532400243914
6.765369948186529,0.04901285243254258,0.2940771145952553,0.14506426216271273
6.773366839378238,0.06978399838503405,0.4187039903102042,0.24891999192517011
6.781363730569948,0.09055514433752782,0.5433308660251669,0.35277572168763893
6.789360621761658,0.16803108808291686,-0.3,0.0
6.7973575129533685,0.09968911917098364,-0.09968911917098364,0.0
6.805354404145078,0.09273530074341041,-0.09273530074341041,0.0
6.813351295336788,0.08578148231583643,-0.08578148231583643,0.0
6.821348186528498,0.07882766388826244,-0.07882766388826244,0.0
6.829345077720207,0.07187384546068923,-0.07187384546068923,0.0
6.837341968911917,0.06492002703311525,-0.06492002703311525,0.0
6.845338860103627,0.05796620860554126,-0.05796620860554126,0.0
6.8533357512953375,0.05101239017796727,-0.05101239017796727,0.0
6.861332642487047,0.04405857175039406,-0.04405857175039406,0.0
6.869329533678757,0.03710475332282008,-0.03710475332282008,0.0
6.877326424870467,0.03015093489524609,-0.03015093489524609,0.0
6.885323316062176,0.023197116467672876,-0.023197116467672876,0.0
6.893320207253886,0.016243298040098886,-0.016243298040098886,0.0
6.901317098445596,0.009289479612524909,-0.009289479612524909,0.0
6.909313989637306,0.0023356611849509185,-0.0023356611849509185,0.0
6.917310880829016,0.0,0.030792005921539425,0.0
6.925307772020726,0.0,0.08791265729089995,0.0
6.933304663212436,-0.005978698906160412,0.0,0.0
6.941301554404145,-0.01708549222797875,0.0,0.0
6.949298445595855,-0.028192285549798322,0.0,0.0
6.957295336787565,-0.03929907887161789,0.0,0.0
6.965292227979275,-0.050405872193437465,0.0,0.0
6.9732891191709845,-0.061512665515255804,0.0,0.0
6.981286010362695,-0.07261945883707538,0.0,0.0
6.989282901554405,-0.08372625215889494,0.0,0.0
6.997279792746114,-0.09483304548071328,0.0,0.0
7.005276683937824,0.6744663212435154,0.12126424870460775,0.1255336787564846
7.013273575129534,-0.40041450777202153,-0.09875647668393552,0.0
7.021270466321244,-0.4125310095776429,-0.062406971267071336,0.0
7.029267357512953,-0.42464751138326295,-0.026057465850211195,0.0
7.0372642487046635,-0.43676401318888436,0.010292039566652977,0.0
7.045261139896374,-0.4488805149945057,0.046641544983517164,0.0
7.053258031088083,-0.4609970168001258,0.0829910504003773,0.0
7.061254922279793,-0.47311351860574713,0.11934055581724148,0.0
7.069251813471503,-0.48523002041136853,0.15569006123410564,0.0
7.077248704663213,-0.49734652221698994,0.19203956665096986,0.0
7.085245595854922,0.0,0.09899548721377205,0.0
7.093242487046632,0.0,0.09254638141400587,0.0
7.1012393782383425,0.0,0.08609727561423969,0.0
7.109236269430052,0.0,0.07964816981447423,0.0
7.117233160621762,0.0,0.07319906401470805,0.0
7.125230051813472,0.0,0.06674995821494187,0.0
7.133226943005182,0.0,0.06030085241517569,0.0
7.141223834196891,0.0,0.05385174661541022,0.0
7.149220725388601,0.0,0.04740264081564404,0.0
7.157217616580311,0.0,0.04095353501587786,0.0
7.165214507772021,0.0,0.034504429216112395,0.0
7.173211398963731,0.0,0.028055323416346215,0.0
7.181208290155441,0.0,0.021606217616580034,0.0
7.189205181347151,0.0,0.015157111816813867,0.0
7.19720207253886,0.0,0.008708006017048395,0.0
7.20519896373057,0.0,0.0022589002172822142,0.0
7.21319585492228,0.0,0.0,0.0
7.22119274611399,0.0,0.0,0.0
7.2291896373057,0.0,0.0,0.0
7.23718652849741,0.0,0.0,0.0
7.24518341968912,0.0,0.0,0.0
7.253180310880829,0.0,0.0,0.0
7.261177202072539,0.0,0.0,0.0
7.269174093264249,0.0,0.0,0.0
7.277170984455959,0.0,0.0,0.0
7.2851678756476685,0.0,0.0,0.0
7.293164766839379,0.0,0.0,0.0
7.301161658031089,0.0,0.0,0.0
7.309158549222798,0.0,0.0,0.0
7.317155440414508,0.0,0.0,0.0
7.325152331606218,0.0,0.0,0.0
7.333149222797928,-0.02624352331606907,0.0,0.02624352331606907
7.3411461139896375,-0.09288428324698156,0.0,0.09288428324698156
7.3491430051813476,0.0,0.0,0.1
7.357139896373058,0.0,0.0,0.1
7.365136787564767,0.0,0.0,0.1
7.373133678756477,0.0,0.0,0.1
7.381130569948187,0.0,0.0,0.1
7.389127461139897,0.0,0.0,0.1
7.397124352331606,0.0,0.0,0.1
7.4051212435233165,0.0,0.0,0.1
7.413118134715027,-0.005906735751316046,0.0,0.09409326424868396
7.421115025906736,0.0,-0.1,0.0
7.429111917098446,0.0,-0.1,0.0
7.437108808290156,0.0,-0.1,0.0
7.445105699481866,0.0,-0.1,0.0
7.453102590673575,0.0,-0.1,0.0
7.461099481865285,0.0,-0.1,0.0
7.4690963730569955,0.0,-0.1,0.0
7.477093264248705,0.0,-0.1,0.0
7.485090155440415,0.0,-0.1,0.0
7.493087046632125,0.0,-0.1,0.0
7.501083937823835,0.0,-0.1,0.0
7.509080829015544,0.0,-0.023989637305699127,0.0
7.517077720207254,0.0,0.09790129271994485,0.0
7.525074611398964,0.0,0.08982362484953063,0.0
7.533071502590674,0.0,0.0817459569791173,0.0
7.541068393782384,0.0,0.07366828910870307,0.0
7.549065284974094,0.0,0.06559062123828885,0.0
7.557062176165804,0.0,0.057512953367874625,0.0
7.565059067357513,0.0,0.0494352854974613,0.0
7.573055958549223,0.0,0.041357617627047066,0.0
7.581052849740933,0.0,0.03327994975663284,0.0
7.5890497409326425,0.0,0.02520228188621952,0.0
7.597046632124353,0.0,0.017124614015805284,0.0
7.605043523316063,0.0,0.00904694614539106,0.0
7.613040414507773,0.0,0.0009692782749768369,0.0
7.621037305699482,0.0,0.0,0.0
7.629034196891192,0.0,0.0,-4.384216819557745e-05
7.637031088082902,0.0,0.0,-0.010296266772952076
7.645027979274611,0.0,0.0,-0.020548691377707436
7.6530248704663215,0.0,0.0,-0.030801115982463934
7.661021761658032,0.0,0.0,-0.04105354058722043
7.669018652849742,0.0,0.0,-0.05130596519197693
7.677015544041451,0.0,0.0,-0.06155838979673229
7.685012435233161,0.0,0.0,-0.07181081440148879
7.693009326424871,0.0,0.0,-0.08206323900624528
7.70100621761658,0.0,0.0,-0.09231566361100065
7.70900310880829,0.0,-0.0996891191709204,0.0
7.717,0.0,0.1,0.0
