gyro_time_list,gyro_x_list,gyro_y_list,gyro_z_list
0.0,-0.1,-0.1,0.0
0.007987037037037037,-0.09825698505523067,0.2,0.0
0.015974074074074075,-0.0912508122157245,0.2,0.0
0.023961111111111114,-0.08424463937621832,0.2,0.0
0.03194814814814815,-0.07723846653671215,0.2,0.0
0.039935185185185185,-0.07023229369720597,0.2,0.0
0.04792222222222223,-0.0632261208576998,0.2,0.0
0.05590925925925926,-0.056219948018193626,0.2,0.0
0.0638962962962963,-0.049213775178687455,0.2,0.0
0.07188333333333334,-0.04220760233918128,0.2,0.0
0.07987037037037037,-0.03520142949967511,0.2,0.0
0.08785740740740741,-0.028195256660168935,0.2,0.0
0.09584444444444445,-0.021189083820662757,0.2,0.0
0.10383148148148148,-0.014182910981156593,0.2,0.0
0.11181851851851853,-0.007176738141650402,0.2,0.0
0.11980555555555555,-0.0001705653021442377,0.2,0.0
0.1277925925925926,0.1207407407407406,0.1811111111111109,0.1
0.13577962962962964,-0.006582164688960811,-0.01974649406688243,0.1
0.14376666666666668,-0.014336569579288036,-0.043009708737864104,0.1
0.1517537037037037,-0.022090974469615235,-0.06627292340884569,0.1
0.15974074074074074,-0.029845379359942463,-0.08953613807982737,0.1
0.16772777777777778,-0.037599784250269684,-0.11279935275080905,0.1
0.17571481481481482,-0.04535418914059691,-0.1360625674217907,0.1
0.18370185185185187,-0.05310859403092414,-0.1593257820927724,0.1
0.1916888888888889,-0.06086299892125137,-0.18258899676375406,0.1
0.19967592592592592,-0.06861740381157856,-0.20585221143473567,0.1
0.20766296296296297,-0.07637180870190578,-0.22911542610571733,0.1
0.21565,-0.08412621359223302,-0.252378640776699,0.1
0.22363703703703705,-0.09188061848256024,-0.27564185544768066,0.1
0.2316240740740741,-0.09963502337288747,-0.29890507011866235,0.1
0.2396111111111111,0.03888888888888828,-0.06111111111111173,0.06111111111111173
0.24759814814814815,0.0,-0.1,0.0920019493177388
0.2555851851851852,0.0,-0.1,0.08359454191033137
0.2635722222222222,0.0,-0.1,0.075187134502924
0.2715592592592593,0.0,-0.1,0.06677972709551655
0.2795462962962963,0.0,-0.1,0.05837231968810917
0.28753333333333336,0.0,-0.1,0.04996491228070173
0.2955203703703704,0.0,-0.1,0.04155750487329435
0.3035074074074074,0.0,-0.1,0.03315009746588697
0.31149444444444446,0.0,-0.1,0.024742690058479525
0.3194814814814815,0.0,-0.1,0.016335282651072147
0.32746851851851855,0.0,-0.1,0.007927875243664714
0.33545555555555556,0.015185185185184734,-0.06962962962963054,0.0
0.3434425925925926,0.1,0.13114814814814824,0.0
0.35142962962962965,0.050541310541310246,0.050541310541310246,0.0
0.35941666666666666,0.0,0.0,0.002114427860696533
0.36740370370370373,0.0,0.0,0.0140353786622444
0.37539074074074075,0.0,0.0,0.025956329463792185
0.3833777777777778,0.0,0.0,0.03787728026534005
0.39136481481481483,0.0,0.0,0.049798231066887834
0.39935185185185185,0.0,0.0,0.06171918186843562
0.4073388888888889,0.0,0.0,0.07364013266998348
0.41532592592592593,0.0,0.0,0.08556108347153127
0.423312962962963,0.0,0.0,0.09748203427307914
0.4313,0.0,0.43399999999999955,0.03399999999999956
0.43928703703703703,0.0,-0.1065954415954416,0.0
0.4472740740740741,0.0,-0.11888319088319094,0.0
0.4552611111111111,0.0,-0.1311709401709402,0.0
0.4632481481481482,0.0,-0.14345868945868953,0.0
0.4712351851851852,0.0,-0.1557464387464388,0.0
0.4792222222222222,0.0,-0.16803418803418804,0.0
0.4872092592592593,0.0,-0.18032193732193738,0.0
0.4951962962962963,0.0,-0.19260968660968664,0.0
0.5031833333333333,0.09083333333333436,0.1,0.0
0.5111703703703704,0.0,0.0,0.0
0.5191574074074075,0.0,0.0,0.0
0.5271444444444444,0.0,0.0,0.0
0.5351314814814815,0.0,0.0,0.0
0.5431185185185186,0.0,0.0,0.0
0.5511055555555556,0.0,0.0,0.0
0.5590925925925926,0.0,0.0,0.0
0.5670796296296297,0.0,0.0,0.0
0.5750666666666667,0.0,0.0,0.0
0.5830537037037037,0.0,0.0,0.0
0.5910407407407408,0.0,0.0,0.0
0.5990277777777778,0.0,0.0,0.0
0.6070148148148148,0.0,0.0,0.0
0.6150018518518519,0.0,0.0,0.0
0.6229888888888889,0.0,0.0,0.0
0.630975925925926,0.0,0.0,0.0
0.638962962962963,0.0,0.0,0.0
0.64695,0.0,0.0,0.0
0.6549370370370371,0.0,0.0,0.0
0.662924074074074,0.0,0.0,0.0
0.6709111111111111,0.0,0.0,0.0
0.6788981481481482,0.0,0.0,0.0
0.6868851851851852,0.0,0.0,0.0
0.6948722222222222,0.0,0.0,0.0
0.7028592592592593,0.0,0.0,0.0
0.7108462962962964,0.0,0.0,0.0
0.7188333333333333,0.0,0.0,0.0
0.7268203703703704,0.0,0.0,0.0
0.7348074074074075,0.0,0.0,0.0
0.7427944444444444,-0.1,-0.08972222222222151,0.1
0.7507814814814815,-0.10737117552334946,-0.1,0.1
0.7587685185185186,-0.11605273752012889,-0.1,0.1
0.7667555555555556,-0.12473429951690831,-0.1,0.1
0.7747425925925926,-0.13341586151368762,-0.1,0.1
0.7827296296296297,-0.14209742351046706,-0.1,0.1
0.7907166666666667,-0.15077898550724647,-0.1,0.1
0.7987037037037037,-0.15946054750402577,-0.1,0.1
0.8066907407407408,-0.16814210950080521,-0.1,0.1
0.8146777777777778,-0.17682367149758466,-0.1,0.1
0.8226648148148148,-0.18550523349436393,-0.1,0.1
0.8306518518518519,-0.19418679549114337,-0.1,0.1
0.8386388888888889,-0.2,-0.1,0.1
0.846625925925926,0.0,-0.12290123456789952,0.1
0.854612962962963,-0.10701620370370374,-0.1,0.09298379629629627
0.8626,-0.11700000000000006,-0.1,0.08299999999999995
0.8705870370370371,-0.1269837962962964,-0.1,0.07301620370370362
0.8785740740740741,-0.13696759259259259,-0.1,0.06303240740740743
0.8865611111111111,-0.14695138888888892,-0.1,0.0530486111111111
0.8945481481481482,-0.15693518518518523,-0.1,0.04306481481481477
0.9025351851851852,-0.16691898148148143,-0.1,0.03308101851851858
0.9105222222222222,-0.17690277777777774,-0.1,0.023097222222222255
0.9185092592592593,-0.18688657407407408,-0.1,0.013113425925925931
0.9264962962962964,-0.19687037037037042,-0.1,0.0031296296296295933
0.9344833333333333,0.17583333333333603,0.0,-0.2
0.9424703703703704,0.09311662726556347,-0.006883372734436544,-0.19311662726556347
0.9504574074074075,0.0846197793538219,-0.015380220646178111,-0.1846197793538219
0.9584444444444444,0.07612293144208045,-0.02387706855791956,-0.17612293144208047
0.9664314814814815,0.06762608353033889,-0.032373916469661125,-0.1676260835303389
0.9744185185185186,0.05912923561859731,-0.0408707643814027,-0.15912923561859732
0.9824055555555555,0.05063238770685586,-0.049367612293144146,-0.15063238770685586
0.9903925925925926,0.042135539795114293,-0.05786446020488571,-0.14213553979511429
0.9983796296296297,0.03363869188337272,-0.06636130811662729,-0.13363869188337274
1.0063666666666666,0.025141843971631272,-0.07485815602836873,-0.12514184397163128
1.0143537037037038,0.01664499605988959,-0.08335500394011042,-0.1166449960598896
1.0223407407407408,0.00814814814814814,-0.09185185185185187,-0.10814814814814815
1.0303277777777777,0.0,-0.1,-0.1
1.038314814814815,0.3064996368917941,-0.09675018155410296,-0.19675018155410295
1.0463018518518519,0.32216049382716067,-0.08891975308641967,-0.18891975308641967
1.0542888888888888,0.33782135076252723,-0.08108932461873639,-0.1810893246187364
1.062275925925926,0.35348220769789424,-0.07325889615105288,-0.1732588961510529
1.070262962962963,0.3691430646332608,-0.0654284676833696,-0.1654284676833696
1.07825,0.3848039215686274,-0.057598039215686306,-0.15759803921568633
1.0862370370370371,0.4004647785039944,-0.0497676107480028,-0.14976761074800282
1.094224074074074,0.416125635439361,-0.041937182280319514,-0.1419371822803195
1.1022111111111113,0.431786492374728,-0.034106753812636004,-0.134106753812636
1.1101981481481482,0.44744734931009456,-0.026276325344952722,-0.12627632534495273
1.1181851851851852,0.4631082062454611,-0.01844589687726944,-0.11844589687726945
1.1261722222222224,0.4787690631808281,-0.010615468409585938,-0.11061546840958594
1.1341592592592593,0.4944299201161947,-0.0027850399419026423,-0.10278503994190265
1.1421462962962963,-0.07853703703703634,0.17853703703703636,-0.1
1.1501333333333335,-0.0016666666666692571,0.1,-0.1
1.1581203703703704,-0.10033436213991805,0.1,-0.1
1.1661074074074074,-0.12252057613168735,0.1,-0.1
1.1740944444444446,-0.14470679012345727,0.1,-0.1
1.1820814814814815,-0.1668930041152266,0.1,-0.1
1.1900685185185185,-0.1890792181069959,0.1,-0.1
1.1980555555555557,-0.2112654320987658,0.1,-0.1
1.2060425925925926,-0.23345164609053512,0.1,-0.1
1.2140296296296296,-0.25563786008230444,0.1,-0.1
1.2220166666666668,-0.2778240740740744,0.1,-0.1
1.2300037037037037,-0.3005555555555592,0.1,-0.09981481481481361
1.2379907407407407,-0.1957643814026794,0.5042356185973206,0.09364657210401911
1.2459777777777779,-0.17877068557919606,0.5212293144208039,0.06815602836879409
1.2539648148148148,-0.1617769897557132,0.5382230102442869,0.04266548463356976
1.261951851851852,-0.14478329393222983,0.5552167060677702,0.01717494089834473
1.269938888888889,-0.12778959810874696,0.572210401891253,-0.008315602836879585
1.277925925925926,-0.11079590228526408,0.5892040977147359,-0.0338061465721039
1.285912962962963,-0.09380220646178074,0.6061977935382192,-0.059296690307328925
1.2939,-0.07680851063829786,0.6231914893617021,-0.08478723404255326
1.301887037037037,-0.05981481481481499,0.640185185185185,-0.11027777777777759
1.3098740740740742,-0.04282111899133162,0.6571788810086684,-0.1357683215130026
1.3178611111111111,-0.02582742316784875,0.6741725768321513,-0.16125886524822694
1.325848148148148,-0.008833727344365883,0.6911662726556341,-0.18674940898345124
1.3338351851851853,0.0958796296296304,0.7,-0.5835185185185215
1.3418222222222222,-0.4587654320987662,0.6353086419753085,-1.0646913580246915
1.3498092592592592,-0.39070912375790456,0.7092908762420954,-1.2046454381210476
1.3577962962962964,-0.3712285456187895,0.7287714543812105,-1.2143857271906053
1.3657833333333333,-0.3517479674796749,0.7482520325203251,-1.2241260162601626
1.3737703703703703,-0.3322673893405603,0.7677326106594397,-1.2338663053297199
1.3817574074074075,-0.31278681120144525,0.7872131887985547,-1.2436065943992773
1.3897444444444444,-0.29330623306233067,0.8066937669376694,-1.2533468834688346
1.3977314814814816,-0.27382565492321553,0.8261743450767844,-1.2630871725383923
1.4057185185185186,-0.254345076784101,0.8456549232158991,-1.2728274616079496
1.4137055555555555,-0.2348644986449864,0.8651355013550136,-1.2825677506775068
1.4216925925925927,-0.2153839205058713,0.8846160794941288,-1.2923080397470643
1.4296796296296297,-0.266018518518518,0.866018518518518,-1.2
1.4376666666666666,-0.39766454352441616,0.6976645435244161,-0.9953290870488323
1.4456537037037038,-0.39257725878744976,0.6925772587874497,-0.9851545175748995
1.4536407407407408,-0.3874899740504836,0.6874899740504835,-0.9749799481009671
1.4616277777777777,-0.38240268931351734,0.6824026893135173,-0.9648053786270346
1.469614814814815,-0.377315404576551,0.6773154045765509,-0.954630809153102
1.4776018518518519,-0.37222811983958476,0.6722281198395847,-0.9444562396791695
1.4855888888888888,-0.3671408351026185,0.6671408351026185,-0.9342816702052371
1.493575925925926,-0.3620535503656522,0.6620535503656522,-0.9241071007313044
1.501562962962963,-0.356966265628686,0.6569662656286859,-0.913932531257372
1.50955,-0.35187898089171976,0.6518789808917197,-0.9037579617834395
1.5175370370370371,-0.3467916961547534,0.6467916961547534,-0.8935833923095068
1.525524074074074,-0.3417044114177872,0.6417044114177871,-0.8834088228355744
1.5335111111111113,-0.33661712668082083,0.6366171266808208,-0.8732342533616417
1.5414981481481482,-0.3315298419438546,0.6315298419438545,-0.8630596838877093
1.5494851851851852,-0.3264425572068884,0.6264425572068884,-0.8528851144137768
1.5574722222222224,-0.321355272469922,0.6213552724699221,-0.8427105449398441
1.5654592592592593,-0.31626798773295584,0.6162679877329558,-0.8325359754659116
1.5734462962962963,-0.3111807029959896,0.6111807029959896,-0.8223614059919793
1.5814333333333335,-0.30609341825902325,0.6060934182590232,-0.8121868365180466
1.5894203703703704,-0.301006133522057,0.601006133522057,-0.8020122670441141
1.5974074074074074,-0.1510288065843627,0.4020576131687254,-0.6
1.6053944444444446,-0.36972222222222373,0.23027777777777628,-0.3302777777777763
1.6133814814814815,-0.39110664881749224,0.19110664881749226,-0.3
1.6213685185185185,-0.3814837126282911,0.1814837126282911,-0.3
1.6293555555555557,-0.37186077643908966,0.17186077643908967,-0.3
1.6373425925925926,-0.3622378402498885,0.16223784024988852,-0.3
1.6453296296296296,-0.35261490406068735,0.15261490406068734,-0.3
1.6533166666666668,-0.3429919678714859,0.14299196787148594,-0.3
1.6613037037037037,-0.33336903168228477,0.13336903168228476,-0.3
1.6692907407407407,-0.3237460954930836,0.1237460954930836,-0.3
1.6772777777777779,-0.3141231593038821,0.11412315930388217,-0.3
1.6852648148148148,-0.304500223114681,0.10450022311468102,-0.3
1.693251851851852,-0.062469135802467546,0.1,-0.16246913580246755
1.701238888888889,-0.1,0.09572796934865861,0.0
1.709225925925926,-0.1,0.06818646232439336,0.0
1.717212962962963,-0.1,0.04064495530012735,0.0
1.7252,-0.1,0.0131034482758621,0.0
1.733187037037037,-0.49922871324933227,0.0003856433753338766,0.30038564337533386
1.7411740740740742,-0.4662924780450552,0.0168537609774724,0.31685376097747237
1.7491611111111112,-0.43335624284077906,0.03332187857961046,0.33332187857961043
1.7571481481481481,-0.40042000763650293,0.04978999618174853,0.3497899961817485
1.7651351851851853,-0.36748377243222585,0.06625811378388706,0.36625811378388706
1.7731222222222223,-0.3345475372279497,0.08272623138602513,0.38272623138602513
1.7811092592592592,-0.3016113020236736,0.09919434898816319,0.3991943489881632
1.7890962962962964,-0.26867506681939657,0.11566246659030172,0.4156624665903017
1.7970833333333334,-0.23573883161512044,0.13213058419243978,0.43213058419243977
1.8050703703703703,-0.2028025964108443,0.14859870179457785,0.44859870179457784
1.8130574074074075,-0.16986636120656728,0.16506681939671636,0.46506681939671635
1.8210444444444445,-0.13693012600229115,0.18153493699885442,0.4815349369988544
1.8290314814814816,-0.10399389079801408,0.19800305460099296,0.4980030546009929
1.8370185185185186,2.01388888888898,-0.39722222222220405,5.91851851851864
1.8450055555555556,3.425704467353951,-0.0690435280641464,7.757600229095074
1.8529925925925927,3.3268957617411203,-0.0278732340588001,7.568216876670481
1.8609796296296297,3.2280870561282917,0.013297059946545065,7.378833524245893
1.8689666666666667,3.1292783505154635,0.05446735395189023,7.189450171821305
1.8769537037037038,3.0304696449026323,0.09563764795723653,7.000066819396712
1.8849407407407408,2.9316609392898036,0.1368079419625817,6.810683466972124
1.8929277777777778,2.8328522336769755,0.17797823596792686,6.6213001145475365
1.900914814814815,2.734043528064144,0.21914852997327314,6.431916762122944
1.908901851851852,2.6352348224513156,0.2603188239786183,6.242533409698355
1.9168888888888889,2.5364261168384874,0.3014891179839635,6.053150057273768
1.924875925925926,2.4376174112256566,0.3426594119893098,5.863766704849175
1.932862962962963,2.338808705612828,0.38382970599465493,5.674383352424587
1.94085,-4.570000000000033,-0.5766666666666476,-6.123333333333365
1.9488370370370371,-1.0318518518520268,2.6444444444446695,0.2666666666665707
1.956824074074074,0.38609825102880496,0.5865997942386829,-0.6932998971193415
1.964811111111111,0.19751543209876582,0.5644135802469136,-0.6822067901234568
1.9727981481481482,0.00893261316872146,0.5422273662551437,-0.6711136831275718
1.9807851851851852,-0.17965020576131774,0.5200411522633743,-0.6600205761316872
1.9887722222222224,-0.3682330246913621,0.49785493827160443,-0.6489274691358022
1.9967592592592593,-0.5568158436214012,0.47566872427983514,-0.6378343621399175
2.0047462962962963,-0.7453986625514404,0.45348251028806585,-0.6267412551440329
2.0127333333333333,-0.9339814814814795,0.4312962962962965,-0.6156481481481483
2.0207203703703702,-1.1225643004115187,0.4091100823045273,-0.6045550411522636
2.0287074074074076,0.3565925925926093,0.7434074074073908,-0.15755555555554304
2.0366944444444446,0.3822344322344301,-0.1970390720390717,-0.21184371184371328
2.0446814814814815,0.32957264957264804,-0.188262108262108,-0.24695156695156797
2.0526685185185185,0.27691086691086597,-0.17948514448514435,-0.2820594220594227
2.0606555555555555,0.22424908424908396,-0.17070818070818067,-0.31716727716727733
2.068642592592593,0.17158730158729898,-0.1619312169312165,-0.352275132275134
2.07662962962963,0.11892551892551695,-0.15315425315425285,-0.3873829873829887
2.084616666666667,0.06626373626373488,-0.14437728937728916,-0.4224908424908434
2.0926037037037037,0.013601953601952821,-0.13560032560032548,-0.4575986975986981
2.1005907407407407,-0.03905982905982919,-0.12682336182336182,-0.4927065527065528
2.1085777777777777,-0.09172161172161125,-0.11804639804639815,-0.5278144078144075
2.116564814814815,-0.1443833943833962,-0.10926943426943399,-0.5629222629222641
2.124551851851852,-0.19704517704517832,-0.10049247049247031,-0.5980301180301189
2.132538888888889,0.0817361111111136,-0.0182638888888864,-0.2365277777777728
2.140525925925926,0.014032921810700188,-0.09719341563785996,-0.1915802469135799
2.148512962962963,0.0584053497942387,-0.08831893004115227,-0.1649567901234568
2.1565,0.10277777777777722,-0.07944444444444457,-0.13833333333333367
2.1644870370370373,0.14715020576131818,-0.07056995884773637,-0.11170987654320907
2.1724740740740742,0.1915226337448567,-0.061695473251028664,-0.08508641975308597
2.180461111111111,0.23589506172839522,-0.05282098765432096,-0.058462962962962856
2.188448148148148,0.2802674897119337,-0.04394650205761326,-0.03183950617283973
2.196435185185185,0.32463991769547224,-0.03507201646090556,-0.005216049382716609
2.2044222222222225,0.3690123456790132,-0.026197530864197363,0.021407407407407986
2.2124092592592595,0.4133847736625517,-0.01732304526748965,0.04803086419753108
2.2203962962962964,0.45775720164609024,-0.008448559670781952,0.07465432098765418
2.2283833333333334,0.44250000000001666,0.019166666666661114,0.1
2.2363703703703703,0.1,-0.0012928022361985492,-0.0012928022361985492
2.2443574074074073,0.1,-0.008827742837176791,-0.008827742837176791
2.2523444444444447,0.1,-0.016362683438155452,-0.016362683438155452
2.2603314814814817,0.1,-0.023897624039133692,-0.023897624039133692
2.2683185185185186,0.1,-0.03143256464011193,-0.03143256464011193
2.2763055555555556,0.1,-0.038967505241090175,-0.038967505241090175
2.2842925925925925,0.1,-0.04650244584206842,-0.04650244584206842
2.2922796296296295,0.1,-0.054037386443046655,-0.054037386443046655
2.300266666666667,0.1,-0.06157232704402532,-0.06157232704402532
2.308253703703704,0.1,-0.06910726764500356,-0.06910726764500356
2.316240740740741,0.1,-0.0766422082459818,-0.0766422082459818
2.324227777777778,0.1,-0.08417714884696004,-0.08417714884696004
2.3322148148148147,0.1,-0.09171208944793828,-0.09171208944793828
2.340201851851852,0.1,-0.09924703004891694,-0.09924703004891694
2.348188888888889,0.3,-0.002098765432102567,-0.10209876543210257
2.356175925925926,0.3,-0.09084362139917654,-0.19084362139917654
2.364162962962963,0.3,-0.08991131977047487,-0.2
2.37215,0.3,-0.07866197183098615,-0.2
2.380137037037037,0.3,-0.06741262389149744,-0.2
2.3881240740740743,0.3,-0.056163275952008096,-0.2
2.3961111111111113,0.3,-0.04491392801251937,-0.2
2.4040981481481483,0.3,-0.03366458007303065,-0.2
2.412085185185185,0.3,-0.022415232133541935,-0.2
2.420072222222222,0.3,-0.011165884194053219,-0.2
2.428059259259259,0.294074074074079,-0.005925925925920991,-0.2
2.4360462962962965,0.2809259259259338,-0.019074074074066222,-0.11907407407406623
2.4440333333333335,0.3,0.0,-0.1
2.4520203703703705,0.3,0.0,-0.1
2.4600074074074074,0.3,0.0,-0.1
2.4679944444444444,0.3,0.0,-0.1
2.4759814814814813,0.3,0.0,-0.1
2.4839685185185187,0.3,0.0,-0.1
2.4919555555555557,0.3,0.0,-0.1
2.4999425925925927,0.3,0.0,-0.1
2.5079296296296296,0.3,0.0,-0.1
2.5159166666666666,0.3,0.0,-0.1
2.523903703703704,0.3,0.0,-0.1
2.531890740740741,0.3,0.0,-0.1
2.539877777777778,0.3,0.0,-0.1
2.547864814814815,0.3,0.0,-0.1
2.555851851851852,0.3,0.0,-0.1
2.563838888888889,0.3,0.0,-0.1
2.571825925925926,-0.2,-0.0020987654320992386,-0.0020987654320992386
2.579812962962963,-0.2,-0.01127926777352101,-0.01127926777352101
2.5878,-0.2,-0.020459770114942783,-0.020459770114942783
2.595787037037037,-0.2,-0.029640272456364556,-0.029640272456364556
2.603774074074074,-0.2,-0.038820774797786325,-0.038820774797786325
2.611761111111111,-0.2,-0.0480012771392081,-0.0480012771392081
2.6197481481481484,-0.2,-0.057181779480630385,-0.057181779480630385
2.6277351851851853,-0.2,-0.06636228182205216,-0.06636228182205216
2.6357222222222223,-0.2,-0.07554278416347393,-0.07554278416347393
2.6437092592592593,-0.2,-0.0847232865048957,-0.0847232865048957
2.651696296296296,-0.2,-0.09390378884631748,-0.09390378884631748
2.6596833333333336,-0.015833333333324262,-0.015833333333324262,-0.1
2.6676703703703706,0.0,0.0,-0.1
2.6756574074074075,0.0,0.0,-0.1
2.6836444444444445,0.0,0.0,-0.1
2.6916314814814815,0.0,0.0,-0.1
2.6996185185185184,0.0,0.0,-0.1
2.707605555555556,0.0,0.0,-0.1
2.715592592592593,0.0,0.0,-0.1
2.7235796296296297,0.1,0.0,0.0
2.7315666666666667,0.09469841269841266,0.0,0.0
2.7395537037037037,0.08709171075837745,0.0,0.0
2.7475407407407406,0.07948500881834225,0.0,0.0
2.755527777777778,0.07187830687830662,0.0,0.0
2.763514814814815,0.06427160493827143,0.0,0.0
2.771501851851852,0.056664902998236226,0.0,0.0
2.779488888888889,0.04905820105820102,0.0,0.0
2.787475925925926,0.04145149911816583,0.0,0.0
2.7954629629629633,0.0338447971781302,0.0,0.0
2.80345,0.026238095238095005,0.0,0.0
2.811437037037037,0.018631393298059795,0.0,0.0
2.819424074074074,0.0110246913580246,0.0,0.0
2.827411111111111,0.0034179894179894033,0.0,0.0
2.835398148148148,0.0,0.0,0.0
2.8433851851851855,0.001649029982363544,0.0,0.0
2.8513722222222224,0.011157407407407536,0.0,0.0
2.8593592592592594,0.020665784832451527,0.0,0.0
2.8673462962962963,0.03017416225749552,0.0,0.0
2.8753333333333333,0.039682539682539514,0.0,0.0
2.8833203703703703,0.049190917107583505,0.0,0.0
2.8913074074074077,0.058699294532628024,0.0,0.0
2.8992944444444446,0.06820767195767202,0.0,0.0
2.9072814814814816,0.07771604938271601,0.0,0.0
2.9152685185185185,0.08722442680776,0.0,0.0
2.9232555555555555,0.09673280423280399,0.0,0.0
2.931242592592593,0.06262345679011685,0.0,0.0
2.93922962962963,0.1,0.0,0.0
2.947216666666667,0.1,0.0,0.0
2.9552037037037038,0.1,0.0,0.0
2.9631907407407407,0.1,0.0,0.0
2.9711777777777777,0.1,0.0,0.0
2.979164814814815,0.1,0.0,0.0
2.987151851851852,0.1,0.0,0.0
2.995138888888889,0.1,0.0,0.0
3.003125925925926,0.1,0.0,0.0
3.011112962962963,0.1,0.0,0.0
3.0191,0.1,0.0,0.0
3.0270870370370373,0.1,0.0,0.0
3.0350740740740743,0.1,0.0,0.0
3.043061111111111,0.07022875816993353,0.0,0.0
3.051048148148148,0.023246187363834728,0.0,0.0
3.059035185185185,0.0,0.0,0.0
3.0670222222222225,0.0,0.0,0.0
3.0750092592592595,0.0,0.0,0.0
3.0829962962962965,0.0,0.0,0.0
3.0909833333333334,0.0,0.0,0.0
3.0989703703703704,0.0,0.0,0.0
3.1069574074074073,0.0,0.0,0.0
3.1149444444444447,0.0,0.0,0.0
3.1229314814814817,0.0,0.0,0.0
3.1309185185185187,0.0,0.0,0.0
3.1389055555555556,-0.00944444444441854,0.0,0.0
3.1468925925925926,-0.008769547325103063,0.0,0.0
3.1548796296296295,-0.017644032921810767,0.0,0.0
3.162866666666667,-0.026518518518518962,0.0,0.0
3.170853703703704,-0.03539300411522667,0.0,0.0
3.178840740740741,-0.044267489711934366,0.0,0.0
3.186827777777778,-0.05314197530864207,0.0,0.0
3.1948148148148148,-0.06201646090534978,0.0,0.0
3.2028018518518517,-0.07089094650205748,0.0,0.0
3.210788888888889,-0.07976543209876567,0.0,0.0
3.218775925925926,-0.08863991769547337,0.0,0.0
3.226762962962963,-0.09751440329218108,0.0,0.0
3.23475,0.1750000000000111,0.0,0.1
3.242737037037037,0.2079763268423063,0.0,0.10797632684230629
3.2507240740740744,0.2162103856433758,0.0,0.11621038564337578
3.2587111111111113,0.2244444444444448,0.0,0.12444444444444482
3.2666981481481483,0.23267850324551384,0.0,0.13267850324551383
3.2746851851851853,0.24091256204658287,0.0,0.14091256204658287
3.282672222222222,0.2491466208476519,0.0,0.1491466208476519
3.290659259259259,0.2573806796487209,0.0,0.15738067964872093
3.2986462962962966,0.26561473844979044,0.0,0.16561473844979044
3.3066333333333335,0.2738487972508595,0.0,0.17384879725085947
3.3146203703703705,0.2820828560519285,0.0,0.1820828560519285
3.3226074074074075,0.29031691485299754,0.0,0.19031691485299754
3.3305944444444444,0.2985509736540666,0.0,0.19855097365406657
3.3385814814814814,0.20181712962962906,-0.002422839506172057,-0.09757716049382795
3.3465685185185188,0.2267766203703709,-0.03570216049382788,-0.06429783950617213
3.3545555555555557,0.2517361111111114,-0.06898148148148185,-0.031018518518518154
3.3625425925925927,0.2766956018518519,-0.10226080246913583,0.0022608024691358197
3.3705296296296297,0.3016550925925923,-0.13554012345678979,0.03554012345678978
3.3785166666666666,0.3266145833333328,-0.16881944444444377,0.06881944444444377
3.386503703703704,0.3515740740740747,-0.2020987654320996,0.10209876543209959
3.394490740740741,0.37653356481481515,-0.23537808641975355,0.13537808641975355
3.402477777777778,0.4014930555555556,-0.2686574074074075,0.1686574074074075
3.410464814814815,0.4264525462962961,-0.30193672839506147,0.20193672839506147
3.418451851851852,0.45141203703703653,-0.3352160493827155,0.23521604938271548
3.426438888888889,0.476371527777777,-0.36849537037036945,0.2684953703703694
3.434425925925926,0.4361111111110852,-0.3148148148147803,0.3638888888889148
3.442412962962963,0.04587037037036784,-0.09174074074073568,0.25412962962963215
3.4504,0.0,0.0,-0.004444444444444774
3.458387037037037,0.0,0.0,-0.019235253772290982
3.466374074074074,0.0,0.0,-0.03402606310013719
3.474361111111111,0.0,0.0,-0.048816872427983396
3.4823481481481484,0.0,0.0,-0.06360768175583043
3.4903351851851854,0.0,0.0,-0.07839849108367664
3.4983222222222223,0.0,0.0,-0.09318930041152285
3.5063092592592593,0.0,0.0,-0.10798010973936906
3.5142962962962963,0.0,0.0,-0.12277091906721527
3.5222833333333337,0.0,0.0,-0.13756172839506228
3.5302703703703706,0.0,0.0,-0.1523525377229085
3.5382574074074076,0.0,0.0,-0.1671433470507547
3.5462444444444445,0.0,0.0,-0.18193415637860091
3.5542314814814815,0.0,0.0,-0.19672496570644712
3.5622185185185185,-0.09946044810242317,0.0,-0.4989208962048463
3.570205555555556,-0.0797393689986271,0.0,-0.4594787379972542
3.578192592592593,-0.060018289894832134,0.0,-0.42003657978966424
3.5861796296296298,-0.040297210791037166,0.0,-0.38059442158207435
3.5941666666666667,-0.02057613168724219,0.0,-0.34115226337448434
3.6021537037037037,-0.0008550525834472161,0.0,-0.30171010516689445
3.6101407407407407,0.018866026520347745,0.0,-0.2622679469593045
3.618127777777778,0.0385871056241438,0.0,-0.22282578875171238
3.626114814814815,0.05830818472793878,0.0,-0.18338363054412243
3.634101851851852,0.07802926383173375,0.0,-0.14394147233653248
3.642088888888889,0.09775034293552873,0.0,-0.10449931412894253
3.650075925925926,0.3,0.0,-0.1
3.6580629629629633,0.18001461988303974,0.02664717348928034,-0.01332358674464017
3.6660500000000003,0.1484868421052623,0.06868421052631693,-0.034342105263158465
3.674037037037037,0.11695906432748486,0.11072124756335353,-0.05536062378167676
3.682024074074074,0.08543128654970741,0.15275828460039012,-0.07637914230019506
3.690011111111111,0.05390350877192995,0.19479532163742672,-0.09739766081871336
3.697998148148148,0.02237573099415252,0.2368323586744633,-0.11841617933723166
3.7059851851851855,-0.009152046783626688,0.27886939571150227,-0.13943469785575113
3.7139722222222225,-0.04067982456140415,0.32090643274853886,-0.16045321637426943
3.7219592592592594,-0.07220760233918161,0.36294346978557546,-0.18147173489278773
3.7299462962962964,-0.19462962962963826,-0.16777777777782965,-0.29462962962963823
3.7379333333333333,-0.1984045584045586,0.0,0.1
3.7459203703703703,-0.18475150364039283,0.0,0.1
3.7539074074074077,-0.17109844887622636,0.0,0.1
3.7618944444444447,-0.1574453941120606,0.0,0.1
3.7698814814814816,-0.14379233934789487,0.0,0.1
3.7778685185185186,-0.13013928458372911,0.0,0.1
3.7858555555555555,-0.11648622981956337,0.0,0.1
3.7938425925925925,-0.10283317505539763,0.0,0.1
3.80182962962963,-0.08918012029123112,0.0,0.1
3.809816666666667,-0.07552706552706538,0.0,0.1
3.817803703703704,-0.06187401076289964,0.0,0.1
3.8257907407407408,-0.04822095599873388,0.0,0.1
3.8337777777777777,-0.034567901234568155,0.0,0.1
3.841764814814815,-0.02091484647040165,0.0,0.1
3.849751851851852,-0.007261791706235893,0.0,0.1
3.857738888888889,0.1,-0.019320987654323475,0.1
3.865725925925926,0.1,-0.06370370370370618,0.1
3.873712962962963,0.0,0.0,0.0
3.8817,0.0,0.0,0.0
3.8896870370370373,0.0,0.0,0.0
3.8976740740740743,0.0,0.0,0.0
3.9056611111111112,0.0,0.0,0.0
3.913648148148148,0.0,0.0,0.0
3.921635185185185,0.0,0.0,0.0
3.929622222222222,-0.1,0.0,0.0
3.9376092592592595,-0.09716384863123971,0.0,0.0
3.9455962962962965,-0.08848228663446041,0.0,0.0
3.9535833333333334,-0.07980072463768112,0.0,0.0
3.9615703703703704,-0.07111916264090182,0.0,0.0
3.9695574074074074,-0.06243760064412252,0.0,0.0
3.9775444444444448,-0.05375603864734274,0.0,0.0
3.9855314814814817,-0.045074476650563446,0.0,0.0
3.9935185185185187,-0.03639291465378415,0.0,0.0
4.001505555555556,-0.027711352657004376,0.0,0.0
4.009492592592593,-0.01902979066022556,0.0,0.0
4.01747962962963,-0.010348228663445785,0.0,0.0
4.0254666666666665,-0.0016666666666669688,0.0,0.0
4.033453703703704,0.0,0.0,0.0
4.0414407407407404,0.1,0.0,0.0
4.049427777777778,0.1,0.0,0.0
4.057414814814815,0.1,0.0,0.0
4.065401851851852,0.1,0.0,0.0
4.073388888888889,0.1,0.0,0.0
4.081375925925926,0.1,0.0,0.0
4.089362962962963,0.1,0.0,0.0
4.0973500000000005,0.1,0.0,0.0
4.105337037037037,0.1,0.0,0.0
4.113324074074074,0.1,0.0,0.0
4.121311111111111,0.1,0.0,0.0
4.129298148148148,0.035092592592582114,0.0,0.0
4.137285185185186,0.0003752436647186361,0.0,0.0
4.145272222222222,0.010884502923977139,0.0,0.0
4.15325925925926,0.021393762183236808,0.0,0.0
4.161246296296296,0.031903021442495315,0.0,0.0
4.169233333333334,0.042412280701754984,0.0,0.0
4.17722037037037,0.05292153996101349,0.0,0.0
4.1852074074074075,0.06343079922027316,0.0,0.0
4.193194444444445,0.07394005847953283,0.0,0.0
4.201181481481481,0.08444931773879133,0.0,0.0
4.209168518518519,0.094958576998051,0.0,0.0
4.217155555555555,0.1,0.0,0.0
4.225142592592593,0.1,0.0,0.0
4.23312962962963,0.1,0.0,0.0
4.241116666666667,0.1,0.0,0.0
4.249103703703704,0.09348618459729531,0.0,0.0
4.257090740740741,0.08080834803057063,0.0,0.0
4.265077777777778,0.06813051146384452,0.0,0.0
4.273064814814815,0.055452674897118436,0.0,0.0
4.281051851851852,0.04277483833039376,0.0,0.0
4.289038888888889,0.030097001763667655,0.0,0.0
4.297025925925926,0.017419165196942976,0.0,0.0
4.305012962962963,0.004741328630216882,0.0,0.0
4.313,0.0,0.0,0.0
