accel_time_list,vertical_Accel_x,vertical_Accel_y,vertical_Accel_z
0.0,-2.138,-11.392,0.11
0.007994100294985252,0.5638015349232539,-9.60933575821209,1.5670312734363283
0.015988200589970504,0.568611544422779,-9.602222363881806,1.5591049197540123
0.023982300884955756,0.573421553922304,-9.595108969551523,1.5511785660716966
0.03197640117994101,0.5782315634218289,-9.587995575221239,1.5432522123893806
0.03997050147492626,0.583041572921354,-9.580882180890955,1.5353258587070646
0.04796460176991151,0.587851582420879,-9.573768786560672,1.5273995050247489
0.05595870206489677,0.592661591920404,-9.566655392230388,1.5194731513424329
0.06395280235988202,0.597471601419929,-9.559541997900105,1.5115467976601171
0.07194690265486726,0.6022816109194541,-9.55242860356982,1.5036204439778011
0.07994100294985251,0.6070916204189791,-9.545315209239538,1.4956940902954852
0.08793510324483778,0.611901629918504,-9.538201814909254,1.4877677366131694
0.09592920353982302,0.6167116394180291,-9.531088420578971,1.4798413829308534
0.10392330383480827,0.6215216489175541,-9.523975026248687,1.4719150292485377
0.11191740412979354,0.6263316584170792,-9.516861631918404,1.4639886755662217
0.11991150442477878,0.6311416679166042,-9.50974823758812,1.456062321883906
0.12790560471976403,0.4504648967551632,-9.738333923303834,1.4153380530973445
0.1358997050147493,0.25885281465093407,-9.676705045476892,1.448008911012783
0.14389380530973453,0.23903410766961652,-9.681118455014749,1.4888121312684366
0.1518879056047198,0.21921540068829887,-9.685531864552605,1.5296153515240907
0.15988200589970503,0.19939669370698132,-9.689945274090462,1.5704185717797443
0.1678761061946903,0.17957798672566366,-9.694358683628318,1.6112217920353984
0.17587020648967555,0.15975927974434606,-9.698772093166175,1.6520250122910523
0.18386430678466079,0.1399405727630285,-9.70318550270403,1.6928282325467061
0.19185840707964605,0.12012186578171086,-9.707598912241888,1.73363145280236
0.1998525073746313,0.10030315880039323,-9.712012321779744,1.774434673058014
0.20784660766961655,0.08048445181907565,-9.716425731317601,1.8152378933136677
0.2158407079646018,0.06066574483775802,-9.720839140855457,1.8560411135693218
0.22383480825958707,0.040847037856440394,-9.725252550393314,1.8968443338249756
0.2318289085545723,0.25941691248770876,-9.687480825958701,1.6338554572271384
0.23982300884955757,0.23860418342719236,-9.627217216411907,1.6050498793242154
0.2478171091445428,0.2503228077232503,-9.62767142665594,1.5884257843925984
0.25581120943952806,0.2620414320193082,-9.628125636899973,1.5718016894609814
0.2638053097345133,0.27376005631536615,-9.628579847144007,1.5551775945293642
0.2717994100294986,0.28547868061142406,-9.62903405738804,1.5385534995977472
0.2797935103244838,0.2971973049074819,-9.629488267632073,1.5219294046661302
0.28778761061946906,0.30891592920353983,-9.629942477876106,1.5053053097345133
0.2957817109144543,0.3206345534995978,-9.63039668812014,1.488681214802896
0.3037758112094396,0.33235317779565576,-9.630850898364173,1.472057119871279
0.31176991150442485,0.3440718020917137,-9.631305108608206,1.4554330249396619
0.31976401179941005,0.35579042638777153,-9.63175931885224,1.4388089300080449
0.3277581120943953,0.2970324483775812,-9.746438938053098,1.5142442477876101
0.3357522123893806,0.22057269279393174,-9.801278031702811,1.4509883302538171
0.34374631268436584,0.2251407501053519,-9.793371778663815,1.4683820869396091
0.3517404129793511,0.22970880741677205,-9.785465525624819,1.4857758436254014
0.35973451327433636,0.2342768647281922,-9.77755927258582,1.5031696003111934
0.36772861356932157,0.23884492203961233,-9.769653019546825,1.5205633569969854
0.37572271386430683,0.24341297935103248,-9.761746766507828,1.5379571136827774
0.3837168141592921,0.24798103666245264,-9.753840513468832,1.5553508703685697
0.39171091445427736,0.2525490939738728,-9.745934260429836,1.5727446270543617
0.3997050147492626,0.25711715128529294,-9.73802800739084,1.590138383740154
0.40769911504424783,0.26168520859671307,-9.730121754351844,1.607532140425946
0.4156932153392331,0.2662532659081332,-9.722215501312848,1.624925897111738
0.42368731563421835,0.2708213232195534,-9.71430924827385,1.64231965379753
0.4316814159292036,0.19536674429436465,-9.674362925011645,1.2004475081509085
0.4396755162241889,0.2381982921906541,-9.669482316410495,1.2166881540133523
0.44766961651917414,0.28102984008694354,-9.664601707809346,1.2329287998757958
0.45566371681415935,0.3238613879832327,-9.659721099208198,1.2491694457382396
0.4636578171091446,0.3666929358795221,-9.654840490607048,1.2654100916006832
0.4716519174041299,0.4095244837758115,-9.6499598820059,1.281650737463127
0.47964601769911513,0.452356031672101,-9.64507927340475,1.2978913833255707
0.4876401179941004,0.49518757956839043,-9.640198664803602,1.3141320291880145
0.4956342182890856,0.5380191274646795,-9.635318056202454,1.330372675050458
0.5036283185840709,0.580850675360969,-9.630437447601304,1.3466133209129019
0.5116224188790561,0.6236822232572585,-9.625556839000156,1.3628539667753454
0.5196165191740414,0.6665137711535478,-9.620676230399006,1.3790946126377892
0.5276106194690267,0.355681415929192,-9.201203539823021,1.4673805309734436
0.5356047197640119,0.1563742897065673,-9.442911224965068,1.3345561869274958
0.5435988200589972,0.15561695388914765,-9.48153535165347,1.3352293743207577
0.5515929203539824,0.154859618071728,-9.520159478341872,1.3359025617140197
0.5595870206489676,0.15410228225430833,-9.558783605030275,1.3365757491072816
0.5675811209439529,0.15334494643688867,-9.597407731718677,1.3372489365005436
0.5755752212389381,0.15258761061946902,-9.63603185840708,1.3379221238938055
0.5835693215339234,0.15183027480204936,-9.674655985095482,1.3385953112870672
0.5915634218289086,0.1510729389846297,-9.713280111783885,1.3392684986803292
0.5995575221238939,0.15031560316721004,-9.751904238472287,1.339941686073591
0.6075516224188792,0.14955826734979039,-9.79052836516069,1.340614873466853
0.6155457227138644,0.14880093153237073,-9.829152491849092,1.341288060860115
0.6235398230088497,0.14804359571495107,-9.867776618537494,1.341961248253377
0.631533923303835,-0.17972001506307683,-9.158262662398796,1.2120522186656633
0.6395280235988201,-0.19145603464507632,-9.200104123517228,1.246920102931024
0.6475221238938054,-0.20319205422707595,-9.241945584635662,1.281787987196385
0.6555162241887906,-0.2149280738090756,-9.283787045754096,1.3166558714617465
0.6635103244837759,-0.22666409339107524,-9.32562850687253,1.3515237557271076
0.6715044247787612,-0.2384001129730749,-9.367469967990962,1.386391639992469
0.6794985250737464,-0.25013613255507455,-9.409311429109396,1.42125952425783
0.6874926253687317,-0.26187215213707415,-9.45115289022783,1.4561274085231914
0.6954867256637169,-0.2736081717190738,-9.492994351346264,1.4909952927885528
0.7034808259587022,-0.28534419130107347,-9.534835812464697,1.525863177053914
0.7114749262536875,-0.2970802108830731,-9.576677273583131,1.560731061319275
0.7194690265486727,-0.3088162304650728,-9.618518734701563,1.5955989455846364
0.7274631268436579,-0.587324156014421,-10.211193706981316,0.2082261553588944
0.7354572271386431,-0.5411360209767284,-10.024664700098327,-0.20213765978368206
0.7434513274336284,-0.5190405113077677,-9.956694591937069,-0.33936892822025716
0.7514454277286137,-0.4986999672238608,-9.897360603080957,-0.4567045558833187
0.7594395280235989,-0.47835942313995383,-9.838026614224843,-0.5740401835463802
0.7674336283185842,-0.4580188790560469,-9.77869262536873,-0.6913758112094417
0.7754277286135695,-0.4376783349721399,-9.719358636512618,-0.8087114388725032
0.7834218289085547,-0.417337790888233,-9.660024647656504,-0.9260470665355647
0.79141592920354,-0.396997246804326,-9.600690658800392,-1.0433826941986262
0.7994100294985252,-0.37665670272041907,-9.541356669944278,-1.1607183218616877
0.8074041297935105,-0.3563161586365121,-9.482022681088166,-1.2780539495247492
0.8153982300884957,-0.3359756145526054,-9.422688692232054,-1.395389577187809
0.8233923303834809,-0.31563507046869843,-9.36335470337594,-1.5127252048508706
0.8313864306784662,-0.2811532079645998,-10.198613569321534,0.8526880530973403
0.8393805309734514,-0.172483407079644,-10.190619469026547,0.5798893805309684
0.8473746312684367,-0.06381360619468818,-10.182625368731562,0.3070907079645967
0.855368731563422,0.04485619469026764,-10.174631268436578,0.034292035398224896
0.8633628318584072,0.15352599557522345,-10.166637168141593,-0.2385066371681469
0.8713569321533925,0.26219579646017926,-10.158643067846606,-0.5113053097345187
0.8793510324483778,0.3708655973451351,-10.150648967551621,-0.7841039823008905
0.887345132743363,0.4795353982300909,-10.142654867256637,-1.0569026548672622
0.8953392330383483,0.5882051991150468,-10.134660766961652,-1.329701327433634
0.9033333333333334,0.696875000000001,-10.126666666666665,-1.6025000000000023
0.9113274336283187,0.8055448008849568,-10.11867256637168,-1.875298672566374
0.919321533923304,0.9142146017699126,-10.110678466076696,-2.148097345132746
0.9273156342182892,0.9359292035398183,-9.94349262536872,-3.1022300884956238
0.9353097345132745,0.2793362831858315,-9.356035398230091,-3.646265486725662
0.9433038348082597,0.22651039077259644,-9.377191342680057,-3.5916237446554633
0.951297935103245,0.24348662623048653,-9.38725133406251,-3.5474316396539716
0.9592920353982303,0.2604628616883766,-9.397311325444964,-3.5032395346524803
0.9672861356932155,0.2774390971462667,-9.407371316827417,-3.4590474296509885
0.9752802359882008,0.29441533260415675,-9.41743130820987,-3.414855324649497
0.983274336283186,0.3113915680620466,-9.427491299592324,-3.370663219648006
0.9912684365781712,0.32836780351993666,-9.437551290974778,-3.3264711146465142
0.9992625368731565,0.3453440389778268,-9.447611282357231,-3.2822790096450225
1.0072566371681417,0.36232027443571685,-9.457671273739685,-3.2380869046435308
1.015250737463127,0.37929650989360697,-9.467731265122138,-3.193894799642039
1.0232448377581123,0.39627274535149704,-9.477791256504592,-3.1497026946405478
1.0312389380530975,0.6816434892541159,-9.723318584070803,-3.5027496839443835
1.0392330383480828,0.8148428056374964,-9.838216453621763,-3.1816668633235
1.047227138643068,0.839180399868896,-9.8239158964274,-3.146226352015732
1.0552212389380533,0.8635179941002956,-9.809615339233037,-3.110785840707964
1.0632153392330386,0.8878555883316952,-9.795314782038675,-3.075345329400196
1.0712094395280238,0.9121931825630949,-9.781014224844313,-3.0399048180924275
1.079203539823009,0.9365307767944945,-9.76671366764995,-3.0044643067846595
1.0871976401179944,0.9608683710258941,-9.752413110455587,-2.9690237954768914
1.0951917404129796,0.9852059652572936,-9.738112553261224,-2.9335832841691234
1.1031858407079649,1.0095435594886932,-9.723811996066862,-2.8981427728613554
1.11117994100295,1.0338811537200923,-9.7095114388725,-2.862702261553588
1.1191740412979352,1.058218747951492,-9.695210881678138,-2.82726175024582
1.1271681415929204,1.105672566371686,-9.646008849557516,-2.8106283185840732
1.1351622418879057,1.2526820058997075,-9.408251917404124,-2.926450147492629
1.143156342182891,1.5786835483527026,-8.982261612822974,-3.198363755908591
1.1511504424778762,1.5625027188399614,-8.94450634395991,-3.268095425951595
1.1591445427728615,1.5463218893272201,-8.906751075096848,-3.337827095994599
1.1671386430678468,1.530141059814479,-8.868995806233784,-3.407558766037603
1.175132743362832,1.5139602303017377,-8.831240537370721,-3.477290436080607
1.1831268436578173,1.4977794007889964,-8.793485268507657,-3.547022106123611
1.1911209439528025,1.4815985712762552,-8.755729999644595,-3.616753776166615
1.1991150442477878,1.465417741763514,-8.717974730781531,-3.686485446209619
1.207109144542773,1.4492369122507727,-8.680219461918469,-3.756217116252623
1.2151032448377583,1.4330560827380314,-8.642464193055407,-3.8259487862956267
1.2230973451327436,1.4168752532252902,-8.604708924192343,-3.895680456338631
1.2310914454277289,1.5515932153392338,-8.358174631268435,-3.861862831858407
1.2390855457227141,1.576827913836866,-8.279395897646978,-3.8529562324209374
1.2470796460176994,1.5607467585923025,-8.316391850174934,-3.848866227618852
1.2550737463126846,1.544665603347739,-8.353387802702889,-3.8447762228167663
1.26306784660767,1.5285844481031756,-8.390383755230843,-3.840686218014681
1.2710619469026552,1.5125032928586124,-8.4273797077588,-3.8365962132125953
1.2790560471976402,1.4964221376140494,-8.464375660286754,-3.8325062084105097
1.2870501474926255,1.480340982369486,-8.501371612814708,-3.828416203608424
1.2950442477876107,1.4642598271249225,-8.538367565342663,-3.824326198806339
1.303038348082596,1.448178671880359,-8.575363517870619,-3.8202361940042535
1.3110324483775813,1.4320975166357957,-8.612359470398573,-3.816146189202168
1.3190265486725665,1.4160163613912322,-8.64935542292653,-3.8120561844000824
1.3270206489675518,1.2351017699114955,-8.852342182890869,-3.771235988200582
1.335014749262537,1.099631268436578,-9.110085545722715,-3.7051769911504424
1.3430088495575223,1.0894787610619467,-9.102251327433628,-3.6927061946902655
1.3510029498525076,1.0793262536873156,-9.094417109144542,-3.680235398230088
1.3589970501474928,1.0691737463126842,-9.086582890855457,-3.6677646017699113
1.366991150442478,1.059021238938053,-9.078748672566372,-3.6552938053097344
1.3749852507374634,1.0488687315634215,-9.070914454277286,-3.642823008849557
1.3829793510324486,1.0387162241887902,-9.0630802359882,-3.63035221238938
1.3909734513274339,1.028563716814159,-9.055246017699115,-3.617881415929203
1.3989675516224191,1.0184112094395277,-9.047411799410028,-3.6054106194690263
1.4069616519174044,1.0082587020648963,-9.039577581120943,-3.592939823008849
1.4149557522123897,0.9981061946902651,-9.031743362831858,-3.580469026548672
1.422949852507375,0.9879536873156337,-9.023909144542772,-3.567998230088495
1.4309439528023602,0.9587050147492544,-9.080244837758137,-3.564079646017702
1.4389380530973455,1.1132114060963614,-9.082256145526058,-4.0273352999016705
1.4469321533923307,1.0974008521796126,-9.080746148803671,-3.9955365453949514
1.4549262536873158,1.0815902982628645,-9.079236152081284,-3.963737790888233
1.462920353982301,1.0657797443461157,-9.0777261553589,-3.9319390363815137
1.4709144542772863,1.049969190429367,-9.076216158636512,-3.9001402818747946
1.4789085545722715,1.0341586365126185,-9.074706161914127,-3.8683415273680755
1.4869026548672568,1.0183480825958697,-9.07319616519174,-3.8365427728613564
1.494896755162242,1.0025375286791212,-9.071686168469355,-3.804744018354637
1.5028908554572273,0.9867269747623725,-9.070176171746969,-3.7729452638479177
1.5108849557522126,0.9709164208456238,-9.068666175024582,-3.7411465093411986
1.5188790560471979,0.9551058669288751,-9.067156178302197,-3.7093477548344795
1.5268731563421831,0.9438325139298591,-9.01958734841035,-3.686873156342183
1.5348672566371684,0.9572831858407106,-8.854522123893808,-3.7021769911504445
1.5428613569321536,1.070949852507382,-8.939722713864308,-3.8428303834808406
1.550855457227139,1.0691142887977552,-8.947759658968272,-3.8296487517087554
1.5588495575221242,1.0641423483703862,-8.955656270235268,-3.809955968055255
1.5668436578171094,1.0591704079430173,-8.963552881502267,-3.7902631844017547
1.5748377581120947,1.0541984675156484,-8.971449492769265,-3.7705704007482543
1.58283185840708,1.0492265270882795,-8.979346104036262,-3.750877617094754
1.5908259587020652,1.0442545866609105,-8.98724271530326,-3.731184833441254
1.5988200589970505,1.0392826462335418,-8.995139326570257,-3.7114920497877537
1.6068141592920357,1.034310705806173,-9.003035937837256,-3.6917992661342534
1.614808259587021,1.029338765378804,-9.010932549104252,-3.672106482480753
1.622802359882006,1.0243668249514353,-9.01882916037125,-3.652413698827253
1.6307964601769913,1.0306745530070438,-8.936763951598339,-3.7605363915477694
1.6387905604719766,1.0374450665221844,-8.944431762085365,-3.765920173379086
1.6467846607669618,1.044215580037325,-8.952099572572392,-3.771303955210403
1.654778761061947,1.0509860935524655,-8.959767383059418,-3.7766877370417196
1.6627728613569324,1.057756607067606,-8.967435193546445,-3.782071518873036
1.6707669616519176,1.0645271205827467,-8.975103004033471,-3.7874553007043525
1.6787610619469029,1.0712976340978873,-8.982770814520498,-3.7928390825356693
1.6867551622418882,1.0780681476130278,-8.990438625007526,-3.798222864366986
1.6947492625368734,1.0848386611281684,-8.998106435494552,-3.8036066461983027
1.7027433628318587,1.091609174643309,-9.005774245981579,-3.808990428029619
1.710737463126844,1.0983796881584496,-9.013442056468605,-3.8143742098609357
1.7187315634218292,1.1051502016735901,-9.021109866955632,-3.8197579916922524
1.7267256637168145,1.1119207151887307,-9.028777677442658,-3.825141773523569
1.7347197640117997,1.074,-8.94,-3.849
1.742713864306785,1.074,-8.94,-3.849
1.7507079646017703,1.074,-8.94,-3.849
1.7587020648967555,1.074,-8.94,-3.849
1.7666961651917408,1.074,-8.94,-3.849
1.774690265486726,1.074,-8.94,-3.849
1.7826843657817113,1.074,-8.94,-3.849
1.7906784660766966,1.074,-8.94,-3.849
1.7986725663716816,1.074,-8.94,-3.849
1.8066666666666669,1.074,-8.94,-3.849
1.8146607669616521,1.074,-8.94,-3.849
1.8226548672566374,1.074,-8.94,-3.849
1.8306489675516227,1.1187218710493045,-8.944969096783256,-3.9374499227419584
1.838643067846608,1.1152958280657395,-8.944588425340639,-3.9306739710633516
1.8466371681415932,1.1118697850821744,-8.94420775389802,-3.9238980193847453
1.8546312684365784,1.1084437420986093,-8.943827082455401,-3.9171220677061385
1.8626253687315637,1.1050176991150442,-8.943446411012783,-3.910346116027532
1.870619469026549,1.1015916561314791,-8.943065739570164,-3.9035701643489253
1.8786135693215342,1.098165613147914,-8.942685068127545,-3.896794212670319
1.8866076696165195,1.0947395701643488,-8.942304396684927,-3.890018260991712
1.8946017699115048,1.0913135271807837,-8.94192372524231,-3.883242309313106
1.90259587020649,1.0878874841972186,-8.941543053799691,-3.876466357634499
1.9105899705014753,1.0844614412136535,-8.941162382357073,-3.8696904059558928
1.9185840707964605,1.0810353982300884,-8.940781710914454,-3.862914454277286
1.9265781710914458,1.0776093552465233,-8.940401039471835,-3.8561385025986796
1.934572271386431,1.0741833122629583,-8.940020368029217,-3.849362550920073
1.9425663716814163,0.8186449765747003,-8.888525247267049,-3.647287350338366
1.9505604719764016,0.8113092139510667,-8.905736074960958,-3.6606422002429295
1.9585545722713869,0.8039734513274331,-8.922946902654868,-3.6739970501474932
1.966548672566372,0.7966376887037998,-8.940157730348776,-3.6873519000520565
1.9745427728613572,0.7893019260801662,-8.957368558042687,-3.70070674995662
1.9825368731563424,0.7819661634565327,-8.974579385736597,-3.714061599861184
1.9905309734513277,0.7746304008328992,-8.991790213430505,-3.7274164497657476
1.998525073746313,0.7672946382092657,-9.009001041124415,-3.7407712996703113
2.006519174041298,0.7599588755856321,-9.026211868818326,-3.754126149574875
2.0145132743362835,0.7526231129619986,-9.043422696512234,-3.7674809994794387
2.0225073746312687,0.7452873503383651,-9.060633524206144,-3.780835849384002
2.030501474926254,0.7176957964601779,-9.063750737463128,-3.734953908554574
2.0384955752212393,0.625467535050214,-9.01735477776673,-3.849074972655862
2.0464896755162245,0.6333718139935702,-9.005678002054953,-3.8557217526764114
2.05448377581121,0.6412760929369264,-8.994001226343178,-3.862368532696961
2.062477876106195,0.6491803718802827,-8.9823244506314,-3.86901531271751
2.0704719764011803,0.6570846508236389,-8.970647674919626,-3.87566209273806
2.0784660766961656,0.6649889297669951,-8.958970899207849,-3.8823088727586095
2.086460176991151,0.6728932087103513,-8.947294123496071,-3.888955652779159
2.094454277286136,0.6807974876537075,-8.935617347784296,-3.8956024327997083
2.1024483775811214,0.6887017665970638,-8.92394057207252,-3.902249212820258
2.1104424778761066,0.6966060455404199,-8.912263796360744,-3.9088959928408076
2.118436578171092,0.7045103244837763,-8.900587020648967,-3.915542772861357
2.126430678466077,0.6900167158308679,-8.921998033431672,-3.9033549655850477
2.1344247787610624,0.63,-8.936,-3.96
2.1424188790560477,0.8017391577229801,-8.922030408585952,-3.9153288771731587
2.150412979351033,0.9867940751898725,-8.906977687817735,-3.8671941881629284
2.158407079646018,1.1718489926567646,-8.891924967049519,-3.819059499152698
2.1664011799410035,1.3569039101236569,-8.876872246281302,-3.7709248101424677
2.1743952802359887,1.5419588275905494,-8.861819525513084,-3.722790121132238
2.182389380530974,1.7270137450574414,-8.846766804744869,-3.6746554321220075
2.1903834808259592,1.9120686625243337,-8.831714083976651,-3.626520743111777
2.1983775811209445,2.097123579991226,-8.816661363208434,-3.578386054101547
2.2063716814159298,2.2821784974581183,-8.801608642440218,-3.530251365091317
2.214365781710915,2.467233414925011,-8.786555921672,-3.4821166760810867
2.2223598820059,2.6522883323918927,-8.771503200903785,-3.433981987070859
2.230353982300885,2.7315309734513162,-8.805035398230096,-3.355411504424773
2.2383480825958704,2.5810307627475764,-8.892559758825247,-3.277037570099517
2.2463421828908556,2.5718946481247364,-8.88623475639405,-3.2715910402282082
2.254336283185841,2.562758533501896,-8.879909753962853,-3.2661445103568996
2.262330383480826,2.5536224188790557,-8.873584751531654,-3.260697980485591
2.2703244837758114,2.544486304256216,-8.867259749100457,-3.2552514506142822
2.2783185840707967,2.5353501896333754,-8.86093474666926,-3.2498049207429736
2.286312684365782,2.526214075010535,-8.854609744238063,-3.244358390871665
2.294306784660767,2.5170779603876947,-8.848284741806866,-3.238911861000356
2.3023008849557525,2.507941845764855,-8.84195973937567,-3.233465331129048
2.3102949852507377,2.4988057311420144,-8.83563473694447,-3.2280188012577393
2.318289085545723,2.489669616519174,-8.829309734513274,-3.2225722713864307
2.3262831858407083,2.4396548672566287,-8.86634513274337,-3.2391725663716855
2.3342772861356935,2.471337758112094,-8.967908554572272,-3.221561946902655
2.342271386430679,2.46262418879056,-8.973344542772862,-3.2170053097345135
2.350265486725664,2.4539106194690263,-8.97878053097345,-3.2124486725663717
2.3582595870206493,2.4451970501474922,-8.98421651917404,-3.20789203539823
2.3662536873156346,2.4364834808259586,-8.98965250737463,-3.2033353982300885
2.37424778761062,2.4277699115044244,-8.99508849557522,-3.1987787610619467
2.382241887905605,2.4190563421828903,-9.000524483775811,-3.1942221238938053
2.3902359882005904,2.4103427728613567,-9.005960471976401,-3.1896654867256635
2.3982300884955756,2.4016292035398226,-9.011396460176991,-3.1851088495575217
2.406224188790561,2.392915634218289,-9.016832448377581,-3.1805522123893804
2.414218289085546,2.384202064896755,-9.022268436578171,-3.1759955752212385
2.4222123893805314,2.375488495575221,-9.027704424778761,-3.171438938053097
2.4302064896755167,2.3556430678465907,-9.040123893805319,-3.161115044247779
2.438200589970502,2.1011209439528025,-9.16946017699115,-2.964274336283186
2.446194690265487,2.09564184150343,-9.16272357561897,-2.9666995127771703
2.4541887905604725,2.0901627390540582,-9.155986974246794,-2.9691246892711547
2.4621828908554577,2.0846836366046864,-9.149250372874615,-2.971549865765139
2.470176991150443,2.0792045341553145,-9.142513771502436,-2.973975042259123
2.4781710914454282,2.0737254317059426,-9.135777170130257,-2.9764002187531076
2.4861651917404135,2.0682463292565707,-9.129040568758079,-2.978825395247092
2.4941592920353988,2.062767226807199,-9.1223039673859,-2.981250571741076
2.502153392330384,2.057288124357827,-9.115567366013723,-2.9836757482350604
2.5101474926253693,2.051809021908455,-9.108830764641544,-2.986100924729045
2.5181415929203546,2.046329919459083,-9.102094163269365,-2.988526101223029
2.52613569321534,2.0339848820058983,-9.123477507374636,-3.0386032448377653
2.534129793510325,1.8304073579339866,-9.079444091946343,-3.2034375243502065
2.5421238938053103,1.7939059943229219,-9.04520520955084,-3.291975955919194
2.5501179941002956,1.7574046307118572,-9.010966327155337,-3.3805143874881813
2.5581120943952804,1.7209032671007944,-8.976727444759836,-3.469052819057164
2.5661061946902657,1.6844019034897297,-8.942488562364334,-3.5575912506261513
2.574100294985251,1.6479005398786652,-8.908249679968831,-3.6461296821951388
2.582094395280236,1.6113991762676005,-8.874010797573327,-3.734668113764126
2.5900884955752215,1.5748978126565358,-8.839771915177824,-3.8232065453331137
2.5980825958702067,1.5383964490454711,-8.805533032782321,-3.911744976902101
2.606076696165192,1.5018950854344064,-8.771294150386819,-4.0002834084710885
2.6140707964601773,1.4653937218233417,-8.737055267991316,-4.088821840040076
2.6220648967551625,1.428892358212277,-8.702816385595813,-4.177360271609063
2.630058997050148,1.3923909946012123,-8.66857750320031,-4.265898703178051
2.638053097345133,1.3558896309901478,-8.634338620804808,-4.354437134747038
2.6460471976401183,1.3092581120943756,-8.505768436578165,-4.647351032448407
2.6540412979351036,1.167299260399302,-8.425536146381083,-4.636639220212909
2.662035398230089,1.2252275234064416,-8.335747338720015,-4.760373989996159
2.670029498525074,1.2831557864135812,-8.24595853105895,-4.8841087597794095
2.6780235988200594,1.3410840494207208,-8.156169723397882,-5.00784352956266
2.6860176991150446,1.3990123124278604,-8.066380915736817,-5.13157829934591
2.69401179941003,1.456940575435,-7.97659210807575,-5.25531306912916
2.702005899705015,1.5148688384421396,-7.886803300414684,-5.37904783891241
2.7100000000000004,1.5727971014492792,-7.797014492753617,-5.50278260869566
2.7179941002949857,1.6307253644564188,-7.707225685092551,-5.62651737847891
2.725988200589971,1.5175899705014468,-7.782480825958727,-5.63377728613568
2.733982300884956,1.3333008849557444,-7.94155752212393,-5.473433628318573
2.7419764011799415,1.3240377514832118,-7.950886778694773,-5.468698120711942
2.7499705014749267,1.315055616320307,-7.9587910576381296,-5.464386695833747
2.757964601769912,1.3060734811574022,-7.966695336581486,-5.460075270955553
2.7659587020648972,1.2970913459944975,-7.974599615524842,-5.4557638460773585
2.7739528023598825,1.2881092108315926,-7.9825038944681985,-5.451452421199164
2.7819469026548678,1.2791270756686879,-7.990408173411555,-5.44714099632097
2.789941002949853,1.2701449405057832,-7.998312452354911,-5.4428295714427755
2.7979351032448383,1.2611628053428783,-8.006216731298267,-5.438518146564581
2.8059292035398236,1.2521806701799736,-8.014121010241624,-5.434206721686387
2.813923303834809,1.2431985350170687,-8.02202528918498,-5.429895296808192
2.821917404129794,1.234216399854164,-8.029929568128336,-5.425583871929999
2.8299115044247793,1.2713929203540264,-8.349279646017733,-4.775350442477813
2.8379056047197646,1.4896092255826765,-8.527468929300788,-4.4473747609322825
2.84589970501475,1.4808244999837916,-8.538010600019451,-4.433319199974067
2.853893805309735,1.4720397743849067,-8.548552270738112,-4.419263639015851
2.8618879056047204,1.4632550487860216,-8.559093941456775,-4.405208078057635
2.8698820058997057,1.4544703231871368,-8.569635612175436,-4.391152517099419
2.877876106194691,1.4456855975882519,-8.580177282894098,-4.377096956141203
2.885870206489676,1.436900871989367,-8.59071895361276,-4.363041395182988
2.8938643067846614,1.428116146390482,-8.601260624331422,-4.348985834224772
2.9018584070796463,1.4193314207915975,-8.611802295050083,-4.334930273266556
2.9098525073746315,1.4105466951927126,-8.622343965768746,-4.32087471230834
2.917846607669617,1.4017619695938277,-8.632885636487407,-4.306819151350124
2.925840707964602,1.1526401179940637,-8.738557522123909,-4.175740412979333
2.9338348082595873,0.8032269166111586,-8.72102049037333,-4.22919554667428
2.9418289085545726,0.7995307197005741,-8.725232435690042,-4.240026263202969
2.949823008849558,0.7958345227899895,-8.729444381006756,-4.250856979731659
2.957817109144543,0.7921383258794049,-8.73365632632347,-4.261687696260348
2.9658112094395284,0.7884421289688204,-8.737868271640181,-4.272518412789038
2.9738053097345136,0.7847459320582357,-8.742080216956895,-4.2833491293177275
2.981799410029499,0.7810497351476512,-8.746292162273607,-4.2941798458464175
2.989793510324484,0.7773535382370665,-8.75050410759032,-4.305010562375108
2.9977876106194694,0.773657341326482,-8.754716052907032,-4.315841278903797
3.0057817109144547,0.7699611444158974,-8.758927998223745,-4.326671995432487
3.01377581120944,0.7662649475053128,-8.763139943540459,-4.337502711961176
3.021769911504425,0.7625687505947282,-8.76735188885717,-4.348333428489866
3.0297640117994105,0.7374804572271376,-9.059698008849569,-4.161453171091437
3.0377581120943957,0.8548775811209313,-8.895638053097354,-4.202775221238947
3.045752212389381,0.6881194690265479,-9.00375221238938,-4.318064159292035
3.0537463126843662,0.6681342182890847,-9.011746312684366,-4.324059734513274
3.0617404129793515,0.6481489675516215,-9.01974041297935,-4.330055309734513
3.0697345132743368,0.6281637168141585,-9.027734513274336,-4.336050884955752
3.077728613569322,0.6081784660766953,-9.035728613569322,-4.3420464601769915
3.0857227138643073,0.5881932153392322,-9.043722713864307,-4.3480420353982305
3.0937168141592926,0.568207964601769,-9.051716814159292,-4.35403761061947
3.101710914454278,0.5482227138643059,-9.059710914454277,-4.360033185840709
3.109705014749263,0.5282374631268427,-9.067705014749261,-4.366028761061948
3.1176991150442483,0.5082522123893797,-9.075699115044248,-4.372024336283187
3.1256932153392336,0.7037241887906107,-9.146983775811226,-4.421784660766972
3.133687315634219,0.6731538681130436,-8.8600263583595,-3.950008342056012
3.141681415929204,0.6453034541821272,-8.8535795032829,-3.9088344276334532
3.1496755162241894,0.6174530402512108,-8.847132648206298,-3.867660513210895
3.1576696165191747,0.5896026263202944,-8.840685793129698,-3.8264865987883363
3.16566371681416,0.5617522123893779,-8.834238938053096,-3.7853126843657776
3.173657817109145,0.5339017984584615,-8.827792082976496,-3.7441387699432194
3.1816519174041304,0.5060513845275452,-8.821345227899895,-3.7029648555206607
3.1896460176991157,0.4782009705966287,-8.814898372823293,-3.6617909410981024
3.197640117994101,0.45035055666571233,-8.808451517746693,-3.6206170266755437
3.2056342182890862,0.4225001427347959,-8.802004662670091,-3.5794431122529855
3.2136283185840715,0.3946497288038795,-8.795557807593491,-3.538269197830427
3.2216224188790568,0.3667993148729631,-8.78911095251689,-3.4970952834078686
3.229616519174042,1.069391838741367,-8.392824975417968,-3.871086037364941
3.2376106194690273,0.9688399213372707,-8.721631071779745,-4.520758112094397
3.245604719764012,1.0223115699770582,-8.738329859062603,-4.539411012782694
3.2535988200589974,1.0757832186168486,-8.75502864634546,-4.558063913470994
3.2615929203539826,1.129254867256639,-8.77172743362832,-4.576716814159292
3.269587020648968,1.1827265158964293,-8.788426220911177,-4.595369714847592
3.277581120943953,1.2361981645362197,-8.805125008194036,-4.61402261553589
3.2855752212389384,1.2896698131760103,-8.821823795476893,-4.6326755162241895
3.2935693215339237,1.3431414618158006,-8.838522582759753,-4.651328416912488
3.301563421828909,1.396613110455591,-8.85522137004261,-4.669981317600787
3.309557522123894,1.4500847590953814,-8.871920157325468,-4.688634218289086
3.3175516224188795,1.503556407735172,-8.888618944608327,-4.707287118977385
3.3255457227138647,2.712305309734727,-8.344396017699014,-5.135589233038424
3.33353982300885,2.4224699781139902,-7.413418879056049,-3.3206985441050483
3.3415339233038353,2.263189678688101,-7.46404818092429,-3.211617756208959
3.3495280235988205,2.1039093792622117,-7.514677482792529,-3.1025369683128696
3.3575221238938058,1.9446290798363226,-7.56530678466077,-2.9934561804167803
3.365516224188791,1.7853487804104335,-7.615936086529009,-2.884375392520691
3.3735103244837763,1.6260684809845443,-7.66656538839725,-2.7752946046246016
3.3815044247787616,1.466788181558655,-7.71719469026549,-2.6662138167285123
3.389498525073747,1.307507882132766,-7.76782399213373,-2.557133028832423
3.397492625368732,1.1482275827068766,-7.81845329400197,-2.448052240936334
3.4054867256637174,0.9889472832809876,-7.86908259587021,-2.338971453040245
3.4134808259587026,0.8296669838550983,-7.91971189773845,-2.2298906651441555
3.421474926253688,0.670386684429209,-7.97034119960669,-2.120809877248066
3.429469026548673,1.84530973451327,-6.917168141592891,-1.5349557522123818
3.4374631268436584,1.7653687315634177,-6.357581120943924,-1.3850663716814082
3.4454572271386437,0.7273414734326606,-5.54629005638326,1.3726768978007116
3.453451327433629,0.7676155483365105,-5.580796236137563,1.771370001120229
3.461445427728614,0.8078896232403602,-5.6153024158918665,2.170063104439746
3.4694395280235995,0.8481636981442099,-5.64980859564617,2.5687562077592636
3.4774336283185847,0.8884377730480596,-5.684314775400473,2.9674493110787807
3.48542772861357,0.9287118479519093,-5.718820955154777,3.366142414398298
3.4934218289085552,0.968985922855759,-5.75332713490908,3.764835517717815
3.5014159292035405,1.0092599977596088,-5.787833314663383,4.163528621037332
3.5094100294985258,1.0495340726634586,-5.822339494417687,4.56222172435685
3.517404129793511,1.0898081475673083,-5.85684567417199,4.960914827676367
3.5253982300884963,0.824045512010029,-4.807620733248742,3.848341340075452
3.5333923303834815,-2.2889675843985087,-4.150530088495579,-8.978634513274278
3.541386430678467,-1.7992845296623576,-4.181707079646021,-8.400661061946845
3.549380530973452,-1.3096014749262066,-4.212884070796463,-7.822687610619413
3.5573746312684373,-0.8199184201900553,-4.244061061946906,-7.244714159291981
3.5653687315634226,-0.3302353654539043,-4.275238053097348,-6.666740707964548
3.573362831858408,0.15944768928224695,-4.306415044247791,-6.088767256637116
3.581356932153393,0.649130744018398,-4.337592035398233,-5.5107938053096825
3.589351032448378,1.138813798754522,-4.368769026548674,-4.932820353982282
3.597345132743363,1.628496853490673,-4.399946017699116,-4.35484690265485
3.6053392330383485,2.1181799082268244,-4.431123008849559,-3.7768734513274174
3.6133333333333337,2.6078629629629755,-4.462300000000001,-3.198899999999985
3.621327433628319,3.0975460176991265,-4.493476991150443,-2.6209265486725526
3.6293215339233043,1.865731563421853,-1.9292772861352292,-0.9048141592923248
3.6373156342182895,0.9420364229156968,1.8215567458468995,-8.567517342027623
3.645309734513275,0.9493573358174201,1.5383972985561063,-8.373471075919875
3.65330383480826,0.9566782487191434,1.255237851265313,-8.179424809812128
3.6612979351032453,0.9639991616208667,0.97207840397452,-7.985378543704381
3.6692920353982306,0.9713200745225901,0.6889189566837268,-7.791332277596634
3.677286135693216,0.9786409874243135,0.4057595093929336,-7.597286011488887
3.685280235988201,0.9859619003260368,0.12260006210214036,-7.403239745381139
3.6932743362831864,0.9932828132277601,-0.16055938518865265,-7.2091934792733925
3.7012684365781716,1.0006037261294836,-0.4437188324794459,-7.015147213165646
3.709262536873157,1.0079246390312069,-0.7268782797702391,-6.821100947057898
3.717256637168142,1.0152455519329302,-1.0100377270610323,-6.627054680950151
3.7252507374631274,1.0225664648346535,-1.2931971743518256,-6.433008414842404
3.7332448377581127,-3.6725368731600416,-1.489764011817412,-16.731851032443995
3.741238938053098,-10.569118262268733,-52.05641914722434,-19.127209975864915
3.749233038348083,-11.126252547599924,-49.70869723786525,-20.554247720568597
3.7572271386430685,-11.683386832931115,-47.36097532850616,-21.98128546527228
3.7652212389380537,-12.240521118262306,-45.01325341914707,-23.40832320997596
3.773215339233039,-12.797655403593497,-42.665531509787975,-24.835360954679643
3.7812094395280242,-13.354789688924688,-40.31780960042889,-26.262398699383326
3.7892035398230095,-13.91192397425588,-37.97008769106979,-27.689436444087008
3.7971976401179948,-14.46905825958707,-35.622365781710705,-29.11647418879069
3.80519174041298,-15.02619254491826,-33.27464387235162,-30.543511933494372
3.8131858407079653,-15.583326830249451,-30.926921962992527,-31.970549678198054
3.8211799410029506,-16.140461115580642,-28.579200053633436,-33.397587422901736
3.829174041297936,-12.059792527039633,-17.05798131759908,-23.828866273351395
3.837168141592921,-5.451336283185203,-0.5368407079630089,-8.267017699113541
3.8451622418879063,-3.1453489675515995,2.8807051991150683,-14.496575811209517
3.8531563421828916,-2.9063253687315402,3.131020464601794,-15.323165781710994
3.861150442477877,-2.6673017699114814,3.38133573008852,-16.14975575221247
3.869144542772862,-2.428278171091422,3.6316509955752454,-16.976345722713944
3.8771386430678474,-2.1892545722713628,3.8819662610619714,-17.80293569321542
3.8851327433628327,-1.950230973451304,4.132281526548697,-18.629525663716898
3.893126843657818,-1.7112073746312448,4.3825967920354225,-19.45611563421837
3.901120943952803,-1.4721837758111855,4.632912057522148,-20.282705604719848
3.9091150442477884,-1.2331601769911265,4.8832273230088745,-21.109295575221324
3.9171091445427737,-0.9941365781710672,5.1335425884956,-21.935885545722797
3.9251032448377585,0.380148475909701,-4.783884955753585,-7.3511592920333335
3.933097345132744,-0.13781338976526641,-12.250326279338184,-2.9945432858791685
3.941091445427729,0.7272872899833555,-11.536244581249175,-2.5107264332435393
3.9490855457227143,1.5923879697319774,-10.822162883160166,-2.02690958060791
3.9570796460176996,2.457488649480599,-10.108081185071157,-1.5430927279722806
3.965073746312685,3.322589329229221,-9.393999486982146,-1.0592758753366516
3.97306784660767,4.187690008977843,-8.679917788893139,-0.5754590227010219
3.9810619469026554,5.052790688726465,-7.965836090804129,-0.09164217006539266
3.9890560471976406,5.917891368475087,-7.25175439271512,0.3921746825702366
3.997050147492626,6.782992048223709,-6.537672694626111,0.8759915352058658
4.005044247787612,7.6480927279723785,-5.823590996537062,1.3598083878415221
4.013038348082596,8.513193407720951,-5.109509298448093,1.8436252404771243
4.021032448377582,9.378294087469621,-4.395427600359044,2.3274420931127806
4.029026548672567,5.484266592920354,-0.049917311946900335,2.3028235619469375
4.037020648967553,5.48926290560472,-0.006199575958697287,2.964834992625441
4.0450147492625375,5.494259218289086,0.0375181600295009,3.6268464233038706
4.053008849557523,5.499255530973452,0.08123589601770395,4.288857853982375
4.061002949852508,5.504251843657817,0.12495363200590215,4.950869284660804
4.068997050147494,5.509248156342183,0.16867136799410518,5.612880715339307
4.0769911504424785,5.514244469026549,0.21238910398230337,6.274892146017737
4.084985250737464,5.519240781710915,0.25610683997050643,6.93690357669624
4.092979351032449,5.52423709439528,0.2998245759587046,7.5989150073746705
4.100973451327434,5.529233407079646,0.3435423119469028,8.260926438053101
4.10896755162242,5.534229719764012,0.3872600479351058,8.922937868731603
4.116961651917404,5.5392260324483775,0.43097778392330405,9.584949299410034
4.12495575221239,3.1967492625360387,-0.17976843657839997,7.655629793509461
4.132949852507375,1.774289085545649,0.6621091445426615,4.11852802359872
4.140943952802361,1.4530879321202452,0.2384252759272147,3.6452670776573473
4.148938053097345,1.4036861887242715,0.2354611713234563,3.535056279208511
4.156932153392331,1.354284445328292,0.23249706671969753,3.4248454807596627
4.164926253687316,1.3048827019323181,0.2295329621159391,3.3146346823108264
4.172920353982302,1.255480958536339,0.2265688575121803,3.2044238838619776
4.1809144542772865,1.206079215140365,0.22360475290842188,3.0942130854131413
4.188908554572272,1.1566774717443857,0.22064064830466312,2.984002286964293
4.196902654867257,1.1072757283484118,0.2176765437009047,2.8737914885154567
4.204896755162243,1.0578739849524323,0.21471243909714594,2.7635806900666084
4.2128908554572275,1.0084722415564586,0.2117483344933875,2.653369891617772
4.220884955752213,0.9590704981604793,0.20878422988962875,2.5431590931689234
4.228879056047198,1.4105870206489164,-2.8431448109416384,0.1187712523463178
4.236873156342184,1.3063244837763157,-7.309849557523181,-1.0278436578166161
4.244867256637169,4.559495239162075,-14.240920466002068,2.221280945446435
4.252861356932154,4.352053396064346,-14.86699006758531,2.6663195922482936
4.260855457227139,4.144611552966641,-15.493059669168483,3.1113582390501033
4.268849557522125,3.9371697098689125,-16.119129270751724,3.5563968858519623
4.27684365781711,3.729727866771207,-16.7451988723349,4.001435532653772
4.284837758112095,3.522286023673478,-17.371268473918143,4.446474179455631
4.29283185840708,3.314844180575772,-17.997338075501315,4.89151282625744
4.300825958702066,3.1074023374780437,-18.623407677084558,5.3365514730592984
4.308820058997051,2.8999604943803377,-19.24947727866773,5.781590119861109
4.316814159292036,2.6925186512826094,-19.875546880250972,6.226628766662968
4.324808259587021,-0.10118761061974446,-21.780207079646164,8.642180530973668
4.332802359882007,3.7570943952786013,-18.097038348081036,8.8201651917405
4.340796460176992,2.6209027521152013,-16.061038023922908,8.8550057376252
4.348790560471977,3.1383230898895498,-15.434160005186447,8.797377937696512
4.356784660766962,3.655743427663841,-14.807281986450057,8.73975013776783
4.364778761061948,4.17316376543819,-14.180403967713596,8.682122337839141
4.372772861356933,4.690584103212481,-13.553525948977207,8.62449453791046
4.3807669616519185,5.208004440986829,-12.926647930240746,8.566866737981773
4.388761061946903,5.72542477876112,-12.299769911504356,8.509238938053091
4.396755162241889,6.242845116535468,-11.672891892767893,8.451611138124402
4.404749262536874,6.760265454309759,-11.046013874031503,8.39398333819572
4.4127433628318595,7.277685792084108,-10.419135855295043,8.336355538267032
4.420737463126844,7.795106129858399,-9.792257836558653,8.27872773833835
4.42873156342183,4.687117625367831,-6.609582227138383,3.374918141591512
4.436725663716815,0.4705437129242519,-4.665945930176011,-1.777626957113674
4.4447197640118,0.5536472170896983,-4.577220201627278,-1.6853873383253877
4.452713864306785,0.636750721255154,-4.488494473078536,-1.5931477195370913
4.46070796460177,0.7198542254206003,-4.399768744529803,-1.5009081007488052
4.468702064896756,0.8029577295860559,-4.3110430159810615,-1.4086684819605089
4.476696165191741,0.8860612337515024,-4.222317287432329,-1.3164288631722225
4.4846902654867264,0.9691647379169579,-4.1335915588835865,-1.2241892443839262
4.492684365781711,1.0522682420824043,-4.044865830334854,-1.1319496255956398
4.500678466076697,1.1353717462478599,-3.9561401017861115,-1.0397100068073435
4.508672566371682,1.2184752504133063,-3.8674143732373794,-0.9474703880190574
4.5166666666666675,1.301578754578762,-3.778688644688637,-0.8552307692307609
4.524660766961652,1.3846822587442085,-3.689962916139905,-0.7629911504424747
4.532654867256638,4.322663716814033,-2.3988230088494698,0.6374601769910142
4.540648967551623,4.078986477080636,-2.346937025620636,0.4424878525736643
4.5486430678466085,4.014045639852831,-2.4430458718637222,0.4538951642305539
4.556637168141593,3.949104802625033,-2.5391547181067975,0.46530247588744234
4.564631268436579,3.884163965397228,-2.635263564349884,0.476709787544332
4.572625368731564,3.81922312816943,-2.731372410592959,0.48811709920122043
4.58061946902655,3.7542822909416254,-2.8274812568360455,0.49952441085811006
4.588613569321534,3.6893414537138276,-2.923590103079121,0.5109317225149985
4.59660766961652,3.6244006164860227,-3.019698949322207,0.5223390341718881
4.604601769911505,3.559459779258225,-3.1158077955652823,0.5337463458287766
4.612595870206491,3.49451894203042,-3.2119166418083687,0.5451536574856662
4.6205899705014755,3.4295781048026224,-3.3080254880514444,0.5565609691425546
4.628584070796461,2.6036601769910215,-3.7591557522124566,-0.23461327433640988
4.636578171091446,0.03948377581197027,-8.82169026548812,-0.4991120943950541
4.644572271386432,2.059405101509608,-13.080865972583778,0.1675262189831732
4.6525663716814165,1.9005576262363215,-13.46749828214475,0.2010073919833449
4.660560471976402,1.7417101509630173,-13.854130591705765,0.23448856498352036
4.668554572271387,1.5828626756897306,-14.240762901266736,0.26796973798369206
4.676548672566373,1.4240152004164264,-14.62739521082775,0.30145091098386756
4.684542772861358,1.2651677251431397,-15.014027520388723,0.3349320839840393
4.692536873156343,1.1063202498698355,-15.400659829949737,0.3684132569842147
4.700530973451328,0.9474727745965488,-15.787292139510708,0.4018944299843864
4.708525073746314,0.7886252993232445,-16.173924449071723,0.43537560298456185
4.716519174041299,0.6297778240499579,-16.560556758632696,0.4688567759847336
4.724513274336284,0.6559592920355313,-16.990522123893903,0.2087805309732046
4.732507374631269,-2.6055147492633814,-16.311576696161797,1.381761061944713
4.740501474926255,-3.1243006198004903,-14.119056842663385,-0.026659142885615827
4.74849557522124,-3.231188028239051,-13.57455980908813,-0.371573133141139
4.756489675516225,-3.3380754366776233,-13.030062775512814,-0.7164871233967005
4.76448377581121,-3.444962845116184,-12.485565741937558,-1.061401113652224
4.772477876106196,-3.5518502535547567,-11.941068708362241,-1.4063151039077852
4.780471976401181,-3.658737661993317,-11.396571674786987,-1.7512290941633084
4.7884660766961655,-3.7656250704318777,-10.85207464121173,-2.0961430844188316
4.796460176991151,-3.8725124788704504,-10.307577607636414,-2.441057074674393
4.804454277286136,-3.9793998873090106,-9.76308057406116,-2.785971064929916
4.812448377581122,-4.086287295747583,-9.218583540485842,-3.1308850551854777
4.820442477876107,-4.193174704186144,-8.674086506910587,-3.475799045441001
4.828436578171092,1.1254218289092783,-8.746134218288546,-0.5211238938050287
4.836430678466077,1.5337377908882348,-8.423601769911503,-0.22586561783020695
4.844424778761063,1.5517447036739096,-8.390898632341106,-0.07187825154194727
4.852418879056048,1.5697516164595824,-8.358195494770714,0.08210911474629534
4.860412979351033,1.5877585292452574,-8.325492357200318,0.23609648103455505
4.868407079646018,1.6057654420309302,-8.292789219629926,0.39008384732279766
4.876401179941004,1.623772354816605,-8.260086082059528,0.5440712136110574
4.884395280235989,1.6417792676022778,-8.227382944489136,0.6980585798993
4.892389380530974,1.6597861803879526,-8.19467980691874,0.8520459461875598
4.900383480825959,1.6777930931736256,-8.161976669348348,1.0060333124758023
4.908377581120945,1.6958000059593004,-8.129273531777953,1.1600206787640621
4.91637168141593,1.7138069187449732,-8.096570394207559,1.3140080450523046
4.924365781710915,1.7318138315306482,-8.063867256637163,1.4679954113405644
4.9323598820059,1.5836647000982569,-7.105001966568242,2.256589970501538
4.940353982300886,1.2710123124278663,-7.934177279722977,2.884124951904584
4.948348082595871,1.3262758753366741,-7.974756027959476,2.9156668911119694
4.9563421828908565,1.381539438245488,-8.01533477619598,2.947208830319359
4.964336283185841,1.4368030011542958,-8.055913524432478,2.9787507695267443
4.972330383480827,1.4920665640631097,-8.096492272668982,3.0102927087341333
4.980324483775812,1.5473301269719175,-8.13707102090548,3.041834647941519
4.9883185840707975,1.6025936898807314,-8.177649769141984,3.073376587148908
4.996312684365782,1.6578572527895392,-8.218228517378483,3.1049185263562937
5.004306784660768,1.713120815698353,-8.258807265614987,3.1364604655636827
5.012300884955753,1.768384378607161,-8.299386013851485,3.168002404771068
5.020294985250739,1.8236479415159748,-8.339964762087988,3.199544343978457
5.028289085545723,1.29293362831813,-9.244088495575523,3.271545722713993
5.036283185840709,-1.6101278269419959,-10.629647984267454,3.774
5.044277286135694,-1.7078334972140328,-10.638530317928549,3.774
5.05227138643068,-1.8055391674860803,-10.647412651589644,3.774
5.0602654867256645,-1.9032448377581173,-10.656294985250737,3.774
5.06825958702065,-2.000950508030165,-10.665177318911834,3.774
5.076253687315635,-2.0986561783022015,-10.674059652572927,3.774
5.084247787610621,-2.1963618485742495,-10.682941986234024,3.774
5.0922418879056055,-2.294067518846286,-10.691824319895117,3.774
5.100235988200591,-2.391773189118334,-10.700706653556212,3.774
5.108230088495576,-2.4894788593903705,-10.709588987217307,3.774
5.116224188790561,-2.5871845296624074,-10.718471320878402,3.774
5.1242182890855466,-2.349704277285788,-11.034789823008838,3.848838495575146
5.132212389380531,0.04957522123915791,-10.904389380530814,3.3425132743362784
5.140206489675517,0.6871468628815781,-10.41707049816048,3.320167246693844
5.148200589970502,0.732416824102616,-10.348896092274037,3.307502436114149
5.156194690265488,0.7776867853236589,-10.280721686387587,3.2948376255344525
5.164188790560472,0.8229567465446967,-10.212547280501141,3.2821728149547575
5.172182890855458,0.8682267077657396,-10.14437287461469,3.269508004375061
5.180176991150443,0.9134966689867774,-10.076198468728247,3.256843193795366
5.188171091445429,0.9587666302078204,-10.008024062841795,3.244178383215669
5.1961651917404135,1.0040365914288583,-9.939849656955351,3.2315135726359743
5.204159292035399,1.049306552649901,-9.871675251068899,3.2188487620562776
5.212153392330384,1.094576513870939,-9.803500845182455,3.2061839514765826
5.22014749262537,1.139846475091982,-9.735326439296003,3.193519140896886
5.2281415929203545,1.7629026548672873,-8.531026548672509,2.616761061946881
5.23613569321534,2.1744775073746316,-8.116380899705016,2.587490781710916
5.244129793510325,2.177838663180477,-8.126100998927328,2.6050232971305984
5.252123893805311,2.1811998189863235,-8.13582109814964,2.6225558125502832
5.260117994100296,2.1845609747921695,-8.14554119737195,2.640088327969966
5.268112094395281,2.187922130598016,-8.155261296594261,2.65762084338965
5.276106194690266,2.191283286403862,-8.164981395816573,2.675153358809333
5.284100294985252,2.194644442209708,-8.174701495038885,2.692685874229017
5.292094395280237,2.1980055980155537,-8.184421594261195,2.7102183896486998
5.300088495575222,2.2013667538214,-8.194141693483509,2.7277509050683846
5.308082595870207,2.204727909627246,-8.203861792705819,2.745283420488067
5.316076696165193,2.208089065433092,-8.213581891928131,2.7628159359077515
5.324070796460178,2.0918495575218543,-8.265088495575245,3.1384513274336454
5.332064896755163,0.6977897738446162,-8.42435889872174,3.229839724680435
5.340058997050148,0.4830149459193528,-8.509629301868248,3.251157325467062
5.348053097345134,0.3889023311029535,-8.560164796028497,3.276809086984679
5.356047197640119,0.36501751924598663,-8.590483883732645,3.3049834160731013
5.364041297935104,0.3411327073890171,-8.620802971436799,3.3331577451615266
5.372035398230089,0.31724789553205024,-8.651122059140949,3.361332074249949
5.380029498525075,0.2933630836750807,-8.681441146845103,3.389506403338374
5.38802359882006,0.2694782718181138,-8.711760234549251,3.4176807324267964
5.3960176991150455,0.24559345996114426,-8.742079322253405,3.4458550615152217
5.40401179941003,0.22170864810417737,-8.772398409957555,3.474029390603644
5.412005899705016,0.19782383624720784,-8.802717497661709,3.5022037196920692
5.420000000000001,0.17393902439024095,-8.833036585365857,3.5303780487804914
5.4279941002949865,0.18274532940017488,-9.408187807276713,3.8906322517206644
5.435988200589971,0.9566844328238154,-10.363326226870475,2.042944991954945
5.443982300884957,0.9703107401448138,-10.357875703942074,2.0263208970233273
5.451976401179942,0.9839370474658106,-10.352425181013677,2.009696802091711
5.459970501474927,0.9975633547868075,-10.346974658085278,1.9930727071600949
5.467964601769912,1.0111896621078058,-10.341524135156877,1.9764486122284768
5.475958702064897,1.0248159694288026,-10.33607361222848,1.9598245172968607
5.483952802359883,1.038442276749801,-10.33062308930008,1.9432004223652428
5.491946902654868,1.0520685840707977,-10.32517256637168,1.9265763274336267
5.499941002949853,1.065694891391796,-10.319722043443281,1.9099522325020086
5.507935103244838,1.079321198712793,-10.314271520514882,1.8933281375703925
5.515929203539824,1.0929475060337914,-10.308820997586484,1.8767040426387747
5.523923303834809,1.1453615676359372,-10.27564138221658,1.861208596713021
5.5319174041297945,1.8155722713865698,-9.74834119960657,1.7064424778760547
5.539911504424779,1.9788930008045054,-9.310446802091711,1.5843675583266288
5.547905604719765,1.9803464735854117,-9.291642497988734,1.5768276682756763
5.55589970501475,1.981799946366318,-9.27283819388576,1.5692877782247248
5.5638938053097355,1.9832534191472246,-9.25403388978278,1.5617478881737723
5.57188790560472,1.984706891928131,-9.235229585679805,1.5542079981228207
5.579882005899706,1.9861603647090373,-9.216425281576829,1.5466681080718683
5.587876106194691,1.9876138374899437,-9.197620977473852,1.5391282180209167
5.595870206489677,1.9890673102708503,-9.178816673370875,1.5315883279699642
5.603864306784661,1.9905207830517566,-9.1600123692679,1.5240484379190127
5.611858407079647,1.991974255832663,-9.141208065164921,1.5165085478680602
5.619852507374632,1.9934277286135693,-9.122403761061946,1.5089686578171086
5.627846607669618,1.612571976401101,-8.953123303834776,2.1908256637169563
5.6358407079646025,1.0810619469026295,-8.623814159292003,2.9814955752212513
5.643834808259588,0.9516509341199706,-8.665381163084708,3.0768959123472226
5.651828908554573,1.016936086529013,-8.698785082174465,2.9644075010535085
5.659823008849559,1.0822212389380623,-8.732189001264228,2.8519190897597815
5.6678171091445435,1.1475063913471046,-8.765592920353985,2.7394306784660674
5.675811209439529,1.212791543756154,-8.798996839443747,2.626942267172341
5.683805309734514,1.2780766961651966,-8.832400758533504,2.5144538558786267
5.6917994100295,1.343361848574246,-8.865804677623267,2.4019654445848997
5.699793510324485,1.4086470009832883,-8.899208596713024,2.2894770332911856
5.70778761061947,1.473932153392338,-8.932612515802786,2.176988621997459
5.715781710914455,1.53921730580138,-8.966016434892543,2.064500210703745
5.723775811209441,1.5296224188790208,-9.068359882005943,2.095979351032518
5.731769911504426,1.427466076696154,-9.390738938053135,2.248915929203556
5.739764011799411,1.3817974434611624,-9.567359882005903,2.319630285152407
5.747758112094396,1.3941101956396447,-9.580867154918117,2.3103497779134017
5.755752212389382,1.4064229478181285,-9.594374427830335,2.3010692706743954
5.763746312684367,1.4187356999966108,-9.607881700742551,2.2917887634353904
5.771740412979352,1.4310484521750944,-9.621388973654767,2.282508256196384
5.779734513274337,1.4433612043535766,-9.634896246566983,2.2732277489573787
5.787728613569323,1.4556739565320602,-9.648403519479201,2.2639472417183724
5.795722713864308,1.4679867087105425,-9.661910792391415,2.254666734479367
5.8037168141592925,1.4802994608890248,-9.675418065303631,2.2453862272403615
5.811710914454278,1.4926122130675086,-9.68892533821585,2.236105720001355
5.819705014749263,1.5049249652459908,-9.702432611128065,2.2268252127623502
5.827699115044249,1.2234513274336505,-9.836557522123835,2.070849557522173
5.835693215339234,1.3026266653700291,-9.635240234691562,2.2330925151544614
5.843687315634219,1.3126412525527584,-9.62926662128432,2.2289636941229856
5.851681415929204,1.3226558397354866,-9.623293007877079,2.2248348730915097
5.85967551622419,1.332670426918216,-9.617319394469837,2.220706052060034
5.867669616519175,1.342685014100944,-9.611345781062594,2.216577231028558
5.87566371681416,1.3526996012836734,-9.605372167655354,2.212448409997082
5.883657817109145,1.3627141884664016,-9.599398554248111,2.2083195889656064
5.891651917404131,1.3727287756491309,-9.593424940840869,2.20419076793413
5.899646017699116,1.382743362831859,-9.587451327433628,2.2000619469026548
5.907640117994101,1.3927579500145884,-9.581477714026386,2.1959331258711785
5.915634218289086,1.4027725371973168,-9.575504100619145,2.1918043048397027
5.923628318584072,1.4547256637168724,-9.515964601769838,2.1038053097343985
5.931622418879057,1.6938648402686252,-9.231349683047762,1.874055796146363
5.939616519174042,1.6965011924935671,-9.223270539132617,1.8742258833866818
5.947610619469027,1.699137544718509,-9.215191395217472,1.8743959706270006
5.955604719764013,1.701773896943451,-9.207112251302327,1.8745660578673196
5.963598820058998,1.7044102491683928,-9.199033107387184,1.8747361451076383
5.9715929203539835,1.707046601393335,-9.190953963472039,1.874906232347957
5.979587020648968,1.7096829536182767,-9.182874819556893,1.8750763195882758
5.987581120943954,1.712319305843219,-9.174795675641748,1.8752464068285948
5.995575221238939,1.7149556580681606,-9.166716531726603,1.8754164940689135
6.0035693215339245,1.7175920102931028,-9.158637387811458,1.8755865813092323
6.011563421828909,1.7202283625180446,-9.150558243896315,1.8757566685495513
6.019557522123895,1.7228647147429867,-9.14247909998117,1.87592675578987
6.02755162241888,1.5988303834807995,-9.099552605703039,1.9511017699115203
6.035545722713866,1.6243137617032188,-9.322102988328846,2.007955726561498
6.04353982300885,1.6221588303193535,-9.328706810311658,2.007816698730281
6.051533923303836,1.6200038989354877,-9.335310632294473,2.0076776708990636
6.059528023598821,1.6178489675516223,-9.341914454277287,2.0075386430678464
6.067522123893807,1.6156940361677565,-9.348518276260101,2.0073996152366296
6.0755162241887914,1.613539104783891,-9.355122098242914,2.0072605874054124
6.083510324483777,1.6113841734000254,-9.361725920225728,2.007121559574195
6.091504424778762,1.6092292420161598,-9.368329742208543,2.006982531742978
6.099498525073748,1.6070743106322942,-9.374933564191357,2.0068435039117607
6.1074926253687325,1.6049193792484286,-9.38153738617417,2.0067044760805435
6.115486725663718,1.6027644478645628,-9.388141208156984,2.0065654482493267
6.123480825958703,1.6006095164806975,-9.394745030139799,2.0064264204181095
6.131474926253689,1.5984545850968317,-9.401348852122611,2.0062873925868923
6.1394690265486735,1.5962996537129663,-9.407952674105426,2.006148364755675
6.147463126843658,1.5941447223291008,-9.414556496088238,2.006009336924458
6.155457227138644,1.5270130061678737,-9.522070528291772,2.1120410297666865
6.163451327433629,1.5288298471440065,-9.559860820595336,2.061896218825418
6.171445427728615,1.5306466881201397,-9.597651112898905,2.011751407884145
6.179439528023599,1.5378523182815222,-9.6071465093412,1.997954655472354
6.187433628318585,1.5463588609031096,-9.60981120943953,1.992932720671658
6.19542772861357,1.554865403524696,-9.612475909537856,1.9879107858709624
6.203421828908556,1.5633719461462834,-9.615140609636185,1.9828888510702662
6.2114159292035405,1.5718784887678698,-9.617805309734514,1.9778669162695708
6.219410029498526,1.5803850313894572,-9.620470009832843,1.9728449814688747
6.227404129793511,1.5888915740110434,-9.62313470993117,1.9678230466681792
6.235398230088497,1.5973981166326308,-9.625799410029499,1.962801111867483
6.2433923303834815,1.6059046592542172,-9.628464110127828,1.9577791770667874
6.251386430678467,1.5962241887905135,-9.62443067846606,1.9193805309733623
6.259380530973452,1.806779046531544,-9.165944761632886,1.8268408506994014
6.267374631268438,1.8021373108763912,-9.164784327719097,1.8445052336092893
6.275368731563423,1.7974955752212385,-9.16362389380531,1.8621696165191755
6.283362831858408,1.7928538395660856,-9.162463459891521,1.8798339994290634
6.291356932153393,1.7882121039109329,-9.161303025977734,1.8974983823389493
6.299351032448379,1.78357036825578,-9.160142592063945,1.9151627652488372
6.307345132743364,1.7789286326006275,-9.158982158150158,1.9328271481587231
6.315339233038349,1.7742868969454744,-9.157821724236369,1.950491531068611
6.323333333333334,1.7649166666666591,-9.163791666666675,1.9648750000000024
6.33132743362832,1.6247013517455988,-9.319906447534766,2.008179908586989
6.339321533923305,1.6174100294985245,-9.317622418879056,2.012572271386431
6.34731563421829,1.6101187072514498,-9.315338390223346,2.016964634185874
6.355309734513275,1.6028273850043755,-9.313054361567636,2.021356996985316
6.363303834808261,1.5955360627573008,-9.310770332911925,2.0257493597847587
6.371297935103246,1.5882447405102265,-9.308486304256215,2.030141722584201
6.379292035398231,1.5809534182631517,-9.306202275600505,2.0345340853836436
6.387286135693216,1.5736620960160774,-9.303918246944797,2.0389264481830858
6.395280235988202,1.5663707737690025,-9.301634218289086,2.0433188109825284
6.403274336283187,1.5590794515219284,-9.299350189633376,2.0477111737819707
6.4112684365781725,1.5517881292748534,-9.297066160977666,2.0521035365814133
6.419262536873157,1.5444968070277794,-9.294782132321956,2.0564958993808555
6.427256637168143,0.8982831858404148,-9.341219026548604,1.548431415928878
6.435250737463128,0.5564191010879612,-9.273583309544202,1.1774664573223017
6.4432448377581135,0.6119480128144211,-9.302465220287376,1.2509606051955575
6.451238938053098,0.6674769245408748,-9.331347131030547,1.324454753068805
6.459233038348084,0.7230058362673347,-9.36022904177372,1.3979489009420607
6.467227138643069,0.7785347479937884,-9.389110952516893,1.4714430488153083
6.475221238938055,0.8340636597202482,-9.417992863260066,1.544937196688564
6.483215339233039,0.889592571446702,-9.446874774003238,1.6184313445618115
6.491209439528024,0.9451214831731557,-9.47575668474641,1.691925492435059
6.49920353982301,1.0006503948996155,-9.504638595489583,1.7654196403083149
6.507197640117995,1.0561793066260692,-9.533520506232755,1.8389137881815625
6.51519174041298,1.111708218352529,-9.562402416975928,1.912407936054818
6.523185840707965,1.808840707964899,-9.751238938053174,2.550132743363095
6.531179941002951,2.0980670037926465,-9.810663295406652,2.8624306784660654
6.539174041297936,1.8730786627335057,-9.605026548672518,2.49479449360856
6.5471681415929215,1.6901964383262233,-9.324173604282745,2.1450609636184987
6.555162241887906,1.606209038930765,-9.272557376452163,2.2747430350704754
6.563156342182892,1.5222216395352974,-9.220941148621575,2.4044251065224667
6.571150442477877,1.4382342401398391,-9.169324920790995,2.5341071779744433
6.5791445427728625,1.3542468407443715,-9.117708692960408,2.6637892494264346
6.587138643067847,1.2702594413489132,-9.066092465129826,2.793471320878411
6.595132743362833,1.1862720419534458,-9.014476237299238,2.923153392330402
6.603126843657818,1.1022846425579873,-8.962860009468658,3.0528354637823787
6.611120943952804,1.01829724316252,-8.91124378163807,3.1825175352343704
6.619115044247788,0.9343098437670615,-8.859627553807488,3.312199606686347
6.627109144542774,0.9793588987217602,-8.938574237954736,3.361425762045265
6.635103244837759,0.9608330954419892,-8.870693469089984,3.357117613474154
6.643097345132745,0.8754767342277878,-8.851954610333996,3.281302597773322
6.6510914454277295,0.790120373013596,-8.83321575157801,3.2054875820724993
6.659085545722715,0.7047640117993945,-8.814476892822022,3.1296725663716676
6.6670796460177,0.6194076505852025,-8.795738034066035,3.0538575506708447
6.675073746312686,0.5340512893710011,-8.77699917531005,2.978042534970013
6.6830678466076705,0.4486949281568092,-8.758260316554063,2.90222751926919
6.691061946902656,0.3633385669426078,-8.739521457798075,2.8264125035683585
6.699056047197641,0.2779822057284158,-8.720782599042089,2.7505974878675357
6.707050147492627,0.19262584451421438,-8.7020437402861,2.674782472166704
6.7150442477876116,0.1072694833000224,-8.683304881530116,2.5989674564658807
6.723038348082597,-0.005418879056087331,-8.814964601770066,2.592705014749325
6.731032448377582,0.8737595711612408,-9.534843721254791,3.697150949979402
6.739026548672568,1.0026107146255803,-9.483096964506604,3.874740317822848
6.747020648967553,1.1314618580899056,-9.431350207758424,4.052329685666274
6.755014749262538,1.2603130015542452,-9.379603451010237,4.22991905350972
6.763008849557523,1.38916414501857,-9.327856694262055,4.407508421353146
6.771002949852509,1.5180152884829097,-9.276109937513867,4.585097789196592
6.778997050147494,1.646866431947235,-9.224363180765687,4.762687157040018
6.786991150442479,1.7757175754115746,-9.1726164240175,4.940276524883465
6.794985250737464,1.9045687188758997,-9.120869667269318,5.117865892726891
6.80297935103245,2.0334198623402395,-9.06912291052113,5.295455260570336
6.810973451327435,2.1622710058045644,-9.01737615377295,5.473044628413763
6.81896755162242,2.291122149268904,-8.965629397024763,5.650633996257209
6.826961651917405,3.1068672566374356,-7.934450344149643,6.303299901671809
6.83495575221239,3.4872167665810263,-8.164349319630789,6.646606242268535
6.842949852507376,3.4888499698670983,-8.124550734291237,6.676949440162406
6.850943952802361,3.4904831731531707,-8.084752148951688,6.7072926380562725
6.858938053097346,3.492116376439243,-8.044953563612136,6.737635835950143
6.866932153392331,3.493749579725315,-8.005154978272587,6.767979033844011
6.874926253687317,3.4953827830113875,-7.965356392933034,6.798322231737881
6.882920353982302,3.4970159862974595,-7.925557807593487,6.828665429631748
6.890914454277287,3.498649189583532,-7.885759222253934,6.859008627525618
6.898908554572272,3.500282392869604,-7.845960636914386,6.889351825419486
6.906902654867258,3.5019155961556763,-7.806162051574833,6.9196950233133565
6.914896755162243,3.5035487994417487,-7.766363466235285,6.950038221207223
6.922890855457228,3.4810359882005506,-7.69269321533917,6.960875516224163
6.930884955752213,3.2659946902654737,-7.348946902654846,6.816182300884947
6.938879056047199,1.9276643342251825,-9.225350895245905,7.6912498456472695
6.946873156342184,2.1942582835974687,-8.97158468820743,7.828450915826312
6.954867256637169,2.4608522329697844,-8.71781848116893,7.96565198600537
6.962861356932154,2.7274461823420704,-8.464052274130456,8.102853056184413
6.97085545722714,2.994040131714386,-8.210286067091953,8.240054126363471
6.978849557522125,3.2606340810866725,-7.956519860053481,8.377255196542514
6.9868436578171105,3.5272280304589883,-7.702753653014979,8.514456266721572
6.994837758112095,3.7938219798312742,-7.448987445976506,8.651657336900614
7.002831858407081,4.06041592920359,-7.195221238938005,8.788858407079672
7.010825958702066,4.327009878575876,-6.941455031899531,8.926059477258715
7.0188200589970515,4.593603827948192,-6.68768882486103,9.063260547437773
7.026814159292036,4.546448377581576,-5.057371681415676,8.966256637168271
7.034808259587022,5.583144764804808,-4.5332687854854505,9.233491610365721
7.042802359882007,5.781535985028732,-4.497854061597991,9.249307894820314
7.050796460176993,5.979927205252678,-4.462439337710527,9.26512417927491
7.058790560471977,6.178318425476602,-4.427024613823067,9.280940463729504
7.066784660766963,6.376709645700549,-4.391609889935604,9.2967567481841
7.074778761061948,6.575100865924473,-4.356195166048145,9.312573032638692
7.082772861356934,6.77349208614842,-4.320780442160681,9.328389317093288
7.090766961651918,6.971883306372344,-4.285365718273221,9.344205601547882
7.098761061946904,7.170274526596291,-4.249950994385758,9.360021886002478
7.106755162241889,7.368665746820215,-4.214536270498298,9.37583817045707
7.114749262536875,7.567056967044161,-4.179121546610834,9.391654454911667
7.1227433628318595,7.582345132743079,-4.093849557522033,9.281115044247572
7.130737463126845,7.212986430678474,-4.101903244837754,6.80009852507374
7.13873156342183,7.245131128706729,-4.083053997826421,6.777546747399468
7.146725663716816,7.277275826734987,-4.064204750815087,6.7549949697251925
7.1547197640118005,7.309420524763241,-4.045355503803754,6.73244319205092
7.162713864306786,7.341565222791499,-4.02650625679242,6.709891414376644
7.170707964601771,7.373709920819754,-4.007657009781087,6.687339636702371
7.178702064896756,7.405854618848009,-3.9888077627697545,6.664787859028099
7.186696165191742,7.437999316876267,-3.9699585157584196,6.642236081353824
7.194690265486726,7.4701440149045215,-3.9511092687470875,6.61968430367955
7.202684365781712,7.5022887129327795,-3.9322600217357526,6.597132526005275
7.210678466076697,7.534433410961034,-3.91341077472442,6.574580748331003
7.218672566371683,7.566578108989292,-3.8945615277130856,6.552028970656727
7.2266666666666675,7.451555555555382,-3.393888888888826,6.412222222222112
7.234660766961653,5.884682153392116,-2.4756382743361343,5.4959878318582875
7.242654867256638,5.499713330822827,-2.1932131425343653,5.178584353229137
7.250648967551624,5.57140510261722,-2.2217877989079313,5.073385395091932
7.2586430678466085,5.643096874411605,-2.2503624552814943,4.968186436954738
7.266637168141594,5.7147886462059985,-2.27893711165506,4.862987478817532
7.274631268436579,5.786480418000384,-2.307511768028623,4.7577885206803385
7.282625368731565,5.858172189794777,-2.336086424402189,4.652589562543133
7.29061946902655,5.929863961589162,-2.3646610807757518,4.547390604405939
7.298613569321535,6.001555733383555,-2.393235737149318,4.442191646268733
7.30660766961652,6.073247505177941,-2.4218103935228803,4.336992688131539
7.314601769911506,6.144939276972334,-2.4503850498964463,4.231793729994333
7.322595870206491,6.216631048766719,-2.4789597062700093,4.126594771857139
7.330589970501476,6.288322820561112,-2.5075343626435753,4.021395813719933
7.338584070796461,6.360014592355498,-2.536109019017138,3.9161968555827396
7.346578171091447,6.431706364149891,-2.564683675390704,3.810997897445534
7.354572271386432,6.503398135944276,-2.593258331764267,3.7057989393083397
7.362566371681417,6.575089907738669,-2.621832988137833,3.6005999811711344
7.370560471976402,6.6467816795330545,-2.6504076445113958,3.4954010230339403
7.378554572271388,6.718473451327448,-2.6789823008849614,3.3902020648967346
7.386548672566373,6.790165223121833,-2.7075569572585243,3.2850031067595404
7.394542772861358,6.861856994916226,-2.7361316136320903,3.1798041486223347
7.402536873156343,6.9335487667106115,-2.764706270005653,3.0746051904851406
7.410530973451329,7.005240538505005,-2.793280926379219,2.969406232347935
7.418525073746314,7.076932310299389,-2.821855582752782,2.864207274210741
7.4265191740412995,7.200324483775879,-2.759926253687227,2.732990729034929
7.434513274336284,8.180704116968057,-2.2021315890727386,2.091735282801088
7.44250737463127,8.113796973194807,-2.359928177504195,2.1810606643581014
7.450501474926255,8.046889829421566,-2.5177247659356334,2.2703860459151053
7.4584955752212405,7.979982685648316,-2.6755213543670897,2.359711427472119
7.466489675516225,7.913075541875074,-2.833317942798528,2.449036809029123
7.474483775811211,7.846168398101824,-2.991114531229984,2.5383621905861364
7.482477876106196,12.498415929207894,0.6501504424824143,4.36629203539251
7.490471976401182,10.813294247786757,0.1977905604714305,0.21277064896699782
7.498466076696166,9.109916482300584,-0.6534554449362304,0.36933142822031806
7.506460176991151,7.531581305309519,-1.4077321165192767,0.6962568215339677
7.514454277286137,5.9532461283182805,-2.162008788102406,1.0231822148476537
7.522448377581122,4.374910951327217,-2.916285459685452,1.3501076081613035
7.530442477876107,2.7965757743359783,-3.670562131268582,1.6770330014749895
7.538436578171092,1.2182405973449146,-4.424838802851628,2.003958394788639
7.546430678466078,10.368877898510119,-3.191108621784084,2.737189014599823
7.554424778761063,10.282966618124776,-3.1092449871177212,2.349728128150499
7.5624188790560485,10.197055337739425,-3.027381352451349,1.9622672417011313
7.570412979351033,10.111144057354082,-2.9455177177849863,1.574806355251807
7.578407079646019,10.02523277696873,-2.863654083118614,1.1873454688024396
7.586401179941004,9.939321496583387,-2.7817904484522513,0.7998845823531151
7.5943952802359895,9.853410216198036,-2.699926813785879,0.41242369590374794
7.602389380530974,9.767498935812693,-2.6180631791195164,0.024962809454423418
7.61038348082596,9.681587655427341,-2.5361995444531447,-0.36249807699494374
7.618377581120945,9.595676375041998,-2.4543359097867814,-0.7499589634442683
7.626371681415931,8.084705752211475,-2.00792699114931,-2.053573008849913
7.634365781710915,8.772014517901553,-2.2773246862166507,0.05108759905140445
7.642359882005901,8.753048123084039,-2.069086210885502,-0.1173371218694228
7.650353982300886,8.734081728266526,-1.8608477355543767,-0.28576184279023137
7.658348082595872,8.71511533344901,-1.6526092602232283,-0.4541865637110586
7.6663421828908564,8.696148938631497,-1.444370784892103,-0.6226112846318671
7.674336283185842,8.677182543813982,-1.2361323095609547,-0.7910360055526944
7.682330383480827,8.65821614899647,-1.0278938342298292,-0.959460726473503
7.690324483775813,8.639249754178953,-0.8196553588986808,-1.12788544739433
7.6983185840707975,8.62028335936144,-0.6114168835675555,-1.2963101683151388
7.706312684365783,8.601316964543926,-0.40317840823640694,-1.4647348892359662
7.714306784660768,8.582350569726412,-0.19493993290528167,-1.6331596101567745
7.722300884955754,8.563384174908897,0.0132985424258667,-1.8015843310776019
7.7302949852507385,8.544417780091385,0.22153701775699197,-1.9700090519984106
7.738289085545724,10.17222737065394,-1.0631286334559567,-0.14316108183359544
7.746283185840709,10.178514865267974,-0.9837265586158823,-0.4794522223327339
7.754277286135695,10.184802359882008,-0.9043244837757991,-0.8157433628319096
7.76227138643068,10.19108985449604,-0.8249224089357248,-1.152034503331048
7.770265486725665,10.197377349110074,-0.7455203340956416,-1.488325643830224
7.77825958702065,10.203664843724107,-0.6661182592555672,-1.8246167843293621
7.786253687315636,10.209952338338141,-0.586716184415484,-2.160907924828538
7.794247787610621,10.216239832952175,-0.5073141095754097,-2.4971990653276768
7.802241887905606,10.222527327566208,-0.42791203473532646,-2.833490205826852
7.810235988200591,10.22881482218024,-0.34850995989525213,-3.1697813463259905
7.818230088495577,10.235102316794276,-0.2691078850551689,-3.5060724868251665
7.826224188790562,10.241389811408308,-0.18970581021509458,-3.842363627324305
7.834218289085547,8.576331281262032,-0.6430584840323332,-3.1335731691675757
7.842212389380532,8.609958637937675,-0.7009288187764622,-2.9013966910349747
7.850206489675517,8.643585994613316,-0.7587991535205911,-2.669220212902373
7.858200589970503,8.677213351288962,-0.8166694882647264,-2.4370437347697465
7.866194690265488,8.710840707964605,-0.8745398230088552,-2.204867256637145
7.874188790560473,8.744468064640252,-0.9324101577529906,-1.9726907785045182
7.882182890855458,8.778095421315895,-0.9902804924971196,-1.740514300371917
7.890176991150444,8.811722777991541,-1.0481508272412547,-1.50833782223929
7.898171091445429,8.845350134667182,-1.1060211619853837,-1.2761613441066888
7.906165191740414,8.878977491342829,-1.163891496729519,-1.0439848659740618
7.914159292035399,8.912604848018471,-1.221761831473648,-0.8118083878414608
7.922153392330385,8.946232204694118,-1.2796321662177832,-0.5796319097088336
7.93014749262537,9.119854473942919,-0.240710914454127,-1.232008357915639
7.938141592920355,9.000660993873382,-0.03209462219201244,-1.633113682777377
7.94613569321534,9.00013391033745,-0.257686375571366,-1.519790722551767
7.954129793510326,8.999606826801516,-0.4832781289507446,-1.4064677623261446
7.962123893805311,8.999079743265582,-0.7088698823300981,-1.2931448021005347
7.970117994100296,8.99855265972965,-0.9344616357094766,-1.1798218418749125
7.978112094395281,8.998025576193717,-1.1600533890888303,-1.0664988816493026
7.986106194690267,8.997498492657783,-1.3856451424682088,-0.9531759214236801
7.994100294985252,8.996971409121851,-1.6112368958475622,-0.8398529611980702
8.002094395280237,8.996444325585918,-1.836828649226916,-0.7265300009724603
8.010088495575223,8.995917242049984,-2.0624204026063193,-0.6132070407468253
8.018082595870208,8.995390158514052,-2.288012155985673,-0.49988408052121547
8.026076696165193,9.169520648967655,-2.22642330383503,0.0008156342184660048
8.034070796460178,11.383763274336262,-0.9757433628318524,-1.6938108407079802
8.042064896755164,11.140609390363753,-0.9091258603736309,-1.8653509095379006
8.050058997050149,10.897455506391298,-0.842508357915424,-2.036890978367783
8.058053097345134,10.654301622418844,-0.7758908554572173,-2.2084310471976654
8.066047197640119,10.411147738446388,-0.7092733529990105,-2.379971116027548
8.074041297935105,10.167993854473881,-0.6426558505407889,-2.5515111848574685
8.08203539823009,9.924839970501425,-0.5760383480825821,-2.723051253687351
8.090029498525075,9.68168608652897,-0.5094208456243754,-2.894591322517233
8.09802359882006,9.438532202556516,-0.44280334316616865,-3.0661313913471155
8.106017699115046,9.195378318584007,-0.37618584070794714,-3.2376714601770358
8.114011799410031,8.952224434611553,-0.3095683382497403,-3.4092115290069183
8.122005899705016,8.709070550639098,-0.24295083579153354,-3.5807515978368007
8.13,8.736,-2.136,-4.291
