gyro_time_list,gyro_x_list,gyro_y_list,gyro_z_list
0.0,0.2,0.2,0.0
0.007997289972899729,-0.09423598082134668,-0.0028820095893266626,-0.10288200958932667
0.015994579945799458,-0.07885657702730874,-0.010571711486345633,-0.11057171148634563
0.023991869918699185,-0.0634771732332708,-0.0182614133833646,-0.1182614133833646
0.031989159891598916,-0.04809776943923286,-0.025951115280383574,-0.12595111528038358
0.03998644986449865,-0.0327183656451949,-0.033640817177402554,-0.13364081717740256
0.04798373983739837,-0.017338961851156964,-0.04133051907442152,-0.1413305190744215
0.0559810298102981,-0.001959558057119018,-0.049020220971440494,-0.1490202209714405
0.06397831978319783,0.013419845736918928,-0.05670992286845947,-0.15670992286845947
0.07197560975609756,0.028799249530956833,-0.06439962476547842,-0.16439962476547842
0.0799728997289973,0.04417865332499479,-0.0720893266624974,-0.1720893266624974
0.08797018970189702,0.059558057119032726,-0.07977902855951637,-0.17977902855951639
0.09596747967479674,0.07493746091307066,-0.08746873045653533,-0.18746873045653534
0.10396476964769648,0.09031686470710862,-0.09515843235355431,-0.19515843235355432
0.1119620596205962,0.001897018970190012,-0.09810298102981,-0.001897018970190012
0.11995934959349594,0.0,-0.09218050607472367,0.0
0.12795663956639566,0.0,-0.08319478700404984,0.0
0.1359539295392954,0.0,-0.07420906793337598,0.0
0.1439512195121951,0.0,-0.06522334886270215,0.0
0.15194850948509486,0.0,-0.05623762979202826,0.0
0.1599457994579946,0.0,-0.047251910721354415,0.0
0.1679430894308943,0.0,-0.03826619165068057,0.0
0.17594037940379403,0.0,-0.029280472580006725,0.0
0.18393766937669376,0.0,-0.02029475350933288,0.0
0.19193495934959348,0.0,-0.011309034438659035,0.0
0.19993224932249323,0.0,-0.0023233153679851487,0.0
0.20792953929539296,0.1,0.1982616763104568,-0.0017383236895432141
0.21592682926829268,0.1,0.1910569105691057,-0.008943089430894316
0.2239241192411924,0.1,0.18385214482775458,-0.01614785517224542
0.23192140921409213,0.1,0.1766473790864035,-0.02335262091359652
0.23991869918699188,0.1,0.16944261334505237,-0.030557386654947647
0.2479159891598916,0.1,0.16223784760370125,-0.03776215239629875
0.2559132791327913,0.1,0.15503308186235015,-0.04496691813764985
0.26391056910569105,0.1,0.14782831612099906,-0.05217168387900095
0.2719078590785908,0.1,0.14062355037964797,-0.05937644962035205
0.2799051490514905,0.1,0.13341878463829687,-0.06658121536170315
0.2879024390243902,0.1,0.12621401889694575,-0.07378598110305426
0.29589972899728995,0.1,0.11900925315559466,-0.08099074684440535
0.3038970189701897,0.1,0.1118044874142435,-0.08819551258575652
0.31189430894308945,0.1,0.1045997216728924,-0.09540027832710761
0.3198915989159892,0.1,0.1,-0.12891598915989166
0.3278888888888889,0.14444444444444415,0.055555555555555865,-0.24444444444444413
0.3358861788617886,0.30708141864027333,0.0,-0.3929185813597267
0.34388346883468834,0.3186716939633164,0.0,-0.3813283060366836
0.35188075880758807,0.3302619692863595,0.0,-0.36973803071364053
0.3598780487804878,0.34185224460940256,0.0,-0.35814775539059746
0.3678753387533875,0.3534425199324457,0.0,-0.3465574800675544
0.37587262872628724,0.3650327952554887,0.0,-0.33496720474451125
0.38386991869918696,0.37662307057853184,0.0,-0.3233769294214682
0.39186720867208674,0.38821334590157497,0.0,-0.31178665409842504
0.39986449864498647,0.39980362122461804,0.0,-0.30019637877538197
0.4078617886178862,0.6,0.05869583438102444,0.06459642946944952
0.4158590785907859,0.6,-0.05672896935154895,-0.034339116587041946
0.42385636856368564,0.6,-0.1721537730841223,-0.13327466264353344
0.43185365853658536,0.6,-0.28757857681669574,-0.23221020870002493
0.4398509485094851,0.6,-0.4030033805492691,-0.3311457547565164
0.4478482384823848,0.6,-0.5184281842818425,-0.4300813008130079
0.45584552845528453,0.6,-0.6338529880144158,-0.5290168468694993
0.46384281842818426,0.6,-0.7492777917469893,-0.6279523929259908
0.47184010840108404,0.6,-0.8647025954795634,-0.7268879389824829
0.47983739837398376,0.6,-0.9801273992121368,-0.8258234850389745
0.4878346883468835,0.6,-1.09555220294471,-0.924759031095466
0.4958319783197832,0.6,-1.2109770066772834,-1.0236945771519572
0.5038292682926829,0.14268292682926825,-0.3853658536585366,-0.09390243902439033
0.5118265582655827,-0.09475374101567104,-0.1,-0.39475374101567107
0.5198238482384824,-0.08606103452338873,-0.1,-0.38606103452338875
0.5278211382113821,-0.07736832803110641,-0.1,-0.3773683280311064
0.5358184281842818,-0.0686756215388241,-0.1,-0.3686756215388241
0.5438157181571815,-0.059982915046541796,-0.1,-0.3599829150465418
0.5518130081300813,-0.05129020855425948,-0.1,-0.35129020855425946
0.559810298102981,-0.04259750206197717,-0.1,-0.34259750206197714
0.5678075880758807,-0.03390479556969486,-0.1,-0.3339047955696949
0.5758048780487804,-0.02521208907741254,-0.1,-0.32521208907741256
0.5838021680216802,-0.016519382585130235,-0.1,-0.31651938258513024
0.5917994579945799,-0.007826676092847928,-0.1,-0.3078266760928479
0.5997967479674797,0.07967479674797488,-0.020325203252025123,-0.3796747967479749
0.6077940379403795,0.4224020464503714,0.29551959070992573,0.004480409290074272
0.6157913279132792,0.4597725603424262,0.28804548793151474,0.01195451206848523
0.6237886178861789,0.49714307423448095,0.2805713851531038,0.01942861484689619
0.6317859078590786,0.5345135881265357,0.27309728237469283,0.026902717625307146
0.6397831978319783,0.5718841020185905,0.2656231795962819,0.0343768204037181
0.6477804878048781,0.6092546159106453,0.2581490768178709,0.04185092318212907
0.6557777777777778,0.6466251298027001,0.25067497403946,0.049325025960540024
0.6637750677506775,0.683995643694755,0.24320087126104903,0.05679912873895098
0.6717723577235772,0.7213661575868098,0.23572676848263807,0.06427323151736195
0.679769647696477,0.7587366714788646,0.22825266570422711,0.0717473342957729
0.6877669376693767,0.7961071853709193,0.22077856292581616,0.07922143707418386
0.6957642276422764,0.8334776992629741,0.2133044601474052,0.08669553985259482
0.7037615176151761,0.8708482131550288,0.20583035736899424,0.09416964263100577
0.7117588075880759,0.9351761517615179,0.21758807588075893,0.11758807588075894
0.7197560975609756,1.0951219512195123,0.2975609756097561,0.1975609756097561
0.7277533875338753,1.2,0.4150677506775065,0.3726016260162598
0.735750677506775,1.2127864005912785,0.4701650652870167,0.4957378664695738
0.7437479674796748,1.240049889135255,0.4065502586844052,0.48665003695491504
0.7517452574525745,1.2673133776792311,0.34293545208179377,0.47756220744025624
0.7597425474254742,1.2945768662232076,0.2793206454791823,0.4684743779255975
0.7677398373983739,1.321840354767184,0.21570583887657085,0.4593865484109387
0.7757371273712738,1.3491038433111606,0.15209103227395848,0.4502987188962798
0.7837344173441735,1.376367331855137,0.08847622567134705,0.441210889381621
0.7917317073170732,1.4036308203991132,0.02486141906873557,0.43212305986696226
0.7997289972899729,1.4308943089430897,-0.038753387533875916,0.42303523035230345
0.8077262872628727,1.458157797487066,-0.10236819413648734,0.4139474008376447
0.8157235772357724,1.4854212860310423,-0.16598300073909877,0.4048595713229859
0.8237208672086721,1.425582655826557,-0.274417344173443,0.47441734417344295
0.8317181571815718,0.970254742547425,-0.3,0.5925636856368562
0.8397154471544716,0.9062764227642274,-0.3,0.5765691056910568
0.8477127371273713,0.8422981029810296,-0.3,0.5605745257452573
0.855710027100271,0.7783197831978319,-0.3,0.544579945799458
0.8637073170731707,0.7143414634146341,-0.3,0.5285853658536586
0.8717046070460704,0.6503631436314363,-0.3,0.5125907859078591
0.8797018970189702,0.42981029810298355,-0.21490514905149177,0.5
0.8876991869918699,0.1,0.00401639913835033,0.20803279827670068
0.8956964769647696,0.1,0.0108516897134783,0.22170337942695661
0.9036937669376693,0.1,0.01768698028860627,0.23537396057721255
0.9116910569105691,0.1,0.02452227086373424,0.24904454172746848
0.9196883468834688,0.1,0.03135756143886221,0.2627151228777244
0.9276856368563685,0.1,0.038192852013990176,0.27638570402798035
0.9356829268292682,0.1,0.04502814258911815,0.29005628517823634
0.9436802168021681,0.1,0.051863433164246214,0.30372686632849244
0.9516775067750678,0.1,0.05869872373937418,0.3173974474787484
0.9596747967479675,0.1,0.06553401431450215,0.3310680286290043
0.9676720867208672,0.1,0.07236930488963011,0.34473860977926024
0.975669376693767,0.1,0.0792045954647581,0.3584091909295162
0.9836666666666667,0.1,0.08603988603988606,0.37207977207977216
0.9916639566395664,0.1,0.09287517661501403,0.38575035323002804
0.9996612466124661,0.1,0.099710467190142,0.39942093438028403
1.0076585365853659,0.28964565117349284,0.08964565117349287,0.45513115508513574
1.0156558265582656,0.2670118116275503,0.06701181162755027,0.3570511837193845
1.0236531165311653,0.24437797208160766,0.044377972081607674,0.2589712123536333
1.031650406504065,0.22174413253566505,0.02174413253566508,0.16089124098788204
1.0396476964769648,0.1991102929897225,-0.0008897070102775184,0.0628112696221308
1.0476449864498645,0.17647645344377988,-0.023523546556220118,-0.0352687017436204
1.0556422764227642,0.1538426138978373,-0.04615738610216272,-0.1333486731093717
1.063639566395664,0.13120877435189468,-0.06879122564810533,-0.2314286444751229
1.0716368563685637,0.1085749348059521,-0.09142506519404792,-0.3295086158408742
1.0796341463414634,0.08594109526000951,-0.11405890473999053,-0.4275885872066254
1.087631436314363,0.0633072557140669,-0.13669274428593312,-0.5256685585723766
1.0956287262872628,0.04067341616812431,-0.15932658383187573,-0.6237485299381278
1.1036260162601625,0.018039576622181697,-0.18196042337781834,-0.7218285013038792
1.1116233062330623,-0.16233062330622303,-0.091779584462518,-1.016440831074964
1.119620596205962,0.0,0.17494128274615905,-0.18782294489612522
1.1276178861788617,0.0,0.28157181571815604,0.39864498644985835
1.1356151761517614,-0.10632215911200198,-0.09367784088799803,0.37471136355199214
1.1436124661246612,-0.11727735085570024,-0.08272264914429978,0.3308905965771991
1.1516097560975609,-0.1282325425993985,-0.07176745740060152,0.28706982960240607
1.1596070460704606,-0.13918773434309675,-0.06081226565690325,0.243249062627613
1.1676043360433603,-0.15014292608679503,-0.04985707391320499,0.19942829565281997
1.17560162601626,-0.16109811783049327,-0.038901882169506734,0.15560752867802694
1.1835989159891598,-0.17205330957419154,-0.027946690425808468,0.11178676170323387
1.1915962059620595,-0.18300850131788982,-0.01699149868211021,0.06796599472844084
1.1995934959349595,-0.19396369306158837,-0.006036306938411645,0.02414522775364658
1.2075907859078592,-0.5,0.7472628726287293,0.4118157181571823
1.215588075880759,-0.5040773589554078,1.0959226410445921,0.49184528208918427
1.2235853658536586,-0.5131651884700666,1.0868348115299333,0.4736696230598667
1.2315826558265583,-0.5222530179847255,1.0777469820152747,0.4554939640305492
1.239579945799458,-0.5313408474993842,1.068659152500616,0.43731830500123164
1.2475772357723578,-0.540428677014043,1.0595713229859571,0.4191426459719141
1.2555745257452575,-0.5495165065287018,1.0504834934712983,0.4009669869425966
1.2635718157181572,-0.5586043360433605,1.0413956639566395,0.382791327913279
1.271569105691057,-0.5676921655580193,1.0323078344419807,0.36461566888396146
1.2795663956639567,-0.576779995072678,1.023220004927322,0.34644000985464396
1.2875636856368564,-0.5858678245873368,1.014132175412663,0.3282643508253264
1.2955609756097561,-0.5949556541019956,1.0050443458980045,0.31008869179600884
1.3035582655826559,-0.5,0.9779132791327907,0.6
1.3115555555555556,-0.30655555555555564,1.1262222222222227,0.4
1.3195528455284553,-0.31455284552845536,1.1582113821138216,0.4
1.327550135501355,-0.3225501355013551,1.1902005420054205,0.4
1.3355474254742548,-0.3305474254742548,1.2221897018970191,0.4
1.3435447154471545,-0.33854471544715453,1.254178861788618,0.4
1.3515420054200542,-0.3465420054200542,1.286168021680217,0.4
1.359539295392954,-0.3545392953929539,1.3181571815718158,0.4
1.3675365853658537,-0.36253658536585365,1.3501463414634147,0.4
1.3755338753387534,-0.37053387533875337,1.3821355013550134,0.4
1.383531165311653,-0.3785311653116531,1.4141246612466123,0.4
1.3915284552845528,-0.3865284552845528,1.4461138211382112,0.4
1.3995257452574525,-0.39452574525745254,1.47810298102981,0.4
1.4075230352303523,-0.9046070460704484,1.3476964769647757,0.3
1.415520325203252,-1.7321572341937013,0.9892809219354328,0.2946404609677164
1.4235176151761517,-1.7787433893756415,0.9737522035414529,0.2868761017707264
1.4315149051490514,-1.8253295445575817,0.9582234851474728,0.2791117425737364
1.4395121951219512,-1.8719156997395219,0.9426947667534927,0.27134738337674635
1.447509485094851,-1.9185018549214619,0.9271660483595127,0.2635830241797563
1.4555067750677506,-1.965088010103402,0.9116373299655326,0.2558186649827663
1.4635040650406503,-2.011674165285342,0.8961086115715526,0.24805430578577628
1.47150135501355,-2.0582603204672822,0.8805798931775726,0.24028994658878627
1.4794986449864498,-2.1048464756492224,0.8650511747835925,0.23252558739179624
1.4874959349593495,-2.1514326308311627,0.8495224563896124,0.2247612281948062
1.4954932249322492,-2.198018786013103,0.8339937379956324,0.21699686899781617
1.503490514905149,-2.2446049411950426,0.8184650196016523,0.20923250980082617
1.5114878048780487,-2.2911910963769833,0.8029363012076723,0.20146815060383616
1.5194850948509484,-2.42970189701897,0.8,0.13514905149051504
1.5274823848238481,-2.3,0.5901174345076793,0.10197651309846414
1.5354796747967479,-2.3,0.5368021680216811,0.11263956639566378
1.5434769647696478,-2.3,0.4834869015356814,0.12330261969286371
1.5514742547425475,-2.3,0.43017163504968325,0.13396567299006334
1.5594715447154472,-2.3,0.37685636856368504,0.144628726287263
1.567468834688347,-2.3,0.3235411020776868,0.15529177958446264
1.5754661246612467,-2.3,0.27022583559168867,0.16595483288166227
1.5834634146341464,-2.3,0.21691056910569045,0.17661788617886193
1.5914607046070461,-2.3,0.1635953026196923,0.18728093947606156
1.5994579945799459,-2.3,0.11028003613369408,0.1979439927732612
1.6074552845528456,-2.301277584204413,0.3,-0.04936120789779352
1.6154525745257453,-2.181447606142728,0.3,-0.1
1.623449864498645,-2.148125564588979,0.3,-0.1
1.6314471544715448,-2.1148035230352304,0.3,-0.1
1.6394444444444445,-2.0814814814814815,0.3,-0.1
1.6474417344173442,-2.0481594399277325,0.3,-0.1
1.655439024390244,-2.014837398373984,0.3,-0.1
1.6634363143631437,-1.981515356820235,0.3,-0.1
1.6714336043360434,-1.948193315266486,0.3,-0.1
1.679430894308943,-1.9148712737127374,0.3,-0.1
1.6874281842818428,-1.8815492321589886,0.3,-0.1
1.6954254742547425,-1.8482271906052397,0.3,-0.1
1.7034227642276423,-1.814905149051491,0.3,-0.1
1.711420054200542,-1.59498644986452,0.5420054200541919,-0.22100271002709596
1.7194173441734417,-0.5883497974764693,0.7,-0.2883497974764693
1.7274146341463414,-0.5711513244164699,0.7,-0.27115132441646994
1.7354119241192412,-0.5539528513564705,0.7,-0.2539528513564705
1.743409214092141,-0.5367543782964711,0.7,-0.2367543782964711
1.7514065040650406,-0.5195559052364717,0.7,-0.2195559052364717
1.7594037940379403,-0.5023574321764723,0.7,-0.20235743217647228
1.76740108401084,-0.4851589591164729,0.7,-0.1851589591164729
1.7753983739837398,-0.46796048605647345,0.7,-0.16796048605647348
1.7833956639566395,-0.45076201299647406,0.7,-0.15076201299647407
1.7913929539295392,-0.4335635399364747,0.7,-0.13356353993647466
1.799390243902439,-0.41636506687647523,0.7,-0.11636506687647524
1.8073875338753387,-0.4581300813008112,0.7,-0.1
1.8153848238482384,-0.7913209644916965,0.5855349408194942,-0.19421397632779772
1.8233821138211381,-0.7708150927663127,0.5513584879438543,-0.18054339517754175
1.8313794037940379,-0.7503092210409288,0.5171820350682145,-0.16687281402728582
1.8393766937669376,-0.7298033493155448,0.48300558219257467,-0.1532022328770299
1.8473739837398373,-0.7092974775901609,0.44882912931693486,-0.13953165172677395
1.855371273712737,-0.6887916058647771,0.414652676441295,-0.12586107057651802
1.8633685636856367,-0.6682857341393931,0.38047622356565514,-0.11219048942626207
1.8713658536585365,-0.6477798624140092,0.3462997706900153,-0.09851990827600612
1.8793631436314364,-0.6272739906886247,0.3121233178143745,-0.08484932712574982
1.8873604336043361,-0.6067681189632408,0.27794686493873466,-0.07117874597549387
1.8953577235772359,-0.5862622472378569,0.2437704120630948,-0.057508164825237934
1.9033550135501356,-0.565756375512473,0.209593959187455,-0.043837583674982
1.9113523035230353,-0.5452505037870891,0.17541750631181513,-0.030167002524726066
1.919349593495935,-0.5247446320617051,0.14124105343617527,-0.016496421374470105
1.9273468834688348,-0.5042387603363212,0.10706460056053546,-0.002825840224214171
1.9353441734417345,0.2004988020894702,0.09950119791052982,0.1004988020894702
1.9433414634146342,0.2120890774125133,0.08791092258748673,0.11208907741251328
1.951338753387534,0.22367935273555636,0.07632064726444364,0.12367935273555637
1.9593360433604337,0.23526962805859944,0.06473037194140055,0.13526962805859946
1.9673333333333334,0.24685990338164254,0.05314009661835747,0.14685990338164254
1.975330623306233,0.2584501787046856,0.041549821295314385,0.15845017870468564
1.9833279132791328,0.2700404540277287,0.029959545972271295,0.17004045402772872
1.9913252032520325,0.28163072935077177,0.018369270649228206,0.1816307293507718
1.9993224932249323,0.29322100467381484,0.006778995326185117,0.1932210046738149
2.0073197831978318,0.18401084010841534,0.0,0.3
2.0153170731707317,0.10664955070603349,0.0,0.3
2.0233143631436312,0.11506775067750663,0.0,0.3
2.031311653116531,0.12348595064898024,0.0,0.3
2.0393089430894307,0.13190415062045338,0.0,0.3
2.0473062330623306,0.140322350591927,0.0,0.3
2.0553035230352306,0.1487405505634006,0.0,0.3
2.06330081300813,0.15715875053487377,0.0,0.3
2.07129810298103,0.16557695050634735,0.0,0.3
2.0792953929539295,0.1739951504778205,0.0,0.3
2.0872926829268295,0.18241335044929413,0.0,0.3
2.095289972899729,0.19083155042076727,0.0,0.3
2.103287262872629,0.19924975039224085,0.0,0.3
2.1112845528455284,0.2,0.0,0.3
2.1192818428184284,0.20782993851443898,0.0,0.3
2.127279132791328,0.21642917504443845,0.0,0.3
2.135276422764228,0.2250284115744384,0.0,0.3
2.1432737127371273,0.23362764810443787,0.0,0.3
2.1512710027100272,0.2422268846344378,0.0,0.3
2.1592682926829267,0.25082612116443725,0.0,0.3
2.1672655826558267,0.2594253576944372,0.0,0.3
2.175262872628726,0.2680245942244367,0.0,0.3
2.183260162601626,0.27662383075443664,0.0,0.3
2.1912574525745256,0.2852230672844361,0.0,0.3
2.1992547425474256,0.293822303814436,0.0,0.3
2.207252032520325,0.3,0.0,0.3
2.215249322493225,0.302343044263776,0.002343044263775997,0.29765695573622397
2.2232466124661245,0.31067355465221297,0.010673554652212971,0.289326445347787
2.2312439024390245,0.3190040650406504,0.019004065040650407,0.2809959349593496
2.239241192411924,0.3273345754290874,0.027334575429087384,0.27266542457091264
2.247238482384824,0.3356650858175248,0.03566508581752482,0.2643349141824752
2.2552357723577234,0.34399559620596176,0.043995596205961794,0.2560044037940382
2.2632330623306234,0.3523261065943992,0.05232610659439923,0.24767389340560078
2.271230352303523,0.3606566169828362,0.060656616982836205,0.23934338301716382
2.279227642276423,0.36898712737127365,0.06898712737127365,0.23101287262872638
2.2872249322493223,0.3773176377597106,0.07731763775971062,0.22268236224028942
2.2952222222222223,0.3856481481481481,0.08564814814814806,0.21435185185185196
2.3032195121951218,0.39397865853658504,0.09397865853658503,0.206021341463415
2.3112168021680217,0.4,0.1,0.2
2.3192140921409212,0.4,0.10690454682324564,0.1930954531767544
2.327211382113821,0.4,0.11579042457091226,0.18420957542908775
2.3352086720867207,0.4,0.12467630231857839,0.17532369768142164
2.3432059620596206,0.4,0.133562180066245,0.166437819933755
2.35120325203252,0.4,0.14244805781391112,0.15755194218608887
2.35920054200542,0.4,0.15133393556157776,0.14866606443842226
2.3671978319783196,0.4,0.1602198133092439,0.13978018669075615
2.3751951219512195,0.4,0.1691056910569105,0.1308943089430895
2.383192411924119,0.4,0.17799156880457662,0.12200843119542339
2.391189701897019,0.4,0.18687744655224325,0.11312255344775676
2.399186991869919,0.4,0.1957633242999099,0.10423667570009014
2.4071842818428184,0.5,0.2,0.0
2.4151815718157184,0.6036154225178618,0.2,-0.0036154225178618507
2.423178861788618,0.6127032520325203,0.2,-0.012703252032520367
2.431176151761518,0.6217910815471793,0.2,-0.02179108154717939
2.4391734417344173,0.6308789110618379,0.2,-0.030878911061837905
2.4471707317073172,0.6399667405764969,0.2,-0.03996674057649693
2.4551680216802168,0.6490545700911554,0.2,-0.04905457009115544
2.4631653116531167,0.6581423996058144,0.2,-0.058142399605814465
2.471162601626016,0.6672302291204729,0.2,-0.06723022912047298
2.479159891598916,0.676318058635132,0.2,-0.076318058635132
2.4871571815718156,0.6854058881497904,0.2,-0.08540588814979051
2.4951544715447156,0.6944937176644495,0.2,-0.09449371766444954
2.503151761517615,0.7924119241192502,0.2,-0.1
2.511149051490515,0.6835293263646915,0.2,-0.1
2.5191463414634145,0.6621080139372821,0.2,-0.1
2.5271436314363145,0.6406867015098716,0.2,-0.1
2.535140921409214,0.6192653890824623,0.2,-0.1
2.543138211382114,0.5978440766550517,0.2,-0.1
2.5511355013550134,0.5764227642276424,0.2,-0.1
2.5591327913279134,0.5550014518002319,0.2,-0.1
2.567130081300813,0.5335801393728224,0.2,-0.1
2.575127371273713,0.5121588269454119,0.2,-0.1
2.5831246612466123,0.49073751451800257,0.2,-0.1
2.5911219512195123,0.469316202090592,0.2,-0.1
2.5991192411924118,0.4478948896631827,0.2,-0.1
2.6071165311653117,0.4264735772357721,0.2,-0.1
2.6151138211382112,0.40505226480836276,0.2,-0.1
2.623111111111111,0.4,0.2,-0.13111111111111132
2.6311084010840107,0.4028789638545735,0.20143948192728675,-0.2
2.6391056910569106,0.42365114560236555,0.21182557280118278,-0.2
2.64710298102981,0.4444233273501565,0.22221166367507825,-0.2
2.65510027100271,0.46519550909794855,0.23259775454897427,-0.2
2.6630975609756096,0.48596769084573943,0.24298384542286972,-0.2
2.6710948509485095,0.5067398725935315,0.25336993629676574,-0.2
2.679092140921409,0.5275120543413224,0.2637560271706612,-0.2
2.687089430894309,0.5482842360891145,0.27414211804455724,-0.2
2.6950867208672085,0.5690564178369054,0.2845282089184527,-0.2
2.7030840108401084,0.5898285995846975,0.29491429979234873,-0.2
2.711081300813008,0.5540650406503912,0.45406504065039127,-0.3
2.719078590785908,0.6,0.5,-0.3
2.7270758807588074,0.6,0.5,-0.3
2.7350731707317073,0.6,0.5,-0.3
2.7430704607046072,0.6,0.5,-0.3
2.7510677506775068,0.6,0.5,-0.3
2.7590650406504067,0.6,0.5,-0.3
2.767062330623306,0.6,0.5,-0.3
2.775059620596206,0.6,0.5,-0.3
2.7830569105691056,0.6,0.5,-0.3
2.7910542005420056,0.6,0.5,-0.3
2.799051490514905,0.6,0.5,-0.3
2.807048780487805,0.8,0.6,-0.3
2.8150460704607045,0.8,0.5921710328214392,-0.3
2.8230433604336045,0.8,0.5832851550737727,-0.3
2.831040650406504,0.8,0.5743992773261065,-0.3
2.839037940379404,0.8,0.5655133995784399,-0.3
2.8470352303523034,0.8,0.5566275218307739,-0.3
2.8550325203252034,0.8,0.5477416440831073,-0.3
2.863029810298103,0.8,0.5388557663354412,-0.3
2.871027100271003,0.8,0.5299698885877747,-0.3
2.8790243902439023,0.8,0.5210840108401086,-0.3
2.8870216802168023,0.8,0.512198133092442,-0.3
2.895018970189702,0.8,0.503312255344776,-0.3
2.9030162601626017,0.8,0.5,-0.36270325203251985
2.9110135501355012,0.6980450969558238,0.7019549030441761,-0.5
2.919010840108401,0.6902807377588336,0.7097192622411663,-0.5
2.9270081300813007,0.6825163785618438,0.7174836214381561,-0.5
2.9350054200542006,0.6747520193648536,0.7252479806351464,-0.5
2.9430027100271,0.6669876601678638,0.7330123398321361,-0.5
2.951,0.6592233009708736,0.7407766990291264,-0.5
2.9589972899728996,0.6514589417738837,0.7485410582261162,-0.5
2.9669945799457995,0.6436945825768936,0.7563054174231064,-0.5
2.974991869918699,0.6359302233799038,0.7640697766200962,-0.5
2.982989159891599,0.6281658641829135,0.7718341358170864,-0.5
2.9909864498644985,0.6204015049859237,0.7795984950140762,-0.5
2.9989837398373984,0.6126371457889336,0.7873628542110664,-0.5
3.006981029810298,0.6048727865919438,0.7951272134080563,-0.5
3.014978319783198,0.3021680216802266,0.8992773261065912,-0.4007226738934089
3.0229756097560974,0.2,0.9,-0.5
3.0309728997289973,0.2069068051791632,0.9,-0.5
3.038970189701897,0.21801415236374583,0.9,-0.5
3.0469674796747968,0.22912149954832908,0.9,-0.5
3.0549647696476963,0.2402288467329117,0.9,-0.5
3.062962059620596,0.25133619391749495,0.9,-0.5
3.0709593495934957,0.26244354110207757,0.9,-0.5
3.0789566395663956,0.27355088828666085,0.9,-0.5
3.0869539295392956,0.2846582354712441,0.9,-0.5
3.094951219512195,0.2957655826558267,0.9,-0.5
3.102948509485095,0.4413859852884312,0.9706929926442156,-0.5
3.1109457994579945,-0.10930252460419303,1.1,-0.396899158465269
3.1189430894308945,-0.13455712451861399,1.1,-0.3884809584937954
3.126940379403794,-0.15981172443303354,1.1,-0.3800627585223222
3.134937669376694,-0.18506632434745446,1.1,-0.37164455855084855
3.1429349593495934,-0.21032092426187404,1.1,-0.36322635857937535
3.1509322493224934,-0.235575524176295,1.1,-0.3548081586079017
3.158929539295393,-0.26083012409071454,1.1,-0.3463899586364285
3.166926829268293,-0.2860847240051355,1.1,-0.3379717586649549
3.1749241192411923,-0.31133932391955504,1.1,-0.3295535586934817
3.1829214092140923,-0.336593923833976,1.1,-0.32113535872200805
3.190918699186992,-0.3618485237483955,1.1,-0.31271715875053485
3.1989159891598917,-0.3871031236628165,1.1,-0.3042989587790612
3.2069132791327912,-0.5369918699186746,0.9,-0.24566395663955826
3.214910569105691,-1.0101248847540025,0.7949375576229988,-0.31012488475400246
3.2229078590785907,-1.0266141424300839,0.7866929287849581,-0.3266141424300839
3.2309051490514906,-1.0431034001061663,0.7784482999469169,-0.3431034001061663
3.23890243902439,-1.0595926577822476,0.7702036711088761,-0.35959265778224775
3.24689972899729,-1.07608191545833,0.7619590422708349,-0.37608191545833014
3.2548970189701896,-1.0925711731344117,0.7537144134327942,-0.3925711731344116
3.2628943089430895,-1.1090604308104939,0.745469784594753,-0.4090604308104939
3.270891598915989,-1.1255496884865754,0.7372251557567123,-0.4255496884865754
3.278888888888889,-1.1420389461626577,0.7289805269186711,-0.44203894616265776
3.2868861788617885,-1.1585282038387392,0.7207358980806303,-0.4585282038387392
3.2948834688346884,-1.1750174615148214,0.7124912692425892,-0.4750174615148216
3.302880758807588,-1.191506719190903,0.7042466404045484,-0.49150671919090305
3.310878048780488,-0.7152439024390105,0.11829268292681261,-0.6939024390243957
3.3188753387533874,0.06481714301679264,-0.42010448970468994,-1.2251306121308623
3.3268726287262873,0.007104741150504371,-0.45308300505685467,-1.2663537563210683
3.334869918699187,-0.050607660715780683,-0.48606152040901757,-1.3075769005112718
3.3428672086720868,-0.10832006258206897,-0.5190400357611823,-1.3488000447014779
3.3508644986449863,-0.16603246444835404,-0.5520185511133452,-1.3900231888916814
3.358861788617886,-0.22374486631464233,-0.58499706646551,-1.4312463330818874
3.3668590785907857,-0.2814572681809274,-0.6179755818176729,-1.472469477272091
3.3748563685636856,-0.33916967004721565,-0.6509540971698375,-1.513692621462297
3.382853658536585,-0.3968820719135008,-0.6839326125220004,-1.5549157656525006
3.390850948509485,-0.454594473779789,-0.7169111278741652,-1.5961389098427063
3.3988482384823846,-0.5123068756460741,-0.7498896432263281,-1.6373620540329101
3.4068455284552845,-0.5700192775123624,-0.7828681585784929,-1.678585198223116
3.4148428184281845,-0.6820054200541893,-0.8578590785907819,-2.224146341463407
3.422840108401084,0.4376151761517648,-0.4579945799457983,-1.5043902439024368
3.430837398373984,0.7519421860885352,-0.24805781391146484,-0.8682023486901268
3.4388346883468834,0.7616138924547131,-0.23838610754528688,-0.5080694622735656
3.4468319783197834,0.709000142633003,-0.29099985736699696,-0.24500071316501504
3.454829268292683,0.6563863928112958,-0.34361360718870415,0.01806803594352102
3.462826558265583,0.6037726429895858,-0.39622735701041434,0.2811367850520716
3.4708238482384823,0.5511588931678786,-0.44884110683212153,0.5442055341606076
3.4788211382113823,0.4985451433461684,-0.5014548566538316,0.8072742832691582
3.486818428184282,0.4459313935244612,-0.5540686064755388,1.0703430323776941
3.4948157181571817,0.3933176437027511,-0.606682356297249,1.3334117814862447
3.5028130081300812,0.3407038938810439,-0.6592961061189562,1.596480530594781
3.510810298102981,2.394773519164015,-2.5620209059235695,2.0068912117692856
3.5188075880758807,4.32154471544786,-0.47872628726265587,3.444579945800089
3.5268048780487806,2.964046973803071,-0.7,2.5302017464619087
3.53480216802168,2.3124159389742225,-0.7,2.2537522165345183
3.54279945799458,1.6607849041453375,-0.7,1.9773026866071126
3.5507967479674796,1.009153869316489,-0.7,1.7008531566797225
3.5587940379403795,0.35752283448760425,-0.7,1.4244036267523168
3.566791327913279,-0.2941082003412441,-0.7,1.1479540968249264
3.574788617886179,-0.9457392351701288,-0.7,0.8715045668975208
3.5827859078590785,-1.5973702699989771,-0.7,0.5950550369701304
3.5907831978319784,-2.249001304827862,-0.7,0.31860550704272494
3.598780487804878,-2.900632339656711,-0.7,0.042155977115334586
3.606777777777778,1.0555555555556195,-3.055555555555531,3.011111111111173
3.6147750677506774,0.5712766584187606,1.1615500176740843,4.216413338046423
3.6227723577235773,0.5104277129727826,1.291940615058323,4.2511841640155525
3.630769647696477,0.44957876752680787,1.4223312124425547,4.285954989984681
3.6387669376693768,0.3887298220808298,1.5527218098267934,4.3207258159538116
3.6467642276422763,0.3278808766348551,1.6831124072110248,4.35549664192294
3.654761517615176,0.267031931188877,1.8135030045952636,4.390267467892071
3.6627588075880757,0.20618298574290228,1.9438936019794952,4.425038293861198
3.6707560975609757,0.1453340402969242,2.074284199363734,4.459809119830329
3.678753387533875,0.08448509485094946,2.204674796747965,4.494579945799457
3.686750677506775,0.023636149404971385,2.3350653941322044,4.529350771768588
3.6947479674796746,-0.03721279604100325,2.4654559915164356,4.564121597737715
3.7027452574525745,-0.09806174148698132,2.5958465889006748,4.598892423706846
3.710742547425474,1.9682839409039183,0.852985400821744,4.052985400821744
3.718739837398374,2.2520587463939155,1.110962496721741,4.310962496721741
3.7267371273712735,2.535833551883896,1.3689395926217238,4.568939592621724
3.7347344173441734,2.819608357373893,1.626916688521721,4.826916688521721
3.742731707317073,3.2935182091546946,1.9259271633812216,4.054627464082862
3.750728997289973,3.282563017410996,1.969747930356016,3.977941121876972
3.758726287262873,3.2716078256672976,2.0135686973308102,3.9012547796710817
3.7667235772357723,3.2606526339235993,2.0573894643056017,3.8245684374651963
3.7747208672086723,3.249697442179901,2.101210231280396,3.7478820952593064
3.782718157181572,3.238742250436203,2.145030998255188,3.6711957530534205
3.7907154471544717,3.2277870586925044,2.188851765229982,3.5945094108475306
3.7987127371273712,3.2168318669488065,2.232672532204774,3.517823068641645
3.806710027100271,3.205876675205108,2.276493299179568,3.4411367264357553
3.8147073170731707,2.685094850948516,2.3,3.235230352303525
3.8227046070460706,1.574360132490205,2.3,2.879795242396866
3.83070189701897,0.6489430894309005,2.214905149051501,2.446829268292702
3.83869918699187,0.40902439024389714,1.815040650406495,1.7270731707316913
3.8466964769647696,0.7854471544715412,1.2620234869015372,0.5240469738030744
3.8546937669376695,0.9054065040650412,1.2087082204155373,0.41741644083107443
3.862691056910569,1.0253658536585346,1.1553929539295402,0.31078590785908033
3.870688346883469,1.1453252032520345,1.1020776874435403,0.20415537488708035
3.8786856368563685,1.2652845528455279,1.0487624209575432,0.09752484191508637
3.8866829268292684,1.385243902439028,0.9954471544715433,-0.009105691056913612
3.894680216802168,1.5052032520325211,0.9421318879855463,-0.11573622402890771
3.902677506775068,1.9168623908461773,0.9,-0.3491117133393775
3.9106747967479674,3.1987804878049055,1.0012195121950944,-1.1012195121950943
3.9186720867208673,2.2957136819074613,1.5957136819074613,-1.3742820914447678
3.926669376693767,2.288376718629572,1.5883767186295719,-1.3302603117774308
3.9346666666666668,2.281039755351682,1.581039755351682,-1.2862385321100915
3.9426639566395663,2.2737027920737924,1.5737027920737925,-1.2422167524427545
3.950661246612466,2.2663658287959025,1.5663658287959026,-1.1981949727754153
3.9586585365853657,2.259028865518013,1.5590288655180131,-1.1541731931080785
3.9666558265582657,2.251691902240123,1.5516919022401232,-1.110151413440739
3.974653116531165,2.2443549389622337,1.5443549389622337,-1.0661296337734023
3.982650406504065,2.237017975684344,1.5370179756843438,-1.0221078541060629
3.9906476964769646,2.2296810124064543,1.5296810124064544,-0.978086074438726
3.9986449864498645,2.2223440491285644,1.5223440491285645,-0.9340642947713866
4.006642276422764,2.215007085850675,1.515007085850675,-0.8900425151040497
4.0146395663956636,2.2076701225727855,1.5076701225727855,-0.8460207354367129
4.022636856368564,2.200333159294895,1.5003331592948952,-0.8019989557693711
4.030634146341463,0.9539295392953728,-4.019241192411921,0.8826558265582745
4.038631436314363,-0.7926950612789716,-2.3902600817052955,-0.2
4.0466287262872624,-0.7568863002062873,-2.3425150669417163,-0.2
4.054626016260163,-0.7210775391335992,-2.2947700521781322,-0.2
4.062623306233062,-0.6852687780609149,-2.247025037414553,-0.2
4.070620596205962,-0.6494600169882306,-2.1992800226509743,-0.2
4.078617886178861,-0.6136512559155464,-2.151535007887395,-0.2
4.086615176151762,-0.5778424948428582,-2.1037899931238107,-0.2
4.094612466124661,-0.5420337337701739,-2.056044978360232,-0.2
4.102609756097561,-0.5062249726974897,-2.0082999635966527,-0.2
4.110607046070461,-0.21684088269451401,-1.433681765389028,0.5550909794812959
4.118604336043361,-3.030735743527634,0.09445885948221074,-0.18060600818773756
4.12660162601626,-2.8180418612696694,0.07744334890157355,-0.12105172115550743
4.13459891598916,-2.6053479790117047,0.060427838320936365,-0.061497434123277295
4.14259620596206,-2.3926540967537164,0.04341232774029729,-0.0019431470910405424
4.1505934959349595,-2.1799602144957513,0.026396817159660108,0.057611139941189604
4.158590785907859,-1.9672663322377866,0.009381306579022919,0.1171654269734197
4.1665880758807585,-1.7545724499798219,-0.007634204001614256,0.17671971400564984
4.174585365853659,-1.5418785677218334,-0.024649714582253332,0.2362740010378866
4.182582655826558,-1.3291846854638687,-0.04166522516289051,0.29582828807011674
4.190579945799458,-1.116490803205904,-0.058680735743527696,0.3553825751023469
4.198577235772357,-0.9037969209479391,-0.07569624632416488,0.414936862134577
4.206574525745258,-0.6911030386899508,-0.09271175690480396,0.47449114916681373
4.214571815718157,2.005181810059859,0.5,-0.2
4.222569105691057,2.031546502278209,0.5,-0.2
4.230566395663956,2.0579111944965587,0.5,-0.2
4.238563685636857,2.0842758867149116,0.5,-0.2
4.246560975609756,2.110640578933262,0.5,-0.2
4.254558265582656,2.1370052711516117,0.5,-0.2
4.262555555555555,2.1633699633699615,0.5,-0.2
4.270552845528456,2.1897346555883144,0.5,-0.2
4.278550135501355,2.216099347806664,0.5,-0.2
4.286547425474255,2.2424640400250144,0.5,-0.2
4.294544715447154,2.2688287322433642,0.5,-0.2
4.3025420054200545,2.295193424461717,0.5,-0.2
4.310539295392954,0.9382113821137995,-0.3,-0.47696476964770007
4.3185365853658535,0.7759470679813185,-0.30801764400622716,-0.5160352880124544
4.326533875338753,0.7504238021103627,-0.3165253992965458,-0.5330507985930915
4.334531165311653,0.7249005362394042,-0.32503315458686527,-0.5500663091737306
4.342528455284553,0.6993772703684484,-0.3335409098771839,-0.5670818197543678
4.350525745257452,0.6738540044974926,-0.3420486651675025,-0.5840973303350049
4.358523035230352,0.6483307386265369,-0.3505564204578211,-0.6011128409156421
4.366520325203252,0.6228074727555782,-0.3590641757481406,-0.6181283514962812
4.374517615176152,0.5972842068846225,-0.3675719310384592,-0.6351438620769183
4.382514905149051,0.5717609410136667,-0.3760796863287778,-0.6521593726575555
4.390512195121951,0.5462376751427109,-0.3845874416190964,-0.6691748832381927
4.398509485094851,0.5207144092717523,-0.3930951969094159,-0.6861903938188317
4.406506775067751,0.14841915085824586,-0.45022583559167917,-0.8004516711833584
4.41450406504065,-0.39627227123335046,-0.6,-0.5776336274001026
4.42250135501355,-0.38776451594303185,-0.6,-0.5265870956581911
4.43049864498645,-0.37925676065271235,-0.6,-0.47554056391627386
4.43849593495935,-0.37074900536239375,-0.6,-0.4244940321743623
4.446493224932249,-0.36224125007207514,-0.6,-0.3734475004324508
4.4544905149051495,-0.3537334947817556,-0.6,-0.32240096869053353
4.462487804878049,-0.34522573949143703,-0.6,-0.271354436948622
4.4704850948509485,-0.3367179842011184,-0.6,-0.22030790520671045
4.478482384823848,-0.3282102289107998,-0.6,-0.16926137346479891
4.486479674796748,-0.31970247362048027,-0.6,-0.11821484172288171
4.494476964769648,-0.31119471833016166,-0.6,-0.06716830998097012
4.502474254742547,-0.3026869630398431,-0.6,-0.016121778239058582
4.510471544715447,0.09082462253194501,-0.6,0.547154471544723
4.518468834688347,0.6,0.10357611823540987,1.4928477635291804
4.526466124661247,0.6,0.11182074707345055,1.476358505853099
4.534463414634146,0.6,0.12006537591149125,1.4598692481770175
4.542460704607046,0.6,0.12831000474953194,1.4433799905009361
4.550457994579946,0.6,0.13655463358757353,1.426890732824853
4.558455284552846,0.6,0.14479926242561422,1.4104014751487717
4.566452574525745,0.6,0.15304389126365492,1.3939122174726903
4.574449864498645,0.6,0.1612885201016956,1.3774229597966088
4.582447154471545,0.6,0.1695331489397372,1.3609337021205257
4.5904444444444445,0.6,0.1777777777777779,1.3444444444444443
4.598441734417344,0.6,0.1860224066158186,1.327955186768363
4.6064390243902436,0.6,0.19426703545385926,1.3114659290922814
4.614436314363144,1.08726287262875,0.03757904245708327,0.8127371273712498
4.6224336043360434,1.3,-0.012349100763735106,0.40617455038186756
4.630430894308943,1.3,-0.03052475979305214,0.4152623798965261
4.6384281842818424,1.3,-0.048700418822369175,0.4243502094111846
4.646425474254743,1.3,-0.06687607785168823,0.43343803892584415
4.654422764227642,1.3,-0.08505173688100526,0.4425258684405026
4.662420054200542,1.3,-0.10322739591032229,0.45161369795516115
4.670417344173441,1.3,-0.12140305493963932,0.4607015274698197
4.678414634146342,1.3,-0.13957871396895838,0.4697893569844792
4.686411924119241,1.3,-0.1577543729982754,0.4788771864991377
4.694409214092141,1.3,-0.17593003202759244,0.4879650160137962
4.70240650406504,1.3,-0.19410569105690947,0.49705284552845475
4.710403794037941,1.714556716995745,-0.46291134339914897,0.562911343399149
4.71840108401084,2.1,-0.39214092140921475,0.8078590785907853
4.72639837398374,2.1,-0.3778600464576084,0.8221399535423917
4.734395663956639,2.1,-0.36357917150600205,0.836420828493998
4.7423929539295395,2.1,-0.3492982965543941,0.8507017034456059
4.750390243902439,2.1,-0.33501742160278775,0.8649825783972123
4.7583875338753385,2.1,-0.3207365466511814,0.8792634533488186
4.766384823848238,2.1,-0.30645567169957505,0.893544328300425
4.774382113821138,2.1,-0.2921747967479671,0.907825203252033
4.782379403794038,2.1,-0.27789392179636074,0.9221060782036393
4.790376693766937,2.1,-0.2636130468447544,0.9363869531552456
4.798373983739838,2.1,-0.24933217189314644,0.9506678281068536
4.806371273712737,2.1,-0.2350512969415401,0.9649487030584599
4.814368563685637,2.1,-0.22077042198993374,0.9792295780100663
4.822365853658536,2.1,-0.2064895470383274,0.9935104529616726
4.830363143631437,1.3636856368563628,0.8407859078590932,0.7636856368563627
4.838360433604336,1.1896249672174142,0.7861666229565523,0.6827082786956903
4.846357723577236,1.174146341463415,0.7655284552845536,0.6569105691056919
4.854355013550135,1.158667715709416,0.7448902876125549,0.6311128595156935
4.862352303523036,1.1431890899554153,0.7242521199405539,0.6053151499256924
4.870349593495935,1.1277104642014164,0.7036139522685553,0.579517440335694
4.878346883468835,1.1122318384474175,0.6829757845965566,0.5537197307456956
4.886344173441734,1.0967532126934183,0.6623376169245578,0.5279220211556973
4.8943414634146345,1.0812745869394176,0.641699449252557,0.502124311565696
4.902338753387534,1.0657959611854186,0.6210612815805583,0.4763266019756977
4.9103360433604335,1.0503173354314197,0.6004231139085595,0.4505288923856994
4.918333333333333,1.0348387096774205,0.5797849462365608,0.42473118279570105
4.926330623306233,1.0193600839234198,0.5591467785645599,0.39893347320569983
4.934327913279133,1.0038814581694209,0.5385086108925612,0.37313576361570144
4.942325203252032,0.9884028324154219,0.5178704432205625,0.3473380540257031
4.950322493224932,0.9729242066614229,0.49723227554856386,0.3215403444357048
4.958319783197832,0.9574455809074222,0.47659410787656287,0.29574263484570357
4.966317073170732,0.9419669551534231,0.4559559402045642,0.2699449252557052
4.974314363143631,0.9264883293994242,0.4353177725325655,0.24414721566570685
4.982311653116531,0.9110097036454251,0.4146796048605668,0.21834950607570852
4.990308943089431,-0.027913279132776733,-2.0764227642276176,-0.09268292682928707
4.998306233062331,0.5936418594955181,-0.8682092974775903,-0.5745674379820722
5.00630352303523,0.5782624557014804,-0.7913122785074023,-0.5130498228059218
5.01430081300813,0.5628830519074428,-0.7144152595372142,-0.4515322076297713
5.02229810298103,0.5475036481134035,-0.6375182405670174,-0.39001459245361403
5.03029539295393,0.5321242443193659,-0.5606212215968294,-0.3284969772774635
5.038292682926829,0.5167448405253283,-0.4837242026266413,-0.26697936210131307
5.046289972899729,0.5013654367312906,-0.4068271836564532,-0.20546174692516256
5.054287262872629,0.2,-1.983365360926332,-0.712475979305251
5.0622845528455285,0.2,-1.9252032520325182,-0.7560975609756114
5.070281842818428,0.2,-1.8670411431387042,-0.7997191426459718
5.0782791327913275,0.2,-1.8088790342448904,-0.8433407243163322
5.086276422764228,0.2,-1.75071692535107,-0.8869623059866976
5.094273712737127,0.2,-1.692554816457256,-0.930583887657058
5.102271002710027,0.2,-1.6343927075634421,-0.9742054693274185
5.110268292682926,0.33073170731704943,-1.403902439024426,-1.0653658536585249
5.118265582655827,0.8632791327913455,-0.35934959349614515,0.06951219512210882
5.126262872628726,0.968356448270367,-0.8,0.46835644827036704
5.134260162601626,1.0436250597800094,-0.8,0.5436250597800094
5.142257452574526,1.1188936712896602,-0.8,0.6188936712896602
5.150254742547426,1.1941622827993026,-0.8,0.6941622827993026
5.158252032520325,1.269430894308945,-0.8,0.769430894308945
5.166249322493225,1.3446995058185873,-0.8,0.8446995058185873
5.174246612466125,1.4199681173282381,-0.8,0.9199681173282381
5.1822439024390246,1.4952367288378805,-0.8,0.9952367288378805
5.190241192411924,1.5705053403475229,-0.8,1.0705053403475229
5.1982384823848236,1.6457739518571652,-0.8,1.1457739518571652
5.206235772357724,1.7,-1.0235772357724058,1.3341463414634434
5.2142330623306234,1.5601626016261427,-1.3804878048784286,1.5902439024392143
5.222230352303523,0.36492020475761,2.2633544113218713,-0.0863896416741824
5.2302276422764225,0.7,1.221710328214399,0.4895613770952532
5.238224932249323,0.7,1.0736123657532815,0.46981498210043754
5.246222222222222,0.7,0.9255144032921804,0.45006858710562403
5.254219512195122,0.7,0.7774164408310792,0.4303221921108106
5.262216802168021,0.7,0.629318478369978,0.41057579711599707
5.270214092140922,0.7,0.4812205159088605,0.3908294021211814
5.278211382113821,0.7,0.3331225534477593,0.3710830071263679
5.286208672086721,0.7,0.18502459098665813,0.3513366121315544
5.29420596205962,0.7,0.03692662852555695,0.3315902171367409
5.302203252032521,0.7,-0.11117133393556067,0.31184382214192524
5.31020054200542,-0.24005912786403039,-0.2799704360679848,0.39997536338998735
5.31819783197832,-1.1124907612712391,0.15624538063561966,0.03646218280365032
5.326195121951219,-1.2719512195121934,1.1353658536585143,-0.0719512195121934
5.3341924119241195,-1.2703290747193157,1.6335191637630797,-0.1519241192411977
5.342189701897019,-1.2246302748741758,1.839163763066209,-0.23189701897019238
5.3501869918699185,-1.178931475029036,2.0448083623693383,-0.3118699186991871
5.358184281842818,-1.1332326751838961,2.250452961672467,-0.3918428184281818
5.366181571815718,-1.0875338753387513,2.4560975609756195,-0.47181571815718537
5.374178861788618,-1.0418350754936114,2.6617421602787488,-0.55178861788618
5.382176151761517,-0.9961362756484716,2.867386759581878,-0.6317615176151747
5.390173441734417,-0.9504374758033318,3.073031358885007,-0.7117344173441694
5.398170731707317,-0.9047386759581869,3.278675958188159,-0.7917073170731731
5.406168021680217,-0.6001647271374677,0.4990116371751934,-1.199835272862532
5.414165311653116,-0.6080052075030554,0.45196875498166705,-1.1919947924969445
5.422162601626016,-0.6158456878686431,0.40492587278814074,-1.1841543121313567
5.430159891598916,-0.6236861682342317,0.35788299059460915,-1.1763138317657682
5.438157181571816,-0.6315266485998194,0.31084010840108284,-1.1684733514001804
5.446154471544715,-0.6393671289654073,0.2637972262075565,-1.1606328710345928
5.454151761517615,-0.647207609330995,0.21675434401403015,-1.152792390669005
5.462149051490515,-0.6550480896965836,0.16971146182049862,-1.1449519103034165
5.470146341463415,-0.6628885700621713,0.12266857962697225,-1.1371114299378287
5.478143631436314,-0.670729050427759,0.07562569743344594,-1.129270949572241
5.4861409214092145,-0.6785695307933476,0.02858281523991435,-1.1214304692066523
5.494138211382114,-0.6864100111589353,-0.01846006695361191,-1.1135899888410647
5.5021355013550135,-0.694250491524523,-0.06550294914713828,-1.105749508475477
5.510132791327913,-0.6668021680216992,-0.7265582655826405,-0.5668021680216992
5.518130081300813,0.4051327260260563,-1.4948672739739437,1.1025663630130282
5.526127371273713,0.4244033042740069,-1.4755966957259932,1.1122016521370035
5.534124661246612,0.44367388252195744,-1.4563261174780426,1.1218369412609788
5.542121951219512,0.46294446076990803,-1.437055539230092,1.131472230384954
5.550119241192412,0.4822150390178607,-1.4177849609821394,1.1411075195089304
5.558116531165312,0.5014856172658113,-1.3985143827341888,1.1507428086329057
5.566113821138211,0.5207561955137618,-1.3792438044862383,1.160378097756881
5.574111111111111,0.5400267737617124,-1.3599732262382875,1.1700133868808562
5.582108401084011,0.5592973520096651,-1.340702647990335,1.1796486760048326
5.590105691056911,0.5785679302576157,-1.3214320697423845,1.1892839651288079
5.59810298102981,0.5978385085055662,-1.3021614914944337,1.1989192542527831
5.60610027100271,0.3974932249322657,-0.8412262872629298,0.8437330623306643
5.61409756097561,0.0969926592469803,-0.1969926592469803,0.4
5.62209485094851,0.08922830004999055,-0.18922830004999056,0.4
5.630092140921409,0.08146394085300078,-0.1814639408530008,0.4
5.638089430894309,0.07369958165601102,-0.17369958165601104,0.4
5.646086720867209,0.0659352224590204,-0.16593522245902043,0.4
5.6540840108401085,0.05817086326203064,-0.15817086326203064,0.4
5.662081300813008,0.05040650406504089,-0.15040650406504089,0.4
5.6700785907859075,0.04264214486805113,-0.14264214486805113,0.4
5.678075880758808,0.03487778567106051,-0.1348777856710605,0.4
5.686073170731707,0.02711342647407075,-0.12711342647407076,0.4
5.694070460704607,0.019349067277080995,-0.119349067277081,0.4
5.702067750677506,0.011584708080091224,-0.11158470808009123,0.4
5.710065040650407,0.0038203488831006077,-0.10382034888310061,0.4
5.718062330623306,-0.0187484602118732,0.056245380635619596,0.3437546193643804
5.726059620596206,-0.09145109632914061,0.2743532889874218,0.12564671101257818
5.734056910569105,-0.11593923833975124,0.4920303808301244,0.09203038083012438
5.742054200542006,-0.13698473826843632,0.48150763086578185,0.08150763086578183
5.750051490514905,-0.1580302381971191,0.4709848809014405,0.07098488090144045
5.758048780487805,-0.17907573812580185,0.4604621309370991,0.06046213093709908
5.766046070460704,-0.20012123805448462,0.4499393809727577,0.0499393809727577
5.7740433604336046,-0.2211667379831697,0.43941663100841516,0.03941663100841515
5.782040650406504,-0.24221223791185245,0.4288938810440738,0.02889388104407377
5.790037940379404,-0.2632577378405352,0.4183711310797324,0.018371131079732386
5.798035230352303,-0.28430323776921795,0.407848381115391,0.007848381115391018
5.8060325203252034,-0.20046457607433432,0.3990708478513314,-0.1
5.814029810298103,-0.3,0.2999636459779233,-0.1
5.8220271002710025,-0.3,0.29021085332804586,-0.1
5.830024390243903,-0.3,0.2804580606781673,-0.1
5.838021680216802,-0.3,0.2707052680282898,-0.1
5.846018970189702,-0.3,0.2609524753784124,-0.1
5.854016260162601,-0.3,0.25119968272853493,-0.1
5.862013550135502,-0.3,0.24144689007865638,-0.1
5.870010840108401,-0.3,0.23169409742877892,-0.1
5.878008130081301,-0.3,0.22194130477890145,-0.1
5.8860054200542,-0.3,0.212188512129024,-0.1
5.894002710027101,-0.3,0.20243571947914546,-0.1
5.902,-0.3,0.0,-0.09999999999999998
