accel_time_list,accel_x_list,accel_y_list,accel_z_list
0.0,0.0,1.7,10.0
0.007996296296296295,0.20544444444444446,1.9036296296296296,10.198185185185185
0.01599259259259259,0.22725252525252526,1.9181683501683502,10.190915824915825
0.023988888888888886,0.24906060606060607,1.9327070707070706,10.183646464646465
0.03198518518518518,0.27086868686868687,1.9472457912457912,10.176377104377103
0.03998148148148147,0.29267676767676765,1.9617845117845119,10.169107744107743
0.04797777777777777,0.3144848484848485,1.9763232323232323,10.161838383838383
0.055974074074074065,0.3362929292929293,1.9908619528619529,10.154569023569023
0.06397037037037036,0.35810101010101003,2.0054006734006733,10.147299663299663
0.07196666666666665,0.37990909090909086,2.019939393939394,10.140030303030303
0.07996296296296294,0.40171717171717164,2.0344781144781146,10.132760942760942
0.08795925925925924,0.4235252525252524,2.049016835016835,10.125491582491582
0.09595555555555554,0.44533333333333325,2.0635555555555554,10.118222222222222
0.10395185185185184,0.4671414141414141,2.078094276094276,10.110952861952862
0.11194814814814813,0.48894949494949486,2.0926329966329966,10.103683501683502
0.11994444444444442,-0.22444444444444578,2.0,9.275555555555554
0.12794074074074072,0.09170370370370376,2.0041481481481482,9.6
0.13593703703703702,0.074869395711501,2.0125653021442496,9.6
0.1439333333333333,0.058035087719298314,2.020982456140351,9.6
0.1519296296296296,0.041200779727095564,2.029399610136452,9.6
0.1599259259259259,0.02436647173489287,2.0378167641325535,9.6
0.1679222222222222,0.007532163742690126,2.046233918128655,9.6
0.17591851851851847,-0.009302144249512562,2.054651072124756,9.6
0.18391481481481478,-0.02613645224171532,2.0630682261208575,9.6
0.1919111111111111,-0.042970760233918076,2.0714853801169593,9.6
0.19990740740740737,-0.05980506822612075,2.0799025341130606,9.6
0.20790370370370367,-0.07663937621832351,2.088319688109162,9.6
0.21589999999999995,-0.09347368421052621,2.0967368421052632,9.6
0.22389629629629626,0.12074074074074892,1.8103703703703746,9.515555555555562
0.23189259259259254,-0.0982098765432088,1.9982098765432088,9.70179012345679
0.23988888888888885,-0.090826873385013,1.990826873385013,9.718346253229974
0.24788518518518513,-0.08152885443583127,1.9815288544358312,9.736942291128337
0.25588148148148143,-0.07223083548664952,1.9722308354866496,9.7555383290267
0.2638777777777777,-0.0629328165374678,1.9629328165374678,9.774134366925065
0.27187407407407405,-0.05363479758828601,1.953634797588286,9.792730404823427
0.2798703703703703,-0.04433677863910429,1.9443367786391041,9.811326442721791
0.2878666666666666,-0.035038759689922566,1.9350387596899226,9.829922480620155
0.2958629629629629,-0.02574074074074084,1.9257407407407408,9.84851851851852
0.3038592592592592,-0.016442721791559062,1.916442721791559,9.867114556416881
0.3118555555555555,-0.007144702842377337,1.9071447028423774,9.885710594315245
0.3198518518518518,0.029629629629646076,1.9722222222222345,9.757407407407412
0.3278481481481481,0.08578347578347618,1.9284330484330476,9.671566951566952
0.3358444444444444,0.024273504273504845,2.05145299145299,9.54854700854701
0.34384074074074067,0.006127519924988162,2.1061275199249883,9.506127519924988
0.35183703703703695,0.016249413970932824,2.116249413970933,9.516249413970932
0.3598333333333333,0.026371308016877558,2.1263713080168776,9.526371308016877
0.36782962962962956,0.03649320206282222,2.1364932020628222,9.536493202062822
0.37582592592592584,0.046615096108766886,2.146615096108767,9.546615096108766
0.3838222222222222,0.05673699015471162,2.1567369901547115,9.556736990154711
0.39181851851851845,0.06685888420065628,2.1668588842006566,9.566858884200656
0.39981481481481473,0.07698077824660095,2.1769807782466013,9.5769807782466
0.407811111111111,0.0871026722925456,2.187102672292546,9.587102672292545
0.41580740740740735,0.09722456633849035,2.1972245663384906,9.59722456633849
0.4238037037037036,0.14111111111109176,1.980370370370364,9.680370370370364
0.4317999999999999,0.1751063829787237,2.0,9.691702127659575
0.4397962962962962,0.149586288416076,2.0,9.683195429472025
0.4477925925925925,0.12406619385342811,2.0,9.674688731284476
0.4557888888888888,0.09854609929078041,2.0,9.666182033096927
0.4637851851851851,0.07302600472813273,2.0,9.657675334909378
0.4717814814814814,0.04750591016548486,2.0,9.649168636721829
0.4797777777777777,0.02198581560283716,2.0,9.64066193853428
0.48777407407407397,-0.0035342789598105384,2.0,9.63215524034673
0.49577037037037025,-0.029054373522458238,2.0,9.62364854215918
0.5037666666666666,-0.05457446808510613,2.0,9.615141843971632
0.5117629629629629,-0.08009456264775383,2.0,9.606635145784082
0.5197592592592591,-0.1,1.9620370370370437,9.637962962962956
0.5277555555555554,-0.0024908424908419735,1.9983394383394386,9.697509157509158
0.5357518518518517,-0.028852258852258287,1.980765160765161,9.671147741147742
0.5437481481481481,-0.05521367521367497,1.9631908831908833,9.644786324786324
0.5517444444444444,-0.08157509157509128,1.9456166056166058,9.618424908424908
0.5597407407407406,-0.1079365079365076,1.9280423280423282,9.592063492063492
0.5677370370370369,-0.13429792429792392,1.9104680504680507,9.565702075702076
0.5757333333333332,-0.16065934065934023,1.8928937728937731,9.53934065934066
0.5837296296296295,-0.18702075702075655,1.8753194953194956,9.512979242979243
0.5917259259259258,-0.21338217338217286,1.857745217745218,9.486617826617827
0.5997222222222222,-0.23974358974358953,1.8401709401709403,9.460256410256411
0.6077185185185184,-0.26610500610500587,1.8225966625966628,9.433894993894995
0.6157148148148147,-0.2924664224664222,1.8050223850223852,9.407533577533577
0.623711111111111,-0.9244444444444428,2.540740740740738,8.33481481481482
0.6317074074074073,-1.0386772486772466,2.731128747795411,8.030194003527342
0.6397037037037036,-1.1529100529100504,2.921516754850084,7.725573192239865
0.6476999999999998,-1.4130666666666583,3.1754666666666598,7.531066666666669
0.6556962962962962,-1.7755654320987615,3.4739950617283917,7.413787654320989
0.6636925925925925,-2.1380641975308596,3.77252345679012,7.29650864197531
0.6716888888888888,-2.5005629629629578,4.0710518518518475,7.179229629629631
0.6796851851851851,-2.863061728395056,4.369580246913576,7.061950617283952
0.6876814814814813,-3.225560493827154,4.668108641975303,6.944671604938273
0.6956777777777776,-3.5880592592592517,4.966637037037032,6.827392592592594
0.7036740740740739,-3.9505580246913503,5.265165432098759,6.710113580246916
0.7116703703703703,-4.313056790123453,5.563693827160492,6.592834567901235
0.7196666666666666,-2.7666666666667483,4.966666666666703,5.750000000000033
0.7276629629629628,-0.3347037037037399,-0.7657407407407161,5.633148148148143
0.7356592592592591,-1.0,-1.2911358024691362,6.823637860082303
0.7436555555555554,-1.0,-1.264481481481482,6.894716049382715
0.7516518518518517,-1.0,-1.2378271604938278,6.965794238683126
0.759648148148148,-1.0,-1.2111728395061734,7.036872427983537
0.7676444444444444,-1.0,-1.1845185185185187,7.10795061728395
0.7756407407407406,-1.0,-1.1578641975308646,7.179028806584361
0.7836370370370369,-1.0,-1.1312098765432101,7.250106995884773
0.7916333333333332,-1.0,-1.104555555555556,7.321185185185184
0.7996296296296295,-1.0,-1.0779012345679018,7.392263374485595
0.8076259259259257,-1.0,-1.0512469135802474,7.463341563786007
0.815622222222222,-1.0,-1.0245925925925932,7.534419753086418
0.8236185185185183,-1.0,-1.1855555555555053,7.661851851851835
0.8316148148148147,-2.701755233494364,-1.7017552334943638,8.98595813204509
0.839611111111111,-2.7104468599033815,-1.7104468599033815,8.916425120772947
0.8476074074074073,-2.7191384863123993,-1.7191384863123993,8.846892109500805
0.8556037037037035,-2.727830112721417,-1.7278301127214168,8.777359098228665
0.8635999999999998,-2.736521739130435,-1.7365217391304346,8.707826086956523
0.8715962962962961,-2.745213365539452,-1.7452133655394522,8.638293075684382
0.8795925925925924,-2.75390499194847,-1.75390499194847,8.56876006441224
0.8875888888888888,-2.7625966183574877,-1.7625966183574877,8.499227053140098
0.895585185185185,-2.7712882447665055,-1.7712882447665055,8.429694041867956
0.9035814814814813,-2.7799798711755233,-1.7799798711755233,8.360161030595814
0.9115777777777776,-2.7886714975845406,-1.7886714975845408,8.290628019323673
0.9195740740740739,-2.7973631239935584,-1.7973631239935586,8.221095008051531
0.9275703703703702,-2.9707407407405713,-4.74333333333345,8.542962962962989
0.9355666666666664,-3.892537878787879,-4.167159090909088,8.325378787878792
0.9435629629629628,-3.8834511784511787,-4.248939393939392,8.234511784511787
0.9515592592592591,-3.874364478114478,-4.330719696969695,8.143644781144783
0.9595555555555554,-3.865277777777778,-4.412499999999998,8.05277777777778
0.9675518518518517,-3.8561910774410775,-4.494280303030301,7.961910774410777
0.9755481481481479,-3.8471043771043774,-4.576060606060604,7.871043771043773
0.9835444444444442,-3.838017676767677,-4.657840909090907,7.78017676767677
0.9915407407407405,-3.8289309764309767,-4.73962121212121,7.689309764309767
0.9995370370370369,-3.819844276094276,-4.821401515151514,7.5984427609427625
1.0075333333333332,-3.8107575757575756,-4.903181818181817,7.507575757575759
1.0155296296296294,-3.8016708754208755,-4.984962121212121,7.416708754208756
1.0235259259259257,-5.034074074073998,-5.689629629629717,7.2814814814814275
1.031522222222222,-5.248014184397162,-5.52400709219858,7.424007092198581
1.0395185185185183,-5.299054373522457,-5.549527186761228,7.4495271867612285
1.0475148148148146,-5.350094562647753,-5.575047281323876,7.475047281323876
1.0555111111111108,-5.401134751773047,-5.6005673758865235,7.500567375886524
1.0635074074074071,-5.452174940898343,-5.626087470449171,7.526087470449172
1.0715037037037034,-5.503215130023638,-5.651607565011819,7.551607565011819
1.0794999999999997,-5.5542553191489334,-5.677127659574467,7.577127659574467
1.0874962962962962,-5.605295508274231,-5.702647754137115,7.602647754137116
1.0954925925925925,-5.656335697399526,-5.728167848699763,7.628167848699763
1.1034888888888887,-5.7073758865248205,-5.753687943262411,7.653687943262411
1.111485185185185,-5.758416075650116,-5.779208037825058,7.679208037825059
1.1194814814814813,-6.420370370370326,-6.796296296296261,7.2277777777778045
1.1274777777777776,-7.015925925925921,-7.056814814814816,6.956814814814816
1.1354740740740739,-7.282469135802465,-7.003506172839507,6.903506172839507
1.1434703703703701,-7.406837962962963,-6.25213425925926,6.7863240740740745
1.1514666666666664,-7.416833333333334,-6.182166666666668,6.766333333333334
1.1594629629629627,-7.426828703703704,-6.112199074074075,6.746342592592593
1.167459259259259,-7.436824074074074,-6.042231481481483,6.726351851851852
1.1754555555555553,-7.446819444444444,-5.97226388888889,6.706361111111112
1.1834518518518515,-7.456814814814814,-5.902296296296298,6.686370370370371
1.1914481481481478,-7.466810185185185,-5.8323287037037055,6.66637962962963
1.1994444444444443,-7.476805555555556,-5.762361111111112,6.646388888888889
1.2074407407407406,-7.486800925925926,-5.692393518518519,6.626398148148148
1.2154370370370369,-7.496796296296296,-5.622425925925927,6.606407407407407
1.2234333333333332,-7.431333333333338,-5.162666666666675,5.925333333333352
1.2314296296296294,-7.203853516437786,-4.896146483562214,4.588439450686642
1.2394259259259257,-7.212838119017894,-4.887161880982106,4.561485642946318
1.247422222222222,-7.221822721598002,-4.878177278401998,4.534531835205993
1.2554185185185183,-7.230807324178111,-4.86919267582189,4.5075780274656685
1.2634148148148145,-7.239791926758219,-4.860208073241782,4.480624219725343
1.2714111111111108,-7.248776529338326,-4.851223470661673,4.453670411985019
1.279407407407407,-7.257761131918435,-4.842238868081565,4.426716604244695
1.2874037037037034,-7.266745734498543,-4.8332542655014565,4.39976279650437
1.2953999999999997,-7.2757303370786515,-4.824269662921348,4.372808988764046
1.303396296296296,-7.28471493965876,-4.815285060341241,4.345855181023721
1.3113925925925924,-7.293699542238868,-4.8063004577611315,4.318901373283396
1.3193888888888887,-7.6,-5.516666666666632,3.8611111111111227
1.327385185185185,-8.310919952210275,-6.596360015929909,3.5
1.3353814814814813,-8.336714456391876,-6.587761847869375,3.5
1.3433777777777776,-8.362508960573477,-6.5791636798088415,3.5
1.3513740740740738,-8.388303464755078,-6.570565511748308,3.5
1.3593703703703701,-8.414097968936678,-6.561967343687774,3.5
1.3673666666666664,-8.43989247311828,-6.55336917562724,3.5
1.3753629629629627,-8.46568697729988,-6.544771007566706,3.5
1.383359259259259,-8.49148148148148,-6.536172839506173,3.5
1.3913555555555552,-8.517275985663082,-6.527574671445639,3.5
1.3993518518518515,-8.543070489844682,-6.5189765033851055,3.5
1.4073481481481478,-8.568864994026283,-6.510378335324572,3.5
1.415344444444444,-8.594659498207884,-6.501780167264038,3.5
1.4233407407407406,-8.690582010582009,-6.137671957671964,3.409417989417991
1.4313370370370369,-9.205311447811447,-4.878754208754211,3.807967171717171
1.4393333333333331,-9.223484848484848,-4.806060606060608,3.8352272727272716
1.4473296296296294,-9.241658249158249,-4.733367003367006,3.862487373737373
1.4553259259259257,-9.259831649831648,-4.660673400673403,3.8897474747474736
1.463322222222222,-9.27800505050505,-4.5879797979798,3.917007575757575
1.4713185185185182,-9.29617845117845,-4.515286195286198,3.9442676767676756
1.4793148148148145,-9.314351851851852,-4.442592592592595,3.9715277777777764
1.4873111111111108,-9.332525252525253,-4.369898989898992,3.9987878787878777
1.495307407407407,-9.350698653198652,-4.2972053872053895,4.026047979797979
1.5033037037037034,-9.368872053872053,-4.224511784511787,4.05330808080808
1.5112999999999996,-9.387045454545454,-4.151818181818184,4.0805681818181805
1.519296296296296,-9.397037037037041,-3.40296296296296,4.20296296296296
1.5272925925925922,-9.317074074074078,-3.482925925925923,4.282925925925923
1.5352888888888887,-9.2,-4.671851851851838,3.3711111111111216
1.543285185185185,-9.164689970869746,-4.921186017478152,3.1929379941739495
1.5512814814814813,-9.119766957969205,-4.948139825218477,3.183953391593841
1.5592777777777775,-9.074843945068665,-4.975093632958801,3.1749687890137333
1.5672740740740738,-9.029920932168123,-5.002047440699126,3.165984186433625
1.57527037037037,-8.984997919267583,-5.02900124843945,3.156999583853517
1.5832666666666664,-8.940074906367041,-5.055955056179775,3.1480149812734086
1.5912629629629627,-8.895151893466501,-5.0829088639201,3.1390303786933003
1.599259259259259,-8.85022888056596,-5.109862671660424,3.1300457761131923
1.6072555555555552,-8.80530586766542,-5.136816479400748,3.121061173533084
1.6152518518518515,-8.760382854764877,-5.163770287141073,3.1120765709529756
1.6232481481481478,-8.715459841864337,-5.190724094881397,3.1030919683728677
1.631244444444444,-8.8,-3.9244444444444047,2.663333333333393
1.6392407407407403,-8.792570546737215,-4.1,2.3702821869488555
1.6472370370370366,-8.78305114638448,-4.1,2.3322045855379208
1.6552333333333331,-8.773531746031747,-4.1,2.294126984126985
1.6632296296296294,-8.764012345679014,-4.1,2.256049382716051
1.6712259259259257,-8.754492945326279,-4.1,2.217971781305116
1.679222222222222,-8.744973544973545,-4.1,2.1798941798941813
1.6872185185185182,-8.735454144620812,-4.1,2.1418165784832466
1.6952148148148145,-8.725934744268077,-4.1,2.1037389770723123
1.7032111111111108,-8.716415343915344,-4.1,2.0656613756613775
1.711207407407407,-8.70689594356261,-4.1,2.027583774250443
1.7192037037037033,-8.8722222222222,-3.6277777777777995,1.924074074074067
1.7271999999999996,-9.099777777777778,-3.2,1.9997777777777783
1.735196296296296,-9.090893004115227,-3.2,1.9908930041152268
1.7431925925925922,-9.082008230452676,-3.2,1.9820082304526754
1.7511888888888885,-9.073123456790123,-3.2,1.973123456790124
1.7591851851851847,-9.064238683127572,-3.2,1.9642386831275724
1.7671814814814812,-9.05535390946502,-3.2,1.9553539094650207
1.7751777777777775,-9.04646913580247,-3.2,1.9464691358024695
1.7831740740740738,-9.037584362139917,-3.2,1.937584362139918
1.79117037037037,-9.028699588477366,-3.2,1.9286995884773666
1.7991666666666664,-9.019814814814815,-3.2,1.919814814814815
1.8071629629629626,-9.010930041152264,-3.2,1.9109300411522636
1.815159259259259,-9.002045267489713,-3.2,1.9020452674897121
1.8231555555555552,-9.042222222222243,-3.0422222222222435,2.1
1.8311518518518515,-9.0,-2.9923098367184395,2.1
1.8391481481481478,-9.0,-2.9837116686579055,2.1
1.847144444444444,-9.0,-2.975113500597372,2.1
1.8551407407407403,-9.0,-2.9665153325368383,2.1
1.8631370370370366,-9.0,-2.9579171644763047,2.1
1.8711333333333329,-9.0,-2.949318996415771,2.1
1.8791296296296294,-9.0,-2.940720828355237,2.1
1.8871259259259257,-9.0,-2.9321226602947035,2.1
1.895122222222222,-9.0,-2.92352449223417,2.1
1.9031185185185182,-9.0,-2.9149263241736363,2.1
1.9111148148148145,-9.0,-2.9063281561131027,2.1
1.9191111111111108,-9.023456790123452,-2.9,2.1
1.927107407407407,-9.044629629629645,-2.9,2.1553703703703557
1.9351037037037033,-9.1,-3.0095434969853563,2.2
1.9430999999999996,-9.1,-3.02813953488372,2.2
1.9510962962962959,-9.1,-3.0467355727820835,2.2
1.9590925925925922,-9.1,-3.065331610680447,2.2
1.9670888888888884,-9.1,-3.0839276485788103,2.2
1.9750851851851847,-9.1,-3.102523686477174,2.2
1.983081481481481,-9.1,-3.1211197243755375,2.2
1.9910777777777775,-9.1,-3.1397157622739016,2.2
1.9990740740740738,-9.1,-3.1583118001722648,2.2
2.00707037037037,-9.1,-3.1769078380706284,2.2
2.0150666666666663,-9.1,-3.195503875968992,2.2
2.0230629629629626,-9.041957671957675,-3.3580423280423237,2.1419576719576763
2.031059259259259,-8.995319865319866,-3.5070202020202013,2.2023400673400673
2.039055555555555,-8.977146464646465,-3.534280303030302,2.2114267676767674
2.0470518518518515,-8.958973063973065,-3.561540404040403,2.220513468013468
2.0550481481481477,-8.940799663299664,-3.5888005050505036,2.229600168350168
2.063044444444444,-8.922626262626263,-3.616060606060605,2.238686868686868
2.0710407407407403,-8.904452861952864,-3.6433207070707057,2.2477735690235687
2.0790370370370366,-8.886279461279463,-3.6705808080808064,2.256860269360269
2.087033333333333,-8.868106060606062,-3.6978409090909072,2.265946969696969
2.095029629629629,-8.849932659932662,-3.7251010101010085,2.2750336700336695
2.1030259259259254,-8.831759259259261,-3.7523611111111093,2.2841203703703696
2.1110222222222217,-8.81358585858586,-3.77962121212121,2.29320707070707
2.119018518518518,-8.8,-3.8336419753086317,2.2663580246913684
2.1270148148148142,-8.898518518518554,-3.804444444444339,2.301481481481446
2.1350111111111105,-8.776367041198505,-4.107877652933832,2.407877652933832
2.143007407407407,-8.74941323345818,-4.11686225551394,2.41686225551394
2.151003703703703,-8.722459425717856,-4.125846858094048,2.425846858094048
2.1589999999999994,-8.695505617977531,-4.134831460674157,2.4348314606741566
2.166996296296296,-8.668551810237204,-4.143816063254265,2.443816063254265
2.1749925925925924,-8.641598002496881,-4.1528006658343735,2.4528006658343733
2.1829888888888886,-8.614644194756556,-4.161785268414482,2.4617852684144816
2.190985185185185,-8.58769038701623,-4.170769870994589,2.4707698709945896
2.198981481481481,-8.560736579275906,-4.179754473574698,2.479754473574698
2.2069777777777775,-8.533782771535583,-4.188739076154806,2.488739076154806
2.2149740740740738,-8.506828963795257,-4.197723678734914,2.497723678734914
2.22297037037037,-8.294074074073992,-4.148518518518498,2.448518518518498
2.2309666666666663,-8.52964539007092,-4.20741134751773,2.50741134751773
2.2389629629629626,-8.563672182821117,-4.215918045705279,2.515918045705279
2.246959259259259,-8.597698975571314,-4.224424743892828,2.5244247438928284
2.254955555555555,-8.63172576832151,-4.232931442080377,2.5329314420803777
2.2629518518518514,-8.665752561071708,-4.241438140267927,2.541438140267927
2.2709481481481477,-8.699779353821905,-4.249944838455476,2.549944838455476
2.278944444444444,-8.733806146572102,-4.258451536643025,2.5584515366430254
2.2869407407407403,-8.767832939322298,-4.266958234830574,2.5669582348305746
2.2949370370370366,-8.801859732072495,-4.275464933018124,2.575464933018124
2.302933333333333,-8.835886524822692,-4.283971631205673,2.583971631205673
2.310929629629629,-8.86991331757289,-4.292478329393222,2.5924783293932223
2.3189259259259254,-8.961728395061687,-4.361728395061686,2.6617283950616866
2.3269222222222217,-9.097973137973138,-4.50202686202686,3.002026862026861
2.334918518518518,-9.080398860398862,-4.519601139601138,3.0196011396011384
2.3429148148148142,-9.062824582824584,-4.5371754171754155,3.037175417175416
2.3509111111111105,-9.045250305250306,-4.5547496947496935,3.0547496947496935
2.358907407407407,-9.027676027676028,-4.5723239723239715,3.072323972323971
2.366903703703703,-9.010101750101752,-4.589898249898249,3.0898982498982486
2.3748999999999993,-8.992527472527474,-4.607472527472527,3.107472527472526
2.3828962962962956,-8.974953194953196,-4.625046805046804,3.1250468050468037
2.3908925925925923,-8.957378917378918,-4.6426210826210825,3.1426210826210825
2.3988888888888886,-8.93980463980464,-4.66019536019536,3.16019536019536
2.406885185185185,-8.922230362230362,-4.677769637769638,3.1777696377696376
2.414881481481481,-8.904656084656086,-4.695343915343916,3.195343915343915
2.4228777777777775,-8.656111111111128,-4.7,3.3
2.4308740740740737,-8.795789049919486,-4.8,3.5
2.43887037037037,-8.787097423510469,-4.8,3.5
2.4468666666666663,-8.77840579710145,-4.8,3.5
2.4548629629629626,-8.769714170692433,-4.8,3.5
2.462859259259259,-8.761022544283415,-4.8,3.5
2.470855555555555,-8.752330917874398,-4.8,3.5
2.4788518518518514,-8.74363929146538,-4.8,3.5
2.4868481481481477,-8.73494766505636,-4.8,3.5
2.494844444444444,-8.726256038647342,-4.8,3.5
2.5028407407407403,-8.717564412238325,-4.8,3.5
2.5108370370370365,-8.708872785829307,-4.8,3.5
2.518833333333333,-8.70018115942029,-4.8,3.5
2.526829629629629,-8.106020488573678,-4.7,3.7030102442868396
2.5348259259259254,-8.123033884948777,-4.7,3.711516942474389
2.5428222222222217,-8.140047281323875,-4.7,3.720023640661938
2.550818518518518,-8.157060677698974,-4.7,3.7285303388494873
2.558814814814814,-8.174074074074072,-4.7,3.7370370370370365
2.5668111111111105,-8.19108747044917,-4.7,3.7455437352245857
2.5748074074074068,-8.20810086682427,-4.7,3.754050433412135
2.582803703703703,-8.22511426319937,-4.7,3.762557131599684
2.5907999999999993,-8.242127659574468,-4.7,3.7710638297872334
2.5987962962962956,-8.259141055949566,-4.7,3.7795705279747827
2.606792592592592,-8.276154452324665,-4.7,3.788077226162332
2.614788888888888,-8.293167848699763,-4.7,3.796583924349881
2.622785185185185,-8.3,-5.2570370370369375,3.9677777777777035
2.630781481481481,-8.571259259259248,-5.98907407407406,4.017814814814812
2.6387777777777774,-8.891111111111107,-6.388888888888883,4.097777777777776
2.6467740740740737,-9.000962000962,-6.490865800865799,4.160577200577199
2.65477037037037,-9.104810004810002,-6.5843290043290015,4.222886002886001
2.6627666666666663,-9.208658008658006,-6.677792207792204,4.285194805194803
2.6707629629629626,-9.312506012506008,-6.7712554112554075,4.347503607503604
2.678759259259259,-9.416354016354012,-6.86471861471861,4.409812409812407
2.686755555555555,-9.520202020202014,-6.958181818181813,4.472121212121208
2.6947518518518514,-9.624050024050018,-7.051645021645015,4.5344300144300105
2.7027481481481477,-9.727898027898021,-7.145108225108218,4.596738816738812
2.710744444444444,-9.831746031746023,-7.23857142857142,4.659047619047614
2.7187407407407402,-10.377777777777945,-7.681481481481873,5.959259259259063
2.7267370370370365,-9.464143518518522,-6.029880401234565,7.129880401234565
2.734733333333333,-9.41416666666667,-6.071527777777774,7.171527777777774
2.742729629629629,-9.36418981481482,-6.1131751543209845,7.213175154320984
2.7507259259259254,-9.314212962962968,-6.154822530864194,7.254822530864193
2.7587222222222216,-9.264236111111115,-6.196469907407404,7.2964699074074035
2.766718518518518,-9.214259259259263,-6.238117283950613,7.338117283950613
2.774714814814814,-9.164282407407413,-6.279764660493823,7.379764660493823
2.7827111111111105,-9.11430555555556,-6.321412037037033,7.421412037037032
2.7907074074074067,-9.064328703703708,-6.363059413580243,7.463059413580242
2.798703703703703,-9.014351851851858,-6.404706790123452,7.504706790123452
2.8066999999999993,-8.964375000000006,-6.446354166666662,7.546354166666662
2.8146962962962956,-8.914398148148154,-6.488001543209872,7.588001543209872
2.822692592592592,-7.892222222222436,-6.492222222222437,8.373148148147969
2.830688888888888,-6.463111111111118,-6.808197530864196,9.649185185185175
2.8386851851851844,-6.383148148148155,-6.825967078189299,9.755802469135793
2.846681481481481,-6.303185185185188,-6.843736625514403,9.862419753086415
2.8546777777777774,-6.223222222222224,-6.861506172839506,9.969037037037033
2.8626740740740737,-6.143259259259262,-6.879275720164609,10.07565432098765
2.87067037037037,-6.063296296296299,-6.897045267489712,10.182271604938268
2.8786666666666663,-5.983333333333336,-6.9148148148148145,10.288888888888886
2.8866629629629625,-5.903370370370373,-6.932584362139917,10.395506172839502
2.894659259259259,-5.8234074074074105,-6.9503539094650195,10.50212345679012
2.902655555555555,-5.743444444444447,-6.9681234567901225,10.608740740740737
2.9106518518518514,-5.663481481481484,-6.985893004115225,10.715358024691355
2.9186481481481477,-5.270370370370468,-7.082407407407382,11.129629629629532
2.926644444444444,-2.1687216248506624,-9.197156511350059,9.177252090800481
2.93464074074074,-2.0741417761847925,-9.188558343289525,9.108466746316212
2.9426370370370365,-1.9795619275189225,-9.179960175228992,9.039681401831944
2.9506333333333328,-1.8849820788530525,-9.171362007168458,8.970896057347675
2.958629629629629,-1.7904022301871825,-9.162763839107924,8.902110712863404
2.9666259259259253,-1.6958223815213125,-9.15416567104739,8.833325368379136
2.9746222222222216,-1.6012425328554425,-9.145567502986857,8.764540023894867
2.982618518518518,-1.5066626841895725,-9.136969334926324,8.695754679410598
2.990614814814814,-1.4120828355237025,-9.12837116686579,8.62696933492633
2.9986111111111104,-1.3175029868578325,-9.119772998805256,8.55818399044206
3.0066074074074067,-1.2229231381919625,-9.111174830744723,8.489398645957792
3.014603703703703,-1.1283432895260925,-9.10257666268419,8.420613301473523
3.0225999999999993,0.17999999999983762,-9.02000000000001,7.440000000000122
3.0305962962962956,2.6798148148147756,-9.735962962962954,3.768444444444539
3.038592592592592,3.0079629629629596,-9.778101851851861,2.9900462962963004
3.046588888888888,3.047944444444441,-9.668152777777788,2.9400694444444486
3.0545851851851844,3.0879259259259224,-9.558203703703715,2.890092592592597
3.0625814814814807,3.127907407407404,-9.44825462962964,2.8401157407407456
3.0705777777777774,3.1678888888888874,-9.33830555555556,2.7901388888888907
3.0785740740740737,3.207870370370369,-9.228356481481486,2.740162037037039
3.08657037037037,3.2478518518518498,-9.118407407407412,2.6901851851851877
3.0945666666666662,3.287833333333331,-9.008458333333339,2.640208333333336
3.1025629629629625,3.3278148148148126,-8.898509259259265,2.590231481481484
3.110559259259259,3.367796296296294,-8.78856018518519,2.5402546296296324
3.118555555555555,3.8666666666664744,-8.15555555555578,1.6444444444447972
3.1265518518518514,4.69725607327758,-4.305487853444841,2.9027439267224207
3.1345481481481476,4.688657905217045,-4.3226841895659085,2.9113420947829542
3.142544444444444,4.680059737156512,-4.339880525686976,2.919940262843488
3.15054074074074,4.671461569095978,-4.357076861808043,2.9285384309040214
3.1585370370370365,4.662863401035445,-4.37427319792911,2.937136598964555
3.1665333333333328,4.654265232974911,-4.391469534050177,2.9457347670250886
3.174529629629629,4.645667064914377,-4.408665870171245,2.9543329350856227
3.1825259259259253,4.637068896853844,-4.4258622062923125,2.9629311031461563
3.1905222222222216,4.62847072879331,-4.44305854241338,2.97152927120669
3.198518518518518,4.619872560732777,-4.460254878534447,2.9801274392672235
3.206514814814814,4.611274392672243,-4.477451214655514,2.988725607327757
3.2145111111111104,4.6026762246117086,-4.494647550776581,2.9973237753882906
3.2225074074074067,3.625370370370334,-4.346296296296661,3.0970370370373286
3.230503703703703,3.7769255276782054,-3.593006770211072,2.555945838311422
3.2384999999999993,3.871505376344075,-3.5844086021505386,2.6247311827956907
3.2464962962962955,3.966085225009945,-3.575810434090005,2.69351652727996
3.254492592592592,4.060665073675815,-3.5672122660294714,2.762301871764229
3.262488888888888,4.155244922341685,-3.558614097968938,2.8310872162484984
3.2704851851851844,4.249824771007555,-3.550015929908404,2.899872560732767
3.2784814814814807,4.344404619673425,-3.5414177618478706,2.9686579052170363
3.286477777777777,4.438984468339295,-3.532819593787337,3.0374432497013055
3.2944740740740732,4.533564317005165,-3.5242214257268034,3.1062285941855743
3.30247037037037,4.62814416567104,-3.515623257666269,3.1750139386698475
3.3104666666666662,4.72272401433691,-3.5070250896057353,3.2437992831541163
3.3184629629629625,5.092592592592499,-3.938888888888748,4.031481481481247
3.326459259259259,2.9213848631239907,-2.7893075684380046,2.253462157809977
3.334455555555555,2.990917874396132,-2.7545410628019336,2.4272946859903306
3.3424518518518513,3.0604508856682737,-2.719774557165863,2.6011272141706847
3.3504481481481476,3.1299838969404155,-2.6850080515297923,2.7749597423510384
3.358444444444444,3.1995169082125567,-2.6502415458937216,2.948792270531392
3.36644074074074,3.2690499194846985,-2.6154750402576505,3.1226247987117457
3.3744370370370365,3.3385829307568398,-2.58070853462158,3.2964573268920994
3.3824333333333327,3.4081159420289815,-2.5459420289855093,3.470289855072453
3.390429629629629,3.477648953301123,-2.5111755233494386,3.6441223832528067
3.3984259259259253,3.5471819645732645,-2.476409017713368,3.8179549114331603
3.4064222222222216,3.616714975845406,-2.441642512077297,3.9917874396135145
3.414418518518518,3.6862479871175475,-2.4068760064412262,4.165619967793868
3.422414814814814,6.441481481481423,-6.0316872427984185,5.134156378600791
3.4304111111111104,8.369999999999385,-6.076111111110736,7.263888888888035
3.4384074074074067,9.118855218855197,-6.6020202020201815,8.109427609427598
3.446403703703703,9.355109427609404,-6.820101010100989,8.227554713804702
3.4543999999999992,9.591363636363612,-7.038181818181796,8.345681818181806
3.4623962962962955,9.827617845117821,-7.256262626262604,8.46380892255891
3.470392592592592,10.063872053872029,-7.474343434343411,8.581936026936015
3.478388888888888,10.300126262626236,-7.692424242424218,8.700063131313119
3.4863851851851844,10.536380471380443,-7.9105050505050265,8.818190235690222
3.4943814814814806,10.772634680134653,-8.128585858585833,8.936317340067326
3.502377777777777,11.00888888888886,-8.346666666666641,9.054444444444432
3.510374074074073,11.24514309764307,-8.564747474747449,9.172571548821535
3.5183703703703695,11.481397306397277,-8.782828282828255,9.290698653198639
3.526366666666666,18.18999999999781,-2.7800000000013854,9.733333333333718
3.5343629629629625,29.81218855218855,5.239057239057243,7.565925925925936
3.5423592592592588,29.830361952861953,5.14819023569024,7.366018518518529
3.550355555555555,29.848535353535354,5.057323232323237,7.166111111111123
3.5583518518518513,29.866708754208755,4.966456228956234,6.966203703703716
3.5663481481481476,29.884882154882153,4.875589225589231,6.766296296296309
3.574344444444444,29.903055555555554,4.784722222222228,6.566388888888902
3.58234074074074,29.921228956228955,4.693855218855225,6.366481481481495
3.5903370370370364,29.939402356902356,4.602988215488222,6.166574074074088
3.5983333333333327,29.957575757575757,4.512121212121219,5.966666666666682
3.606329629629629,29.975749158249158,4.421254208754215,5.766759259259275
3.6143259259259253,29.993922558922556,4.330387205387212,5.566851851851868
3.6223222222222216,-0.4642222222217739,0.12266666666679789,8.419555555555862
3.630318518518518,-4.384806584362128,-0.893069958847752,5.6672592592592785
3.638314814814814,-4.589156378600809,-0.6354115226337615,5.347407407407428
3.6463111111111104,-4.793506172839492,-0.37775308641977123,5.027555555555578
3.6543074074074067,-4.9978559670781735,-0.12009465020578092,4.707703703703728
3.662303703703703,-5.202205761316856,0.1375637860082095,4.387851851851877
3.6702999999999992,-5.406555555555538,0.39522222222219994,4.068000000000028
3.6782962962962955,-5.610905349794219,0.6528806584361901,3.7481481481481778
3.686292592592592,-5.815255144032902,0.9105390946501806,3.4282962962963275
3.694288888888888,-6.019604938271583,1.168197530864171,3.108444444444477
3.7022851851851843,-6.223954732510266,1.4258559670781614,2.7885925925926274
3.7102814814814806,-6.428304526748947,1.6835144032921519,2.468740740740777
3.718277777777777,-4.747222222223403,2.6027777777773298,-0.7388888888870162
3.726274074074073,-1.9772222222222506,0.857978395061715,-5.431790123456806
3.7342703703703695,-1.6773611111111406,0.9995794753086282,-5.265200617283967
3.7422666666666657,-1.3775000000000304,1.1411805555555414,-5.098611111111128
3.750262962962962,-1.0776388888889201,1.2827816358024544,-4.932021604938289
3.7582592592592587,-0.7777777777777934,1.4243827160493754,-4.765432098765441
3.766255555555555,-0.4779166666666832,1.5659837962962886,-4.598842592592602
3.7742518518518513,-0.17805555555557295,1.7075848765432018,-4.432253086419763
3.7822481481481476,0.12180555555553729,1.849185956790115,-4.265663580246923
3.790244444444444,0.4216666666666473,1.9907870370370282,-4.0990740740740845
3.79824074074074,0.7215277777777573,2.1323881172839414,-3.9324845679012457
3.8062370370370364,1.0213888888888678,2.273989197530854,-3.765895061728407
3.8142333333333327,1.3212499999999778,2.415590277777768,-3.599305555555568
3.822229629629629,1.7691358024690755,4.976049382715493,-0.7009876543216156
3.8302259259259253,1.4298989898990655,0.5913468013476644,2.127575757575701
3.8382222222222215,5.211111111110408,-19.855555555557366,6.688888888887593
3.846218518518518,6.318528138528191,-13.85249639249654,10.639903799903726
3.854214814814814,5.570822510822564,-11.733997113997265,11.719923039922964
3.8622111111111104,4.823116883116938,-9.61549783549799,12.7999422799422
3.8702074074074067,4.0754112554113116,-7.496998556998717,13.87996151996144
3.878203703703703,3.327705627705685,-5.378499278499442,14.959980759980677
3.886199999999999,2.5800000000000587,-3.2600000000001668,16.039999999999917
3.8941962962962955,1.8322943722944318,-1.1415007215008917,17.120019240019154
3.9021925925925918,1.0845887445888058,0.9769985569983817,18.200038480038394
3.910188888888888,0.33688311688317896,3.095497835497657,19.28005772005763
3.9181851851851843,-1.2277777777776298,4.022222222229031,15.30000000000533
3.9261814814814806,-8.798152088258442,1.1624586288415601,-2.2759968479116903
3.934177777777777,-9.044846335697368,1.570780141843922,-2.7183451536642487
3.942174074074073,-9.291540583136296,1.9791016548462839,-3.1606934594168075
3.9501703703703694,-9.538234830575222,2.3874231678486457,-3.6030417651693663
3.9581666666666657,-9.78492907801415,2.7957446808510076,-4.045390070921925
3.966162962962962,-10.031623325453078,3.2040661938533694,-4.487738376674484
3.9741592592592583,-10.278317572892004,3.6123877068557313,-4.930086682427042
3.982155555555555,-10.525011820330944,4.020709219858116,-5.372434988179625
3.9901518518518513,-10.771706067769871,4.429030732860477,-5.814783293932184
3.9981481481481476,-11.018400315208797,4.8373522458628395,-6.257131599684742
4.006144444444444,-11.265094562647725,5.245673758865202,-6.6994799054373
4.01414074074074,-11.511788810086653,5.653995271867563,-7.141828211189859
4.022137037037036,12.598888888884485,6.12629629629172,-9.04370370370595
4.030133333333333,21.427311827957066,16.191254480286716,-4.061505376344101
4.038129629629629,20.550298685782632,16.440601354042194,-3.880943847072895
4.046125925925925,19.673285543608202,16.689948227797668,-3.700382317801689
4.0541222222222215,18.79627240143377,16.939295101553142,-3.5198207885304824
4.062118518518518,17.91925925925934,17.18864197530862,-3.339259259259276
4.070114814814814,17.042246117084908,17.437988849064094,-3.1586977299880696
4.07811111111111,16.165232974910477,17.68733572281957,-2.9781362007168632
4.086107407407407,15.288219832736047,17.936682596575043,-2.797574671445657
4.094103703703703,14.411206690561617,18.18602947033052,-2.6170131421744505
4.102099999999999,13.534193548387185,18.435376344085995,-2.436451612903244
4.1100962962962955,12.657180406212754,18.68472321784147,-2.2558900836320377
4.118092592592592,17.362962962959386,21.795370370368474,-1.4990740740744677
4.126088888888888,13.320338164251176,21.666135265700543,-2.6546859903382014
4.134085185185184,13.78099436392911,20.770897745571723,-2.098421900161072
4.142081481481481,14.241650563607047,19.875660225442907,-1.5421578099839428
4.150077777777777,14.702306763284982,18.98042270531409,-0.9858937198068134
4.158074074074073,15.162962962962917,18.085185185185274,-0.4296296296296842
4.166070370370369,15.623619162640853,17.189947665056454,0.1266344605474452
4.174066666666666,16.084275362318788,16.294710144927638,0.6828985507245746
4.182062962962962,16.544931561996723,15.39947262479882,1.2391626409017045
4.190059259259258,17.005587761674658,14.504235104670002,1.795426731078833
4.1980555555555545,17.466243961352593,13.608997584541186,2.3516908212559624
4.206051851851851,17.92690016103053,12.713760064412368,2.907954911433092
4.214048148148147,18.387556360708466,11.818522544283551,3.4642190016102212
4.222044444444443,7.861777777779764,-3.7528888888860212,10.551111111109813
4.23004074074074,0.2711481481468039,-3.3332222222214636,11.653296296296842
4.238037037037036,7.256269522534633,-7.251271753681449,8.812494422132962
4.246033333333332,6.919076305220935,-6.875542168674757,8.908835341365448
4.2540296296296285,6.581883087907237,-6.499812583668065,9.005176260597933
4.262025925925925,6.24468987059354,-6.124082998661374,9.101517179830418
4.270022222222221,5.907496653279843,-5.748353413654682,9.197858099062904
4.278018518518517,5.570303435966144,-5.372623828647989,9.294199018295387
4.286014814814814,5.233110218652447,-4.996894243641298,9.390539937527873
4.29401111111111,4.8959170013387485,-4.621164658634606,9.486880856760358
4.302007407407406,4.558723784025052,-4.245435073627914,9.583221775992843
4.3100037037037024,4.221530566711353,-3.8697054886212223,9.679562695225329
4.317999999999999,3.8843373493976556,-3.4939759036145306,9.775903614457814
4.325996296296296,4.30407407407459,4.852037037037295,8.052407407407712
4.333992592592592,3.083456790123463,4.245613168724282,7.298995884773668
4.3419888888888885,2.9501851851851915,4.183419753086422,7.1834938271605
4.349985185185185,2.81691358024692,4.1212263374485625,7.067991769547331
4.357981481481481,2.6836419753086482,4.059032921810703,6.952489711934162
4.365977777777777,2.550370370370377,3.9968395061728423,6.8369876543209935
4.373974074074074,2.4170987654321054,3.9346460905349825,6.721485596707825
4.38197037037037,2.283827160493834,3.872452674897122,6.605983539094656
4.389966666666666,2.150555555555562,3.8102592592592623,6.490481481481487
4.397962962962962,2.0172839506172906,3.7480658436214025,6.374979423868318
4.405959259259259,1.884012345679019,3.685872427983542,6.259477366255149
4.413955555555555,1.7507407407407474,3.6236790123456823,6.143975308641981
4.421951851851851,2.3435449735449816,8.53873015873011,5.564550264550183
4.4299481481481475,0.7356113102349559,5.816758263639979,5.660748705694925
4.437944444444444,0.8817801672640277,5.885543608124248,5.9100955794504
4.44594074074074,1.0279490242930995,5.954328952608517,6.159442453205876
4.453937037037036,1.1741178813221713,6.0231142970927865,6.408789326961351
4.461933333333333,1.320286738351243,6.091899641577055,6.658136200716826
4.469929629629629,1.466455595380315,6.160684986061325,6.907483074472302
4.477925925925925,1.6126244524093867,6.229470330545594,7.156829948227777
4.4859222222222215,1.7587933094384585,6.298255675029862,7.406176821983253
4.493918518518518,1.9049621664675302,6.367041019514132,7.6555236957387285
4.501914814814814,2.0511310234966023,6.435826363998401,7.904870569494204
4.50991111111111,2.197299880525674,6.50461170848267,8.15421744324968
4.517907407407407,2.343468737554746,6.573397052966939,8.403564317005156
4.525903703703703,3.4759259259257655,1.7685185185196408,11.189259259258522
4.533899999999999,3.151382978723397,2.075212765957465,12.785319148936173
4.541896296296295,3.210929866036241,1.9305988967691285,12.768305752561075
4.549892592592592,3.2704767533490857,1.785985027580792,12.751292356185976
4.557888888888888,3.33002364066193,1.6413711583924555,12.734278959810878
4.565885185185184,3.3895705279747745,1.496757289204119,12.71726556343578
4.5738814814814805,3.4491174152876187,1.3521434200157827,12.70025216706068
4.581877777777777,3.5086643026004634,1.2075295508274462,12.683238770685582
4.589874074074073,3.568211189913308,1.0629156816391097,12.666225374310484
4.597870370370369,3.627758077226152,0.9183018124507731,12.649211977935385
4.605866666666666,3.6873049645389964,0.7736879432624366,12.632198581560287
4.613862962962962,3.746851851851841,0.6290740740741001,12.615185185185188
4.621859259259258,3.8190946502057295,0.3949794238684868,12.494979423868486
4.6298555555555545,3.996790123456769,-0.582345679012229,11.517654320987772
4.637851851851851,3.5,-1.1954275262917267,11.197713763145863
4.645848148148147,3.5,-1.17568358481939,11.187841792409694
4.653844444444443,3.5,-1.1559396433470535,11.177969821673527
4.66184074074074,3.5,-1.1361957018747169,11.168097850937357
4.669837037037036,3.5,-1.1164517604023803,11.15822588020119
4.677833333333332,3.5,-1.0967078189300437,11.14835390946502
4.6858296296296285,3.5,-1.076963877457707,11.138481938728853
4.693825925925925,3.5,-1.0572199359853705,11.128609967992684
4.701822222222221,3.5,-1.0374759945130339,11.118737997256517
4.709818518518517,3.5,-1.0177320530406972,11.108866026520348
4.717814814814814,3.516296296296276,-0.902222222222343,11.002222222222343
4.72581111111111,3.218888888889015,1.824444444443941,9.094444444445074
4.733807407407406,2.730255144032915,2.252946502057601,7.862181069958857
4.741803703703702,2.765794238683121,2.3151399176954612,7.8177572016461
4.749799999999999,2.8013333333333263,2.377333333333321,7.773333333333342
4.757796296296295,2.8368724279835322,2.439526748971181,7.728909465020585
4.765792592592591,2.872411522633738,2.5017201646090412,7.6844855967078285
4.7737888888888875,2.9079506172839436,2.563913580246901,7.640061728395071
4.781785185185185,2.9434897119341534,2.626106995884768,7.5956378600823085
4.789781481481481,2.979028806584359,2.6883004115226283,7.5512139917695515
4.797777777777777,3.0145679012345648,2.750493827160488,7.506790123456795
4.8057740740740735,3.0501069958847706,2.812687242798348,7.462366255144038
4.81377037037037,3.0856460905349765,2.8748806584362083,7.41794238683128
4.821766666666666,1.9883333333333,2.0883333333333,8.2766666666666
4.829762962962962,3.140987654320982,1.2341563786008183,6.888806584362127
4.837759259259259,3.1894500561167174,1.2745417134305976,6.993808454919554
4.845755555555555,3.237912457912453,1.3149270482603772,7.098810325476981
4.853751851851851,3.286374859708188,1.3553123830901566,7.2038121960344075
4.8617481481481475,3.3348372615039237,1.3956977179199361,7.308814066591834
4.869744444444444,3.383299663299659,1.4360830527497155,7.41381593714926
4.87774074074074,3.4317620650953944,1.476468387579495,7.518817807706687
4.885737037037036,3.4802244668911295,1.5168537224092744,7.623819678264113
4.893733333333333,3.528686868686865,1.557239057239054,7.72882154882154
4.901729629629629,3.5771492704826002,1.5976243920688336,7.833823419378967
4.909725925925925,3.625611672278336,1.638009726898613,7.938825289936394
4.917722222222221,3.6740740740740714,1.6783950617283923,8.04382716049382
4.925718518518518,2.18740740740719,-0.20777777777769638,9.709629629630227
4.933714814814814,3.881364734299519,1.0186352657004807,8.255293880837339
4.94171111111111,3.855289855072466,1.044710144927534,8.472584541062782
4.949707407407407,3.829214975845413,1.070785024154587,8.689875201288226
4.957703703703703,3.8031400966183595,1.0968599033816402,8.907165861513668
4.965699999999999,3.7770652173913066,1.1229347826086935,9.124456521739113
4.973696296296295,3.7509903381642533,1.1490096618357466,9.341747181964555
4.981692592592592,3.7249154589372,1.1750845410628,9.559037842189998
4.989688888888888,3.698840579710147,1.201159420289853,9.776328502415442
4.997685185185184,3.672765700483094,1.227234299516906,9.993619162640885
5.0056814814814805,3.6466908212560405,1.2533091787439594,10.210909822866327
5.013677777777777,3.6206159420289876,1.2793840579710127,10.428200483091771
5.021674074074073,3.683703703703647,1.0488888888890595,10.683703703703646
5.029670370370369,4.261427983539111,0.6059341563785983,8.63560493827159
5.037666666666666,4.145925925925942,0.6237037037037011,8.742222222222207
5.045662962962962,4.0304238683127735,0.641473251028804,8.848839506172824
5.053659259259258,3.9149218106996053,0.6592427983539069,8.955456790123442
5.0616555555555545,3.7994197530864366,0.6770123456790097,9.062074074074058
5.069651851851851,3.683917695473268,0.6947818930041126,9.168691358024676
5.077648148148147,3.5684156378600993,0.7125514403292155,9.275308641975293
5.085644444444443,3.4529135802469306,0.7303209876543184,9.381925925925911
5.09364074074074,3.337411522633762,0.7480905349794212,9.488543209876529
5.101637037037036,3.2219094650205933,0.7658600823045241,9.595160493827144
5.109633333333332,3.1064074074074246,0.783629629629627,9.701777777777762
5.117629629629628,2.622222222223071,-1.025925925921824,8.9185185185205
5.125625925925925,4.7314197530861355,-1.6750617283949585,6.762592592592438
5.133622222222221,4.549463171036217,-1.1947565543070937,7.456853932584257
5.141618518518517,4.477586350395351,-1.329525593008717,7.537715355805231
5.1496148148148135,4.405709529754485,-1.4642946317103407,7.6185767790262044
5.15761111111111,4.333832709113619,-1.599063670411964,7.699438202247179
5.165607407407406,4.2619558884727535,-1.7338327091135874,7.780299625468153
5.173603703703702,4.1900790678318875,-1.8686017478152108,7.861161048689127
5.181599999999999,4.118202247191022,-2.003370786516834,7.942022471910101
5.189596296296295,4.046325426550156,-2.138139825218458,8.022883895131075
5.197592592592591,3.97444860590929,-2.272908863920081,8.103745318352049
5.2055888888888875,3.902571785268424,-2.407677902621704,8.184606741573024
5.213585185185184,3.8306949646275585,-2.5424469413233277,8.265468164793997
5.22158148148148,5.267777777777722,-4.009629629629704,3.49370370370346
5.229577777777776,4.097972709551662,-2.9035477582845908,7.485302144249552
5.2375740740740735,4.069915529564654,-2.952647823261854,7.2818875893437465
5.24557037037037,4.04185834957765,-3.001747888239112,7.078473034437963
5.253566666666666,4.0138011695906455,-3.05084795321637,6.875058479532181
5.261562962962962,3.985743989603641,-3.099948018193628,6.671643924626398
5.269559259259259,3.9576868096166367,-3.149048083170886,6.468229369720616
5.277555555555555,3.929629629629632,-3.1981481481481437,6.264814814814833
5.285551851851851,3.9015724496426274,-3.2472482131254017,6.06140025990905
5.2935481481481474,3.873515269655623,-3.2963482781026596,5.8579857050032675
5.301544444444444,3.8454580896686186,-3.3454483430799176,5.6545711500974845
5.30954074074074,3.817400909681614,-3.3945484080571755,5.451156595191701
5.317537037037036,3.7893437296946098,-3.4436484730344334,5.247742040285919
5.325533333333333,3.761286549707605,-3.4927485380116914,5.044327485380136
5.333529629629629,3.7332293697206005,-3.5418486029889493,4.840912930474353
5.341525925925925,3.705172189733596,-3.5909486679662073,4.637498375568571
5.349522222222221,3.6373202614379383,-5.453725490196053,4.729869281045832
5.357518518518518,3.3080610021786865,-5.735947712418269,3.8361655773421486
5.365514814814814,2.997085953878413,-6.0456533892382005,2.997085953878413
5.37351111111111,2.9518238993710755,-6.7547589098531535,2.9518238993710755
5.3815074074074065,2.906561844863738,-7.463864430468107,2.906561844863738
5.389503703703703,2.8612997903564006,-8.172969951083061,2.8612997903564006
5.397499999999999,2.816037735849063,-8.882075471698016,2.816037735849063
5.405496296296295,2.7707756813417257,-9.59118099231297,2.7707756813417257
5.413492592592592,2.7255136268343882,-10.300286512927922,2.7255136268343882
5.421488888888888,2.8766666666667775,-10.034444444445073,4.946666666666444
5.429485185185184,0.8965857811834845,-10.994878671775227,4.688050234142196
5.4374814814814805,0.8782034908471711,-10.967305236270757,4.623712217965099
5.445477777777777,0.8598212005108578,-10.939731800766287,4.559374201788002
5.453474074074073,0.8414389101745444,-10.912158365261817,4.495036185610906
5.461470370370369,0.8230566198382311,-10.884584929757347,4.430698169433809
5.469466666666666,0.8046743295019178,-10.857011494252877,4.3663601532567125
5.477462962962962,0.7862920391656044,-10.829438058748407,4.302022137079615
5.485459259259258,0.7679097488292911,-10.801864623243937,4.237684120902519
5.493455555555554,0.7495274584929777,-10.774291187739466,4.173346104725423
5.501451851851851,0.7311451681566644,-10.746717752234996,4.109008088548325
5.509448148148147,0.712762877820351,-10.719144316730526,4.044670072371229
5.517444444444443,-0.8999999999988453,-8.866666666668205,5.5888888888863235
5.5254407407407395,-1.4,-9.244872088583422,5.838300878197795
5.533437037037036,-1.4,-9.310820924016793,5.747621229476909
5.541433333333332,-1.4,-9.376769759450164,5.656941580756024
5.549429629629628,-1.4,-9.442718594883535,5.566261932035139
5.557425925925925,-1.4,-9.508667430316907,5.475582283314254
5.565422222222221,-1.4,-9.574616265750278,5.384902634593368
5.573418518518517,-1.4,-9.640565101183649,5.294222985872483
5.5814148148148135,-1.4,-9.70651393661702,5.203543337151598
5.58941111111111,-1.4,-9.77246277205039,5.112863688430712
5.597407407407406,-1.4,-9.838411607483762,5.022184039709828
5.605403703703702,-1.4,-9.904360442917133,4.931504390988942
5.613399999999999,-1.4,-9.970309278350504,4.840824742268056
5.621396296296295,-4.253456790123509,-6.616358024691228,9.774197530864562
5.629392592592591,-4.192512943050586,-8.392512943050587,6.894010354440469
5.6373888888888875,-4.149522102747918,-8.349522102747917,6.859617682198334
5.645385185185184,-4.10653126244525,-8.30653126244525,6.8252250099562
5.65338148148148,-4.063540422142581,-8.263540422142581,6.790832337714066
5.661377777777776,-4.020549581839913,-8.220549581839913,6.75643966547193
5.669374074074073,-3.977558741537245,-8.177558741537245,6.722046993229796
5.677370370370369,-3.9345679012345767,-8.134567901234577,6.6876543209876615
5.685366666666665,-3.8915770609319087,-8.09157706093191,6.653261648745527
5.693362962962962,-3.848586220629236,-8.048586220629236,6.618868976503388
5.701359259259259,-3.8055953803265674,-8.005595380326568,6.584476304261254
5.709355555555555,-3.7626045400238994,-7.962604540023899,6.55008363201912
5.717351851851851,-3.719613699721231,-7.919613699721231,6.515690959776984
5.725348148148147,-3.9626666666665935,-9.241777777777727,6.737333333333407
5.733344444444444,-5.401999999999827,-10.201333333333217,5.298000000000173
5.74134074074074,-6.1219784341303285,-10.5,5.6835161744022535
5.749337037037036,-6.162466010314107,-10.5,5.65315049226442
5.7573333333333325,-6.202953586497886,-10.5,5.622784810126586
5.765329629629629,-6.243441162681664,-10.5,5.592419127988752
5.773325925925925,-6.283928738865443,-10.5,5.562053445850918
5.781322222222221,-6.3244163150492225,-10.5,5.531687763713084
5.789318518518518,-6.364903891233001,-10.5,5.50132208157525
5.797314814814814,-6.40539146741678,-10.5,5.470956399437416
5.80531111111111,-6.445879043600558,-10.5,5.440590717299582
5.8133074074074065,-6.486366619784337,-10.5,5.410225035161747
5.821303703703703,-5.72148148148117,-9.415185185185146,4.581111111111927
5.829299999999999,-6.756734693877557,-9.113469387755114,3.937857142857137
5.837296296296295,-6.691458805744526,-8.982917611489052,3.994973544973539
5.845292592592592,-6.626182917611495,-8.85236583522299,4.052089947089941
5.853288888888888,-6.560907029478464,-8.721814058956928,4.109206349206343
5.861285185185184,-6.4956311413454335,-8.591262282690867,4.166322751322745
5.86928148148148,-6.430355253212403,-8.460710506424805,4.2234391534391476
5.877277777777777,-6.365079365079372,-8.330158730158743,4.28055555555555
5.885274074074073,-6.299803476946341,-8.199606953892681,4.337671957671952
5.893270370370369,-6.23452758881331,-8.06905517762662,4.394788359788354
5.9012666666666656,-6.169251700680279,-7.938503401360558,4.451904761904755
5.909262962962962,-6.103975812547248,-7.807951625094496,4.509021164021157
5.917259259259258,-6.038699924414217,-7.6773998488284345,4.566137566137559
5.925255555555554,-6.1,-6.3,3.886111111111463
5.933251851851851,-5.833821548821537,-8.337188552188573,5.056515151515166
5.941248148148147,-5.897428451178439,-8.21906144781147,4.9747348484848635
5.949244444444443,-5.961035353535341,-8.100934343434366,4.89295454545456
5.9572407407407395,-6.0246422558922434,-7.982807239057262,4.811174242424258
5.965237037037036,-6.088249158249146,-7.864680134680158,4.7293939393939555
5.973233333333332,-6.151856060606048,-7.746553030303054,4.647613636363652
5.981229629629628,-6.21546296296295,-7.628425925925949,4.56583333333335
5.989225925925925,-6.279069865319852,-7.5102988215488455,4.484053030303047
5.997222222222221,-6.342676767676754,-7.392171717171742,4.402272727272744
6.005218518518517,-6.406283670033657,-7.274044612794637,4.320492424242442
6.0132148148148135,-6.469890572390559,-7.1559175084175335,4.238712121212139
6.02121111111111,-7.15777777777803,-6.6155555555560595,3.2788888888890146
6.029207407407406,-6.81293209876543,-5.9,3.0676697530864256
6.037203703703702,-6.829591049382714,-5.9,3.026022376543216
6.045199999999999,-6.846249999999998,-5.9,2.984375000000006
6.053196296296295,-6.862908950617282,-5.9,2.942727623456796
6.061192592592591,-6.879567901234565,-5.9,2.9010802469135863
6.069188888888887,-6.896226851851849,-5.9,2.8594328703703766
6.077185185185184,-6.912885802469133,-5.9,2.817785493827167
6.08518148148148,-6.929544753086417,-5.9,2.776138117283957
6.093177777777776,-6.946203703703701,-5.9,2.7344907407407475
6.1011740740740725,-6.962862654320985,-5.9,2.692843364197538
6.109170370370369,-6.9795216049382685,-5.9,2.651195987654328
6.117166666666665,-6.9961805555555525,-5.9,2.6095486111111184
6.125162962962961,-7.577530864197426,-6.946913580246782,2.855061728394851
6.133159259259258,-7.867979797979758,-6.48407407407422,3.323973063973011
6.141155555555555,-8.09543859649123,-5.404561403508771,3.7
6.149151851851851,-8.063874269005849,-5.43612573099415,3.7
6.157148148148147,-8.03230994152047,-5.46769005847953,3.7
6.165144444444444,-8.00074561403509,-5.49925438596491,3.7
6.17314074074074,-7.96918128654971,-5.53081871345029,3.7
6.181137037037036,-7.93761695906433,-5.56238304093567,3.7
6.1891333333333325,-7.906052631578951,-5.593947368421049,3.7
6.197129629629629,-7.874488304093571,-5.625511695906429,3.7
6.205125925925925,-7.842923976608191,-5.657076023391809,3.7
6.213122222222221,-7.811359649122811,-5.688640350877189,3.7
6.221118518518518,-7.188148148148247,-5.3,4.276296296296493
6.229114814814814,-6.986849860613304,-5.313150139386696,3.880274790919955
6.23711111111111,-6.9696535244922355,-5.330346475507764,3.8544802867383536
6.245107407407406,-6.952457188371168,-5.3475428116288315,3.828685782556753
6.253103703703703,-6.935260852250101,-5.364739147749899,3.802891278375152
6.261099999999999,-6.918064516129034,-5.381935483870966,3.7770967741935513
6.269096296296295,-6.900868180007967,-5.399131819992033,3.75130227001195
6.277092592592592,-6.8836718438869,-5.4163281561131,3.7255077658303493
6.285088888888888,-6.866475507765832,-5.4335244922341674,3.6997132616487485
6.293085185185184,-6.849279171644765,-5.450720828355235,3.6739187574671477
6.30108148148148,-6.832082835523698,-5.467917164476302,3.6481242532855465
6.309077777777777,-6.81488649940263,-5.48511350059737,3.6223297491039457
6.317074074074073,-6.907407407407323,-5.553703703703661,3.5462962962963385
6.325070370370369,-6.702156635802468,-6.0,3.5
6.3330666666666655,-6.71048611111111,-6.0,3.5
6.341062962962962,-6.718815586419752,-6.0,3.5
6.349059259259258,-6.727145061728394,-6.0,3.5
6.357055555555554,-6.735474537037036,-6.0,3.5
6.365051851851851,-6.743804012345677,-6.0,3.5
6.373048148148147,-6.752133487654319,-6.0,3.5
6.381044444444443,-6.760462962962961,-6.0,3.5
6.3890407407407395,-6.768792438271603,-6.0,3.5
6.397037037037036,-6.777121913580245,-6.0,3.5
6.405033333333332,-6.785451388888887,-6.0,3.5
6.413029629629628,-6.7937808641975295,-6.0,3.5
6.421025925925925,-6.7922222222227,-6.102592592592433,3.3974074074075666
6.429022222222221,-6.7,-6.2,3.410074074074069
6.437018518518517,-6.7,-6.2,3.4367283950617233
6.445014814814813,-6.7,-6.2,3.4633827160493778
6.45301111111111,-6.7,-6.2,3.490037037037032
6.461007407407406,-6.7,-6.2,3.516691358024686
6.469003703703702,-6.7,-6.2,3.5433456790123405
6.4769999999999985,-6.7,-6.2,3.569999999999995
6.484996296296295,-6.7,-6.2,3.5966543209876494
6.492992592592591,-6.7,-6.2,3.623308641975304
6.500988888888887,-6.7,-6.2,3.6499629629629577
6.508985185185184,-6.7,-6.2,3.676617283950612
6.51698148148148,-6.7,-6.249074074074001,3.7981481481480026
6.524977777777776,-6.7,-6.230222222222235,3.8302222222222344
6.5329740740740725,-6.7,-6.1,3.6045908699397042
6.540970370370369,-6.7,-6.1,3.6231869078380674
6.548966666666665,-6.7,-6.1,3.641782945736431
6.556962962962961,-6.7,-6.1,3.660378983634794
6.564959259259258,-6.7,-6.1,3.678975021533158
6.572955555555554,-6.7,-6.1,3.697571059431521
6.58095185185185,-6.7,-6.1,3.716167097329884
6.5889481481481464,-6.7,-6.1,3.7347631352282478
6.596944444444444,-6.7,-6.1,3.753359173126613
6.60494074074074,-6.7,-6.1,3.7719552110249763
6.612937037037036,-6.7,-6.1,3.79055124892334
6.6209333333333324,-6.753333333333377,-6.1,3.6066666666667557
6.628929629629629,-6.705135030864197,-6.0,3.6
6.636925925925925,-6.713464506172839,-6.0,3.6
6.644922222222221,-6.721793981481481,-6.0,3.6
6.652918518518518,-6.730123456790123,-6.0,3.6
6.660914814814814,-6.738452932098765,-6.0,3.6
6.66891111111111,-6.746782407407407,-6.0,3.6
6.676907407407406,-6.755111882716049,-6.0,3.6
6.684903703703703,-6.76344135802469,-6.0,3.6
6.692899999999999,-6.771770833333332,-6.0,3.6
6.700896296296295,-6.780100308641974,-6.0,3.6
6.7088925925925915,-6.788429783950616,-6.0,3.6
6.716888888888888,-6.796759259259258,-6.0,3.6
6.724885185185184,-6.751913580246934,-6.2,3.7480864197530663
6.73288148148148,-6.698950617283953,-6.097901234567904,3.701049382716048
6.740877777777777,-6.689431216931219,-6.078862433862437,3.7105687830687817
6.748874074074073,-6.6799118165784845,-6.059823633156969,3.7200881834215154
6.756870370370369,-6.670392416225751,-6.040784832451502,3.729607583774249
6.7648666666666655,-6.660873015873017,-6.0217460317460345,3.7391269841269827
6.772862962962962,-6.651353615520284,-6.002707231040567,3.7486463844797164
6.780859259259258,-6.64183421516755,-5.9836684303351,3.75816578483245
6.788855555555554,-6.632314814814816,-5.964629629629632,3.767685185185184
6.796851851851851,-6.622795414462082,-5.945590828924165,3.7772045855379175
6.804848148148147,-6.613276014109348,-5.926552028218698,3.786723985890651
6.812844444444443,-6.603756613756615,-5.90751322751323,3.796243386243385
6.820840740740739,-6.784074074073961,-5.484074074073961,3.7681481481479215
6.828837037037036,-7.487447232178418,-6.387447232178419,4.3937236160892095
6.836833333333332,-7.470250896057351,-6.370250896057351,4.385125448028676
6.844829629629628,-7.453054559936284,-6.353054559936284,4.376527279968142
6.8528259259259245,-7.435858223815217,-6.335858223815217,4.367929111907609
6.860822222222221,-7.4186618876941495,-6.31866188769415,4.359330943847075
6.868818518518517,-7.401465551573082,-6.301465551573083,4.3507327757865415
6.876814814814813,-7.384269215452015,-6.2842692154520154,4.342134607726008
6.88481111111111,-7.367072879330948,-6.267072879330948,4.333536439665474
6.892807407407406,-7.349876543209881,-6.249876543209881,4.32493827160494
6.900803703703702,-7.3326802070888135,-6.232680207088814,4.316340103544406
6.9087999999999985,-7.315483870967745,-6.215483870967746,4.307741935483873
6.916796296296295,-7.276111111111167,-6.184074074074112,4.284074074074112
6.924792592592591,-7.036222222222274,-6.024148148148183,4.1241481481481825
6.932788888888887,-6.709047619047679,-5.903015873015893,4.1
6.940785185185184,-6.3940185185185205,-5.817944444444438,3.8059814814814796
6.94878148148148,-6.384023148148151,-5.84793055555555,3.8159768518518495
6.956777777777776,-6.37402777777778,-5.8779166666666605,3.8259722222222203
6.9647740740740725,-6.36403240740741,-5.907902777777772,3.8359675925925902
6.972770370370369,-6.354037037037039,-5.9378888888888826,3.845962962962961
6.980766666666665,-6.344041666666668,-5.967874999999993,3.855958333333331
6.988762962962961,-6.3340462962962985,-5.997861111111105,3.8659537037037017
6.996759259259258,-6.324050925925928,-6.027847222222215,3.8759490740740716
7.004755555555554,-6.314055555555558,-6.057833333333327,3.8859444444444424
7.01275185185185,-6.304060185185187,-6.087819444444437,3.8959398148148123
7.020748148148146,-6.299259259258633,-6.54888888888795,4.274074074073291
7.028744444444443,-7.387646356033456,-7.7752927120669115,4.624707287933088
7.036740740740739,-7.370450019912389,-7.740900039824777,4.659099960175222
7.044737037037035,-7.353253683791322,-7.706507367582643,4.693492632417357
7.052733333333332,-7.336057347670253,-7.672114695340504,4.7278853046594955
7.060729629629629,-7.318861011549185,-7.63772202309837,4.76227797690163
7.068725925925925,-7.301664675428118,-7.603329350856235,4.796670649143764
7.076722222222221,-7.28446833930705,-7.568936678614101,4.8310633213859
7.0847185185185175,-7.267272003185983,-7.534544006371966,4.865455993628034
7.092714814814814,-7.250075667064916,-7.500151334129832,4.899848665870168
7.10071111111111,-7.232879330943849,-7.465758661887698,4.934241338112303
7.108707407407406,-7.215682994822782,-7.431365989645563,4.968634010354437
7.116703703703703,-7.1648148148148625,-7.294444444444587,4.929629629629725
7.124699999999999,-7.001827956989246,-7.4036559139784925,4.407311827956984
7.132696296296295,-7.010426125049779,-7.42085225009956,4.441704500199118
7.1406925925925915,-7.019024293110313,-7.438048586220627,4.476097172441253
7.148688888888888,-7.027622461170846,-7.455244922341694,4.510489844683388
7.156685185185184,-7.03622062923138,-7.472441258462761,4.544882516925522
7.16468148148148,-7.044818797291914,-7.4896375945838285,4.579275189167657
7.172677777777777,-7.053416965352447,-7.506833930704896,4.613667861409791
7.180674074074073,-7.062015133412981,-7.524030266825963,4.648060533651925
7.188670370370369,-7.070613301473514,-7.54122660294703,4.68245320589406
7.196666666666665,-7.079211469534048,-7.558422939068097,4.716845878136194
7.204662962962962,-7.087809637594582,-7.5756192751891644,4.7512385503783285
7.212659259259258,-7.096407805655115,-7.592815611310232,4.785631222620464
7.220655555555554,-5.187142857143051,-8.379682539683015,5.4
7.2286518518518506,-4.094493827160499,-6.133037037037004,5.259621399176994
7.236648148148147,-4.067839506172844,-6.29296296296293,5.064156378600862
7.244644444444443,-4.04118518518519,-6.4528888888888565,4.868691358024731
7.252640740740739,-4.014530864197536,-6.612814814814782,4.673226337448599
7.260637037037036,-3.9878765432098815,-6.7727407407407085,4.477761316872468
7.268633333333332,-3.9612222222222275,-6.932666666666634,4.2822962962963365
7.276629629629628,-3.934567901234573,-7.09259259259256,4.086831275720205
7.2846259259259245,-3.9079135802469187,-7.252518518518485,3.891366255144073
7.292622222222221,-3.8812592592592647,-7.412444444444412,3.6959012345679416
7.300618518518517,-3.8546049382716103,-7.572370370370337,3.50043621399181
7.308614814814813,-3.827950617283956,-7.732296296296264,3.3049711934156782
7.31661111111111,-3.8012962962963015,-7.892222222222189,3.109506172839547
7.324607407407406,-2.182222222221704,-7.294444444445739,3.842962962962272
7.332603703703702,-2.3083557183557164,-6.991644281644284,4.025067155067149
7.3405999999999985,-2.317142857142855,-6.982857142857145,4.051428571428565
7.348596296296295,-2.325929995929994,-6.974070004070006,4.0777899877899815
7.356592592592591,-2.3347171347171325,-6.965282865282868,4.1041514041513985
7.364588888888887,-2.3435042735042715,-6.956495726495729,4.1305128205128145
7.372585185185184,-2.35229141229141,-6.94770858770859,4.156874236874231
7.38058148148148,-2.361078551078549,-6.938921448921452,4.183235653235647
7.388577777777776,-2.3698656898656876,-6.930134310134313,4.209597069597063
7.396574074074072,-2.3786528286528266,-6.921347171347174,4.235958485958479
7.404570370370369,-2.387439967439965,-6.912560032560035,4.262319902319896
7.412566666666665,-2.396227106227104,-6.903772893772897,4.288681318681312
7.420562962962961,-2.085432098765367,-7.813580246913417,4.569876543209517
7.4285592592592575,-2.90885942760942,-6.294684343434348,7.59114057239058
7.436555555555554,-2.9542929292929214,-6.267424242424247,7.545707070707078
7.44455185185185,-2.999726430976423,-6.240164141414146,7.500273569023577
7.452548148148146,-3.045159932659925,-6.212904040404045,7.454840067340075
7.460544444444443,-3.0905934343434263,-6.185643939393944,7.409406565656574
7.468540740740739,-3.1360269360269277,-6.158383838383843,7.363973063973072
7.476537037037035,-3.181460437710429,-6.131123737373742,7.31853956228957
7.4845333333333315,-3.2268939393939307,-6.103863636363641,7.273106060606069
7.492529629629628,-3.272327441077432,-6.076603535353541,7.227672558922567
7.500525925925924,-3.317760942760934,-6.04934343434344,7.182239057239066
7.508522222222221,-3.3631944444444404,-6.0220833333333355,7.136805555555559
7.5165185185185175,-3.475925925925865,-5.54444444444481,6.64444444444481
7.524514814814814,-2.904514814814814,-5.881940740740744,7.890970370370372
7.53251111111111,-2.9125111111111104,-5.8499555555555585,7.874977777777779
7.540507407407406,-2.9205074074074067,-5.817970370370373,7.858985185185187
7.548503703703703,-2.928503703703703,-5.785985185185189,7.842992592592594
7.556499999999999,-2.936499999999999,-5.754000000000004,7.827000000000002
7.564496296296295,-2.9444962962962955,-5.722014814814819,7.811007407407409
7.572492592592591,-2.9524925925925913,-5.690029629629634,7.7950148148148175
7.580488888888888,-2.9604888888888876,-5.658044444444449,7.779022222222225
7.588485185185184,-2.968485185185184,-5.6260592592592635,7.763029629629632
7.59648148148148,-2.97648148148148,-5.594074074074079,7.74703703703704
7.604477777777777,-2.9844777777777765,-5.562088888888894,7.731044444444447
7.612474074074073,-2.9924740740740727,-5.530103703703709,7.715051851851855
7.620470370370369,-3.0,-5.42944444444464,7.464814814815469
7.628466666666665,-2.690112359550569,-4.006591760299621,7.404943820224716
7.636462962962962,-2.63620474406992,-4.042530170620053,7.43189762796504
7.644459259259258,-2.5822971285892713,-4.078468580940486,7.458851435705364
7.652455555555554,-2.5283895131086225,-4.1144069912609185,7.485805243445689
7.6604518518518505,-2.4744818976279737,-4.150345401581351,7.512759051186014
7.668448148148147,-2.420574282147325,-4.186283811901784,7.539712858926338
7.676444444444443,-2.366666666666676,-4.222222222222216,7.566666666666662
7.684440740740739,-2.312759051186027,-4.258160632542649,7.593620474406987
7.692437037037036,-2.2588514357053784,-4.294099042863081,7.620574282147311
7.700433333333332,-2.2049438202247296,-4.330037453183514,7.647528089887635
7.708429629629628,-2.1510362047440807,-4.365975863503946,7.67448189762796
7.7164259259259245,-2.078703703703784,-4.527777777777297,7.614814814815135
7.724422222222221,-1.6045878136200675,-3.8076463560334455,8.796941457586623
7.732418518518517,-1.6303823178016683,-3.8506371963361135,8.779745121465556
7.740414814814813,-1.6561768219832693,-3.893628036638782,8.762548785344487
7.74841111111111,-1.68197132616487,-3.93661887694145,8.74535244922342
7.756407407407406,-1.7077658303464711,-3.9796097172441183,8.728156113102353
7.764403703703702,-1.733560334528072,-4.022600557546786,8.710959776981285
7.772399999999998,-1.759354838709673,-4.065591397849454,8.693763440860218
7.780396296296295,-1.7851493428912737,-4.108582238152123,8.676567104739151
7.788392592592591,-1.8109438470728745,-4.151573078454791,8.659370768618084
7.796388888888887,-1.8367383512544755,-4.194563918757459,8.642174432497017
7.8043851851851835,-1.8625328554360765,-4.237554759060127,8.62497809637595
7.81238148148148,-1.8883273596176773,-4.280545599362795,8.607781760254882
7.820377777777776,-0.6466666666687746,-3.984444444446377,8.813333333332807
7.828374074074072,-1.6422142572680432,-3.982664277180413,8.817335722819587
7.836370370370369,-1.5562325766627068,-3.9568697729988123,8.843130227001188
7.844366666666665,-1.4702508960573706,-3.931075268817211,8.868924731182789
7.852362962962961,-1.3842692154520342,-3.9052807646356102,8.89471923536439
7.8603592592592575,-1.2982875348466978,-3.8794862604540095,8.92051373954599
7.868355555555554,-1.2123058542413614,-3.8536917562724087,8.946308243727591
7.87635185185185,-1.126324173636025,-3.8278972520908074,8.972102747909192
7.884348148148146,-1.0403424930306886,-3.8021027479092067,8.997897252090793
7.892344444444443,-0.9543608124253523,-3.776308243727606,9.023691756272394
7.900340740740739,-0.868379131820016,-3.750513739546005,9.049486260453994
7.908337037037035,-0.7823974512146796,-3.724719235364404,9.075280764635595
7.9163333333333314,-0.7499999999996669,-3.849999999999001,9.066666666666888
7.924329629629628,-1.0993209876569514,-2.8761728395053074,9.411358024691491
7.932325925925924,-1.0931334509112318,-2.2240329218106893,9.089700176366847
7.94032222222222,-1.0804409171075868,-2.2684567901234463,9.07066137566138
7.948318518518517,-1.067748383303942,-2.312880658436203,9.051622574955912
7.956314814814813,-1.055055849500297,-2.35730452674896,9.032583774250446
7.96431111111111,-1.042363315696651,-2.4017283950617223,9.013544973544976
7.972307407407406,-1.029670781893006,-2.446152263374479,8.99450617283951
7.980303703703703,-1.0169782480893612,-2.490576131687236,8.975467372134041
7.988299999999999,-1.0042857142857162,-2.534999999999993,8.956428571428575
7.996296296296295,-0.9915931804820715,-2.57942386831275,8.937389770723108
8.004292592592591,-0.9789006466784266,-2.623847736625507,8.91835097001764
8.012288888888888,-0.9662081128747817,-2.6682716049382638,8.899312169312173
8.020285185185184,-0.9535155790711369,-2.712695473251021,8.880273368606705
8.02828148148148,-0.940823045267492,-2.757119341563778,8.861234567901239
8.036277777777777,-0.9281305114638472,-2.801543209876535,8.842195767195772
8.044274074074073,-0.9154379776602023,-2.845967078189292,8.823156966490304
8.052270370370369,-0.9027454438565574,-2.8903909465020488,8.804118165784837
8.060266666666665,-2.737999999999977,-2.5366666666667057,9.149333333333365
8.068262962962962,-2.9778888888888275,-2.1368518518519544,8.829481481481563
8.076259259259258,-3.0,-2.080380380380386,8.790190190190193
8.084255555555554,-3.0,-2.0587687687687746,8.779384384384388
8.09225185185185,-3.0,-2.037157157157163,8.768578578578582
8.100248148148147,-3.0,-2.0155455455455513,8.757772772772777
8.108244444444443,-3.0,-1.9939339339339397,8.74696696696697
8.11624074074074,-3.0,-1.972322322322328,8.736161161161164
8.124237037037036,-3.0,-1.9507107107107164,8.725355355355358
8.132233333333332,-3.0,-1.9290990990991048,8.714549549549552
8.140229629629628,-3.0,-1.9074874874874932,8.703743743743747
8.148225925925924,-2.190370370369947,-2.709629629630053,9.377407407407514
8.15622222222222,-2.4676616915422915,-2.313764510779444,9.31077943615257
8.164218518518517,-2.431857379767831,-2.2182863460475484,9.322714206744058
8.172214814814813,-2.39605306799337,-2.1228081813156527,9.334648977335544
8.18021111111111,-2.360248756218909,-2.027330016583757,9.346583747927031
8.188207407407406,-2.324444444444448,-1.9318518518518615,9.358518518518517
8.196203703703702,-2.2886401326699874,-1.8363736871199658,9.370453289110005
8.204199999999998,-2.2528358208955264,-1.7408955223880704,9.382388059701492
8.212196296296295,-2.2170315091210657,-1.6454173576561748,9.394322830292978
8.220192592592591,-1.3229629629635498,-2.9,9.359629629629557
8.228188888888887,0.09851435705369413,-2.4029712858926118,9.199363295880154
8.236185185185183,0.035622138992937175,-2.5287557220141257,9.172409488139829
8.24418148148148,-0.02727007906781978,-2.6545401581356396,9.145455680399506
8.252177777777776,-0.09016229712857673,-2.7803245942571535,9.11850187265918
8.260174074074072,-0.1530545151893337,-2.9061090303786674,9.091548064918857
8.268170370370369,-0.21594673325009064,-3.0318934665001813,9.064594257178532
8.276166666666665,-0.27883895131084757,-3.1576779026216952,9.037640449438207
8.284162962962961,-0.3417311693716045,-3.283462338743209,9.010686641697884
8.292159259259257,-0.4046233874323616,-3.409246774864723,8.983732833957559
8.300155555555554,-0.46751560549311855,-3.535031210986237,8.956779026217236
8.30815185185185,-0.5304078235538755,-3.660815647107751,8.92982521847691
8.316148148148146,-0.5933000416146325,-3.786600083229265,8.902871410736587
8.324144444444443,-1.3516666666648118,-2.9183333333367782,8.90833333333201
8.332140740740739,-3.1089547325103624,0.48166255144041425,10.224946502057643
8.340137037037035,-2.860181069958922,0.1973497942387683,10.127213991769578
8.348133333333331,-2.611407407407482,-0.08696296296287764,10.029481481481511
8.356129629629628,-2.362633744856042,-0.3712757201645236,9.931748971193445
8.364125925925924,-2.1138600823046017,-0.6555884773661695,9.83401646090538
8.37212222222222,-1.8650864197531616,-0.9399012345678155,9.736283950617313
8.380118518518517,-1.6163127572017215,-1.2242139917694614,9.638551440329248
8.388114814814813,-1.3675390946502812,-1.5085267489711074,9.540818930041182
8.396111111111109,-1.118765432098841,-1.7928395061727531,9.443086419753115
8.404107407407405,-0.8699917695474011,-2.0771522633743995,9.34535390946505
8.412103703703702,-0.6212181069959608,-2.361465020576045,9.247621399176984
8.420099999999998,0.23230769230784953,-3.4676923076921504,8.983076923076963
8.428096296296294,-0.25977207977192535,-3.959772079771925,8.860056980057019
8.43609259259259,-0.03109756097565615,-4.033175248419129,8.99234417344174
8.444088888888887,0.23219512195117017,-4.1599457994579705,8.963089430894314
8.452085185185183,0.4954878048779966,-4.286716350496813,8.93383468834689
8.46008148148148,0.7587804878048229,-4.413486901535656,8.904579945799464
8.468077777777776,1.022073170731649,-4.540257452574497,8.87532520325204
8.476074074074072,1.2853658536584756,-4.66702800361334,8.846070460704613
8.484070370370368,1.5486585365853018,-4.793798554652183,8.816815718157189
8.492066666666664,1.8119512195121281,-4.920569105691024,8.787560975609763
8.50006296296296,2.0752439024389546,-5.047339656729867,8.758306233062338
8.508059259259257,2.3385365853657807,-5.17411020776871,8.729051490514912
8.516055555555553,2.5863636363642,-5.289898989899407,8.703535353535207
8.52405185185185,0.6236363636367945,-3.836026936027255,9.212390572390461
8.532048148148146,-0.7951851851853611,-3.195185185185361,9.373086419752852
8.540044444444442,-0.7,-3.1158302122347026,9.484169787765298
8.548040740740738,-0.7,-3.133799417394919,9.466200582605081
8.556037037037035,-0.7,-3.151768622555135,9.448231377444865
8.564033333333331,-0.7,-3.1697378277153514,9.43026217228465
8.572029629629627,-0.7,-3.1877070328755677,9.412292967124433
8.580025925925924,-0.7,-3.205676238035784,9.394323761964216
8.58802222222222,-0.7,-3.223645443196,9.376354556804001
8.596018518518516,-0.7,-3.241614648356216,9.358385351643784
8.604014814814812,-0.7,-3.2595838535164328,9.340416146483568
8.612011111111109,-0.7,-3.2775530586766486,9.322446941323351
8.620007407407405,-0.7,-3.295522263836865,9.304477736163136
8.628003703703701,-0.23325102880664303,-2.7337448559667847,9.366502057613285
8.636,0.20000000000000004,-3.5,9.1
