gyro_time_list,gyro_x_list,gyro_y_list,gyro_z_list
0.0,-0.1,0.0,0.1
0.007999306518723994,-0.2,0.0,0.1
0.015998613037447987,-0.2,0.0,0.1
0.023997919556171983,-0.2,0.0,0.1
0.031997226074895975,-0.2,0.0,0.1
0.03999653259361997,-0.2,0.0,0.1
0.047995839112343966,-0.2,0.0,0.1
0.05599514563106796,-0.2,0.0,0.1
0.06399445214979195,-0.2,0.0,0.1
0.07199375866851594,-0.2,0.0,0.1
0.07999306518723993,-0.2,0.0,0.1
0.08799237170596393,-0.2,0.0,0.1
0.09599167822468793,-0.2,0.0,0.1
0.10399098474341192,-0.2,0.0,0.1
0.11199029126213592,-0.2,0.0,0.1
0.11998959778085991,-0.2,0.0,0.1
0.1279889042995839,-0.2,0.0,0.1
0.1359882108183079,-0.2,0.0,0.1
0.14398751733703188,-0.10124826629681052,0.0,0.1987517337031895
0.15198682385575588,0.0,0.004457946053366989,0.1
0.15998613037447987,0.0,0.016397209514149066,0.1
0.16798543689320386,0.0,0.028336472974931144,0.1
0.17598474341192785,0.0,0.04027573643571322,0.1
0.18398404993065184,0.0,0.0522149998964953,0.1
0.19198335644937586,0.0,0.06415426335727742,0.1
0.19998266296809986,0.0,0.0760935268180595,0.1
0.20798196948682385,0.0,0.08803279027884157,0.1
0.21598127600554784,0.0,0.09997205373962366,0.1
0.22398058252427183,0.0,0.0,0.0
0.23197988904299582,0.0,0.0,0.0
0.23997919556171982,0.0,0.0,0.0
0.2479785020804438,0.0,0.0,0.0
0.2559778085991678,0.0,0.0,0.0
0.2639771151178918,0.0,0.0,0.0
0.2719764216366158,0.0,0.0,0.0
0.2799757281553398,0.0,0.0,0.0
0.28797503467406377,0.0,0.0,0.0
0.29597434119278776,0.0,0.0,0.0
0.30397364771151175,0.0,0.0,0.0
0.31197295423023574,0.0,0.0,0.0
0.31997226074895974,0.0,0.0,0.0
0.32797156726768373,0.0,0.0,0.0
0.3359708737864077,0.1,0.1,0.1
0.3439701803051317,0.1,0.1,0.1
0.3519694868238557,0.1,0.1,0.1
0.3599687933425797,0.1,0.1,0.1
0.3679680998613037,0.1,0.1,0.1
0.3759674063800277,0.1,0.1,0.1
0.3839667128987517,0.1,0.1,0.1
0.3919660194174757,0.1,0.1,0.1
0.3999653259361997,0.1,0.1,0.1
0.4079646324549237,0.1,0.1,0.1
0.4159639389736477,0.1,0.1,0.1
0.4239632454923717,0.1,0.1,0.1
0.4319625520110957,-0.03534232757533687,0.14511410919177894,0.14511410919177894
0.43996185852981967,-0.5596740638002727,0.16730235783633884,0.39618585298196696
0.44796116504854366,-1.207766990291269,-0.19611650485436544,0.5
0.45596047156726766,-0.5852827862536601,-0.1,0.22943442749267973
0.46395977808599165,-0.565531412133354,-0.1,0.268937175733292
0.47195908460471564,-0.5457800380130479,-0.1,0.3084399239739043
0.47995839112343963,-0.5260286638927417,-0.1,0.3479426722145166
0.4879576976421636,-0.5062772897724356,-0.1,0.3874454204551289
0.4959570041608876,-0.4865259156521294,-0.1,0.4269481686957412
0.5039563106796116,-0.4667745415318234,-0.1,0.4664509169363532
0.5119556171983356,-0.4470231674115171,-0.1,0.5059536651769658
0.5199549237170596,-0.4272717932912108,-0.1,0.5454564134175783
0.5279542302357836,-0.4075204191709048,-0.1,0.5849591616581904
0.5359535367545076,-0.7028045198661987,-0.2,0.9018696799107992
0.5439528432732316,-0.7263318919800927,-0.2,0.9175545946533952
0.5519521497919556,-0.749859264093987,-0.2,0.9332395093959914
0.5599514563106796,-0.773386636207881,-0.2,0.9489244241385874
0.5679507628294036,-0.7969140083217752,-0.2,0.9646093388811835
0.5759500693481275,-0.8204413804356692,-0.2,0.9802942536237795
0.5839493758668516,-0.8439687525495634,-0.2,0.9959791683663757
0.5919486823855755,-0.8674961246634574,-0.2,1.0116640831089716
0.5999479889042996,-0.8910234967773516,-0.2,1.0273489978515677
0.6079472954230235,-0.9145508688912456,-0.2,1.0430339125941637
0.6159466019417476,-0.9380782410051398,-0.2,1.05871882733676
0.6239459084604715,-0.9616056131190338,-0.2,1.074403742079356
0.6319452149791955,-0.985132985232928,-0.2,1.090088656821952
0.6399445214979195,-1.3,-0.3472260748959729,1.2944521497919457
0.6479438280166435,-1.3,-0.6,1.7020901376523048
0.6559431345353675,-1.3,-0.6,1.7106915425111477
0.6639424410540915,-1.3,-0.6,1.7192929473699907
0.6719417475728154,-1.3,-0.6,1.7278943522288337
0.6799410540915395,-1.3,-0.6,1.736495757087677
0.6879403606102634,-1.3,-0.6,1.7450971619465199
0.6959396671289875,-1.3,-0.6,1.7536985668053628
0.7039389736477114,-1.3,-0.6,1.7622999716642058
0.7119382801664355,-1.3,-0.6,1.7709013765230488
0.7199375866851594,-1.3,-0.6,1.7795027813818918
0.7279368932038834,-1.3,-0.6,1.788104186240735
0.7359361997226074,-1.3,-0.6,1.796705591099578
0.7439355062413314,-1.8935506241331428,-0.6032246879334285,1.7032246879334285
0.7519348127600554,-1.7413037447988928,-0.5206518723994464,1.7793481276005536
0.7599341192787794,-1.6771764643123868,-0.48478430954159124,1.7923921547707957
0.7679334257975035,-1.6464099007788329,-0.46427326718588857,1.7821366335929443
0.7759327323162274,-1.6156433372452792,-0.4437622248301861,1.771881112415093
0.7839320388349514,-1.584876773711725,-0.42325118247448346,1.7616255912372418
0.7919313453536754,-1.5541102101781714,-0.402740140118781,1.7513700700593906
0.7999306518723994,-1.5233436466446175,-0.38222909776307834,1.7411145488815392
0.8079299583911234,-1.4925770831110639,-0.3617180554073759,1.730859027703688
0.8159292649098474,-1.4618105195775097,-0.3412070130516732,1.7206035065258365
0.8239285714285713,-1.431043956043956,-0.3206959706959708,1.7103479853479855
0.8319278779472954,-1.4002773925104022,-0.3001849283402681,1.700092464170134
0.8399271844660193,-1.1229126213592255,0.038543689320387174,1.5614563106796129
0.8479264909847434,-0.8,0.30913137438312416,1.3908686256168756
0.8559257975034673,-0.8,0.3277344127987612,1.3722655872012386
0.8639251040221914,-0.8,0.3463374512143985,1.3536625487856013
0.8719244105409153,-0.8,0.36494048963003556,1.3350595103699643
0.8799237170596393,-0.8,0.3835435280456729,1.316456471954327
0.8879230235783633,-0.8,0.4021465664613099,1.29785343353869
0.8959223300970873,-0.8,0.42074960487694724,1.2792503951230527
0.9039216366158113,-0.8,0.4393526432925843,1.2606473567074157
0.9119209431345353,-0.8,0.45795568170822154,1.2420443182917784
0.9199202496532592,-0.8,0.4765587201238586,1.2234412798761414
0.9279195561719833,-0.8,0.4951617585394959,1.2048382414605041
0.9359188626907072,-0.7013522884882136,0.5986477115117863,1.2
0.9439181692094313,-0.2937911293416354,0.7,0.7968955646708178
0.9519174757281552,-0.2767713282379675,0.7,0.7883856641189838
0.9599167822468793,-0.25975152713429933,0.7,0.7798757635671497
0.9679160887656032,-0.24273172603063137,0.7,0.7713658630153157
0.9759153952843272,-0.22571192492696318,0.7,0.7628559624634816
0.9839147018030512,-0.20869212382329522,0.7,0.7543460619116477
0.9919140083217752,-0.19167232271962703,0.7,0.7458361613598135
0.9999133148404992,-0.17465252161595907,0.7,0.7373262608079795
1.007912621359223,-0.15763272051229113,0.7,0.7288163602561455
1.0159119278779472,-0.14061291940862292,0.7,0.7203064597043114
1.0239112343966712,-0.12359311830495473,0.7,0.7117965591524773
1.0319105409153952,-0.10657331720128654,0.7,0.7032866586006432
1.0399098474341193,0.2454923717059685,0.6545076282940314,0.5545076282940314
1.0479091539528431,-0.09418169209431362,0.5029091539528432,0.4
1.0559084604715672,-0.07818307905686554,0.5109084604715672,0.4
1.0639077669902912,-0.06218446601941746,0.5189077669902913,0.4
1.0719070735090153,-0.04618585298196938,0.5269070735090153,0.4
1.079906380027739,-0.030187239944521743,0.5349063800277392,0.4
1.0879056865464631,-0.014188626907073662,0.5429056865464632,0.4
1.0959049930651872,0.0018099861303744191,0.5509049930651873,0.4
1.1039042995839112,0.0178085991678225,0.5589042995839112,0.4
1.111903606102635,0.03380721220527014,0.566903606102635,0.4
1.119902912621359,0.04980582524271823,0.5749029126213591,0.4
1.1279022191400832,0.0658044382801663,0.5829022191400831,0.4
1.1359015256588072,0.0818030513176144,0.5909015256588072,0.4
1.143900832177531,0.09780166435506202,0.598900832177531,0.4
1.151900138696255,0.4268975082500355,0.5,0.18655124587498229
1.1598994452149791,0.48206513941364937,0.5,0.15896743029317534
1.1678987517337032,0.5372327705772632,0.5,0.13138361471136842
1.175898058252427,0.5924004017408755,0.5,0.10379979912956225
1.183897364771151,0.37893798296017467,0.37893798296017467,-0.11053100851991268
1.191896671289875,0.3503690311075888,0.3503690311075888,-0.1248154844462056
1.1998959778085991,0.321800079255003,0.321800079255003,-0.13909996037249855
1.207895284327323,0.29323112740241786,0.29323112740241786,-0.15338443629879106
1.215894590846047,0.264662175549832,0.264662175549832,-0.167668912225084
1.223893897364771,0.23609322369724617,0.23609322369724617,-0.18195338815137693
1.231893203883495,0.2075242718446603,0.2075242718446603,-0.19623786407766985
1.239892510402219,-0.1,0.1,0.0
1.247891816920943,-0.1,0.1,0.0
1.255891123439667,-0.1,0.1,0.0
1.263890429958391,-0.1,0.1,0.0
1.271889736477115,-0.1,0.1,0.0
1.279889042995839,-0.1,0.1,0.0
1.287888349514563,-0.1,0.1,0.0
1.295887656033287,-0.1,0.1,0.0
1.303886962552011,-0.1,0.1,0.0
1.311886269070735,-0.1,0.1,0.0
1.319885575589459,-0.1,0.1,0.0
1.327884882108183,-0.1,0.1,0.0
1.335884188626907,0.18841886269069907,0.2,-0.1
1.3438834951456309,0.19203687359027194,0.2,-0.09203687359027192
1.351882801664355,0.18395676599560118,0.2,-0.08395676599560116
1.359882108183079,0.17587665840093042,0.2,-0.0758766584009304
1.367881414701803,0.16779655080625966,0.2,-0.06779655080625965
1.3758807212205268,0.15971644321158912,0.2,-0.059716443211589115
1.383880027739251,0.15163633561691836,0.2,-0.051636335616918355
1.391879334257975,0.1435562280222476,0.2,-0.0435562280222476
1.399878640776699,0.13547612042757684,0.2,-0.035476120427576835
1.4078779472954228,0.1273960128329063,0.2,-0.02739601283290631
1.4158772538141469,0.11931590523823556,0.2,-0.01931590523823555
1.423876560332871,0.1112357976435648,0.2,-0.01123579764356479
1.431875866851595,0.10315569004889404,0.2,-0.0031556900488940304
1.4398751733703188,-0.2,0.0,0.0
1.4478744798890428,-0.2,0.0,0.0
1.4558737864077669,-0.2,0.0,0.0
1.463873092926491,-0.2,0.0,0.0
1.4718723994452148,-0.2,0.0,0.0
1.4798717059639388,-0.2,0.0,0.0
1.4878710124826628,-0.2,0.0,0.0
1.495870319001387,-0.2,0.0,0.0
1.5038696255201107,-0.2,0.0,0.0
1.5118689320388348,-0.2,0.0,0.0
1.5198682385575588,-0.2,0.0,0.0
1.5278675450762829,-0.2,0.0,0.0
1.535866851595007,-0.2,0.0,0.0
1.5438661581137307,-0.15669209431345962,0.0,0.0
1.5518654646324548,-0.1,0.0,0.0
1.5598647711511788,-0.09751363846509496,0.0,0.0
1.5678640776699029,-0.08684789644012957,0.0,0.0
1.5758633841886267,-0.07618215441516446,0.0,0.0
1.5838626907073508,-0.06551641239019905,0.0,0.0
1.5918619972260748,-0.054850670365233646,0.0,0.0
1.5998613037447988,-0.04418492834026824,0.0,0.0
1.6078606102635227,-0.03351918631530314,0.0,0.0
1.6158599167822467,-0.02285344429033774,0.0,0.0
1.6238592233009708,-0.01218770226537233,0.0,0.0
1.6318585298196948,-0.0015219602404069332,0.0,0.0
1.6398578363384186,0.0,0.0,0.0
1.6478571428571427,-0.0053968253968251865,0.0,0.0
1.6558564493758667,-0.01428494375096301,0.0,0.0
1.6638557558945908,-0.023173062105100836,0.0,0.0
1.6718550624133146,-0.03206118045923841,0.0,0.0
1.6798543689320387,-0.040949298813376236,0.0,0.0
1.6878536754507627,-0.04983741716751406,0.0,0.0
1.6958529819694868,-0.058725535521651884,0.0,0.0
1.7038522884882106,-0.06761365387578946,0.0,0.0
1.7118515950069346,-0.07650177222992728,0.0,0.0
1.7198509015256587,-0.08538989058406511,0.0,0.0
1.7278502080443827,-0.09427800893820293,0.0,0.0
1.7358495145631065,-0.07876213592233887,0.0,0.0
1.7438488210818306,0.0,0.0,0.0
1.7518481276005546,0.0,0.0,0.0
1.7598474341192787,0.0,0.0,0.0
1.7678467406380025,0.0,0.0,0.0
1.7758460471567266,0.0,0.0,0.0
1.7838453536754506,0.0,0.0,0.0
1.7918446601941747,0.0,0.0,0.0
1.7998439667128987,0.0,0.0,0.0
1.8078432732316225,0.0,0.0,0.0
1.8158425797503466,0.0,0.0,0.0
1.8238418862690706,0.0,0.0,0.0
1.8318411927877947,0.0,0.0,0.0
1.8398404993065185,0.24202496532592632,0.04202496532592633,0.0
1.8478398058252425,0.30705134621159025,0.1,0.0
1.8558391123439666,0.3152980539628522,0.1,0.0
1.8638384188626906,0.3235447617141141,0.1,0.0
1.8718377253814145,0.33179146946537574,0.1,0.0
1.8798370319001385,0.3400381772166377,0.1,0.0
1.8878363384188626,0.3482848849678996,0.1,0.0
1.8958356449375866,0.3565315927191615,0.1,0.0
1.9038349514563104,0.3647783004704232,0.1,0.0
1.9118342579750345,0.3730250082216851,0.1,0.0
1.9198335644937585,0.381271715972947,0.1,0.0
1.9278328710124826,0.3895184237242089,0.1,0.0
1.9358321775312064,0.3977651314754706,0.1,0.0
1.9438314840499304,0.3352057327785508,0.1,0.0
1.9518307905686545,0.183356449375868,0.0,0.0
1.9598300970873785,0.11063548102383201,0.0,0.0
1.9678294036061024,0.08128930518876079,-0.00935534740561961,0.0
1.9758287101248264,0.05937339691828386,-0.020313301540858072,0.0
1.9838280166435505,0.03745748864780693,-0.03127125567609654,0.0
1.9918273231622745,0.015541580377330014,-0.042229209811334996,0.0
1.9998266296809983,-0.006374327893146306,-0.053187163946573156,0.0
2.0078259361997226,-0.028290236163623833,-0.06414511808181192,0.0
2.015825242718446,-0.05020614443409954,-0.07510307221704977,0.0
2.0238245492371703,-0.07212205270457647,-0.08606102635228824,0.0
2.0318238557558943,-0.09403796097505338,-0.09701898048752669,0.0
2.0398231622746184,-0.10442094313454212,-0.1,0.1
2.0478224687933424,0.006616441810616566,-0.1,0.1
2.0558217753120664,0.01570656285462116,-0.1,0.1
2.0638210818307905,0.02479668389862575,-0.1,0.1
2.0718203883495145,0.03388680494263034,-0.1,0.1
2.0798196948682386,0.04297692598663493,-0.1,0.1
2.087819001386962,0.05206704703063902,-0.1,0.1
2.0958183079056862,0.06115716807464361,-0.1,0.1
2.1038176144244103,0.0702472891186482,-0.1,0.1
2.1118169209431343,0.07933741016265279,-0.1,0.1
2.1198162274618584,0.08842753120665739,-0.1,0.1
2.1278155339805824,0.09751765225066197,-0.1,0.1
2.1358148404993065,0.003085991678227276,-0.19691400832177275,0.1
2.1438141470180305,-0.1,-0.3,0.2
2.151813453536754,-0.1,-0.3,0.2
2.159812760055478,-0.09511184608272046,-0.3,0.2
2.1678120665742022,-0.0848563249048691,-0.3,0.2
2.1758113730929263,-0.07460080372701773,-0.3,0.2
2.1838106796116503,-0.06434528254916637,-0.3,0.2
2.1918099861303744,-0.05408976137131501,-0.3,0.2
2.1998092926490984,-0.043834240193463644,-0.3,0.2
2.2078085991678225,-0.03357871901561228,-0.3,0.2
2.215807905686546,-0.02332319783776149,-0.3,0.2
2.22380721220527,-0.013067676659910127,-0.3,0.2
2.231806518723994,-0.0028121554820587646,-0.3,0.2
2.239805825242718,-0.2,-0.4,0.3805825242718059
2.2478051317614423,-0.20736333185041703,-0.4,0.40736333185041707
2.2558044382801663,-0.21490984743411898,-0.4,0.41490984743411896
2.2638037447988903,-0.2224563630178209,-0.4,0.4224563630178209
2.2718030513176144,-0.23000287860152285,-0.4,0.43000287860152286
2.279802357836338,-0.23754939418522436,-0.4,0.43754939418522437
2.287801664355062,-0.2450959097689263,-0.4,0.4450959097689263
2.295800970873786,-0.25264242535262826,-0.4,0.4526424253526283
2.30380027739251,-0.2601889409363302,-0.4,0.4601889409363302
2.311799583911234,-0.2677354565200321,-0.4,0.4677354565200321
2.3197988904299582,-0.27528197210373406,-0.4,0.4752819721037341
2.3277981969486823,-0.282828487687436,-0.4,0.482828487687436
2.3357975034674063,-0.29037500327113797,-0.4,0.490375003271138
2.3437968099861304,-0.29792151885483986,-0.4,0.49792151885483993
2.351796116504854,-0.3,-0.4,0.5579611650485402
2.359795423023578,-0.3,-0.4,0.6632570503929669
2.367794729542302,0.09189933465999459,-0.2959496673299973,0.7040503326700027
2.375794036061026,0.06871293895354806,-0.284356469476774,0.7156435305232259
2.38379334257975,0.04552654324710153,-0.27276327162355074,0.7272367283764493
2.391792649098474,0.022340147540654998,-0.26117007377032747,0.7388299262296725
2.3997919556171983,-0.000846248165791541,-0.24957687591710423,0.7504231240828958
2.4077912621359223,-0.024032643872238066,-0.23798367806388096,0.762016321936119
2.415790568654646,-0.047219039578683314,-0.22639048021065836,0.7736095197893417
2.42378987517337,-0.07040543528512985,-0.2147972823574351,0.785202717642565
2.431789181692094,-0.09359183099157639,-0.20320408450421185,0.7967959154957882
2.439788488210818,-0.1,0.0,0.7
2.447787794729542,-0.1432655262752343,0.0,0.6913468947449531
2.455787101248266,-0.18770611804592352,0.0,0.6824587763908152
2.46378640776699,-0.23214670981661276,0.0,0.6735706580366774
2.4717857142857143,-0.276587301587302,0.0,0.6646825396825395
2.479785020804438,-0.32102789335798876,0.0,0.6557944213284023
2.487784327323162,-0.3654684851286779,0.0,0.6469063029742643
2.495783633841886,-0.4099090768993672,0.0,0.6380181846201265
2.50378294036061,-0.45434966867005644,0.0,0.6291300662659887
2.511782246879334,-0.4987902604407456,0.0,0.6202419479118508
2.519781553398058,-0.5432308522114349,0.0,0.611353829557713
2.527780859916782,-0.5876714439821241,0.0,0.6024657112035752
2.535780166435506,-0.6808500099068762,0.13971666336437463,0.3602833366356254
2.54377947295423,-0.2035237088202574,0.2017618544101287,0.2982381455898713
2.551778779472954,-0.21936391974842384,0.20968195987421193,0.2903180401257881
2.559778085991678,-0.23520413067659027,0.21760206533829513,0.2823979346617049
2.567777392510402,-0.2510443416047567,0.22552217080237835,0.27447782919762165
2.575776699029126,-0.26688455253292315,0.23344227626646158,0.2665577237335384
2.58377600554785,-0.28272476346108955,0.24136238173054478,0.2586376182694552
2.591775312066574,-0.298564974389256,0.24928248719462798,0.250717512805372
2.599774618585298,-0.31440518531742245,0.2572025926587112,0.2427974073412888
2.607773925104022,-0.33024539624558885,0.26512269812279443,0.23487730187720557
2.6157732316227458,-0.3460856071737544,0.2730428035868772,0.22695719641312279
2.62377253814147,-0.3619258181019208,0.28096290905096044,0.2190370909490396
2.631771844660194,-0.37776602903008727,0.2888830145150436,0.2111169854849564
2.639771151178918,-0.3936062399582537,0.29680311997912684,0.20319688002087316
2.647770457697642,0.7967059639388371,0.288522884882093,0.011477115117906986
2.655769764216366,0.7601778575507883,0.3,-0.09203557151015766
2.66376907073509,0.7131231133229998,0.3,-0.08262462266459995
2.671768377253814,0.6660683690952113,0.3,-0.07321367381904224
2.6797676837725377,0.6190136248674254,0.3,-0.06380272497348506
2.6877669902912618,0.5719588806396367,0.3,-0.05439177612792735
2.695766296809986,0.5249041364118483,0.3,-0.04498082728236965
2.70376560332871,0.47784939218405975,0.3,-0.03556987843681195
2.711764909847434,0.4307946479562712,0.3,-0.026158929591254237
2.719764216366158,0.38373990372848266,0.3,-0.016747980745696528
2.727763522884882,0.3366851595006941,0.3,-0.0073370319001388185
2.735762829403606,0.014424410540912536,0.3,0.0
2.7437621359223296,0.07106049290515812,0.40413421529926313,-0.09586578470073688
2.7517614424410537,0.009527365838049903,0.41292466202313577,-0.08707533797686427
2.7597607489597777,-0.05200576122905831,0.42171510874700835,-0.07828489125299166
2.767760055478502,-0.11353888829616654,0.43050555547088093,-0.06949444452911907
2.775759361997226,-0.1750720153632748,0.43929600219475357,-0.060703997805246455
2.78375866851595,-0.23660514243038297,0.44808644891862615,-0.051913551081373854
2.791757975034674,-0.2981382694974912,0.4568768956424988,-0.043123104357501246
2.799757281553398,-0.35967139656459945,0.46566734236637136,-0.03433265763362864
2.8077565880721216,-0.42120452363170424,0.4744577890902435,-0.02554221090975653
2.8157558945908456,-0.48273765069881247,0.4832482358141161,-0.01675176418588392
2.8237552011095697,-0.5442707777659207,0.49203868253798866,-0.007961317462011314
2.8317545076282937,-0.6754507628293681,0.5,-0.03772538141468407
2.8397538141470178,-0.20381263945003847,0.8,-0.30190631972501925
2.847753120665742,-0.22120243622987334,0.8,-0.3106012181149367
2.855752427184466,-0.23859223300970822,0.8,-0.3192961165048541
2.86375173370319,-0.2559820297895431,0.8,-0.32799101489477156
2.871751040221914,-0.273371826569378,0.8,-0.336685913284689
2.8797503467406376,-0.29076162334921185,0.8,-0.34538081167460594
2.8877496532593616,-0.3081514201290467,0.8,-0.3540757100645234
2.8957489597780857,-0.3255412169088816,0.8,-0.3627706084544408
2.9037482662968097,-0.3429310136887165,0.8,-0.37146550684435825
2.9117475728155338,-0.36032081046855136,0.8,-0.3801604052342757
2.919746879334258,-0.37771060724838623,0.8,-0.3888553036241931
2.927746185852982,-0.3951004040282211,0.8,-0.39755020201411057
2.935745492371706,0.08509015256588275,0.8850901525658827,-0.4
2.9437447988904295,-0.010598487425744043,0.8,-0.39646717085808536
2.9517441054091536,-0.03323803417684986,0.8,-0.3889206552743834
2.9597434119278776,-0.05587758092795569,0.8,-0.38137413969068146
2.9677427184466016,-0.07851712767906151,0.8,-0.3738276241069795
2.9757420249653257,-0.10115667443016733,0.8,-0.36628110852327755
2.9837413314840497,-0.12379622118127315,0.8,-0.3587345929395756
2.991740638002774,-0.14643576793237897,0.8,-0.35118807735587365
2.999739944521498,-0.1690753146834848,0.8,-0.34364156177217176
3.0077392510402214,-0.19171486143458935,0.8,-0.3360950461884702
3.0157385575589455,-0.21435440818569518,0.8,-0.3285485306047683
3.0237378640776695,-0.236993954936801,0.8,-0.32100201502106634
3.0317371705963936,-0.25963350168790683,0.8,-0.3134554994373644
3.0397364771151176,-0.28227304843901263,0.8,-0.30590898385366244
3.0477357836338417,-0.4735783633841665,0.8,-0.3
3.0557350901525657,-0.5420527045769701,0.9,-0.3
3.0637343966712898,-0.7160846863017049,0.9,-0.3
3.071733703190014,-0.7631394305294934,0.9,-0.3
3.0797330097087374,-0.8101941747572793,0.9,-0.3
3.0877323162274615,-0.8572489189850678,0.9,-0.3
3.0957316227461855,-0.9043036632128564,0.9,-0.3
3.1037309292649096,-0.9513584074406449,0.9,-0.3
3.1117302357836336,-0.9984131516684334,0.9,-0.3
3.1197295423023577,-1.045467895896222,0.9,-0.3
3.1277288488210817,-1.0925226401240105,0.9,-0.3
3.1357281553398058,-1.139577384351799,0.9,-0.3
3.1437274618585294,-1.1866321285795849,0.9,-0.3
3.1517267683772534,-1.6781414701802633,0.8054646324549343,-0.1054646324549342
3.1597260748959775,-2.1904459618051866,0.4952229809025932,0.10477701909740683
3.1677253814147015,-2.1699349194494837,0.4849674597247418,0.1150325402752582
3.1757246879334255,-2.1494238770937812,0.4747119385468905,0.12528806145310956
3.1837239944521496,-2.1289128347380784,0.4644564173690391,0.13554358263096092
3.1917233009708736,-2.1084017923823755,0.45420089619118775,0.14579910380881228
3.1997226074895977,-2.0878907500266726,0.44394537501333636,0.15605462498666364
3.2077219140083213,-2.067379707670971,0.4336898538354856,0.16631014616451445
3.2157212205270453,-2.0468686653152686,0.4234343326576342,0.17656566734236578
3.2237205270457694,-2.0263576229595657,0.41317881147978286,0.18682118852021717
3.2317198335644934,-2.005846580603863,0.4029232903019315,0.19707670969806854
3.2397191400832175,-1.240429958391317,0.4280859916782634,0.1
3.2477184466019415,-1.0479655285262384,0.4,0.1
3.2557177531206656,-0.9940376194112448,0.4,0.1
3.2637170596393896,-0.9401097102962511,0.4,0.1
3.2717163661581132,-0.8861818011812606,0.4,0.1
3.2797156726768373,-0.832253892066267,0.4,0.1
3.2877149791955613,-0.7783259829512733,0.4,0.1
3.2957142857142854,-0.7243980738362797,0.4,0.1
3.3037135922330094,-0.6704701647212861,0.4,0.1
3.3117128987517335,-0.6165422556062925,0.4,0.1
3.3197122052704575,-0.5626143464912989,0.4,0.1
3.3277115117891816,-0.5086864373763053,0.4,0.1
3.3357108183079056,-0.12891816920942745,0.28554091539528625,0.2
3.343710124826629,-0.06363148666684275,0.31454740533326286,0.20727370266663145
3.3517094313453533,-0.0258989087483332,0.3296404365006667,0.21482021825033337
3.3597087378640773,0.01183366917017635,0.34473346766807056,0.22236673383403527
3.3677080443828014,0.0495662470886859,0.35982649883547435,0.2299132494177372
3.3757073509015254,0.08729882500719544,0.37491953000287814,0.2374597650014391
3.3837066574202495,0.12503140292570497,0.390012561170282,0.245006280585141
3.3917059639389735,0.16276398084421453,0.40510559233768584,0.2525527961688429
3.3997052704576975,0.20049655876272407,0.42019862350508963,0.2600993117525448
3.407704576976421,0.23822913668123155,0.43529165467249264,0.2676458273362463
3.415703883495145,0.27596171459974106,0.45038468583989644,0.2751923429199482
3.4237031900138692,0.31369429251825065,0.46547771700730023,0.2827388585036501
3.4317024965325933,0.35142687043676013,0.4805707481747041,0.290285374087352
3.4397018030513173,0.3891594483552697,0.49566377934210787,0.29783188967105395
3.4477011095700414,-0.07298890429958514,0.5270110957004148,0.4
3.4557004160887654,0.0,0.6,0.4087552011095671
3.4636997226074895,0.0,0.6009996037249848,0.5009996037249849
3.471699029126213,0.0,0.6124271844660186,0.5124271844660186
3.479698335644937,0.0,0.623854765207053,0.523854765207053
3.487697642163661,0.0,0.6352823459480873,0.5352823459480873
3.4956969486823852,0.0,0.6467099266891218,0.5467099266891218
3.5036962552011093,0.0,0.6581375074301561,0.5581375074301561
3.5116955617198333,0.0,0.6695650881711904,0.5695650881711904
3.5196948682385574,0.0,0.6809926689122249,0.5809926689122249
3.5276941747572814,0.0,0.6924202496532592,0.5924202496532592
3.535693481276005,-0.18844197873325158,0.7884419787332516,0.6115580212667484
3.543692787794729,-0.1307212205271002,0.8,0.8
3.551692094313453,-0.023076187287769567,0.7923079375707435,0.8
3.559691400832177,-0.050660002869576566,0.7831133323768078,0.8
3.567690707350901,-0.07824381845138356,0.7739187271828721,0.8
3.5756900138696253,-0.10582763403319057,0.7647241219889365,0.8
3.5836893203883493,-0.13341144961499757,0.7555295167950008,0.8
3.5916886269070734,-0.16099526519680457,0.7463349116010651,0.8
3.5996879334257974,-0.18857908077861155,0.7371403064071295,0.8
3.607687239944521,-0.21616289636041702,0.7279457012131942,0.8
3.615686546463245,-0.24374671194222403,0.7187510960192586,0.8
3.623685852981969,-0.27133052752403103,0.7095564908253229,0.8
3.631685159500693,-0.29891434310583803,0.7003618856313872,0.8
3.639684466019417,-0.20276749074166722,0.6,0.6
3.6476837725381412,-0.21101419849292913,0.6,0.6
3.6556830790568653,-0.21926090624419103,0.6,0.6
3.6636823855755893,-0.22750761399545294,0.6,0.6
3.671681692094313,-0.23575432174671437,0.6,0.6
3.679680998613037,-0.24400102949797628,0.6,0.6
3.687680305131761,-0.2522477372492382,0.6,0.6
3.695679611650485,-0.2604944450005001,0.6,0.6
3.703678918169209,-0.268741152751762,0.6,0.6
3.711678224687933,-0.27698786050302393,0.6,0.6
3.7196775312066572,-0.28523456825428584,0.6,0.6
3.7276768377253813,-0.29348127600554774,0.6,0.6
3.735676144244105,-0.3,0.6,0.5161927877947647
3.743675450762829,-0.39747598984638793,0.6,0.4
3.751674757281553,-0.389929474262686,0.6,0.4
3.759674063800277,-0.38238295867898403,0.6,0.4
3.767673370319001,-0.3748364430952821,0.6,0.4
3.775672676837725,-0.3672899275115801,0.6,0.4
3.783671983356449,-0.3597434119278782,0.6,0.4
3.791671289875173,-0.3521968963441763,0.6,0.4
3.799670596393897,-0.3446503807604747,0.6,0.4
3.807669902912621,-0.3371038651767728,0.6,0.4
3.815669209431345,-0.32955734959307087,0.6,0.4
3.823668515950069,-0.3220108340093689,0.6,0.4
3.831667822468793,-0.31446431842566697,0.6,0.4
3.839667128987517,-0.306917802841965,0.6,0.4
3.847666435506241,-0.3999653259361576,0.5666782246879475,0.4
3.855665742024965,-0.573370319001394,0.39334257975034853,0.5
3.863665048543689,-0.25339805825243944,0.3133495145631099,0.5
3.871664355062413,0.0921328401910935,0.315734319617813,0.3921328401910935
3.879663661581137,0.08102269224842121,0.3379546155031576,0.3810226922484212
3.887662968099861,0.06991254430574893,0.3601749113885021,0.36991254430574894
3.895662274618585,0.05880239636307665,0.3823952072738467,0.35880239636307665
3.903661581137309,0.04769224842040438,0.40461550315919126,0.34769224842040436
3.911660887656033,0.036582100477732096,0.42683579904453584,0.33658210047773207
3.919660194174757,0.025471952535059822,0.44905609492988036,0.3254719525350598
3.927659500693481,0.014361804592387534,0.47127639081522493,0.3143618045923875
3.9356588072122047,0.00325165664971587,0.49349668670056823,0.3032516566497159
3.943658113730929,-0.06581137309287946,0.4,0.33418862690712053
3.951657420249653,-0.10860384297713803,0.391396157022862,0.3
3.959656726768377,-0.11759182782963692,0.3824081721703631,0.3
3.967656033287101,-0.1265798126821358,0.3734201873178642,0.3
3.975655339805825,-0.1355677975346347,0.36443220246536534,0.3
3.983654646324549,-0.14455578238713357,0.35544421761286643,0.3
3.991653952843273,-0.15354376723963248,0.3464562327603675,0.3
3.9996532593619967,-0.16253175209213086,0.3374682479078691,0.3
4.007652565880721,-0.17151973694463024,0.32848026305536976,0.3
4.015651872399445,-0.18050772179712915,0.31949227820287085,0.3
4.023651178918169,-0.189495706649628,0.310504293350372,0.3
4.031650485436892,-0.19848369150212591,0.3015163084978741,0.3
4.0396497919556165,-0.3837552011095828,0.28375520110958274,0.2
4.0476490984743405,-0.3,0.2,0.2
4.055648404993065,-0.3,0.2,0.2
4.063647711511789,-0.3,0.2,0.2
4.071647018030513,-0.3,0.2,0.2
4.079646324549237,-0.3,0.2,0.2
4.087645631067961,-0.3,0.2,0.2
4.095644937586685,-0.3,0.2,0.2
4.103644244105409,-0.3,0.2,0.2
4.111643550624133,-0.3,0.2,0.2
4.119642857142857,-0.3,0.2,0.2
4.127642163661581,-0.3,0.2,0.2
4.135641470180305,-0.3,0.2,0.2
4.143640776699029,-0.3,0.2,0.2
4.151640083217753,-0.16799583911233004,0.2,0.13200416088766997
4.159639389736477,-0.19320555453436478,0.10679444546563524,0.19320555453436478
4.1676386962552,-0.18356783583710798,0.11643216416289204,0.18356783583710798
4.175638002773924,-0.1739301171398501,0.12606988286014992,0.1739301171398501
4.183637309292648,-0.16429239844259225,0.1357076015574078,0.16429239844259225
4.1916366158113725,-0.15465467974533437,0.14534532025466565,0.15465467974533437
4.1996359223300965,-0.1450169610480765,0.1549830389519235,0.1450169610480765
4.207635228848821,-0.13537924235081863,0.16462075764918138,0.13537924235081863
4.215634535367545,-0.12574152365356078,0.17425847634643926,0.12574152365356078
4.223633841886269,-0.11610380495630289,0.18389619504369714,0.11610380495630289
4.231633148404993,-0.10646608625904502,0.193533913740955,0.10646608625904502
4.239632454923717,-0.1,0.2,0.1292494991524063
4.247631761442441,-0.1,0.21483419493127714,0.2
4.255631067961165,-0.1,0.287555163283319,0.2
4.263630374479889,-0.09502688427412452,0.3,0.3
4.271629680998613,-0.08406893013888617,0.3,0.3
4.279628987517337,-0.0731109760036478,0.3,0.3
4.287628294036061,-0.06215302186840944,0.3,0.3
4.295627600554784,-0.05119506773317229,0.3,0.3
4.303626907073508,-0.04023711359793393,0.3,0.3
4.311626213592232,-0.029279159462695575,0.3,0.3
4.319625520110956,-0.018321205327457207,0.3,0.3
4.32762482662968,-0.007363251192218839,0.3,0.3
4.3356241331484044,-0.1,0.2,0.2
4.3436234396671285,-0.1964707833323286,0.10176460833383572,0.3
4.3516227461858525,-0.17908098655249383,0.1104595067237531,0.3
4.359622052704577,-0.16169118977265903,0.1191544051136705,0.3
4.367621359223301,-0.14430139299282424,0.1278493035035879,0.3
4.375620665742025,-0.12691159621298945,0.1365442018935053,0.3
4.383619972260749,-0.10952179943315465,0.14523910028342268,0.3
4.391619278779473,-0.09213200265331987,0.15393399867334007,0.3
4.399618585298197,-0.07474220587348507,0.16262889706325748,0.3
4.407617891816921,-0.0573524090936503,0.17132379545317486,0.3
4.415617198335645,-0.03996261231381551,0.18001869384309227,0.3
4.423616504854369,-0.022572815533980717,0.18871359223300965,0.3
4.431615811373092,-0.005183018754147867,0.1974084906229261,0.3
4.439615117891816,0.02302357836318278,0.1615117891815914,0.23848821081840862
4.44761442441054,0.08362489374077456,0.2,0.2
4.455613730929264,0.06642208402308843,0.2,0.2
4.463613037447988,0.049219274305402294,0.2,0.2
4.471612343966712,0.03201646458771616,0.2,0.2
4.479611650485436,0.01481365487003003,0.2,0.2
4.4876109570041605,-0.0023891548476561025,0.2,0.2
4.4956102635228845,-0.01959196456534222,0.2,0.2
4.503609570041609,-0.03679477428302835,0.2,0.2
4.511608876560333,-0.05399758400071447,0.2,0.2
4.519608183079057,-0.07120039371840062,0.2,0.2
4.527607489597781,-0.08840320343608674,0.2,0.2
4.535606796116505,0.0,0.1,0.2
4.543606102635229,-0.0767683772538153,0.1,0.12323162274618471
4.551605409153953,0.0,0.1,0.1
4.559604715672676,0.0,0.1,0.1
4.5676040221914,0.0,0.1,0.1
4.575603328710124,0.0,0.1,0.1
4.583602635228848,0.0,0.1,0.1
4.591601941747572,0.0,0.1,0.1
4.599601248266296,0.0,0.1,0.1
4.60760055478502,0.0,0.1,0.1
4.615599861303744,0.0,0.1,0.1
4.623599167822468,0.0,0.1,0.1
4.631598474341192,0.0,0.1,0.1
4.6395977808599165,-0.00664200955462531,0.1,0.1
4.6475970873786405,-0.09552319309600903,0.1,0.1
4.655596393897365,0.0,0.0,0.0
4.663595700416089,0.0,-0.0950743829916596,0.09014876598331918
4.671595006934813,0.0,-0.0841164288564211,0.06823285771284218
4.679594313453537,0.0,-0.0731584747211826,0.0463169494423652
4.687593619972261,0.0,-0.06220052058594411,0.02440104117188821
4.695592926490984,0.0,-0.05124256645070683,0.002485132901413653
4.703592233009708,0.0,-0.040284612315468336,-0.019430775369063333
4.711591539528432,0.0,-0.029326658180229837,-0.04134668363954033
4.719590846047156,0.0,-0.018368704044991344,-0.06326259191001732
4.72759015256588,0.0,-0.007410749909752851,-0.0851785001804943
4.735589459084604,0.1,-0.011789181692077018,-0.08821081830792299
4.743588765603328,0.10066153438576167,-0.1,-0.09933846561423834
4.751588072122052,0.10964951923826065,-0.1,-0.09035048076173936
4.759587378640776,0.11863750409075963,-0.1,-0.08136249590924038
4.7675866851595,0.1276254889432586,-0.1,-0.0723745110567414
4.775585991678224,0.13661347379575758,-0.1,-0.06338652620424243
4.783585298196948,0.14560145864825658,-0.1,-0.05439854135174345
4.7915846047156725,0.15458944350075554,-0.1,-0.04541055649924447
4.7995839112343965,0.1635774283532545,-0.1,-0.03642257164674549
4.807583217753121,0.1725654132057535,-0.1,-0.027434586794246513
4.815582524271845,0.1815533980582525,-0.1,-0.018446601941747534
4.823581830790568,0.19054138291075046,-0.1,-0.009458617089249555
4.831581137309292,0.19952936776324942,-0.1,-0.0004706322367505761
4.839580443828016,0.043007397133600765,-0.14300739713360078,0.0
4.84757975034674,0.09512792516304261,-0.2,-0.004872074836957393
4.855579056865464,0.08661802461120854,-0.2,-0.01338197538879146
4.863578363384188,0.07810812405937448,-0.2,-0.021891875940625527
4.871577669902912,0.06959822350754041,-0.2,-0.030401776492459592
4.879576976421636,0.06108832295570635,-0.2,-0.03891167704429366
4.88757628294036,0.05257842240387228,-0.2,-0.04742157759612772
4.895575589459084,0.04406852185203822,-0.2,-0.05593147814796179
4.903574895977808,0.03555862130020415,-0.2,-0.06444137869979585
4.911574202496532,0.027048720748370086,-0.2,-0.07295127925162992
4.919573509015256,0.01853882019653602,-0.2,-0.08146117980346398
4.92757281553398,0.010028919644701956,-0.2,-0.08997108035529805
4.9355721220527045,0.0015190190928678765,-0.2,-0.09848098090713213
4.9435714285714285,0.2,-0.3785714285714254,-0.1785714285714254
4.9515707350901526,0.2,-0.3910932528351146,-0.20890674716488544
4.959570041608876,0.2,-0.38168230398955794,-0.2183176960104421
4.9675693481276,0.2,-0.3722713551440002,-0.2277286448559998
4.975568654646324,0.2,-0.3628604062984425,-0.2371395937015575
4.983567961165048,0.2,-0.3534494574528848,-0.2465505425471152
4.991567267683772,0.2,-0.3440385086073271,-0.2559614913926729
4.999566574202496,0.2,-0.3346275597617694,-0.2653724402382306
5.00756588072122,0.2,-0.3252166109162117,-0.2747833890837883
5.015565187239944,0.2,-0.31580566207065397,-0.284194337929346
5.023564493758668,0.2,-0.30639471322509626,-0.2936052867749037
5.031563800277392,0.23085991678232284,-0.3,-0.25638002773922575
5.039563106796116,0.4988019004337947,-0.30059904978310265,-0.3
5.04756241331484,0.48178209933012656,-0.3091089503349367,-0.3
5.055561719833564,0.4647622982264584,-0.3176188508867708,-0.3
5.063561026352288,0.4477424971227903,-0.3261287514386048,-0.3
5.071560332871012,0.43072269601912216,-0.3346386519904389,-0.3
5.079559639389736,0.41370289491545403,-0.34314855254227294,-0.3
5.08755894590846,0.3966830938117878,-0.3516584530941061,-0.3
5.095558252427184,0.37966329270811966,-0.3601683536459402,-0.3
5.103557558945908,0.36264349160445153,-0.3686782541977742,-0.3
5.111556865464632,0.3456236905007834,-0.3771881547496083,-0.3
5.119556171983356,0.32860388939711527,-0.38569805530144236,-0.3
5.12755547850208,0.31158408829344714,-0.39420795585327645,-0.3
5.135554785020804,0.4,-0.4,-0.2222112145829086
5.143554091539528,0.3891816920944124,-0.6554091539527938,-0.3
5.151553398058252,0.3,-0.6916073354908312,-0.3083926645091687
5.159552704576976,0.3,-0.6827192171366934,-0.3172807828633066
5.1675520110957,0.3,-0.6738310987825555,-0.3261689012174444
5.175551317614424,0.3,-0.6649429804284177,-0.33505701957158224
5.183550624133148,0.3,-0.6560548620742799,-0.3439451379257201
5.191549930651872,0.3,-0.647166743720142,-0.35283325627985795
5.199549237170596,0.3,-0.6382786253660042,-0.3617213746339958
5.20754854368932,0.3,-0.6293905070118664,-0.3706094929881336
5.215547850208044,0.3,-0.6205023886577284,-0.3794976113422715
5.2235471567267675,0.3,-0.6116142703035916,-0.38838572969640833
5.2315464632454916,0.3,-0.6027261519494538,-0.3972738480505462
5.239545769764216,0.6,-0.7,-0.5
5.24754507628294,0.8038956882230109,-0.9961043117769891,-0.5038956882230109
5.255544382801664,0.8126861349468835,-0.9873138650531166,-0.5126861349468834
5.263543689320388,0.821476581670756,-0.978523418329244,-0.521476581670756
5.271542995839112,0.8302670283946285,-0.9697329716053715,-0.5302670283946285
5.279542302357836,0.8390574751185012,-0.9609425248814989,-0.5390574751185011
5.28754160887656,0.8478479218423737,-0.9521520781576264,-0.5478479218423736
5.295540915395284,0.8566383685662462,-0.9433616314337538,-0.5566383685662462
5.303540221914008,0.8654288152901188,-0.9345711847098812,-0.5654288152901188
5.311539528432732,0.8742192620139914,-0.9257807379860087,-0.5742192620139913
5.319538834951456,0.8830097087378639,-0.9169902912621362,-0.5830097087378638
5.32753814147018,0.8918001554617365,-0.9081998445382635,-0.5918001554617365
5.335537447988904,0.8892510402219157,-0.9,-0.6053744798890421
5.343536754507628,0.7292649098474313,-0.9,-0.6853675450762843
5.351536061026351,1.2,-1.1081288759226473,-0.39187112407735286
5.359535367545075,1.2,-1.1265180863105186,-0.3734819136894814
5.3675346740637995,1.2,-1.1449072966983902,-0.35509270330160997
5.3755339805825235,1.2,-1.1632965070862615,-0.3367034929137386
5.383533287101248,1.2,-1.1816857174741329,-0.31831428252586713
5.391532593619972,1.2,-1.2000749278620044,-0.2999250721379957
5.399531900138696,1.2,-1.2184641382498758,-0.28153586175012424
5.40753120665742,1.2,-1.236853348637747,-0.26314665136225285
5.415530513176144,1.2,-1.2552425590256187,-0.2447574409743814
5.423529819694868,1.2,-1.27363176941349,-0.22636823058650998
5.431529126213592,1.2,-1.2920209798013615,-0.20797902019863856
5.439528432732316,-1.7454923717050652,-3.198335644936632,0.569902912620966
5.44752773925104,-6.38517382258938,-5.686262286679132,1.5082426279925207
5.455527045769764,-6.654715672676822,-5.642787794729545,1.5343273231622732
5.463526352288488,-6.924257522764264,-5.599313302779958,1.5604120183320256
5.471525658807212,-7.193799372851705,-5.5558388108303705,1.586496713501778
5.479524965325936,-7.463341222939148,-5.512364318880783,1.6125814086715304
5.487524271844659,-7.732883073026559,-5.4688898269312,1.63866610384128
5.495523578363383,-8.002424923114,-5.425415334981613,1.6647507990110324
5.503522884882107,-8.271966773201443,-5.381940843032026,1.6908354941807848
5.511522191400831,-8.541508623288884,-5.338466351082438,1.7169201893505373
5.5195214979195555,-8.811050473376326,-5.294991859132851,1.7430048845202897
5.5275208044382795,-9.080592323463769,-5.251517367183263,1.769089579690042
5.535520110957004,-9.350134173551211,-5.208042875233676,1.7951742748597945
5.543519417475728,4.038834951455962,-2.1742718446608755,0.2254854368936492
5.551518723994452,5.353822305621274,-0.034633270784044046,-0.9646177694378726
5.559518030513176,5.7302602594435825,0.24769519458268713,-0.9269739740556417
5.5675173370319,6.106698213265891,0.5300236599494184,-0.8893301786734109
5.575516643550624,6.483136167088199,0.8123521253161496,-0.8516863832911801
5.583515950069348,6.859574120910508,1.0946805906828807,-0.8140425879089492
5.591515256588072,7.236012074732816,1.377009056049612,-0.7763987925267184
5.599514563106796,7.6124500285551235,1.6593375214163433,-0.7387549971444876
5.60751386962552,7.988887982377433,1.9416659867830746,-0.7011112017622567
5.615513176144243,8.3653259361997,2.2239944521497748,-0.6634674063800301
5.623512482662967,8.741763890022007,2.506322917516506,-0.6258236109977993
5.631511789181691,8.74882108183085,1.9105805428969567,-0.3847037844264426
5.639511095700415,8.817753120664575,2.0577669902907516,-0.44445214979232023
5.647510402219139,9.578541707945314,2.378541707945315,-0.19284723598177178
5.655509708737863,9.555686546463246,2.3556865464632466,-0.18522884882108223
5.6635090152565875,9.532831384981177,2.332831384981178,-0.1776104616603927
5.6715083217753115,9.509976223499109,2.3099762234991092,-0.16999207449970316
5.6795076282940355,9.48712106201704,2.287121062017041,-0.1623736873390136
5.68750693481276,9.464265900534972,2.2642659005349723,-0.1547553001783241
5.695506241331484,9.441410739052904,2.2414107390529034,-0.14713691301763454
5.703505547850208,9.418555577570835,2.218555577570835,-0.13951852585694502
5.711504854368932,9.395700416088767,2.1957004160887665,-0.13190013869625547
5.719504160887656,9.372845254606698,2.1728452546066976,-0.12428175153556593
5.72750346740638,9.34999009312463,2.149990093124629,-0.11666336437487639
5.735502773925104,9.327134931642561,2.1271349316425607,-0.10904497721418685
5.743502080443828,9.304279770160493,2.104279770160492,-0.10142659005349731
5.751501386962551,-2.583965171828803,-1.4001849283401375,0.7166820773616781
5.759500693481275,-6.0060895153128016,-2.4020298384376004,0.797293548749866
5.767499999999999,-6.103378378378364,-2.434459459459455,0.7540540540540602
5.775499306518723,-6.200667241443927,-2.4668890804813093,0.7108145593582545
5.783498613037447,-6.297956104509491,-2.4993187015031633,0.6675750646624488
5.791497919556171,-6.395244967575054,-2.5317483225250177,0.624335569966643
5.799497226074895,-6.492533830640617,-2.564177943546872,0.5810960752708373
5.807496532593619,-6.5898226937061795,-2.5966075645687265,0.5378565805750315
5.8154958391123435,-6.687111556771742,-2.629037185590581,0.49461708587922576
5.8234951456310675,-6.784400419837305,-2.6614668066124354,0.45137759118341997
5.831494452149792,-6.881689282902869,-2.6938964276342894,0.40813809648761423
5.839493758668516,-4.031373092926615,-1.8698751733703076,-0.8096255201109233
5.84749306518724,-3.074744527874759,-1.6747445278747586,-1.1063138680313105
5.855492371705964,-3.0379661070990163,-1.6379661070990161,-1.115508473225246
5.863491678224688,-3.001187686323274,-1.6011876863232737,-1.1247030784191816
5.871490984743412,-2.9644092655475314,-1.5644092655475312,-1.1338976836131172
5.879490291262135,-2.927630844771793,-1.5276308447717928,-1.1430922888070518
5.887489597780859,-2.8908524239960505,-1.4908524239960503,-1.1522868940009874
5.895488904299583,-2.8540740032203082,-1.4540740032203079,-1.161481499194923
5.903488210818307,-2.8172955824445656,-1.4172955824445654,-1.1706761043888587
5.911487517337031,-2.780517161668823,-1.380517161668823,-1.1798707095827943
5.919486823855755,-2.7437387408930807,-1.3437387408930805,-1.1890653147767298
5.927486130374479,-2.706960320117338,-1.306960320117338,-1.1982599199706654
5.935485436893203,-2.5,-0.42864077669917683,-1.0
5.943484743411927,-3.104983048235475,0.4149491447064243,-0.9
5.951484049930651,-3.113871166589613,0.44161349976883785,-0.9
5.959483356449375,-3.1227592849437507,0.4682778548312514,-0.9
5.9674826629680995,-3.1316474032978885,0.4949422098936649,-0.9
5.9754819694868235,-3.1405355216520263,0.5216065649560784,-0.9
5.983481276005548,-3.149423640006164,0.548270920018492,-0.9
5.991480582524272,-3.158311758360302,0.5749352750809055,-0.9
5.999479889042996,-3.16719987671444,0.6015996301433191,-0.9
6.00747919556172,-3.1760879950685776,0.6282639852057326,-0.9
6.015478502080443,-3.1849761134227146,0.6549283402681432,-0.9
6.023477808599167,-3.1938642317768524,0.6815926953305567,-0.9
6.031477115117891,-1.8137309292654669,0.9738557558945444,-0.9477115117890889
6.039476421636615,0.5916328567539909,0.5958164283769954,-2.112550714869014
6.047475728155339,0.5766808819526376,0.5883404409763188,-2.134978677071044
6.055475034674063,0.5617289071512842,0.5808644535756421,-2.1574066392730735
6.063474341192787,0.5467769323499309,0.5733884661749654,-2.1798346014751036
6.071473647711511,0.5318249575485776,0.5659124787742887,-2.2022625636771336
6.079472954230235,0.5168729827472243,0.5584364913736121,-2.2246905258791636
6.087472260748959,0.5019210079458709,0.5509605039729355,-2.2471184880811936
6.095471567267683,0.48696903314451756,0.5434845165722588,-2.2695464502832237
6.103470873786407,0.47201705834316426,0.5360085291715821,-2.2919744124852537
6.1114701803051314,0.4570650835418109,0.5285325417709055,-2.3144023746872837
6.1194694868238555,0.4421131087404576,0.5210565543702288,-2.3368303368893137
6.1274687933425795,0.42716113393910426,0.5135805669695521,-2.3592582990913433
6.135468099861304,0.4122091591377509,0.5061045795688754,-2.3816862612933734
6.143467406380028,0.27771613499771225,0.40217290799816974,-2.4244567730004576
6.151466712898751,-0.36740638002776593,0.11629680998611705,-2.2511095700416486
6.159466019417475,-0.06019417475747299,0.17669902912624552,-1.953398058252491
6.167465325936199,0.5426174838867484,0.13803132903646623,-1.7334451741861843
6.175464632454923,0.719072774740954,0.1850860732642544,-1.6510993717875548
6.183463938973647,0.8955280655951596,0.23214081749204257,-1.5687535693889256
6.191463245492371,1.0719833564493653,0.27919556171983073,-1.4864077669902964
6.199462552011095,1.248438647303571,0.32625030594761895,-1.404061964591667
6.207461858529819,1.4248939381577763,0.37330505017540705,-1.3217161621930378
6.215461165048543,1.6013492290119822,0.42035979440319526,-1.2393703597944086
6.223460471567267,1.7778045198661876,0.4674145386309835,-1.1570245573957791
6.231459778085991,2.6810332871013487,0.7459778085991009,-0.5080443828017982
6.239459084604715,1.4905686546463501,0.8682385575589416,0.23647711511788327
6.247458391123439,1.324532094936806,0.912266047468403,0.3183990712026045
6.255457697642163,1.3604840343468017,0.9302420171734008,0.3453630257601012
6.2634570041608875,1.3964359737567973,0.9482179868783986,0.37232698031759787
6.2714563106796115,1.4323879131667927,0.9661939565833964,0.39929093487509454
6.279455617198335,1.4683398525767843,0.9841699262883922,0.4262548894325882
6.287454923717059,1.5042917919867798,1.00214589599339,0.45321884399008483
6.295454230235783,1.5402437313967754,1.0201218656983877,0.4801827985475815
6.303453536754507,1.5761956708067708,1.0380978354033856,0.5071467531050782
6.311452843273231,1.6121476102167664,1.0560738051083833,0.5341107076625748
6.319452149791955,1.648099549626762,1.074049774813381,0.5610746622200715
6.327451456310679,1.6840514890367575,1.092025744518379,0.5880386167775682
6.335450762829403,0.7166435506272877,0.5140083217762441,0.0
6.343450069348127,-2.576665550719789,-0.001666746377157935,0.19333301449136828
6.351449375866851,-2.4479410780046904,-0.010861351571093556,0.1565545937156258
6.359448682385575,-2.3192166052895917,-0.020055956765029175,0.11977617293988331
6.367447988904299,-2.190492132574493,-0.029250561958964798,0.08299775216414082
6.375447295423023,-2.0617676598593944,-0.03844516715290042,0.046219331388398344
6.383446601941747,-1.9330431871442957,-0.047639772346836036,0.009440910612655867
6.391445908460471,-1.804318714429197,-0.056834377540771655,-0.02733751016308661
6.399445214979195,-1.6755942417140983,-0.06602898273470728,-0.06411593093882911
6.407444521497919,-1.5468697689989994,-0.0752235879286429,-0.10089435171457156
6.415443828016643,-1.4181452962839152,-0.08441819312257749,-0.13767277249030996
6.423443134535367,-1.2894208235688165,-0.09361279831651312,-0.17445119326605246
6.431442441054091,0.05899214054541597,0.322122052704531,-0.207374017568177
6.439441747572815,0.6395631067963676,0.7279126213592735,-0.3
6.447441054091539,0.4719205505979683,0.7,-0.3
6.455440360610263,0.44173448826316053,0.7,-0.3
6.463439667128987,0.4115484259283528,0.7,-0.3
6.471438973647711,0.38136236359354503,0.7,-0.3
6.479438280166435,0.3511763012587372,0.7,-0.3
6.487437586685159,0.32099023892392947,0.7,-0.3
6.495436893203883,0.2908041765891217,0.7,-0.3
6.503436199722607,0.2606181142543139,0.7,-0.3
6.511435506241331,0.23043205191950616,0.7,-0.3
6.519434812760055,0.20024598958469841,0.7,-0.3
6.527434119278779,0.17005992724989066,0.7,-0.3
6.535433425797503,0.13987386491508286,0.7,-0.3
6.5434327323162265,0.10968780258027844,0.7,-0.3
6.5514320388349505,0.1,0.5113592233009899,-0.25567961165049496
6.559431345353675,0.0,0.2137309292650732,-0.15686546463253662
6.567430651872399,0.0,0.1,-0.08967965017722362
6.575429958391123,0.0,0.1,-0.07856950223455135
6.583429264909847,0.0,0.1,-0.06745935429187908
6.591428571428571,0.0,0.1,-0.056349206349206794
6.599427877947295,0.0,0.1,-0.04523905840653451
6.607427184466019,0.0,0.1,-0.03412891046386224
6.615426490984743,0.0,0.1,-0.02301876252118995
6.623425797503467,0.0,0.1,-0.011908614578517676
6.631425104022191,0.0,0.1,-0.0007984666358454018
6.639424410540915,-0.3004515005754413,-0.20045150057544128,0.10045150057544128
6.647423717059639,-0.30896140112727544,-0.20896140112727543,0.10896140112727543
6.655423023578363,-0.3174713016791096,-0.21747130167910958,0.11747130167910957
6.663422330097087,-0.32598120223094373,-0.22598120223094373,0.12598120223094372
6.671421636615811,-0.3344911027827779,-0.23449110278277788,0.13449110278277787
6.679420943134534,-0.34300100333461103,-0.24300100333461105,0.14300100333461108
6.687420249653258,-0.35151090388644524,-0.2515109038864452,0.15151090388644523
6.6954195561719825,-0.36002080443827933,-0.26002080443827935,0.16002080443827937
6.7034188626907065,-0.36853070499011353,-0.2685307049901135,0.16853070499011352
6.711418169209431,-0.3770406055419476,-0.27704060554194765,0.17704060554194767
6.719417475728155,-0.38555050609378183,-0.2855505060937818,0.18555050609378182
6.727416782246879,-0.3940604066456159,-0.29406040664561595,0.19406040664561597
6.735416088765603,-0.38959778085993896,-0.2895977808599389,0.18959778085993897
6.743415395284327,-0.1,-0.1,0.09952253415594663
6.751414701803051,-0.1,-0.1,0.09032792896201092
6.759414008321775,-0.1,-0.1,0.0811333237680752
6.767413314840499,-0.1,-0.1,0.07193871857413948
6.775412621359223,-0.1,-0.1,0.06274411338020378
6.783411927877947,-0.1,-0.1,0.05354950818626806
6.791411234396671,-0.1,-0.1,0.04435490299233234
6.799410540915395,-0.1,-0.1,0.03516029779839662
6.807409847434118,-0.1,-0.1,0.025965692604461937
6.815409153952842,-0.1,-0.1,0.016771087410526214
6.823408460471566,-0.1,-0.1,0.007576482216590505
6.83140776699029,-0.1,-0.029611650485475913,0.0
6.8394070735090144,0.0,0.1,0.0
6.8474063800277385,0.0,0.1,0.0
6.8554056865464625,0.0,0.1,0.0
6.863404993065187,0.0,0.1,0.0
6.871404299583911,0.0,0.1,0.0
6.879403606102635,0.0,0.1,0.0
6.887402912621359,0.0,0.1,0.0
6.895402219140083,0.0,0.1,0.0
6.903401525658807,0.0,0.1,0.0
6.911400832177531,0.0,0.1,0.0
6.919400138696255,0.0,0.1,0.0
6.927399445214979,0.0,0.1,0.0
6.935398751733703,0.0,0.1,0.0
6.943398058252426,0.0,0.1,0.0
6.95139736477115,0.0,0.1,0.0
6.959396671289874,0.0,0.0,0.0
6.967395977808598,0.0,0.0,0.0
6.975395284327322,0.0,0.0,0.0
6.983394590846046,0.0,0.0,0.0
6.9913938973647705,0.0,0.0,0.0
6.9993932038834945,0.0,0.0,0.0
7.0073925104022186,0.0,0.0,0.0
7.015391816920943,0.0,0.0,0.0
7.023391123439667,0.0,0.0,0.0
7.031390429958391,0.0,0.0,0.0
7.039389736477115,-0.1,0.0,0.0
7.047389042995839,-0.1,0.0,0.0
7.055388349514563,-0.1,0.0,0.0
7.063387656033287,-0.1,0.0,0.0
7.07138696255201,-0.1,0.0,0.0
7.079386269070734,-0.1,0.0,0.0
7.087385575589458,-0.1,0.0,0.0
7.095384882108182,-0.1,0.0,0.0
7.103384188626906,-0.1,0.0,0.0
7.11138349514563,-0.1,0.0,0.0
7.119382801664354,-0.1,0.0,0.0
7.127382108183078,-0.1,0.0,0.0
7.135381414701802,-0.1,0.0,0.0
7.1433807212205265,0.0,0.0,0.0
7.1513800277392505,0.0,0.0,0.0
7.159379334257975,0.0,0.0,0.0
7.167378640776699,0.0,0.0,0.0
7.175377947295423,0.0,0.0,0.0
7.183377253814147,0.0,0.0,0.0
7.191376560332871,0.0,0.0,0.0
7.199375866851595,0.0,0.0,0.0
7.207375173370318,0.0,0.0,0.0
7.215374479889042,0.0,0.0,0.0
7.223373786407766,0.0,0.0,0.0
7.23137309292649,0.0,0.0,0.0
7.239372399445214,0.0,0.0,0.0
7.247371705963938,0.0,0.0,0.0
7.255371012482662,0.0,0.0,0.0
7.263370319001386,0.0,0.0,0.0
7.27136962552011,0.0,0.0,0.0
7.279368932038834,0.0,0.0,0.0
7.287368238557558,0.0,0.0,0.0
7.2953675450762825,0.0,0.0,0.0
7.3033668515950065,0.0,0.0,0.0
7.311366158113731,0.0,0.0,0.0
7.319365464632455,0.0,0.0,0.0
7.327364771151179,0.0,0.0,0.0
7.335364077669902,0.0,0.0,0.0
7.343363384188626,0.0,0.0,0.0
7.35136269070735,0.0,0.0,0.0
7.359361997226074,0.0,0.0,0.0
7.367361303744798,0.0,0.0,0.0
7.375360610263522,0.0,0.0,0.0
7.383359916782246,0.0,0.0,0.0
7.39135922330097,0.0,0.0,0.0
7.399358529819694,0.0,0.0,0.0
7.407357836338418,0.0,0.0,0.0
7.415357142857142,0.0,0.0,0.0
7.423356449375866,0.0,0.0,0.0
7.43135575589459,0.0,0.0,0.0
7.4393550624133145,0.0,0.0,0.0
7.4473543689320385,0.0,0.0,0.0
7.4553536754507626,0.0,0.0,0.0
7.463352981969487,0.0,0.0,0.0
7.47135228848821,0.0,0.0,0.0
7.479351595006934,0.0,0.0,0.0
7.487350901525658,0.0,0.0,0.0
7.495350208044382,0.0,0.0,0.0
7.503349514563106,0.0,0.0,0.0
7.51134882108183,0.0,0.0,0.0
7.519348127600554,0.0,0.0,0.0
7.527347434119278,0.0,0.0,0.0
7.535346740638002,0.0,0.0,0.0
7.543346047156726,0.0,0.0,0.0
7.55134535367545,0.0,0.0,0.0
7.559344660194174,0.0,0.0,0.0
7.567343966712898,0.0,0.0,0.0
7.575343273231622,0.0,0.0,0.0
7.583342579750346,0.0,0.0,0.0
7.5913418862690705,0.0,0.0,0.0
7.599341192787794,0.0,0.0,0.0
7.607340499306518,0.0,0.0,0.0
7.615339805825242,0.0,0.0,0.0
7.623339112343966,0.0,0.0,0.0
7.63133841886269,0.0,0.0,0.0
7.639337725381414,0.0,0.0,0.0
7.647337031900138,0.0,0.0,0.0
7.655336338418862,0.0,0.0,0.0
7.663335644937586,0.0,0.0,0.0
7.67133495145631,0.0,0.0,0.0
7.679334257975034,0.0,0.0,0.0
7.687333564493758,0.0,0.0,0.0
7.695332871012482,0.0,0.0,0.0
7.703332177531206,0.0,0.0,0.0
7.71133148404993,0.0,0.0,0.0
7.719330790568654,0.0,0.0,0.0
7.727330097087378,0.0,0.0,0.0
7.7353294036061016,0.0,0.0,0.0
7.743328710124826,0.0,0.0,0.0
7.75132801664355,0.0,0.0,0.0
7.759327323162274,0.0,0.0,0.0
7.767326629680998,0.0,0.0,0.0
7.775325936199722,0.0,0.0,0.0
7.783325242718446,0.0,0.0,0.0
7.79132454923717,0.0,0.0,0.0
7.799323855755894,0.0,0.0,0.0
7.807323162274618,0.0,0.0,0.0
7.815322468793342,0.0,0.0,0.0
7.823321775312066,0.0,0.0,0.0
7.83132108183079,0.0,0.0,0.0
7.839320388349514,0.0,0.0,0.0
7.847319694868238,0.0,0.0,0.0
7.855319001386962,0.0,0.0,0.0
7.863318307905685,0.0,0.0,0.0
7.8713176144244095,0.0,0.0,0.0
7.8793169209431335,0.0,0.0,0.0
7.887316227461858,0.0,0.0,0.0
7.895315533980582,0.0,0.0,0.0
7.903314840499306,0.0,0.0,0.0
7.91131414701803,0.0,0.0,0.0
7.919313453536754,0.0,0.0,0.0
7.927312760055478,0.0,0.0,0.0
7.935312066574202,0.0,0.0,0.0
7.943311373092926,0.0,0.0,0.0
7.95131067961165,0.0,0.0,0.0
7.959309986130374,0.0,0.0,0.0
7.967309292649098,0.0,0.0,0.0
7.975308599167822,0.0,0.0,0.0
7.983307905686546,0.0,0.0,0.0
7.99130721220527,0.0,0.0,0.0
7.999306518723993,0.0,0.0,0.0
8.007305825242717,0.0,0.0,0.0
8.015305131761442,0.0,0.0,0.0
8.023304438280165,0.0,0.0,0.0
8.03130374479889,0.0,0.0,0.0
8.039303051317614,0.0,0.0,0.0
8.047302357836339,0.0,0.0,0.0
8.055301664355062,0.0,0.0,0.0
8.063300970873785,0.0,0.0,0.0
8.07130027739251,0.0,0.0,0.0
8.079299583911233,0.0,0.0,0.0
8.087298890429958,0.0,0.0,0.0
8.095298196948681,0.0,0.0,0.0
8.103297503467406,0.0,0.0,0.0
8.11129680998613,0.0,0.0,0.0
8.119296116504854,0.0,0.0,0.0
8.127295423023577,0.0,0.0,0.0
8.135294729542302,0.0,0.0,0.0
8.143294036061025,0.0,0.0,0.0
8.15129334257975,0.0,0.0,0.0
8.159292649098473,0.0,0.0,0.0
8.167291955617198,0.0,0.0,0.0
8.175291262135921,0.0,0.0,0.0
8.183290568654646,0.0,0.0,0.0
8.19128987517337,0.0,0.0,0.0
8.199289181692093,0.0,0.0,0.0
8.207288488210818,0.0,0.0,0.0
8.21528779472954,0.0,0.0,0.0
8.223287101248266,0.0,0.0,0.0
8.231286407766989,0.0,0.0,0.0
8.239285714285714,0.0,0.0,0.0
8.247285020804437,0.0,0.0,0.0
8.255284327323162,0.0,0.0,0.0
8.263283633841885,0.0,0.0,0.0
8.27128294036061,0.0,0.0,0.0
8.279282246879333,0.0,0.0,0.0
8.287281553398058,0.0,0.0,0.0
8.295280859916781,0.0,0.0,0.0
8.303280166435506,0.0,0.0,0.0
8.31127947295423,0.0,0.0,0.0
8.319278779472954,0.0,0.0,0.0
8.327278085991678,0.0,0.0,0.0
8.3352773925104,0.0,0.0,0.0
8.343276699029126,0.0,0.0,0.0
8.351276005547849,0.0,0.0,0.0
8.359275312066574,0.0,0.0,0.0
8.367274618585297,0.0,0.0,0.0
8.375273925104022,0.0,0.0,0.0
8.383273231622745,0.0,0.0,0.0
8.39127253814147,0.0,0.0,0.0
8.399271844660193,0.0,0.0,0.0
8.407271151178918,0.0,0.0,0.0
8.415270457697641,0.0,0.0,0.0
8.423269764216366,0.0,0.0,0.0
8.43126907073509,0.0,0.0,0.0
8.439268377253814,0.0,0.0,0.0
8.447267683772537,0.0,0.0,0.0
8.455266990291262,0.0,0.0,0.0
8.463266296809985,0.0,0.0,0.0
8.471265603328709,0.0,0.0,0.0
8.479264909847434,0.0,0.0,0.0
8.487264216366157,0.0,0.0,0.0
8.495263522884882,0.0,0.0,0.0
8.503262829403605,0.0,0.0,0.0
8.51126213592233,0.0,0.0,0.0
8.519261442441053,0.0,0.0,0.0
8.527260748959778,0.0,0.0,0.0
8.535260055478501,0.0,0.0,0.0
8.543259361997226,0.0,0.0,0.0
8.551258668515949,0.0,0.0,0.0
8.559257975034674,0.0,0.0,0.0
8.567257281553397,0.0,0.0,0.0
8.575256588072122,0.0,0.0,0.0
8.583255894590845,0.0,0.0,0.0
8.591255201109568,0.0,0.0,0.0
8.599254507628293,0.0,0.0,0.0
8.607253814147017,0.0,0.0,0.0
8.615253120665741,0.0,0.0,0.0
8.623252427184465,0.0,0.0,0.0
8.63125173370319,0.0,0.0,0.0
8.639251040221913,0.0,0.0,0.0
8.647250346740638,0.0,0.0,0.0
8.65524965325936,0.0,0.0,0.0
8.663248959778086,0.0,0.0,0.0
8.671248266296809,0.0,0.0,0.0
8.679247572815534,0.0,0.0,0.0
8.687246879334257,0.0,0.0,0.0
8.695246185852982,0.0,0.0,0.0
8.703245492371705,0.0,0.0,0.0
8.71124479889043,0.0,0.0,0.0
8.719244105409153,0.0,0.0,0.0
8.727243411927876,0.0,0.0,0.0
8.735242718446601,0.0,0.0,0.0
8.743242024965324,0.0,0.0,0.0
8.75124133148405,0.0,0.0,0.0
8.759240638002773,0.0,0.0,0.0
8.767239944521497,0.0,0.0,0.0
8.77523925104022,0.0,0.0,0.0
8.783238557558946,0.0,0.0,0.0
8.791237864077669,0.0,0.0,0.0
8.799237170596394,0.0,0.0,0.0
8.807236477115117,0.0,0.0,0.0
8.815235783633842,0.0,0.0,0.0
8.823235090152565,0.0,0.0,0.0
8.83123439667129,0.0,0.0,0.0
8.839233703190013,0.0,0.0,0.0
8.847233009708738,0.0,0.0,0.0
8.855232316227461,0.10148471834633964,0.1,-0.1
8.863231622746184,0.11112243704359644,0.1,-0.1
8.87123092926491,0.12076015574085537,0.1,-0.1
8.879230235783632,0.13039787443811218,0.1,-0.1
8.887229542302357,0.14003559313537112,0.1,-0.1
8.89522884882108,0.1496733118326279,0.1,-0.1
8.903228155339805,0.15931103052988685,0.1,-0.1
8.911227461858529,0.16894874922714365,0.1,-0.1
8.919226768377253,0.17858646792440258,0.1,-0.1
8.927226074895977,0.18822418662165938,0.1,-0.1
8.935225381414702,0.1978619053189183,0.1,-0.1
8.943224687933425,0.8,0.13876560332879237,-0.3
8.95122399445215,0.8943217451607066,0.09432174516070663,-0.4
8.959223300970873,0.8856268467707902,0.0856268467707902,-0.4
8.967222607489598,0.8769319483808719,0.07693194838087183,-0.4
8.975221914008321,0.8682370499909554,0.06823704999095541,-0.4
8.983221220527046,0.8595421516010371,0.05954215160103705,-0.4
8.991220527045769,0.8508472532111206,0.050847253211120616,-0.4
8.999219833564492,0.8421523548212042,0.04215235482120419,-0.4
9.007219140083217,0.8334574564312859,0.03345745643128582,-0.4
9.01521844660194,0.8247625580413694,0.024762558041369398,-0.4
9.023217753120665,0.8160676596514511,0.016067659651451044,-0.4
9.031217059639388,0.8073727612615347,0.007372761261534605,-0.4
9.039216366158113,0.3216366158113529,-0.2216366158113529,-0.41081830790567647
9.047215672676836,1.4813042286230467,-0.10373915427539067,-0.6962608457246093
9.055214979195561,1.4347966325839483,-0.11304067348321033,-0.6869593265167896
9.063214285714285,1.3882890365448604,-0.12234219269102792,-0.6776578073089721
9.07121359223301,1.3417814405057622,-0.13164371189884758,-0.6683562881011524
9.079212898751733,1.295273844466674,-0.14094523110666518,-0.6590547688933348
9.087212205270458,1.2487662484275759,-0.15024675031448484,-0.6497532496855152
9.09521151178918,1.2022586523884877,-0.15954826952230244,-0.6404517304776975
9.103210818307906,1.1557510563493896,-0.1688497887301221,-0.6311502112698779
9.111210124826629,1.1092434603103016,-0.1781513079379397,-0.6218486920620603
9.119209431345352,1.0627358642712137,-0.18745282714575728,-0.6125471728542426
9.127208737864077,1.0162282682321153,-0.19675434635357697,-0.603245653646423
9.1352080443828,1.0,-0.1,-0.8
9.143207350901525,1.0120531085466498,-0.1,-0.8
9.151206657420248,1.027585742563588,-0.1,-0.8
9.159205963938973,1.0431183765805296,-0.1,-0.8
9.167205270457696,1.0586510105974678,-0.1,-0.8
9.175204576976421,1.0741836446144095,-0.1,-0.8
9.183203883495144,1.0897162786313477,-0.1,-0.8
9.19120319001387,1.1052489126482892,-0.1,-0.8
9.199202496532592,1.1207815466652276,-0.1,-0.8
9.207201803051317,1.136314180682169,-0.1,-0.8
9.21520110957004,1.1518468146991072,-0.1,-0.8
9.223200416088766,1.167379448716049,-0.1,-0.8
9.231199722607489,1.182912082732987,-0.1,-0.8
9.239199029126214,1.1984447167499288,-0.1,-0.8
9.247198335644937,1.6,-0.07400832177532005,-0.82599167822468
9.25519764216366,1.6,-0.0340117891817034,-0.8659882108182967
9.263196948682385,1.3098474341192445,-0.1,-0.9
9.271196255201108,1.4277444262736152,-0.09075185790879488,-0.9
9.279195561719833,1.4635622166559656,-0.07881259444801142,-0.9
9.287194868238556,1.499380007038308,-0.06687333098723061,-0.9
9.295194174757281,1.5351977974206585,-0.05493406752644717,-0.9
9.303193481276004,1.5710155878030008,-0.04299480406566636,-0.9
9.31119278779473,1.6068333781853512,-0.0310555406048829,-0.9
9.319192094313452,1.6426511685676937,-0.019116277144102092,-0.9
9.327191400832177,1.6784689589500439,-0.007177013683318634,-0.9
9.3351907073509,1.8914424410540176,0.0,-0.9
9.343190013869625,1.6190013869625297,0.1,-1.0
9.351189320388348,1.8142283227318343,0.1071141613659171,-1.0
9.359188626907073,1.8326175331197077,0.11630876655985384,-1.0
9.367187933425797,1.851006743507577,0.12550337175378853,-1.0
9.375187239944522,1.8693959538954505,0.13469797694772526,-1.0
9.383186546463245,1.8877851642833199,0.14389258214165995,-1.0
9.391185852981968,1.9061743746711892,0.15308718733559465,-1.0
9.399185159500693,1.9245635850590628,0.1622817925295314,-1.0
9.407184466019416,1.9429527954469321,0.17147639772346607,-1.0
9.41518377253814,1.9613420058348057,0.18067100291740282,-1.0
9.423183079056864,1.979731216222675,0.1898656081113375,-1.0
9.431182385575589,1.9981204266105483,0.19906021330527424,-1.0
9.439181692094312,1.8321668622639358,0.2,-1.0
9.447180998613037,1.893699989331051,0.2,-1.0
9.45518030513176,1.8891420645928318,0.19457103229641598,-1.0
9.463179611650485,1.8683646450636762,0.18418232253183814,-1.0
9.471178918169208,1.8475872255345251,0.17379361276726257,-1.0
9.479178224687933,1.8268098060053695,0.16340490300268473,-1.0
9.487177531206656,1.8060323864762182,0.1530161932381092,-1.0
9.495176837725381,1.7852549669470625,0.14262748347353135,-1.0
9.503176144244105,1.7644775474179115,0.13223877370895581,-1.0
9.51117545076283,1.7437001278887558,0.12185006394437797,-1.0
9.519174757281553,1.7229227083596048,0.11146135417980244,-1.0
9.527174063800276,1.7021452888304538,0.1010726444152269,-1.0
9.535173370319,1.4818885806749904,-0.0181114193250095,-1.0
9.543172676837724,1.4152276930189667,-0.0847723069810333,-1.0
9.551171983356449,1.3800903762695198,-0.10663654124349341,-1.0
9.559171289875172,1.3542861616929933,-0.11523794610233552,-1.0
9.567170596393897,1.3284819471164613,-0.12383935096117954,-1.0
9.57516990291262,1.302677732539935,-0.13244075582002166,-1.0
9.583169209431345,1.276873517963403,-0.14104216067886566,-1.0
9.591168515950068,1.2510693033868767,-0.14964356553770777,-1.0
9.599167822468793,1.2252650888103447,-0.1582449703965518,-1.0
9.607167128987516,1.1994608742338184,-0.16684637525539392,-1.0
9.615166435506241,1.1736566596572864,-0.17544778011423792,-1.0
9.623165742024964,1.1478524450807601,-0.18404918497308004,-1.0
9.63116504854369,1.122048230504228,-0.19265058983192407,-1.0
9.639164355062412,1.0870627215287503,-0.2,-1.0
9.647163661581136,0.9918169209432283,-0.20818307905677172,-1.0
9.65516296809986,0.5882853033338473,-0.4,-0.792190202222565
9.663162274618584,0.5586582421533917,-0.4,-0.7724388281022612
9.671161581137309,0.5290311809729293,-0.4,-0.7526874539819529
9.679160887656032,0.4994041197924737,-0.4,-0.7329360798616492
9.687160194174757,0.46977705861201147,-0.4,-0.713184705741341
9.69515950069348,0.4401499974315558,-0.4,-0.6934333316210373
9.703158807212205,0.4105229362510935,-0.4,-0.673681957500729
9.711158113730928,0.3808958750706378,-0.4,-0.6539305833804252
9.719157420249653,0.3512688138901756,-0.4,-0.6341792092601171
9.727156726768376,0.3216417527097199,-0.4,-0.6144278351398134
9.735156033287101,0.1312066574202748,-0.4687933425797252,-0.6
9.743155339805824,0.3075551632833153,-0.3,-0.49622241835834235
9.751154646324549,0.3220993569537243,-0.3,-0.48895032152313783
9.759153952843272,0.33664355062413015,-0.3,-0.4816782246879349
9.767153259361997,0.3511877442945392,-0.3,-0.4744061278527304
9.77515256588072,0.365731937964945,-0.3,-0.4671340310175275
9.783151872399444,0.38027613163535084,-0.3,-0.45986193418232457
9.791151178918168,0.3948203253057599,-0.3,-0.45258983734712005
9.799150485436892,0.4093645189761657,-0.3,-0.44531774051191714
9.807149791955617,0.42390871264657476,-0.3,-0.4380456436767126
9.81514909847434,0.4384529063169806,-0.3,-0.4307735468415097
9.823148404993065,0.45299709998738963,-0.3,-0.4235014500063052
9.831147711511788,0.46754129365779545,-0.3,-0.4162293531711023
9.839147018030513,0.4820854873282045,-0.3,-0.40895725633589775
9.847146324549236,0.4966296809986103,-0.3,-0.40168515950069483
9.85514563106796,0.570873786407905,-0.11456310679604753,-0.4145631067960475
9.863144937586684,0.20499196442330878,-0.3,-0.3099839288466175
9.871144244105409,0.21768927635779267,-0.3,-0.3353785527155853
9.879143550624132,0.23038658829227374,-0.3,-0.3607731765845475
9.887142857142857,0.24308390022675763,-0.3,-0.3861678004535153
9.89514216366158,0.2557812121612387,-0.3,-0.41156242432247747
9.903141470180305,0.2684785240957226,-0.3,-0.4369570481914452
9.911140776699028,0.2811758360302037,-0.3,-0.4623516720604074
9.919140083217751,0.2938731479646848,-0.3,-0.4877462959293696
9.927139389736476,0.3713129912158734,-0.2286870087841266,-0.25040453074444313
9.9351386962552,0.5,-0.1,0.19646265277333305
9.943138002773924,0.5,-0.1,0.18962563865476478
9.951137309292648,0.5,-0.1,0.18278862453619804
9.959136615811373,0.5,-0.1,0.17595161041762977
9.967135922330096,0.5,-0.1,0.16911459629906303
9.97513522884882,0.5,-0.1,0.16227758218049476
9.983134535367544,0.5,-0.1,0.155440568061928
9.991133841886269,0.5,-0.1,0.14860355394335972
9.999133148404992,0.5,-0.1,0.14176653982479298
10.007132454923717,0.5,-0.1,0.1349295257062247
10.01513176144244,0.5,-0.1,0.12809251158765794
10.023131067961165,0.5,-0.1,0.12125549746908969
10.031130374479888,0.5,-0.1,0.11441848335052293
10.039129680998613,0.5,-0.1,0.10758146923195466
10.047128987517336,0.5,-0.1,0.1007444551133879
10.05512829403606,0.4,-0.24142217006292085,0.34142217006292086
10.063127600554784,0.0,-0.5,0.506380027739187
10.071126907073507,-0.00781726768376955,-0.39218273231623046,0.19609136615811523
10.079126213592232,-0.027815533980581873,-0.3721844660194181,0.18609223300970906
10.087125520110956,-0.047813800277389754,-0.3521861997226103,0.17609309986130514
10.09512482662968,-0.06781206657420208,-0.33218793342579794,0.16609396671289897
10.103124133148404,-0.08781033287100995,-0.3121896671289901,0.15609483356449505
10.111123439667129,-0.10780859916782227,-0.29219140083217776,0.14609570041608888
10.119122746185852,-0.12780686546463016,-0.27219313453536986,0.13609656726768493
10.127122052704577,-0.14780513176144247,-0.2521948682385575,0.12609743411927876
10.1351213592233,-0.16780339805825037,-0.23219660194174965,0.11609830097087483
10.143120665742025,-0.18780166435506268,-0.21219833564493734,0.10609916782246867
10.151119972260748,-0.044001386962591,-0.044001386962591,-0.155998613037409
10.159119278779473,0.18855755894590714,-0.0057212205270464386,-0.08283633841886069
10.167118585298196,0.16633726306056532,-0.016831368469717348,-0.04950589459084796
10.17511789181692,0.1441169671752235,-0.027941516412388255,-0.016175450762835233
10.183117198335644,0.12189667128987675,-0.03905166435506163,0.017154993065184893
10.191116504854367,0.09967637540453493,-0.05016181229773254,0.05048543689319762
10.199115811373092,0.07745607951918818,-0.06127196024040592,0.08381588072121773
10.207115117891815,0.055235783633846375,-0.07238210818307682,0.11714632454923046
10.21511442441054,0.033015487748499606,-0.0834922561257502,0.15047676837725057
10.223113730929263,0.010795191863157805,-0.0946024040684211,0.18380721220526333
10.231113037447988,-0.1,-0.1,-0.5035148550989094
10.239112343966712,-0.1,-0.1,-0.5287758230527723
10.247111650485436,-0.1,-0.1,-0.5540367910066408
10.25511095700416,-0.1,-0.1,-0.5792977589605037
10.263110263522885,-0.1,-0.1,-0.6045587269143723
10.271109570041608,-0.1,-0.1,-0.6298196948682352
10.279108876560333,-0.1,-0.1,-0.6550806628221038
10.287108183079056,-0.1,-0.1,-0.6803416307759667
10.29510748959778,-0.1,-0.1,-0.7056025987298351
10.303106796116504,-0.1,-0.1,-0.730863566683698
10.311106102635227,-0.1,-0.1,-0.7561245346375609
10.319105409153952,-0.1,-0.1,-0.7813855025914296
10.327104715672675,0.0157073509012787,-0.1,-0.6738210818312022
10.3351040221914,-0.11040221913993244,-0.10520110956996623,-0.8479889043003378
10.343103328710123,-0.20901830485741296,-0.2045091524287065,-0.10450915242870648
10.351102635228848,-0.22659919830516023,-0.21329959915258012,-0.11329959915258012
10.359101941747571,-0.24418009175290356,-0.22209004587645179,-0.12209004587645178
10.367101248266296,-0.26176098520065083,-0.2308804926003254,-0.13088049260032542
10.37510055478502,-0.27934187864839416,-0.23967093932419709,-0.13967093932419708
10.383099861303744,-0.2969227720961414,-0.2484613860480707,-0.1484613860480707
10.391099167822468,-0.31450366554388476,-0.25725183277194236,-0.15725183277194238
10.399098474341192,-0.33208455899163203,-0.266042279495816,-0.16604227949581601
10.407097780859916,-0.3496654524393753,-0.27483272621968763,-0.17483272621968765
10.41509708737864,-0.36724634588712257,-0.28362317294356126,-0.18362317294356129
10.423096393897364,-0.38482723933486596,-0.29241361966743296,-0.19241361966743298
10.431095700416089,-0.2904299583911392,-0.3,-0.1452149791955696
10.439095006934812,0.2,-0.2,-0.2
10.447094313453535,0.2,-0.2,-0.2
10.45509361997226,0.2,-0.2,-0.2
10.463092926490983,0.2,-0.2,-0.2
10.471092233009708,0.2,-0.2,-0.2
10.479091539528431,0.2,-0.2,-0.2
10.487090846047156,0.2,-0.2,-0.2
10.49509015256588,0.2,-0.2,-0.2
10.503089459084604,0.2,-0.2,-0.2
10.511088765603327,0.2,-0.2,-0.2
10.519088072122052,0.2,-0.2,-0.2
10.527087378640775,0.2,-0.2,-0.2
10.5350866851595,0.2,-0.14566574202498375,-0.14566574202498375
10.543085991678224,0.18171983356446478,-0.2,0.08171983356446477
10.551085298196949,0.09379841683298891,-0.3,0.2937984168329889
10.559084604715672,0.0840431649808876,-0.3,0.28404316498088755
10.567083911234397,0.07428791312878409,-0.3,0.2742879131287841
10.57508321775312,0.06453266127668278,-0.3,0.26453266127668273
10.583082524271843,0.054777409424581446,-0.3,0.25477740942458144
10.591081830790568,0.04502215757247795,-0.3,0.24502215757247794
10.599081137309291,0.03526690572037662,-0.3,0.23526690572037662
10.607080443828016,0.02551165386827313,-0.3,0.22551165386827315
10.61507975034674,0.015756402016171803,-0.3,0.2157564020161718
10.623079056865464,0.006001150164068311,-0.3,0.20600115016406834
10.631078363384187,-0.15391816920935147,-0.09216366158129709,-0.2617545076280544
10.639077669902912,-0.4,0.09992741130568898,-0.6002177660829331
10.647076976421635,-0.4,0.09245142390501321,-0.6226457282849603
10.65507628294036,-0.4,0.08497543650433577,-0.6450736904869927
10.663075589459083,-0.4,0.07749944910366,-0.6675016526890201
10.671074895977808,-0.4,0.07002346170298257,-0.6899296148910523
10.679074202496531,-0.4,0.06254747430230678,-0.7123575770930797
10.687073509015256,-0.4,0.05507148690162936,-0.7347855392951119
10.69507281553398,-0.4,0.047595499500953584,-0.7572135014971393
10.703072122052703,-0.4,0.04011951210027781,-0.7796414636991666
10.711071428571428,-0.4,0.03264352469960037,-0.8020694259011989
10.71907073509015,-0.4,0.025167537298924597,-0.8244973881032263
10.727070041608876,-0.4,0.017691549898247172,-0.8469253503052585
10.735069348127599,-0.4,0.010215562497571398,-0.8693533125072859
10.743068654646324,-0.4,0.002739575096893959,-0.8917812747093181
10.751067961165047,0.39876434245368025,0.1,-0.09938217122684014
10.759067267683772,0.25332240574960385,0.1,-0.026661202874801934
10.767066574202495,0.16872485060188452,0.08748994024075381,0.012510059759246194
10.77506588072122,0.11934641530111302,0.06773856612044521,0.032261433879554796
10.783065187239943,0.06996798000035248,0.04798719200014099,0.052012807999859016
10.791064493758668,0.020589544699580964,0.028235817879832384,0.07176418212016762
10.799063800277391,-0.028788890601179562,0.00848444375952817,0.09151555624047183
10.807063106796116,-0.07816732590195108,-0.011266930360780428,0.11126693036078043
10.81506241331484,-0.1275457612027116,-0.03101830448108464,0.13101830448108465
10.823061719833564,-0.17692419650348312,-0.05076967860139325,0.15076967860139326
10.831061026352288,-0.22630263180424365,-0.07052105272169748,0.17052105272169749
10.83906033287101,-0.2756810671050042,-0.09027242684200168,0.19027242684200169
10.847059639389736,-0.3699937825816491,-0.12799751303265966,0.1440049739346807
10.855058945908459,-0.5079128604906695,-0.1831651441962678,0.0336697116074644
10.863058252427184,-0.6458319383997205,-0.2383327753598882,-0.07666555071977643
10.871057558945907,-0.7837510163087409,-0.2935004065234964,-0.18700081304699273
10.879056865464632,0.21006538537744454,0.4,1.2949673073112777
10.887056171983355,0.286249256984331,0.4,1.2568753715078345
10.89505547850208,0.36243312859123444,0.4,1.2187834357043827
10.903054785020803,0.438617000198121,0.4,1.1806914999009395
10.911054091539528,0.5148008718050243,0.4,1.142599564097488
10.919053398058251,0.5909847434119109,0.4,1.1045076282940447
10.927052704576976,0.6671686150188143,0.4,1.066415692490593
10.9350520110957,0.7433524866257009,0.4,1.0283237566871497
10.943051317614424,0.7316227461858875,0.19486823855766242,0.863245492371775
10.951050624133147,-0.002531624417224207,-0.2987341877913879,0.2974683755827758
10.959049930651872,-0.021807061811742082,-0.28909646909412895,0.2781929381882579
10.967049237170595,-0.04108249920625568,-0.2794587503968722,0.2589175007937443
10.975048543689319,-0.060357936600769276,-0.26982103169961535,0.23964206339923072
10.983047850208044,-0.07963337399528715,-0.2601833130023564,0.22036662600471285
10.991047156726767,-0.09890881138980075,-0.25054559430509965,0.20109118861019926
10.999046463245492,-0.11818424878431863,-0.24090787560784072,0.1818157512156814
11.007045769764215,-0.13745968617883222,-0.2312701569105839,0.1625403138211678
11.01504507628294,-0.1567351235733501,-0.22163243821332496,0.14326487642664992
11.023044382801663,-0.1760105609678637,-0.2119947195160682,0.12398943903213633
11.031043689320388,-0.19528599836238156,-0.20235700081880925,0.10471400163761846
11.039042995839111,-0.11914008321776733,-0.01914008321776732,-0.3425797503466981
11.047042302357836,-0.7961099002707887,-0.003890099729211373,-0.49221980054157727
11.055041608876559,-0.7808731259494113,-0.019126874050588757,-0.46174625189882246
11.063040915395284,-0.7656363516280305,-0.03436364837196953,-0.43127270325606093
11.071040221914007,-0.7503995773066531,-0.04960042269334691,-0.4007991546133062
11.079039528432732,-0.7351628029852724,-0.06483719701472768,-0.37032560597054465
11.087038834951455,-0.719926028663895,-0.08007397133610507,-0.3398520573277899
11.09503814147018,-0.7046892543425142,-0.09531074565748583,-0.30937850868502836
11.103037447988903,-0.6894524800211368,-0.11054751997886322,-0.27890496004227355
11.111036754507627,-0.6742157056997594,-0.1257842943002406,-0.2484314113995188
11.119036061026351,-0.6589789313783786,-0.14102106862162136,-0.21795786275675727
11.127035367545075,-0.6437421570570012,-0.15625784294299877,-0.18748431411400246
11.1350346740638,-0.6285053827356204,-0.17149461726437953,-0.15701076547124093
11.143033980582523,-0.6132686084142431,-0.1867313915857569,-0.12653721682848618
11.151033287101248,-0.23834951456325082,-0.14833564493760726,-0.15166435506239276
11.15903259361997,0.6177429224116779,0.035485844823356,-0.31128538794161004
11.167031900138696,0.6412702945255756,0.08254058905115123,-0.19364852737212196
11.175031206657419,0.6647976666394679,0.12959533327893602,-0.07601166680265997
11.183030513176144,0.6883250387533656,0.17665007750673126,0.041625193766828106
11.191029819694867,0.6194036061026607,0.28059639389733937,-0.5447711511787149
11.199029126213592,0.32210431248590266,0.25095958455633577,-0.8144276360352165
11.207028432732315,0.005852659420097939,0.19515046930942903,-0.9446489049446655
11.21502773925104,-0.31039899364577705,0.13934135406250991,-1.0748701738541433
11.223027045769763,-0.6266506467115819,0.0835322388156032,-1.2050914427635924
11.231026352288486,-0.9429022997773867,0.027723123568696495,-1.3353127116730414
11.239025658807211,0.3,-0.001282940360525942,-0.1
11.247024965325934,0.29323037603827556,-0.1,-0.1
11.25502427184466,0.28424239118577566,-0.1,-0.1
11.263023578363383,0.2752544063332778,-0.1,-0.1
11.271022884882107,0.2662664214807779,-0.1,-0.1
11.27902219140083,0.25727843662828004,-0.1,-0.1
11.287021497919556,0.24829045177578013,-0.1,-0.1
11.295020804438279,0.23930246692328225,-0.1,-0.1
11.303020110957004,0.23031448207078237,-0.1,-0.1
11.311019417475727,0.22132649721828446,-0.1,-0.1
11.319018723994452,0.2123385123657846,-0.1,-0.1
11.327018030513175,0.2033505275132867,-0.1,-0.1
11.3350173370319,0.09998332977702021,-1.667022297979783e-05,0.0
11.343016643550623,0.0922916888936325,-0.007708311106367511,0.0
11.351015950069348,0.08460004801024307,-0.015399951989756931,0.0
11.359015256588071,0.07690840712685536,-0.023091592873144644,0.0
11.367014563106794,0.06921676624346765,-0.030783233756532358,0.0
11.37501386962552,0.061525125360078224,-0.03847487463992178,0.0
11.383013176144242,0.053833484476690514,-0.04616651552330949,0.0
11.391012482662967,0.04614184359330109,-0.053858156406698915,0.0
11.39901178918169,0.03845020270991338,-0.061549797290086625,0.0
11.407011095700415,0.030758561826523964,-0.06924143817347604,0.0
11.415010402219139,0.02306692094313624,-0.07693307905686377,0.0
11.423009708737863,0.015375280059746824,-0.08462471994025318,0.0
11.431009015256587,0.007683639176359114,-0.09231636082364089,0.0
11.439008321775312,-0.0008321775311519624,-0.1,0.0016643550623039248
11.447007628294035,0.0013616598568040586,0.09863834014319595,0.10272331971360812
11.45500693481276,0.012171533530756697,0.0878284664692433,0.12434306706151341
11.463006241331483,0.022981407204706934,0.07701859279529308,0.1459628144094139
11.471005547850208,0.033791280878659576,0.06620871912134044,0.16758256175731917
11.479004854368931,0.04460115455260981,0.055398845447390196,0.18920230910521962
11.487004160887656,0.05541102822656245,0.044588971773437555,0.2108220564531249
11.495003467406379,0.06622090190051269,0.033779098099487315,0.2324418038010254
11.503002773925102,0.07703077557446293,0.022969224425537074,0.25406155114892587
11.511002080443827,0.08784064924841556,0.012159350751584447,0.2756812984968311
11.51900138696255,0.0986505229223658,0.0013494770776342063,0.2973010458447316
11.527000693481275,0.15000693481275074,0.05000693481275072,0.2
11.535,-0.2,0.2,-0.1
