accel_time_list,accel_x_list,accel_y_list,accel_z_list
0.0,-5.2,-1.4,8.5
0.007997148288973384,-5.199429657794677,-0.8,8.2
0.01599429657794677,-5.191310547197884,-0.8086894528021161,8.208689452802115
0.023991444866920154,-5.18261799470987,-0.8173820052901306,8.21738200529013
0.03198859315589354,-5.173925442221855,-0.8260745577781452,8.226074557778144
0.03998574144486692,-5.16523288973384,-0.8347671102661597,8.234767110266159
0.04798288973384031,-5.156540337245826,-0.8434596627541743,8.243459662754175
0.05598003802281369,-5.147847784757811,-0.8521522152421889,8.25215221524219
0.06397718631178707,-5.139155232269797,-0.8608447677302034,8.260844767730203
0.07197433460076046,-5.130462679781782,-0.869537320218218,8.269537320218218
0.07997148288973384,-5.121770127293767,-0.8782298727062324,8.278229872706232
0.08796863117870722,-5.113077574805753,-0.886922425194247,8.286922425194248
0.09596577946768062,-5.1043850223177385,-0.8956149776822615,8.295614977682263
0.103962927756654,-5.07851711026616,-0.7,8.3
0.11196007604562738,-5.491190669457854,-0.11101166317768192,8.302202332635536
0.11995722433460076,-5.455248429956851,-0.15593946255393687,8.311187892510787
0.12795437262357415,-5.419306190455846,-0.20086726193019183,8.320173452386038
0.13595152091254753,-5.383363950954842,-0.2457950613064468,8.32915901226129
0.1439486692015209,-5.347421711453839,-0.2907228606827017,8.33814457213654
0.1519458174904943,-5.311479471952834,-0.3356506600589567,8.347130132011792
0.15994296577946768,-5.27553723245183,-0.3805784594352116,8.356115691887043
0.16794011406844106,-5.239594992950827,-0.42550625881146664,8.365101251762294
0.17593726235741444,-5.2036527534498225,-0.47043405818772155,8.374086811637545
0.18393441064638782,-5.167710513948818,-0.5153618575639765,8.383072371512796
0.19193155893536124,-5.131768274447815,-0.5602896569402316,8.392057931388047
0.19992870722433462,-5.05356463878327,-0.6464353612167303,8.35356463878327
0.207925855513308,-5.2,-0.7969201520912548,8.3
0.21592300380228138,-5.2,-0.7885021012607565,8.3
0.22392015209125476,-5.2,-0.7800840504302582,8.3
0.23191730038022815,-5.2,-0.7716659995997599,8.3
0.23991444866920153,-5.2,-0.7632479487692616,8.3
0.2479115969581749,-5.2,-0.7548298979387632,8.3
0.2559087452471483,-5.2,-0.7464118471082649,8.3
0.2639058935361217,-5.2,-0.7379937962777666,8.3
0.27190304182509506,-5.2,-0.7295757454472683,8.3
0.27990019011406847,-5.2,-0.72115769461677,8.3
0.2878973384030418,-5.2,-0.7127396437862717,8.3
0.29589448669201524,-5.2,-0.7043215929557733,8.3
0.3038916349809886,-5.0,-0.8,8.3
0.311888783269962,-5.2,-0.7894864875914795,8.2
0.31988593155893535,-5.2,-0.772288319228096,8.2
0.32788307984790876,-5.2,-0.7550901508647123,8.2
0.3358802281368821,-5.2,-0.7378919825013288,8.2
0.34387737642585553,-5.2,-0.7206938141379451,8.2
0.3518745247148289,-5.2,-0.7034956457745616,8.2
0.3598716730038023,-5.2,-0.6862974774111779,8.2
0.36786882129277565,-5.2,-0.6690993090477944,8.2
0.37586596958174906,-5.2,-0.6519011406844106,8.2
0.38386311787072247,-5.2,-0.6347029723210269,8.2
0.3918602661596958,-5.2,-0.6175048039576434,8.2
0.39985741444866923,-5.2,-0.6003066355942597,8.2
0.4078545627376426,-5.1,-0.8,8.3
0.415851711026616,-5.1,-0.8,8.3
0.42384885931558935,-5.1,-0.8,8.3
0.43184600760456276,-5.1,-0.8,8.3
0.4398431558935361,-5.1,-0.8,8.3
0.44784030418250953,-5.1,-0.8,8.3
0.4558374524714829,-5.1,-0.8,8.3
0.4638346007604563,-5.1,-0.8,8.3
0.47183174904942965,-5.1,-0.8,8.3
0.47982889733840306,-5.1,-0.8,8.3
0.4878260456273764,-5.1,-0.8,8.3
0.4958231939163498,-5.1,-0.8,8.3
0.5038203422053232,-5.1,-0.8,8.3
0.5118174904942966,-5.1,-0.8,8.3
0.5198146387832699,-5.1,-0.8,8.3
0.5278117870722434,-5.1,-0.7594106463878307,8.3
0.5358089353612168,-5.1,-0.7,8.3
0.5438060836501901,-5.1,-0.7,8.3
0.5518032319391635,-5.1,-0.7,8.3
0.5598003802281369,-5.1,-0.7,8.3
0.5677975285171103,-5.1,-0.7,8.3
0.5757946768060836,-5.1,-0.7,8.3
0.583791825095057,-5.1,-0.7,8.3
0.5917889733840305,-5.1,-0.7,8.3
0.5997861216730038,-5.1,-0.7,8.3
0.6077832699619772,-5.1,-0.798102904295769,8.3
0.6157804182509505,-5.1,-0.7895952997330313,8.3
0.623777566539924,-5.1,-0.7810876951702936,8.3
0.6317747148288974,-5.1,-0.772580090607556,8.3
0.6397718631178707,-5.1,-0.7640724860448184,8.3
0.6477690114068442,-5.1,-0.7555648814820807,8.3
0.6557661596958175,-5.1,-0.747057276919343,8.3
0.6637633079847909,-5.1,-0.7385496723566054,8.3
0.6717604562737642,-5.1,-0.7300420677938677,8.3
0.6797576045627377,-5.1,-0.72153446323113,8.3
0.6877547528517111,-5.1,-0.7130268586683924,8.3
0.6957519011406844,-5.1,-0.7045192541056547,8.3
0.7037490494296578,-5.1,-0.7625475285171095,8.3
0.7117461977186312,-5.1,-0.7674619771863127,8.3
0.7197433460076046,-5.1,-0.7944195929322299,8.3
0.7277404942965779,-5.1,-0.7850111831804966,8.3
0.7357376425855513,-5.1,-0.7756027734287632,8.3
0.7437347908745248,-5.1,-0.7661943636770296,8.3
0.7517319391634981,-5.1,-0.7567859539252964,8.3
0.7597290874524715,-5.1,-0.747377544173563,8.3
0.7677262357414449,-5.1,-0.7379691344218295,8.3
0.7757233840304183,-5.1,-0.7285607246700961,8.3
0.7837205323193916,-5.1,-0.7191523149183627,8.3
0.791717680608365,-5.1,-0.7097439051666294,8.3
0.7997148288973385,-5.1,-0.7003354954148959,8.3
0.8077119771863118,-5.1,-0.7,8.3
0.8157091254752852,-5.1,-0.7063434727503167,8.3
0.8237062737642585,-5.1,-0.7152291930713983,8.3
0.831703422053232,-5.1,-0.7241149133924799,8.3
0.8397005703422054,-5.1,-0.7330006337135615,8.3
0.8476977186311787,-5.1,-0.741886354034643,8.3
0.8556948669201521,-5.1,-0.7507720743557245,8.3
0.8636920152091255,-5.1,-0.7596577946768062,8.3
0.8716891634980989,-5.1,-0.7685435149978876,8.3
0.8796863117870722,-5.1,-0.7774292353189691,8.3
0.8876834600760456,-5.1,-0.7863149556400506,8.3
0.8956806083650191,-5.1,-0.7952006759611323,8.3
0.9036777566539924,-5.1,-0.7661121673003806,8.3
0.9116749049429658,-5.1,-0.7,8.3
0.9196720532319392,-5.1,-0.7,8.3
0.9276692015209126,-5.1,-0.7,8.3
0.9356663498098859,-5.1,-0.7,8.3
0.9436634980988593,-5.1,-0.7,8.3
0.9516606463878328,-5.1,-0.7,8.3
0.9596577946768061,-5.1,-0.7,8.3
0.9676549429657795,-5.1,-0.7,8.3
0.9756520912547528,-5.1,-0.7,8.3
0.9836492395437263,-5.1,-0.7,8.3
0.9916463878326996,-5.1,-0.7,8.3
0.999643536121673,-5.1,-0.7,8.3
1.0076406844106465,-5.13593155893535,-0.7,8.364068441064651
1.0156378326996198,-5.1,-0.8,8.3
1.0236349809885932,-5.1,-0.8,8.3
1.0316321292775665,-5.1,-0.8,8.3
1.0396292775665399,-5.1,-0.8,8.3
1.0476264258555132,-5.1,-0.8,8.3
1.0556235741444868,-5.1,-0.8,8.3
1.0636207224334602,-5.1,-0.8,8.3
1.0716178707224335,-5.1,-0.8,8.3
1.0796150190114069,-5.1,-0.8,8.3
1.0876121673003802,-5.1,-0.8,8.3
1.0956093155893536,-5.1,-0.8,8.3
1.103606463878327,-5.1,-0.8,8.376774397972117
1.1116036121673003,-5.1,-0.8460361216730032,8.353963878326997
1.1196007604562739,-5.2,-1.101952146897895,8.398047853102106
1.1275979087452472,-5.2,-1.1117047667624966,8.388295233237503
1.1355950570342206,-5.2,-1.1214573866270983,8.378542613372902
1.143592205323194,-5.2,-1.1312100064917,8.368789993508301
1.1515893536121673,-5.2,-1.1409626263563015,8.3590373736437
1.1595865019011407,-5.2,-1.1507152462209032,8.349284753779097
1.167583650190114,-5.2,-1.1604678660855048,8.339532133914496
1.1755807984790876,-5.2,-1.1702204859501069,8.329779514049894
1.183577946768061,-5.2,-1.1799731058147085,8.320026894185292
1.1915750950570343,-5.2,-1.1897257256793101,8.31027427432069
1.1995722433460076,-5.2,-1.1994783455439118,8.30052165445609
1.207569391634981,-5.505551330798479,-1.2541634980988592,8.34861216730038
1.2155665399239544,-5.7,-1.3938149556400505,8.275259822560203
1.2235636882129277,-5.7,-1.384929235318969,8.239716941275878
1.231560836501901,-5.7,-1.3760435149978876,8.204174059991551
1.2395579847908746,-5.7,-1.3671577946768059,8.168631178707225
1.247555133079848,-5.7,-1.3582720743557244,8.133088297422898
1.2555522813688214,-5.7,-1.349386354034643,8.097545416138573
1.2635494296577947,-5.7,-1.3405006337135614,8.062002534854246
1.271546577946768,-5.7,-1.33161491339248,8.02645965356992
1.2795437262357414,-5.7,-1.3227291930713985,7.990916772285594
1.2875408745247148,-5.7,-1.313843472750317,7.955373891001268
1.2955380228136884,-5.7,-1.3049577524292353,7.919831009716941
1.3035351711026617,-5.307034220532354,-1.4535171102661768,8.43944866920147
1.311532319391635,-5.27057276919343,-1.7588018768708031,7.923541784645256
1.3195294676806084,-5.228034746379742,-1.6992486449316397,7.957572202896206
1.3275266159695818,-5.185496723566055,-1.6396954129924763,7.991602621147157
1.3355237642585551,-5.1429587007523665,-1.580142181053313,8.025633039398107
1.3435209125475285,-5.100420677938678,-1.5205889491141495,8.059663457649059
1.3515180608365018,-5.05788265512499,-1.4610357171749864,8.093693875900009
1.3595152091254754,-5.015344632311301,-1.4014824852358212,8.12772429415096
1.3675123574144488,-4.972806609497613,-1.3419292532966578,8.16175471240191
1.3755095057034221,-4.930268586683924,-1.2823760213574946,8.195785130652862
1.3835066539923955,-4.887730563870236,-1.2228227894183312,8.229815548903812
1.3915038022813688,-4.845192541056548,-1.1632695574791678,8.263845967154761
1.3995009505703422,-4.80265451824286,-1.1037163255400044,8.297876385405713
1.4074980988593155,-5.0,-1.9243346007604671,8.550190114068437
1.4154952471482891,-4.904450739750781,-2.0777463012460937,8.4
1.4234923954372625,-4.912368708353726,-2.038156458231374,8.4
1.4314895437262358,-4.920286676956669,-1.9985666152166546,8.4
1.4394866920152092,-4.928204645559613,-1.958976772201935,8.4
1.4474838403041825,-4.936122614162557,-1.9193869291872154,8.4
1.4554809885931559,-4.944040582765501,-1.8797970861724957,8.4
1.4634781368821292,-4.9519585513684445,-1.8402072431577763,8.4
1.4714752851711026,-4.959876519971389,-1.8006174001430566,8.4
1.4794724334600762,-4.967794488574333,-1.761027557128336,8.4
1.4874695817490495,-4.975712457177277,-1.7214377141136163,8.4
1.4954667300380229,-4.983630425780221,-1.6818478710988969,8.4
1.5034638783269962,-4.991548394383164,-1.6422580280841772,8.4
1.5114610266159696,-4.999466362986109,-1.6026681850694575,8.4
1.519458174904943,-5.4513941698352335,-1.8990705534431775,7.952323616392056
1.5274553231939163,-5.151914720260728,-1.8025529603476382,7.650638240086909
1.5354524714828899,-4.781697974008284,-1.3963395948016566,7.8073208103966865
1.5434496197718632,-4.7220177628965425,-1.3844035525793084,7.831192894841383
1.5514467680608366,-4.662337551784801,-1.3724675103569601,7.855064979286079
1.55944391634981,-4.60265734067306,-1.360531468134612,7.878937063730776
1.5674410646387833,-4.542977129561319,-1.3485954259122637,7.902809148175472
1.5754382129277567,-4.483296918449577,-1.3366593836899154,7.926681232620169
1.58343536121673,-4.423616707337836,-1.3247233414675672,7.950553317064865
1.5914325095057034,-4.363936496226095,-1.312787299245219,7.974425401509562
1.599429657794677,-4.304256285114351,-1.3008512570228703,7.998297485954259
1.6074268060836503,-3.3030357576247873,-4.009107272874363,8.003035757624788
1.6154239543726236,-3.3200509667502627,-4.060152900250789,8.020050966750263
1.623421102661597,-3.337066175875738,-4.111198527627215,8.037066175875738
1.6314182509505704,-3.3540813850012134,-4.16224415500364,8.054081385001213
1.6394153992395437,-3.3710965941266884,-4.213289782380066,8.071096594126688
1.647412547528517,-3.3881118032521638,-4.264335409756492,8.088111803252163
1.6554096958174904,-3.405127012377639,-4.3153810371329175,8.105127012377638
1.663406844106464,-3.422142221503115,-4.366426664509344,8.122142221503115
1.6714039923954374,-3.43915743062859,-4.41747229188577,8.13915743062859
1.6794011406844107,-3.4561726397540653,-4.4685179192621955,8.156172639754065
1.687398288973384,-3.4731878488795407,-4.519563546638621,8.17318784887954
1.6953954372623574,-3.490203058005016,-4.570609174015047,8.190203058005014
1.7033925855513308,-4.534961977186306,-4.90429657794677,7.760741444866924
1.7113897338403041,-4.601544148711449,-4.209264892268695,6.995367553865653
1.7193868821292777,-4.61042986903253,-4.262579214195185,6.968710392902407
1.727384030418251,-4.619315589353612,-4.315893536121674,6.9420532319391635
1.7353811787072244,-4.628201309674694,-4.369207858048163,6.915396070975919
1.7433783269961978,-4.637087029995775,-4.422522179974652,6.888738910012674
1.7513754752851711,-4.645972750316857,-4.475836501901141,6.8620817490494295
1.7593726235741445,-4.654858470637938,-4.52915082382763,6.835424588086185
1.7673697718631178,-4.66374419095902,-4.582465145754119,6.808767427122941
1.7753669201520912,-4.672629911280102,-4.6357794676806074,6.782110266159696
1.7833640684410648,-4.681515631601183,-4.6890937896070986,6.755453105196451
1.7913612167300381,-4.690401351922264,-4.742408111533587,6.728795944233206
1.7993583650190115,-4.699287072243346,-4.795722433460076,6.702138783269962
1.8073555133079848,-4.897600861401798,-5.095201722803593,7.205997846495508
1.8153526615969582,-4.883446616642552,-5.0668932332851035,7.24138345839362
1.8233498098859315,-4.869292371883307,-5.038584743766614,7.276769070291732
1.831346958174905,-4.855138127124063,-5.010276254248124,7.312154682189845
1.8393441064638785,-4.840983882364817,-4.981967764729633,7.347540294087958
1.8473412547528518,-4.826829637605572,-4.953659275211144,7.38292590598607
1.8553384030418252,-4.8126753928463275,-4.925350785692654,7.418311517884182
1.8633355513307985,-4.798521148087082,-4.897042296174164,7.453697129782294
1.8713326996197719,-4.784366903327838,-4.8687338066556745,7.489082741680407
1.8793298479087452,-4.7702126585685924,-4.840425317137185,7.524468353578519
1.8873269961977186,-4.756058413809348,-4.812116827618695,7.559853965476631
1.895324144486692,-4.741904169050103,-4.783808338100206,7.595239577374743
1.9033212927756655,-4.727749924290857,-4.7554998485817155,7.630625189272856
1.9113184410646389,-4.713595679531613,-4.727191359063226,7.666010801170969
1.9193155893536122,-4.687376425855512,-4.690532319391634,7.703155893536122
1.9273127376425856,-4.367490494296578,-4.450617870722434,7.783127376425855
1.935309885931559,-4.290265041377768,-5.009734958622232,6.919469917244465
1.9433070342205323,-4.266744016998434,-5.033255983001566,6.966511966003131
1.9513041825095057,-4.243222992619101,-5.056777007380899,7.013554014761798
1.9593013307984792,-4.219701968239766,-5.0802980317602335,7.0605960635204665
1.9672984790874526,-4.196180943860433,-5.103819056139566,7.107638112279133
1.975295627376426,-4.1726599194811,-5.1273400805189,7.1546801610378
1.9832927756653993,-4.149138895101767,-5.150861104898233,7.201722209796467
1.9912899239543727,-4.125617870722433,-5.174382129277567,7.248764258555133
1.999287072243346,-4.1020968463431,-5.1979031536569,7.2958063073138
2.0072842205323194,-4.828422053231934,-5.899581749049415,6.928422053231934
2.015281368821293,-5.1882636248415706,-7.294131812420785,6.48826362484157
2.023278517110266,-5.170492184199409,-7.285246092099704,6.470492184199409
2.0312756653992396,-5.152720743557245,-7.2763603717786225,6.4527207435572445
2.039272813688213,-5.134949302915083,-7.267474651457541,6.434949302915083
2.0472699619771864,-5.117177862272919,-7.258588931136459,6.4171778622729185
2.05526711026616,-5.099406421630755,-7.249703210815378,6.399406421630755
2.063264258555133,-5.081634980988593,-7.240817490494297,6.381634980988593
2.0712614068441066,-5.063863540346429,-7.231931770173215,6.363863540346429
2.0792585551330798,-5.046092099704267,-7.223046049852134,6.346092099704267
2.0872557034220534,-5.0283206590621035,-7.214160329531052,6.328320659062103
2.0952528517110265,-5.010549218419941,-7.205274609209971,6.310549218419941
2.10325,-5.875000000000013,-5.445833333333361,7.375000000000013
2.1112471482889736,-5.100555389413423,-6.000833084120135,7.3983338317597305
2.1192442965779468,-5.1185265091639245,-6.027789763745887,7.344420472508226
2.1272414448669204,-5.136497628914427,-6.0547464433716405,7.2905071132567185
2.1352385931558935,-5.154468748664929,-6.081703122997393,7.236593754005214
2.143235741444867,-5.172439868415431,-6.108659802623147,7.182680394753707
2.15123288973384,-5.190410988165932,-6.135616482248899,7.128767035502202
2.1592300380228138,-5.208382107916435,-6.162573161874652,7.0748536762506955
2.167227186311787,-5.226353227666936,-6.189529841500405,7.020940316999191
2.1752243346007605,-5.244324347417439,-6.216486521126158,6.9670269577476835
2.183221482889734,-5.262295467167941,-6.243443200751912,6.913113598496176
2.191218631178707,-5.280266586918443,-6.2703998803776635,6.859200239244672
2.1992157794676808,-5.298237706668945,-6.297356560003418,6.805286879993164
2.207212927756654,-5.510646387832701,-6.089353612167298,6.236121673003793
2.2152100760456275,-5.504385495880862,-6.504385495880862,5.4912290082382755
2.2232072243346006,-5.512715858681876,-6.512715858681876,5.474568282636248
2.231204372623574,-5.52104622148289,-6.52104622148289,5.45790755703422
2.2392015209125478,-5.529376584283904,-6.529376584283904,5.441246831432192
2.247198669201521,-5.537706947084917,-6.537706947084917,5.424586105830165
2.2551958174904945,-5.546037309885932,-6.546037309885932,5.407925380228137
2.2631929657794676,-5.554367672686945,-6.554367672686945,5.3912646546261085
2.271190114068441,-5.562698035487959,-6.562698035487959,5.37460392902408
2.2791872623574143,-5.5710283982889734,-6.5710283982889734,5.357943203422053
2.287184410646388,-5.5793587610899875,-6.5793587610899875,5.341282477820025
2.2951815589353615,-5.587689123891002,-6.587689123891002,5.324621752217997
2.3031787072243346,-5.596019486692015,-6.596019486692015,5.30796102661597
2.311175855513308,-5.683517110266163,-6.474724334600755,5.216482889733837
2.3191730038022813,-5.660899873257293,-6.3173003802281205,4.28269961977188
2.327170152091255,-5.705487042225336,-6.578051831098658,4.172564788873323
2.335167300380228,-5.716009605763458,-6.535961576946168,4.119951971182711
2.3431644486692016,-5.726532169301581,-6.493871322793676,4.067339153492095
2.351161596958175,-5.737054732839704,-6.451781068641183,4.0147263358014795
2.3591587452471483,-5.747577296377827,-6.409690814488693,3.9621135181108667
2.367155893536122,-5.75809985991595,-6.367600560336201,3.909500700420251
2.375153041825095,-5.768622423454072,-6.325510306183711,3.8568878827296382
2.3831501901140686,-5.779144986992195,-6.283420052031218,3.8042750650390227
2.3911473384030417,-5.789667550530318,-6.241329797878728,3.75166224734841
2.3991444866920153,-5.865019011406882,-6.207224334600765,3.6855513307984706
2.4071416349809884,-5.654505703422071,-6.320171102661611,3.0
2.415138783269962,-6.3603591502727745,-7.355314928087288,2.989370143825424
2.4231359315589356,-6.143045338072405,-7.28577450818317,3.1284509836336607
2.4311330798479087,-5.925731525872047,-7.216234088279055,3.2675318234418897
2.4391302281368823,-5.708417713671677,-7.146693668374937,3.4066126632501263
2.4471273764258554,-5.49110390147132,-7.077153248470823,3.5456935030583554
2.455124524714829,-5.27379008927095,-7.007612828566704,3.684774342866592
2.463121673003802,-5.056476277070592,-6.938072408662589,3.823855182674821
2.4711188212927757,-4.839162464870222,-6.8685319887584715,3.9629360224830577
2.4791159695817493,-4.621848652669852,-6.798991568854353,4.102016862291294
2.4871131178707224,-4.404534840469495,-6.729451148950238,4.241097702099523
2.495110266159696,-4.187221028269125,-6.6599107290461195,4.38017854190776
2.503107414448669,-4.609077946768076,-5.547956273764233,4.776853612167307
2.5111045627376427,-5.831368821292839,-5.292490494296461,3.1790874524714403
2.519101711026616,-6.132651544949957,-4.8408144311874475,2.9673484550500424
2.5270988593155894,-6.169420042830295,-4.886775053537869,2.930579957169704
2.535096007604563,-6.206188540710634,-4.932735675888292,2.893811459289366
2.543093155893536,-6.24295703859097,-4.978696298238713,2.8570429614090296
2.5510903041825097,-6.279725536471308,-5.024656920589136,2.8202744635286914
2.559087452471483,-6.316494034351645,-5.070617542939556,2.7835059656483554
2.5670846007604564,-6.353262532231983,-5.116578165289979,2.746737467768017
2.5750817490494295,-6.390031030112319,-5.162538787640399,2.709968969887681
2.583078897338403,-6.4267995279926575,-5.2084994099908215,2.673200472007343
2.5910760456273767,-6.463568025872996,-5.254460032341244,2.636431974127005
2.59907319391635,-6.507319391634963,-5.292680608365036,2.588498098859343
2.6070703422053234,-7.039448669201487,-5.349239543726393,1.6070342205323418
2.6150674904942965,-7.332726935011579,-5.118701105720902,1.385974170709323
2.62306463878327,-7.397071806302172,-5.155469603601241,1.358397797299069
2.6310617870722433,-7.46141667759276,-5.1922381014815775,1.3308214238888167
2.639058935361217,-7.525761548883352,-5.229006599361916,1.303245050478563
2.64705608365019,-7.590106420173941,-5.265775097242252,1.2756686770683108
2.6550532319391635,-7.654451291464533,-5.30254359512259,1.2480923036580571
2.663050380228137,-7.718796162755126,-5.3393120930029285,1.2205159302478032
2.6710475285171102,-7.783141034045714,-5.376080590883265,1.192939556837551
2.679044676806084,-7.847485905336306,-5.412849088763604,1.1653631834272973
2.687041825095057,-7.911830776626895,-5.4496175866439405,1.137786810017045
2.6950389733840305,-7.976175647917487,-5.486386084524279,1.110210436606791
2.7030361216730037,-8.16787072243345,-5.751806083650176,0.5124524714829225
2.7110332699619772,-9.003333263694481,-4.506666527388961,0.6033332636944803
2.719030418250951,-9.012121338737309,-4.524242677474617,0.6121213387373085
2.727027566539924,-9.020909413780135,-4.541818827560272,0.6209094137801361
2.7350247148288975,-9.029697488822965,-4.559394977645929,0.6296974888229642
2.7430218631178707,-9.038485563865791,-4.576971127731584,0.6384855638657918
2.7510190114068442,-9.047273638908619,-4.59454727781724,0.6472736389086199
2.7590161596958174,-9.056061713951447,-4.612123427902896,0.6560617139514475
2.767013307984791,-9.064849788994275,-4.629699577988552,0.6648497889942757
2.7750104562737645,-9.073637864037103,-4.647275728074208,0.6736378640371038
2.7830076045627377,-9.082425939079931,-4.664851878159864,0.6824259390799314
2.7910047528517112,-9.091214014122759,-4.6824280282455195,0.6912140141227596
2.7990019011406844,-9.100285171102664,-4.700190114068444,0.6997148288973347
2.806999049429658,-9.49998098859316,-4.59992395437264,0.8998859315589607
2.814996197718631,-9.686675116180819,-4.30666244190959,1.0866751161808204
2.8229933460076047,-9.668903675538656,-4.315548162230671,1.0689036755386567
2.8309904942965782,-9.651132234896492,-4.324433882551753,1.051132234896493
2.8389876425855514,-9.63336079425433,-4.333319602872835,1.0333607942543306
2.846984790874525,-9.615589353612167,-4.342205323193917,1.0155893536121672
2.854981939163498,-9.597817912970005,-4.351091043514998,0.9978179129700046
2.8629790874524716,-9.58004647232784,-4.359976763836079,0.980046472327841
2.870976235741445,-9.562275031685678,-4.368862484157161,0.9622750316856785
2.8789733840304184,-9.544503591043515,-4.377748204478243,0.9445035910435149
2.8869705323193915,-9.526732150401353,-4.386633924799324,0.9267321504013524
2.894967680608365,-9.508960709759188,-4.395519645120406,0.9089607097591889
2.9029648288973386,-9.502344740177426,-4.695310519645149,0.9941381495564369
2.9109619771863118,-9.086800651819665,-4.486800651819666,1.4131993481803338
2.9189591254752854,-8.982497204204876,-4.417502795795125,1.5058342652650414
2.9269562737642585,-8.954271974949677,-4.4457280250503235,1.5152426750167745
2.934953422053232,-8.926046745694475,-4.473953254305525,1.5246510847685082
2.942950570342205,-8.897821516439276,-4.502178483560724,1.5340594945202413
2.9509477186311788,-8.869596287184075,-4.530403712815925,1.543467904271975
2.9589448669201524,-8.841371057928875,-4.558628942071126,1.5528763140237085
2.9669420152091255,-8.813145828673674,-4.586854171326325,1.5622847237754416
2.974939163498099,-8.784920599418474,-4.615079400581526,1.5716931335271753
2.982936311787072,-8.756695370163275,-4.6433046298367255,1.5811015432789084
2.9909334600760458,-8.728470140908074,-4.671529859091926,1.5905099530306421
2.998930608365019,-8.700244911652874,-4.699755088347126,1.5999183627823752
3.0069277566539925,-8.782777902035338,-4.182777902035339,1.3344441959293234
3.014924904942966,-8.735735853276669,-4.13573585327667,1.42852829344666
3.022922053231939,-8.695071658379643,-4.102464170810178,1.5049283416203572
3.0309192015209128,-8.674566149946378,-4.112716925026811,1.5254338500536226
3.038916349809886,-8.654060641513112,-4.122969679243443,1.545939358486887
3.0469134980988595,-8.633555133079847,-4.133222433460076,1.5664448669201525
3.0549106463878326,-8.613049624646584,-4.143475187676708,1.5869503753534169
3.062907794676806,-8.592544116213316,-4.153727941893341,1.6074558837866824
3.0709049429657798,-8.572038607780051,-4.163980696109974,1.6279613922199478
3.078902091254753,-8.551533099346788,-4.174233450326606,1.6484669006532122
3.0868992395437265,-8.531027590913522,-4.184486204543239,1.6689724090864777
3.0948963878326996,-8.510522082480257,-4.194738958759872,1.689477917519742
3.102893536121673,-8.5,-4.444676806083661,1.5
3.1108906844106463,-8.6,-4.762399886740555,1.1811999433702776
3.11888783269962,-8.6,-4.711354259364128,1.155677129682064
3.126884980988593,-8.6,-4.660308631987704,1.1301543159938519
3.1348821292775666,-8.6,-4.609263004611277,1.1046315023056383
3.14287927756654,-8.6,-4.5582173772348495,1.0791086886174248
3.1508764258555133,-8.6,-4.507171749858426,1.0535858749292126
3.158873574144487,-8.6,-4.456126122481998,1.0280630612409989
3.16687072243346,-8.6,-4.405080495105574,1.002540247552787
3.1748678707224336,-8.6,-4.354034867729147,0.9770174338645733
3.1828650190114067,-8.6,-4.302989240352723,0.9514946201763611
3.1908621673003803,-8.6,-4.251943612976295,0.9259718064881475
3.198859315589354,-8.6,-4.200897985599868,0.900448992799934
3.206856463878327,-8.68094106463878,-4.8618821292775625,0.8381178707224377
3.2148536121673006,-8.805453496817192,-4.778186012731233,0.5109069936343834
3.2228507604562737,-8.814439056692443,-4.74224377323023,0.5288781133848849
3.2308479087452473,-8.823424616567694,-4.706301533729225,0.5468492331353872
3.2388450570342204,-8.832410176442945,-4.670359294228223,0.5648203528858887
3.246842205323194,-8.841395736318196,-4.634417054727217,0.5827914726363911
3.2548393536121676,-8.850381296193447,-4.598474815226213,0.6007625923868936
3.2628365019011407,-8.859366856068698,-4.56253257572521,0.6187337121373949
3.2708336501901143,-8.86835241594395,-4.5265903362242055,0.6367048318878974
3.2788307984790874,-8.8773379758192,-4.490648096723202,0.6546759516383989
3.286827946768061,-8.886323535694451,-4.454705857222198,0.6726470713889012
3.294825095057034,-8.895309095569703,-4.418763617721195,0.6906181911394027
3.3028222433460077,-9.058887832699613,-4.058887832699612,0.7588878326996121
3.310819391634981,-9.193809157835126,-4.112381684329746,0.7185725264946192
3.3188165399239544,-9.185301553272389,-4.129396893455222,0.7440953401828327
3.326813688212928,-9.176793948709651,-4.1464121025806975,0.7696181538710464
3.334810836501901,-9.168286344146914,-4.163427311706172,0.7951409675592586
3.3428079847908747,-9.159778739584175,-4.180442520831647,0.8206637812474721
3.350805133079848,-9.151271135021439,-4.197457729957122,0.8461865949356843
3.3588022813688214,-9.1427635304587,-4.214472939082598,0.8717094086238979
3.3667994296577946,-9.134255925895962,-4.231488148208073,0.8972322223121101
3.374796577946768,-9.125748321333225,-4.248503357333549,0.9227550360003236
3.3827937262357417,-9.117240716770487,-4.265518566459025,0.9482778496885372
3.390790874524715,-9.10873311220775,-4.2825337755845,0.9738006633767493
3.3987880228136884,-9.100225507645012,-4.2995489847099755,0.9993234770649629
3.4067851711026615,-8.8,-4.139258555133075,0.9957034220532304
3.414782319391635,-8.9020968463431,-3.9979031536568996,0.8937094609706989
3.4227794676806083,-8.911505256094834,-3.9884947439051666,0.8654842317154998
3.430776615969582,-8.920913665846568,-3.979086334153433,0.837259002460299
3.4387737642585554,-8.930322075598301,-3.9696779244016995,0.8090337732050983
3.4467709125475285,-8.939730485350033,-3.9602695146499665,0.7808085439498992
3.454768060836502,-8.949138895101767,-3.950861104898233,0.7525833146946984
3.4627652091254753,-8.9585473048535,-3.9414526951465,0.7243580854394993
3.470762357414449,-8.967955714605234,-3.932044285394766,0.6961328561842985
3.478759505703422,-8.977364124356967,-3.9226358756430333,0.6679076269290994
3.4867566539923955,-8.9867725341087,-3.9132274658912993,0.6396823976738987
3.494753802281369,-8.996180943860434,-3.903819056139566,0.611457168418698
3.5027509505703422,-8.904980988593158,-3.9950190114068427,0.6950190114068425
3.510748098859316,-8.894894517355574,-4.189789034711149,0.7948945173555743
3.518745247148289,-8.886295433173883,-4.1725908663477655,0.7862954331738827
3.5267423954372625,-8.877696348992192,-4.155392697984381,0.7776963489921908
3.5347395437262357,-8.869097264810499,-4.138194529620998,0.7690972648104992
3.5427366920152092,-8.860498180628808,-4.120996361257615,0.7604981806288073
3.5507338403041824,-8.851899096447116,-4.1037981928942315,0.7518990964471157
3.558730988593156,-8.843300012265424,-4.086600024530847,0.7433000122654237
3.5667281368821295,-8.834700928083732,-4.069401856167463,0.7347009280837318
3.5747252851711027,-8.826101843902041,-4.052203687804081,0.7261018439020402
3.5827224334600762,-8.817502759720348,-4.035005519440697,0.7175027597203483
3.5907195817490494,-8.808903675538657,-4.017807351077313,0.7089036755386567
3.598716730038023,-8.800304591356966,-4.000609182713929,0.7003045913569648
3.606713878326996,-8.696353450368093,-4.003646549631907,1.10546982444786
3.6147110266159697,-8.679338241242617,-4.020661758757383,1.1309926381360735
3.6227081749049432,-8.662323032117142,-4.037676967882858,1.156515451824287
3.6307053231939164,-8.645307822991667,-4.054692177008333,1.1820382655124992
3.63870247148289,-8.628292613866192,-4.0717073861338084,1.2075610792007128
3.646699619771863,-8.611277404740717,-4.088722595259283,1.233083892888925
3.6546967680608367,-8.59426219561524,-4.105737804384759,1.2586067065771385
3.66269391634981,-8.577246986489765,-4.122753013510234,1.2841295202653507
3.6706910646387834,-8.56023177736429,-4.13976822263571,1.3096523339535642
3.678688212927757,-8.543216568238815,-4.156783431761186,1.335175147641778
3.68668536121673,-8.52620135911334,-4.17379864088666,1.3606979613299899
3.6946825095057036,-8.509186149987864,-4.190813850012136,1.3862207750182036
3.702679657794677,-8.466017110266163,-4.93593155893535,1.6019486692015124
3.7106768060836504,-8.687921689183723,-5.024156621632555,1.7362349324488315
3.7186739543726235,-8.670906480058248,-5.058187039883504,1.787280559825256
3.726671102661597,-8.653891270932771,-5.0922174581344555,1.8383261872016832
3.7346682509505706,-8.636876061807296,-5.126247876385407,1.8893718145781102
3.7426653992395438,-8.619860852681821,-5.160278294636356,1.9404174419545346
3.7506625475285174,-8.602845643556346,-5.194308712887308,1.9914630693309616
3.7586596958174905,-8.585830434430871,-5.228339131138258,2.0425086967073858
3.766656844106464,-8.568815225305395,-5.262369549389209,2.0935543240838133
3.774653992395437,-8.551800016179921,-5.296399967640158,2.1445999514602376
3.7826511406844108,-8.534784807054445,-5.33043038589111,2.1956455788366647
3.790648288973384,-8.51776959792897,-5.36446080414206,2.246691206213089
3.7986454372623575,-8.500754388803495,-5.3984912223930115,2.297736833589516
3.806642585551331,-8.12570342205324,-5.619277566539931,3.474296577946759
3.814639733840304,-8.445589353612172,-5.85919201520913,3.154410646387827
3.8226368821292778,-6.9243832885096905,-5.741245478994714,3.320622739497357
3.830634030418251,-6.817104469999075,-5.799761198182322,3.3498805990911613
3.8386311787072245,-6.709825651488454,-5.858276917369935,3.379138458684967
3.8466283269961976,-6.602546832977839,-5.916792636557543,3.408396318278771
3.854625475285171,-6.495268014467217,-5.975308355745154,3.4376541778725773
3.8626226235741448,-6.387989195956596,-6.033824074932766,3.466912037466383
3.870619771863118,-6.28071037744598,-6.092339794120374,3.496169897060187
3.8786169201520915,-6.173431558935359,-6.150855513307986,3.525427756653993
3.8866140684410646,-6.066152740424744,-6.209371232495594,3.5546856162477973
3.894611216730038,-5.9588739219141225,-6.267886951683206,3.583943475841603
3.9026083650190113,-4.578326996197751,-7.465399239543814,2.447908745247188
3.910605513307985,-3.6,-6.84770649623817,2.164220127821372
3.9186026615969585,-3.6,-6.9157673327400735,2.113174500444945
3.9265998098859316,-3.6,-6.983828169241972,2.062128873068521
3.934596958174905,-3.6,-7.051889005743875,2.011083245692094
3.9425941064638783,-3.6,-7.119949842245774,1.96003761831567
3.950591254752852,-3.6,-7.188010678747676,1.908991990939243
3.958588403041825,-3.6,-7.256071515249575,1.857946363562819
3.9665855513307986,-3.6,-7.324132351751477,1.806900736186392
3.974582699619772,-3.6,-7.39219318825338,1.7558551088099652
3.9825798479087453,-3.6,-7.460254024755279,1.704809481433541
3.990576996197719,-3.6,-7.528314861257181,1.653763854057114
3.998574144486692,-3.6,-7.59637569775908,1.60271822668069
4.006571292775665,-3.203006804082447,-8.207216329797872,0.6981959175505318
4.014568441064639,-3.24509705823494,-8.308232939763855,0.6729417650590362
4.022565589353612,-3.2871873123874322,-8.409249549729838,0.6476876125675406
4.030562737642586,-3.329277566539925,-8.510266159695819,0.622433460076045
4.0385598859315595,-3.371367820692418,-8.611282769661802,0.5971793075845495
4.046557034220532,-3.4134580748449057,-8.712299379627773,0.5719251550930567
4.054554182509506,-3.455548328997398,-8.813315989593756,0.5466710026015612
4.062551330798479,-3.497638583149891,-8.914332599559737,0.5214168501100656
4.070548479087453,-3.539728837302383,-9.01534920952572,0.49616269761857
4.078545627376426,-3.5818190914548715,-9.11636581949169,0.47090854512707725
4.086542775665399,-3.623909345607364,-9.217382429457674,0.4456543926355817
4.094539923954373,-3.6659995997598567,-9.318399039423657,0.42040024014408617
4.102537072243346,-4.1611216730039455,-9.861121673003945,2.628754752852403
4.11053422053232,-13.302020223122788,-3.402275101324467,20.44126310951401
4.118531368821293,-12.361696193540286,-2.778321773283742,19.940342832072865
4.126528517110266,-11.421372163957681,-2.1543684452429477,19.439422554631662
4.13452566539924,-10.481048134375076,-1.5304151172021534,18.938502277190462
4.142522813688213,-9.54072410479247,-0.9064617891613591,18.437581999749263
4.150519961977186,-8.60040007520997,-0.2825084611206341,17.936661722308116
4.1585171102661596,-7.660076045627365,0.34144486692015974,17.435741444866913
4.166514258555133,-6.71975201604476,0.965398194960954,16.934821167425714
4.174511406844107,-5.779427986462154,1.5893515230017488,16.433900889984514
4.18250855513308,-4.8391039568795495,2.2133048510425426,15.93298061254331
4.190505703422053,-3.8987799272970474,2.837258179083268,15.432060335102166
4.1985028517110266,-2.958455897714442,3.461211507124062,14.931140057660965
4.2065,-1.8444444444444577,-4.383333333333284,4.616666666666538
4.214497148288974,-4.619149571138034,-3.6965182597930846,4.064412193827935
4.222494296577947,-4.721438677159789,-3.677920240516402,4.408475550446564
4.23049144486692,-4.823727783181533,-3.6593222212397216,4.752538907065156
4.2384885931558935,-4.926016889203288,-3.640724201963039,5.096602263683785
4.246485741444867,-5.028305995225042,-3.622126182686356,5.440665620302415
4.254482889733841,-5.130595101246797,-3.603528163409673,5.784728976921044
4.262480038022813,-5.23288420726854,-3.5849301441329926,6.128792333539636
4.270477186311787,-5.335173313290295,-3.5663321248563102,6.472855690158265
4.2784743346007605,-5.43746241931205,-3.5477341055796274,6.816919046776894
4.286471482889734,-5.539751525333804,-3.5291360863029446,7.160982403395524
4.294468631178708,-5.6420406313555596,-3.5105380670262623,7.505045760014153
4.30246577946768,-3.5164448669201565,-4.632889733840313,10.684885931558902
4.310462927756654,-3.775744957844272,-5.780595966275418,5.8
4.3184600760456275,-3.732282195404198,-5.745825756323359,5.8
4.326457224334601,-3.688819432964124,-5.711055546371299,5.8
4.334454372623574,-3.645356670524055,-5.6762853364192445,5.8
4.342451520912547,-3.601893908083981,-5.641515126467185,5.8
4.350448669201521,-3.558431145643907,-5.606744916515126,5.8
4.3584458174904945,-3.514968383203833,-5.571974706563067,5.8
4.366442965779468,-3.471505620763759,-5.537204496611007,5.8
4.374440114068441,-3.42804285832369,-5.502434286658953,5.8
4.382437262357414,-3.384580095883616,-5.467664076706893,5.8
4.390434410646388,-3.341117333443542,-5.432893866754834,5.8
4.3984315589353615,-3.3647338403042544,-5.4,6.166825095057443
4.406428707224335,-3.9999841571608705,-4.01427439797205,9.24288656527267
4.414425855513308,-3.6506740407881093,-3.7671160271920727,9.775337020394055
4.422423003802281,-3.577972692706531,-3.718648461804354,9.738986346353267
4.430420152091255,-3.505271344624953,-3.670180896416635,9.702635672312477
4.4384173003802285,-3.432569996543375,-3.6217133310289165,9.666284998271689
4.446414448669201,-3.3598686484618048,-3.573245765641203,9.629934324230902
4.454411596958175,-3.2871673003802266,-3.524778200253484,9.593583650190114
4.462408745247148,-3.2144659522986485,-3.4763106348657655,9.557232976149324
4.470405893536122,-3.1417646042170704,-3.4278430694780466,9.520882302108536
4.4784030418250955,-3.0865652724968085,-2.5664131812420212,6.9596958174904255
4.486400190114068,-3.8047480183025066,-1.4979651350132113,6.000678288328929
4.494397338403042,-3.8996294386801593,-1.4573016691370746,6.014232776954309
4.502394486692015,-3.9945108590578116,-1.416638203260938,6.027787265579687
4.510391634980989,-4.089392279435464,-1.3759747373848012,6.0413417542050665
4.5183887832699625,-4.184273699813116,-1.3353112715086644,6.054896242830445
4.526385931558935,-4.279155120190758,-1.2946478056325321,6.0684507314558225
4.534383079847909,-4.374036540568411,-1.2539843397563954,6.082005220081202
4.542380228136882,-4.4689179609460625,-1.2133208738802588,6.09555970870658
4.550377376425856,-4.563799381323715,-1.172657408004122,6.10911419733196
4.558374524714829,-4.658680801701357,-1.1319939421279899,6.122668685957337
4.566371673003802,-4.753562222079009,-1.0913304762518532,6.136223174582716
4.574368821292776,-4.848443642456662,-1.0506670103757165,6.149777663208095
4.582365969581749,-4.943325062834314,-1.0100035444995799,6.163332151833473
4.590363117870723,-5.038206483211966,-0.9693400786234431,6.176886640458853
4.598360266159696,-5.133087903589608,-0.9286766127473108,6.19044112908423
4.606357414448669,-5.242862080884892,-1.028586242654677,6.65005184929137
4.614354562737643,-5.388264777048047,-1.46479433114414,8.17678015900449
4.622351711026616,-9.006498236291161,6.422667094232446,7.504835310825062
4.630348859315589,-8.688539328416343,6.499748041596038,7.861334692381675
4.638346007604563,-8.370580420541492,6.5768289889596385,8.217834073938327
4.646343155893536,-8.05262151266664,6.653909936323239,8.57433345549498
4.65434030418251,-7.7346626047917875,6.7309908836868395,8.930832837051632
4.662337452471483,-7.416703696916935,6.80807183105044,9.287332218608285
4.670334600760456,-7.098744789042118,6.8851527784140325,9.643831600164898
4.67833174904943,-6.780785881167265,6.962233725777633,10.00033098172155
4.686328897338403,-6.4628269732924135,7.0393146731412335,10.356830363278203
4.694326045627377,-6.144868065417561,7.116395620504834,10.713329744834855
4.70232319391635,-5.826909157542708,7.1934765678684345,11.069829126391507
4.710320342205323,-5.6339828897338515,-2.1621197718630354,6.726188212927627
4.718317490494297,-5.58336933978569,-2.5164146215001684,7.149891980642929
4.72631463878327,-5.5651940027652955,-2.6436419806429297,7.204417991704113
4.734311787072244,-5.547018665744901,-2.770869339785691,7.258944002765296
4.7423089353612164,-5.528843328724509,-2.898096698928438,7.313470013826473
4.75030608365019,-5.510667991704114,-3.0253240580711998,7.367996024887657
4.758303231939164,-5.49249265468372,-3.152551417213961,7.42252203594884
4.766300380228137,-5.474317317663325,-3.2797787763567223,7.477048047010024
4.774297528517111,-5.456141980642931,-3.4070061354994836,7.531574058071207
4.7822946768060834,-5.437966643622539,-3.5342334946422307,7.586100069132384
4.790291825095057,-5.419791306602145,-3.661460853784992,7.640626080193568
4.798288973384031,-5.40161596958175,-3.7886882129277533,7.6951520912547515
4.806286121673004,-5.8,-1.29878246096594,8.200608769517029
4.814283269961977,-5.8,-1.2647520427149925,8.217623978642504
4.82228041825095,-5.8,-1.230721624464041,8.234639187767979
4.830277566539924,-5.8,-1.1966912062130899,8.251654396893455
4.838274714828898,-5.8,-1.1626607879621387,8.26866960601893
4.846271863117871,-5.8,-1.1286303697111872,8.285684815144407
4.854269011406844,-5.8,-1.0945999514602398,8.30270002426988
4.862266159695817,-5.8,-1.0605695332092886,8.319715233395355
4.870263307984791,-5.8,-1.0265391149583372,8.336730442520832
4.878260456273765,-5.8,-0.992508696707386,8.353745651646307
4.886257604562738,-5.8,-0.9584782784564347,8.370760860771783
4.894254752851711,-5.8,-0.9244478602054871,8.387776069897257
4.902251901140684,-5.862595057034238,-1.338165399239669,7.687024714828808
4.910249049429658,-5.990959469298599,-2.186439203947899,7.413560796052101
4.918246197718632,-5.973944260173123,-2.1609163902596857,7.439083609740314
4.926243346007604,-5.95692905104765,-2.135393576571475,7.464606423428525
4.934240494296578,-5.939913841922174,-2.109870762883262,7.490129237116739
4.942237642585551,-5.922898632796699,-2.084347949195048,7.5156520508049525
4.950234790874525,-5.905883423671223,-2.0588251355068348,7.541174864493166
4.958231939163499,-5.888868214545747,-2.033302321818621,7.566697678181379
4.966229087452471,-5.871853005420274,-2.0077795081304104,7.59222049186959
4.974226235741445,-5.854837796294798,-1.982256694442197,7.617743305557803
4.982223384030418,-5.837822587169322,-1.9567338807539836,7.643266119246016
4.990220532319392,-5.820807378043846,-1.93121106706577,7.6687889329342305
4.998217680608366,-5.8037921689183705,-1.9056882533775565,7.694311746622444
5.006214828897338,-5.7223146387832715,-1.7446292775665435,7.7776853612167285
5.014211977186312,-5.8,-1.6957721726058885,7.701409275798038
5.022209125475285,-5.8,-1.6678751436908645,7.710708285436379
5.030206273764259,-5.8,-1.6399781147758405,7.72000729507472
5.038203422053232,-5.8,-1.6120810858608197,7.72930630471306
5.046200570342205,-5.8,-1.5841840569457957,7.7386053143514015
5.054197718631179,-5.8,-1.5562870280307717,7.747904323989743
5.062194866920152,-5.8,-1.5283899991157477,7.757203333628084
5.070192015209126,-5.8,-1.5004929702007235,7.766502343266425
5.078189163498099,-5.8,-1.4725959412857026,7.775801352904765
5.086186311787072,-5.8,-1.4446989123706786,7.7851003625431066
5.094183460076046,-5.8,-1.4168018834556546,7.794399372181449
5.102180608365019,-5.709030418250956,-1.2,7.9
5.110177756653992,-5.799798003802282,-1.2,7.899798003802283
5.118174904942966,-5.790710335292085,-1.2,7.890710335292085
5.126172053231939,-5.781622666781887,-1.2,7.881622666781888
5.134169201520913,-5.7725349982716905,-1.2,7.872534998271691
5.142166349809886,-5.763447329761493,-1.2,7.8634473297614935
5.150163498098859,-5.754359661251297,-1.2,7.854359661251297
5.158160646387833,-5.7452719927411,-1.2,7.845271992741099
5.166157794676806,-5.736184324230902,-1.2,7.836184324230903
5.17415494296578,-5.727096655720706,-1.2,7.827096655720705
5.182152091254753,-5.718008987210508,-1.2,7.818008987210508
5.190149239543726,-5.708921318700312,-1.2,7.808921318700311
5.1981463878327,-5.7073193916349645,-1.2073193916349643,7.8
5.206143536121673,-5.7,-1.4642942015209202,7.8
5.214140684410647,-5.7,-1.5057118715673856,7.8
5.2221378326996195,-5.7,-1.5145975918884664,7.8
5.230134980988593,-5.7,-1.5234833122095481,7.8
5.238132129277567,-5.7,-1.5323690325306298,7.8
5.24612927756654,-5.7,-1.5412547528517115,7.8
5.254126425855514,-5.7,-1.5501404731727932,7.8
5.2621235741444865,-5.7,-1.5590261934938738,7.8
5.27012072243346,-5.7,-1.5679119138149555,7.8
5.278117870722434,-5.7,-1.5767976341360372,7.8
5.286115019011407,-5.7,-1.585683354457119,7.8
5.29411216730038,-5.7,-1.5945690747781995,7.8
5.3021093155893535,-5.705465779467693,-1.6,7.8
5.310106463878327,-5.705432408381199,-1.6,7.794567591618801
5.318103612167301,-5.7139400129439375,-1.6,7.7860599870560625
5.326100760456274,-5.722447617506675,-1.6,7.777552382493325
5.334097908745247,-5.7309552220694115,-1.6,7.7690447779305885
5.3420950570342205,-5.73946282663215,-1.6,7.76053717336785
5.350092205323194,-5.747970431194887,-1.6,7.752029568805113
5.358089353612168,-5.756478035757625,-1.6,7.743521964242375
5.366086501901141,-5.764985640320363,-1.6,7.735014359679637
5.374083650190114,-5.7734932448831,-1.6,7.7265067551169
5.3820807984790875,-5.782000849445837,-1.6,7.717999150554163
5.390077946768061,-5.790508454008576,-1.6,7.709491545991424
5.398075095057035,-5.799016058571313,-1.6,7.700983941428687
5.406072243346007,-5.8,-1.5988593155893542,7.701140684410646
5.414069391634981,-5.8,-1.5903517110266163,7.7096482889733835
5.4220665399239545,-5.8,-1.5818441064638784,7.718155893536122
5.430063688212928,-5.8,-1.5733365019011405,7.726663498098859
5.438060836501902,-5.8,-1.5648288973384026,7.735171102661598
5.446057984790874,-5.8,-1.5563212927756656,7.743678707224334
5.454055133079848,-5.8,-1.5478136882129276,7.752186311787073
5.4620522813688215,-5.8,-1.5393060836501897,7.76069391634981
5.470049429657795,-5.8,-1.5307984790874518,7.7692015209125485
5.478046577946768,-5.8,-1.522290874524715,7.777709125475285
5.486043726235741,-5.8,-1.513783269961977,7.7862167300380225
5.494040874524715,-5.8,-1.5052756653992392,7.794724334600761
5.5020380228136885,-5.8,-1.5,7.7
5.510035171102662,-5.8,-1.5,7.7
5.518032319391635,-5.8,-1.5,7.707991272035948
5.526029467680608,-5.8,-1.5,7.717078940546146
5.534026615969582,-5.8,-1.5,7.726166609056343
5.5420237642585555,-5.8,-1.5,7.73525427756654
5.550020912547529,-5.8,-1.5,7.744341946076737
5.558018060836502,-5.8,-1.5,7.753429614586934
5.566015209125475,-5.8,-1.5,7.7625172830971305
5.574012357414449,-5.8,-1.5,7.771604951607328
5.5820095057034225,-5.8,-1.5,7.7806926201175255
5.590006653992395,-5.8,-1.5,7.789780288627721
5.598003802281369,-5.8,-1.5,7.798867957137919
5.606000950570342,-5.733317490494293,-1.5666825095057073,7.8
5.613998098859316,-5.704492245909344,-1.6,7.695507754090657
5.6219952471482895,-5.713477805784595,-1.6,7.686522194215406
5.629992395437262,-5.722463365659845,-1.6,7.677536634340155
5.637989543726236,-5.731448925535096,-1.6,7.6685510744649035
5.645986692015209,-5.740434485410347,-1.6,7.659565514589652
5.653983840304183,-5.749420045285599,-1.6,7.650579954714401
5.6619809885931565,-5.75840560516085,-1.6,7.64159439483915
5.669978136882129,-5.7673911650361,-1.6,7.6326088349639
5.677975285171103,-5.776376724911351,-1.6,7.623623275088648
5.685972433460076,-5.785362284786602,-1.6,7.614637715213397
5.69396958174905,-5.7943478446618535,-1.6,7.605652155338146
5.701966730038023,-5.8,-1.6,7.6
5.709963878326996,-5.81070975918885,-1.5,7.71070975918885
5.71796102661597,-5.899566962399664,-1.5,7.7995669623996635
5.725958174904943,-5.8901750927099465,-1.5098249072900534,7.8
5.733955323193917,-5.880302070130967,-1.5196979298690332,7.8
5.74195247148289,-5.870429047551989,-1.5295709524480117,7.8
5.749949619771863,-5.860556024973008,-1.5394439750269915,7.8
5.757946768060837,-5.850683002394029,-1.549316997605971,7.8
5.76594391634981,-5.84080997981505,-1.5591900201849507,7.8
5.773941064638783,-5.83093695723607,-1.5690630427639294,7.8
5.781938212927757,-5.821063934657091,-1.578936065342909,7.8
5.78993536121673,-5.811190912078112,-1.5888090879218888,7.8
5.797932509505704,-5.801317889499131,-1.5986821105008684,7.8
5.805929657794677,-5.8,-1.5,7.7
5.81392680608365,-5.8,-1.5,7.7
5.8219239543726236,-5.8,-1.5,7.7
5.829921102661597,-5.8,-1.5,7.7
5.837918250950571,-5.8,-1.5,7.7
5.845915399239544,-5.8,-1.5,7.7
5.853912547528517,-5.8,-1.5,7.7
5.8619096958174906,-5.8,-1.5,7.7
5.869906844106464,-5.8,-1.5,7.7
5.877903992395438,-5.8,-1.5,7.7
5.88590114068441,-5.8,-1.5,7.7
5.893898288973384,-5.8,-1.5,7.7
5.9018954372623575,-5.8,-1.5895437262357448,7.7
5.909892585551331,-5.7,-1.6,7.8
5.917889733840305,-5.7,-1.6,7.8
5.925886882129277,-5.7,-1.6,7.8
5.933884030418251,-5.7,-1.6,7.8
5.9418811787072245,-5.7,-1.6,7.8
5.949878326996198,-5.7,-1.6,7.8
5.957875475285171,-5.7,-1.6,7.8
5.965872623574144,-5.7,-1.6,7.8
5.973869771863118,-5.7,-1.6,7.8
5.9818669201520915,-5.7,-1.6,7.8
5.989864068441065,-5.7,-1.6,7.8
5.997861216730038,-5.7,-1.6,7.8
6.005858365019011,-5.8,-1.6,7.607081749049439
6.013855513307985,-5.805395014786649,-1.5,7.7
6.0218526615969585,-5.814280735107731,-1.5,7.7
6.029849809885932,-5.823166455428813,-1.5,7.7
6.037846958174905,-5.832052175749894,-1.5,7.7
6.045844106463878,-5.840937896070976,-1.5,7.7
6.053841254752852,-5.849823616392057,-1.5,7.7
6.0618384030418255,-5.858709336713139,-1.5,7.7
6.069835551330798,-5.867595057034221,-1.5,7.7
6.077832699619772,-5.876480777355302,-1.5,7.7
6.085829847908745,-5.885366497676384,-1.5,7.7
6.093826996197719,-5.894252217997465,-1.5,7.7
6.1018241444866925,-5.8,-1.5,7.7
6.109821292775665,-5.8,-1.5,7.786903253062948
6.117818441064639,-5.8,-1.5,7.702593699076593
6.125815589353612,-5.8,-1.5,7.7
6.133812737642586,-5.8,-1.5,7.7
6.1418098859315595,-5.8,-1.5,7.7
6.149807034220532,-5.8,-1.5,7.7
6.157804182509506,-5.8,-1.5,7.7
6.165801330798479,-5.8,-1.5,7.7
6.173798479087453,-5.8,-1.5,7.7
6.181795627376426,-5.8,-1.5,7.7
6.189792775665399,-5.8,-1.5,7.7
6.197789923954373,-5.8,-1.5,7.7
6.205787072243346,-5.8,-1.5008463142401574,7.7
6.21378422053232,-5.8,-1.5094453984218492,7.7
6.221781368821293,-5.8,-1.5180444826035404,7.7
6.229778517110266,-5.8,-1.5266435667852325,7.7
6.23777566539924,-5.8,-1.5352426509669244,7.7
6.245772813688213,-5.8,-1.5438417351486164,7.7
6.253769961977186,-5.8,-1.5524408193303076,7.7
6.26176711026616,-5.8,-1.5610399035119995,7.7
6.269764258555133,-5.8,-1.5696389876936916,7.7
6.277761406844107,-5.8,-1.5782380718753837,7.7
6.28575855513308,-5.8,-1.5868371560570758,7.7
6.293755703422053,-5.8,-1.5954362402387667,7.7
6.301752851711027,-5.887642585551349,-1.5,7.7
6.30975,-5.8,-1.6,7.604947916666667
6.317747148288974,-5.8,-1.6,7.613278279467681
6.325744296577947,-5.8,-1.6,7.621608642268695
6.33374144486692,-5.8,-1.6,7.6299390050697085
6.341738593155894,-5.8,-1.6,7.6382693678707225
6.349735741444867,-5.8,-1.6,7.646599730671737
6.357732889733841,-5.8,-1.6,7.654930093472751
6.3657300380228135,-5.8,-1.6,7.663260456273764
6.373727186311787,-5.8,-1.6,7.671590819074779
6.381724334600761,-5.8,-1.6,7.679921181875793
6.389721482889734,-5.8,-1.6,7.688251544676807
6.397718631178708,-5.8,-1.6,7.696581907477821
6.4057157794676804,-5.8,-1.535788973384014,7.7
6.413712927756654,-5.8,-1.6,7.7
6.421710076045628,-5.8,-1.6,7.7
6.429707224334601,-5.8,-1.6,7.7
6.437704372623574,-5.8,-1.6,7.7
6.4457015209125474,-5.8,-1.6,7.7
6.453698669201521,-5.8,-1.6,7.7
6.461695817490495,-5.8,-1.6,7.7
6.469692965779468,-5.8,-1.6,7.7
6.477690114068441,-5.8,-1.6,7.7
6.485687262357414,-5.8,-1.6,7.7
6.493684410646388,-5.8,-1.6,7.7
6.501681558935362,-5.8,-1.6,7.7
6.509678707224335,-5.8,-1.529016159695805,7.7
6.517675855513308,-5.8,-1.5,7.7
6.525673003802281,-5.8,-1.58365019011408,7.7
6.533670152091255,-5.8,-1.589347010984368,7.7
6.541667300380229,-5.8,-1.5782398605830157,7.7
6.549664448669201,-5.8,-1.5671327101816648,7.7
6.557661596958175,-5.8,-1.5560255597803125,7.7
6.565658745247148,-5.8,-1.5449184093789603,7.7
6.573655893536122,-5.8,-1.533811258977608,7.7
6.581653041825096,-5.8,-1.522704108576256,7.7
6.589650190114068,-5.8,-1.511596958174905,7.7
6.597647338403042,-5.8,-1.500489807773553,7.7
6.605644486692015,-5.8,-1.6,7.7
6.613641634980989,-5.8,-1.6,7.7
6.621638783269962,-5.8,-1.6,7.7
6.629635931558935,-5.8,-1.6,7.7
6.637633079847909,-5.8,-1.6,7.7
6.645630228136882,-5.8,-1.6,7.7
6.653627376425856,-5.8,-1.6,7.7
6.661624524714829,-5.8,-1.6,7.7
6.669621673003802,-5.8,-1.6,7.7
6.677618821292776,-5.8,-1.6,7.7
6.685615969581749,-5.8,-1.6,7.7
6.693613117870723,-5.8,-1.6,7.7
6.701610266159696,-5.8,-1.6,7.7
6.709607414448669,-5.8,-1.5993175118554275,7.700682488144572
6.717604562737643,-5.8,-1.5903319519801764,7.709668048019824
6.725601711026616,-5.8,-1.5813463921049251,7.718653607895075
6.733598859315589,-5.8,-1.572360832229675,7.727639167770326
6.741596007604563,-5.8,-1.5633752723544239,7.736624727645577
6.749593155893536,-5.8,-1.5543897124791726,7.745610287520828
6.75759030418251,-5.8,-1.5454041526039215,7.754595847396079
6.765587452471483,-5.8,-1.5364185927286702,7.76358140727133
6.773584600760456,-5.8,-1.52743303285342,7.77256696714658
6.78158174904943,-5.8,-1.518447472978169,7.781552527021831
6.789578897338403,-5.8,-1.5094619131029177,7.790538086897082
6.797576045627377,-5.8,-1.5004763532276666,7.799523646772333
6.80557319391635,-5.8,-1.5,7.7
6.813570342205323,-5.8,-1.5,7.7
6.821567490494297,-5.8,-1.5,7.7
6.82956463878327,-5.8,-1.5,7.7
6.837561787072244,-5.8,-1.5,7.7
6.8455589353612165,-5.8,-1.5,7.7
6.85355608365019,-5.8,-1.5,7.7
6.861553231939164,-5.8,-1.5,7.7
6.869550380228137,-5.8,-1.5,7.7
6.877547528517111,-5.8,-1.5,7.7
6.8855446768060835,-5.8,-1.5,7.7
6.893541825095057,-5.8,-1.5,7.7
6.901538973384031,-5.8,-1.5,7.7
6.909536121673004,-5.8,-1.5,7.7
6.917533269961977,-5.801869841417044,-1.5018698414170446,7.7
6.9255304182509505,-5.8116224612816465,-1.5116224612816465,7.7
6.933527566539924,-5.821375081146249,-1.5213750811462485,7.7
6.941524714828898,-5.831127701010851,-1.5311277010108504,7.7
6.949521863117871,-5.840880320875453,-1.5408803208754525,7.7
6.957519011406844,-5.850632940740053,-1.5506329407400532,7.7
6.9655161596958175,-5.860385560604655,-1.5603855606046553,7.7
6.973513307984791,-5.870138180469257,-1.5701381804692571,7.7
6.981510456273765,-5.879890800333859,-1.5798908003338592,7.7
6.989507604562738,-5.889643420198461,-1.589643420198461,7.7
6.997504752851711,-5.8993960400630625,-1.5993960400630618,7.7
7.0055019011406845,-5.925095057034233,-1.425095057034233,7.674904942965767
7.013499049429658,-6.00833189307524,-1.3583405346238024,7.724995679225719
7.021496197718632,-6.020448784422169,-1.297756077889154,7.761346353266508
7.029493346007604,-6.0325656757690975,-1.2371716211545123,7.797697027307293
7.037490494296578,-6.044682567116027,-1.1765871644198638,7.834047701348082
7.0454876425855515,-6.056799458462956,-1.1160027076852153,7.870398375388871
7.053484790874525,-6.068916349809887,-1.055418250950567,7.90674904942966
7.061481939163499,-6.081033241156816,-0.9948337942159184,7.943099723470449
7.069479087452471,-6.0931501325037445,-0.9342493374812767,7.979450397511234
7.077476235741445,-5.330941064638802,-1.221435361216719,8.07381178707224
7.0854733840304185,-5.38852978453739,-2.4038234051542036,7.503823405154203
7.093470532319392,-5.368024276104125,-2.4106585746319587,7.510658574631958
7.101467680608365,-5.347518767670861,-2.417493744109713,7.517493744109713
7.109464828897338,-5.327013259237595,-2.4243289135874684,7.5243289135874685
7.117461977186312,-5.30650775080433,-2.4311640830652235,7.531164083065224
7.1254591254752855,-5.2860022423710635,-2.4379992525429786,7.537999252542979
7.133456273764259,-5.265496733937798,-2.4448344220207336,7.544834422020734
7.141453422053232,-5.244991225504535,-2.4516695914984883,7.551669591498488
7.149450570342205,-5.2244857170712695,-2.4585047609762434,7.558504760976243
7.157447718631179,-5.203980208638003,-2.4653399304539985,7.565339930453998
7.1654448669201525,-5.183474700204738,-2.472175099931754,7.572175099931754
7.173442015209126,-5.162969191771473,-2.479010269409509,7.579010269409509
7.181439163498099,-5.142463683338209,-2.4858454388872637,7.585845438887263
7.189436311787072,-5.121958174904943,-2.492680608365019,7.5926806083650185
7.197433460076046,-5.101452666471678,-2.499515777842774,7.5995157778427735
7.2054306083650195,-4.897494218180393,-1.8974942181803924,8.202505781819607
7.213427756653992,-4.8892497354082565,-1.8892497354082556,8.210750264591743
7.221424904942966,-4.881005252636118,-1.8810052526361178,8.218994747363881
7.229422053231939,-4.87276076986398,-1.87276076986398,8.22723923013602
7.237419201520913,-4.864516287091843,-1.8645162870918424,8.235483712908158
7.2454163498098865,-4.856271804319705,-1.8562718043197046,8.243728195680296
7.253413498098859,-4.848027321547568,-1.848027321547568,8.251972678452432
7.261410646387833,-4.83978283877543,-1.8397828387754303,8.26021716122457
7.269407794676806,-4.831538356003293,-1.8315383560032925,8.268461643996709
7.27740494296578,-4.8232938732311545,-1.8232938732311548,8.276706126768845
7.285402091254753,-4.815049390459018,-1.815049390459018,8.284950609540983
7.293399239543726,-4.80680490768688,-1.8068049076868802,8.29319509231312
7.3013963878327,-4.904729087452481,-1.8,8.265090304182506
7.309393536121673,-5.219856358259408,-1.7400718208702959,8.140071820870295
7.317390684410647,-5.47562737642589,-1.7878136882129452,8.012186311787055
7.32538783269962,-5.5,-1.8,7.8
7.333384980988593,-5.506321763355043,-1.7936782366449573,7.812643526710086
7.341382129277567,-5.514239731957987,-1.785760268042013,7.828479463915974
7.34937927756654,-5.522157700560931,-1.777842299439069,7.844315401121862
7.357376425855514,-5.5300756691638755,-1.7699243308361248,7.86015133832775
7.365373574144487,-5.537993637766818,-1.7620063622331816,7.875987275533637
7.37337072243346,-5.545911606369763,-1.7540883936302374,7.891823212739525
7.381367870722434,-5.553829574972706,-1.7461704250272934,7.907659149945413
7.389365019011407,-5.561747543575651,-1.7382524564243491,7.923495087151301
7.39736216730038,-5.569665512178593,-1.730334487821406,7.939331024357188
7.405359315589354,-5.577583480781538,-1.7224165192184617,7.9551669615630765
7.413356463878327,-5.585501449384482,-1.7144985506155175,7.9710028987689645
7.421353612167301,-5.593419417987426,-1.7065805820125735,7.9868388359748534
7.429350760456274,-5.6,-1.4973859315588238,8.067538022813725
7.437347908745247,-5.599429657794677,-2.0994296577946776,7.799429657794677
7.445345057034221,-5.586319578632425,-2.086319578632426,7.786319578632425
7.453342205323194,-5.573209499470174,-2.073209499470174,7.773209499470174
7.461339353612168,-5.560099420307922,-2.0600994203079224,7.760099420307922
7.469336501901141,-5.54698934114567,-2.0469893411456703,7.74698934114567
7.477333650190114,-5.53387926198342,-2.03387926198342,7.73387926198342
7.4853307984790876,-5.5207691828211685,-2.0207691828211685,7.720769182821169
7.493327946768061,-5.507659103658916,-2.0076591036589164,7.707659103658917
7.501325095057035,-5.373498098859305,-2.1469961977186105,7.853003802281389
7.509322243346007,-5.2,-2.0,8.098530840726658
7.517319391634981,-5.2,-2.0,8.089645120405576
7.5253165399239546,-5.2,-2.0,8.080759400084494
7.533313688212928,-5.2,-2.0,8.071873679763414
7.541310836501902,-5.2,-2.0,8.062987959442331
7.549307984790874,-5.2,-2.0,8.054102239121251
7.557305133079848,-5.2,-2.0,8.045216518800169
7.5653022813688215,-5.2,-2.0,8.036330798479087
7.573299429657795,-5.2,-2.0,8.027445078158005
7.581296577946768,-5.2,-2.0,8.018559357836924
7.589293726235741,-5.2,-2.0,8.009673637515842
7.597290874524715,-5.2,-2.0,8.000787917194762
7.6052880228136885,-5.3,-2.1285329531051933,7.9
7.613285171102662,-5.5,-1.8930322421094925,7.9
7.621282319391635,-5.5,-1.8800287489566914,7.9
7.629279467680608,-5.5,-1.8670252558038887,7.9
7.637276615969582,-5.5,-1.8540217626510862,7.9
7.6452737642585555,-5.5,-1.8410182694982837,7.9
7.653270912547529,-5.5,-1.8280147763454813,7.9
7.661268060836502,-5.5,-1.8150112831926801,7.9
7.669265209125475,-5.5,-1.8020077900398774,7.9
7.677262357414449,-5.5,-1.789004296887075,7.9
7.6852595057034225,-5.5,-1.7760008037342725,7.9
7.693256653992395,-5.5,-1.7629973105814714,7.9
7.701253802281369,-5.5,-1.7499938174286689,7.9
7.709250950570342,-5.5,-1.7369903242758662,7.9
7.717248098859316,-5.5,-1.7239868311230637,7.9
7.7252452471482895,-5.5,-1.7109833379702613,7.9
7.733242395437262,-5.5,-1.6121197718631244,7.912119771863124
7.741239543726236,-5.3838022813688236,-1.6758174904943104,8.194372623574123
7.749236692015209,-5.343816539923955,-1.369260139416988,8.67420152091254
7.757233840304183,-5.303830798479087,-1.0627027883396656,9.154030418250958
7.765230988593156,-5.2638450570342235,-0.7561454372623773,9.633859315589323
7.773228136882129,-5.223859315589355,-0.44958808618505497,10.113688212927741
7.781225285171103,-5.183873574144487,-0.14303073510773245,10.593517110266157
7.789222433460076,-5.143887832699618,0.16352661596958984,11.073346007604576
7.79721958174905,-5.10390209125475,0.47008396704691235,11.553174904942994
7.805216730038023,-5.229066328686125,2.022179974651592,6.875369666244193
7.813213878326996,-4.418349323547614,-2.4915310814395633,6.802822972853479
7.82121102661597,-4.539236448846052,-2.435737023609515,6.821420992130162
7.829208174904943,-4.660123574144491,-2.379942965779466,6.840019011406844
7.837205323193917,-4.78101069944293,-2.3241489079494175,6.8586170306835275
7.84520247148289,-4.901897824741354,-2.268354850119375,6.877215049960208
7.853199619771863,-5.022784950039793,-2.2125607922893265,6.895813069236891
7.861196768060837,-5.143672075338231,-2.1567667344592776,6.914411088513574
7.86919391634981,-5.26455920063667,-2.100972676629229,6.933009107790257
7.877191064638783,-5.385446325935096,-2.045178618799187,6.9516071270669375
7.885188212927757,-5.506333451233534,-1.989384560969138,6.970205146343621
7.89318536121673,-5.627220576531973,-1.9335905031390896,6.988803165620303
7.901182509505704,-5.3452471482889345,-2.6452471482889344,8.218250950570356
7.909179657794677,-5.400191125313487,-1.7996177493730265,7.80057337594046
7.91717680608365,-5.408698729876224,-1.7826025402475527,7.826096189628671
7.925173954372624,-5.417206334438962,-1.765587331122077,7.851619003316884
7.933171102661597,-5.4257139390016995,-1.7485721219966015,7.877141817005097
7.941168250950571,-5.434221543564437,-1.731556912871126,7.902664630693311
7.949165399239544,-5.442729148127175,-1.7145417037456503,7.928187444381525
7.957162547528517,-5.451236752689912,-1.6975264946201765,7.953710258069735
7.965159695817491,-5.459744357252649,-1.6805112854947009,7.979233071757949
7.973156844106464,-5.468251961815388,-1.6634960763692253,8.004755885446162
7.981153992395438,-5.476759566378125,-1.6464808672437496,8.030278699134376
7.9891511406844105,-5.485267170940862,-1.6294656581182758,8.055801512822587
7.997148288973384,-5.4937747755036,-1.6124504489928002,8.0813243265108
8.005145437262357,-5.457271863117839,-1.729087452471356,8.085456273764322
8.01314258555133,-5.4,-1.9,7.8
8.021139733840304,-5.402708523848486,-1.8972914761515143,7.8027085238484855
8.029136882129277,-5.412831496366174,-1.8871685036338262,7.812831496366174
8.037134030418251,-5.422954468883862,-1.8770455311161383,7.822954468883862
8.045131178707225,-5.43307744140155,-1.8669225585984504,7.833077441401549
8.053128326996198,-5.443200413919238,-1.8567995860807622,7.843200413919238
8.061125475285172,-5.453323386436926,-1.8466766135630743,7.853323386436926
8.069122623574145,-5.463446358954614,-1.8365536410453862,7.863446358954614
8.077119771863119,-5.4735693314723015,-1.8264306685276983,7.873569331472302
8.08511692015209,-5.483692303989987,-1.8163076960100126,7.883692303989988
8.093114068441064,-5.493815276507675,-1.8061847234923247,7.8938152765076754
8.101111216730038,-5.344439163498108,-1.8555608365018925,8.0
8.109108365019011,-5.3,-1.8044175967946356,7.995582403205365
8.117105513307985,-5.3,-1.8130166809763275,7.986983319023673
8.125102661596959,-5.3,-1.8216157651580196,7.978384234841981
8.133099809885932,-5.3,-1.8302148493397117,7.969785150660289
8.141096958174906,-5.3,-1.8388139335214035,7.9611860664785965
8.14909410646388,-5.3,-1.8474130177030956,7.952586982296904
8.157091254752851,-5.3,-1.8560121018847857,7.943987898115214
8.165088403041825,-5.3,-1.8646111860664778,7.935388813933523
8.173085551330798,-5.3,-1.8732102702481697,7.926789729751831
8.181082699619772,-5.3,-1.8818093544298617,7.918190645570139
8.189079847908745,-5.3,-1.8904084386115536,7.909591561388447
8.197076996197719,-5.3,-1.8990075227932457,7.900992477206755
8.205074144486693,-5.2,-1.882097591888468,8.0
8.213071292775666,-5.201217378154166,-1.7,8.098782621845833
8.22106844106464,-5.210305046664364,-1.7,8.089694953335636
8.229065589353612,-5.219392715174559,-1.7,8.08060728482544
8.237062737642585,-5.228480383684756,-1.7,8.071519616315245
8.245059885931559,-5.237568052194953,-1.7,8.062431947805047
8.253057034220532,-5.24665572070515,-1.7,8.05334427929485
8.261054182509506,-5.255743389215347,-1.7,8.044256610784652
8.26905133079848,-5.264831057725544,-1.7,8.035168942274456
8.277048479087453,-5.273918726235742,-1.7,8.026081273764259
8.285045627376427,-5.2830063947459385,-1.7,8.016993605254061
8.2930427756654,-5.292094063256136,-1.7,8.007905936743864
8.301039923954372,-5.3519961977185915,-1.7519961977185912,8.0
8.309037072243346,-5.397130884164303,-1.8028691158356975,8.0
8.317034220532319,-5.385867295024903,-1.8141327049750968,8.0
8.325031368821293,-5.374603705885504,-1.8253962941144963,8.0
8.333028517110266,-5.363340116746104,-1.8366598832538958,8.0
8.34102566539924,-5.352076527606705,-1.8479234723932951,8.0
8.349022813688213,-5.340812938467305,-1.8591870615326946,8.0
8.357019961977187,-5.329549349327906,-1.870450650672094,8.0
8.36501711026616,-5.318285760188506,-1.8817142398114934,8.0
8.373014258555134,-5.307022171049107,-1.892977828950893,8.0
8.381011406844106,-5.294676806083657,-2.0053231939163436,8.0
8.38900855513308,-5.25258655193116,-2.0474134480688395,8.0
8.397005703422053,-5.210496297778664,-2.089503702221336,8.0
8.405002851711027,-4.3996197718630246,-1.649786121672951,4.498336501900731
8.413,-6.9,-4.2,5.5
