accel_time_list,accel_x_list,accel_y_list,accel_z_list
0.0,-4.4,-1.3,9.2
0.007999013806706114,-4.897828230854987,-2.597828230854987,8.201085884572507
0.01599802761341223,-4.880439070405626,-2.5804390704056255,8.209780464797186
0.023997041420118343,-4.863049909956265,-2.5630499099562645,8.218475045021867
0.03199605522682446,-4.845660749506903,-2.5456607495069035,8.227169625246548
0.039995069033530575,-4.828271589057542,-2.5282715890575425,8.235864205471229
0.047994082840236686,-4.810882428608181,-2.510882428608181,8.24455878569591
0.0559930966469428,-4.79349326815882,-2.49349326815882,8.25325336592059
0.06399211045364891,-4.776104107709459,-2.476104107709459,8.261947946145272
0.07199112426035503,-4.758714947260098,-2.4587149472600975,8.27064252636995
0.07999013806706115,-4.741325786810737,-2.4413257868107365,8.279337106594632
0.08798915187376725,-4.723936626361375,-2.4239366263613755,8.288031686819313
0.09598816568047337,-4.706547465912014,-2.4065474659120145,8.296726267043994
0.10398717948717949,-4.799743589743589,-2.20051282051282,8.3
0.1119861932938856,-5.196644726636084,-2.0033552733639164,8.296644726636083
0.11998520710059171,-5.187657070673493,-2.0123429293265076,8.287657070673493
0.12798422090729783,-5.178669414710901,-2.021330585289099,8.278669414710901
0.13598323471400395,-5.16968175874831,-2.03031824125169,8.26968175874831
0.14398224852071007,-5.160694102785719,-2.039305897214281,8.260694102785719
0.15198126232741618,-5.151706446823128,-2.048293553176872,8.251706446823128
0.1599802761341223,-5.1427187908605365,-2.057281209139463,8.242718790860536
0.1679792899408284,-5.133731134897945,-2.0662688651020544,8.233731134897946
0.1759783037475345,-5.124743478935354,-2.0752565210646456,8.224743478935354
0.18397731755424063,-5.115755822972763,-2.084244177027237,8.215755822972763
0.19197633136094674,-5.106768167010172,-2.093231832989828,8.206768167010171
0.19997534516765286,-4.803698224852072,-2.1987672583826425,8.2
0.20797435897435898,-4.8,-2.4,8.2
0.2159733727810651,-4.8,-2.4,8.2
0.2239723865877712,-4.8,-2.4,8.2
0.2319714003944773,-4.8,-2.4,8.2
0.23997041420118342,-4.8,-2.4,8.2
0.24796942800788954,-4.8,-2.4,8.2
0.25596844181459566,-4.8,-2.4,8.2
0.26396745562130175,-4.8,-2.4,8.2
0.2719664694280079,-4.8,-2.4,8.2
0.279965483234714,-4.8,-2.4,8.2
0.28796449704142013,-4.8,-2.4,8.2
0.2959635108481262,-4.8,-2.4,8.2
0.30396252465483237,-4.8,-2.4839579224194606,8.2
0.31196153846153846,-4.8,-2.3967094017094017,8.2
0.3199605522682446,-4.8,-2.3878216085908393,8.2
0.3279595660749507,-4.8,-2.378933815472277,8.2
0.3359585798816568,-4.8,-2.3700460223537148,8.2
0.34395759368836293,-4.8,-2.3611582292351523,8.2
0.351956607495069,-4.8,-2.35227043611659,8.2
0.35995562130177516,-4.8,-2.3433826429980273,8.2
0.36795463510848125,-4.8,-2.3344948498794653,8.2
0.3759536489151874,-4.8,-2.325607056760903,8.2
0.3839526627218935,-4.8,-2.3167192636423404,8.2
0.3919516765285996,-4.8,-2.307831470523778,8.2
0.3999506903353057,-4.847534516765285,-2.3,8.2
0.4079497041420118,-4.897880756367379,-2.3,8.2
0.41594871794871796,-4.889186176142698,-2.3,8.2
0.42394773175542405,-4.880491595918017,-2.3,8.2
0.4319467455621302,-4.871797015693337,-2.3,8.2
0.4399457593688363,-4.863102435468656,-2.3,8.2
0.4479447731755424,-4.854407855243976,-2.3,8.2
0.4559437869822485,-4.845713275019295,-2.3,8.2
0.4639428007889546,-4.837018694794614,-2.3,8.2
0.47194181459566076,-4.828324114569934,-2.3,8.2
0.47994082840236685,-4.819629534345253,-2.3,8.2
0.487939842209073,-4.810934954120572,-2.3,8.2
0.4959388560157791,-4.802240373895892,-2.3,8.2
0.5039378698224852,-4.8,-2.3,8.2
0.5119368836291913,-4.8,-2.3074590146550444,8.2
0.5199358974358974,-4.8,-2.316060104769782,8.2
0.5279349112426035,-4.8,-2.32466119488452,8.2
0.5359339250493097,-4.8,-2.3332622849992575,8.2
0.5439329388560158,-4.8,-2.3418633751139954,8.2
0.5519319526627219,-4.8,-2.350464465228733,8.2
0.559930966469428,-4.8,-2.359065555343471,8.2
0.5679299802761342,-4.8,-2.3676666454582085,8.2
0.5759289940828403,-4.8,-2.3762677355729465,8.2
0.5839280078895464,-4.8,-2.384868825687684,8.2
0.5919270216962524,-4.8,-2.393469915802422,8.2
0.5999260355029585,-4.896301775147928,-2.4,8.2
0.6079250493096647,-4.8,-2.49688824541525,8.1
0.6159240631163708,-4.8,-2.48837865625918,8.1
0.6239230769230769,-4.8,-2.4798690671031096,8.1
0.631922090729783,-4.8,-2.4713594779470394,8.1
0.6399211045364892,-4.8,-2.4628498887909687,8.1
0.6479201183431953,-4.8,-2.4543402996348984,8.1
0.6559191321499014,-4.8,-2.445830710478828,8.1
0.6639181459566075,-4.8,-2.437321121322758,8.1
0.6719171597633136,-4.8,-2.4288115321666877,8.1
0.6799161735700198,-4.8,-2.420301943010617,8.1
0.6879151873767259,-4.8,-2.4117923538545467,8.1
0.695914201183432,-4.8,-2.4032827646984765,8.1
0.703913214990138,-4.9,-2.3,8.2
0.7119122287968441,-4.9,-2.3,8.14725180802104
0.7199112426035503,-4.9,-2.300959202740579,8.1
0.7279102564102564,-4.9,-2.309379217273954,8.1
0.7359092702169625,-4.9,-2.317799231807329,8.1
0.7439082840236686,-4.9,-2.326219246340704,8.1
0.7519072978303748,-4.9,-2.3346392608740785,8.1
0.7599063116370809,-4.9,-2.3430592754074535,8.1
0.767905325443787,-4.9,-2.351479289940828,8.1
0.7759043392504931,-4.9,-2.359899304474203,8.1
0.7839033530571992,-4.9,-2.368319319007578,8.1
0.7919023668639054,-4.9,-2.376739333540953,8.1
0.7999013806706115,-4.9,-2.385159348074328,8.1
0.8079003944773175,-4.9,-2.3935793626077024,8.1
0.8158994082840236,-4.9,-2.4,8.1
0.8238984220907298,-4.9962358154665845,-2.5037641845334155,8.1
0.8318974358974359,-4.9858474858474855,-2.514152514152514,8.1
0.839896449704142,-4.975459156228387,-2.524540843771613,8.1
0.8478954635108481,-4.9650708266092884,-2.534929173390712,8.1
0.8558944773175542,-4.9546824969901895,-2.5453175030098105,8.1
0.8638934911242604,-4.9442941673710905,-2.5557058326289095,8.1
0.8718925049309665,-4.9339058377519915,-2.5660941622480085,8.1
0.8798915187376726,-4.9235175081328935,-2.5764824918671074,8.1
0.8878905325443787,-4.9131291785137945,-2.586870821486206,8.1
0.8958895463510848,-4.9027408488946955,-2.597259151105305,8.1
0.903888560157791,-4.8,-2.3,8.1
0.911887573964497,-4.8,-2.3,8.1
0.9198865877712031,-4.8,-2.3,8.1
0.9278856015779092,-4.8,-2.3,8.1
0.9358846153846154,-4.8,-2.3,8.1
0.9438836291913215,-4.8,-2.3,8.1
0.9518826429980276,-4.8,-2.3,8.1
0.9598816568047337,-4.8,-2.3,8.1
0.9678806706114398,-4.8,-2.3,8.1
0.975879684418146,-4.8,-2.3,8.1
0.9838786982248521,-4.8,-2.3,8.1
0.9918777120315582,-4.8,-2.3,8.1
0.9998767258382643,-4.8,-2.326810369118061,8.1
1.0078757396449705,-4.993786982248523,-2.4937869822485226,8.2
1.0158747534516765,-5.0,-2.606675856195087,8.093324143804912
1.0238737672583826,-5.0,-2.6157656446117987,8.084234355388201
1.0318727810650887,-5.0,-2.62485543302851,8.07514456697149
1.0398717948717948,-5.0,-2.6339452214452215,8.06605477855478
1.047870808678501,-5.0,-2.643035009861933,8.056964990138066
1.055869822485207,-5.0,-2.6521247982786442,8.047875201721356
1.0638688362919133,-5.0,-2.661214586695356,8.038785413304645
1.0718678500986194,-5.0,-2.6703043751120674,8.029695624887932
1.0798668639053255,-5.0,-2.6793941635287792,8.020605836471221
1.0878658777120316,-5.0,-2.6884839519454906,8.01151604805451
1.0958648915187377,-5.0,-2.697573740362202,8.002426259637797
1.1038639053254438,-5.090189971971348,-2.9,7.9
1.1118629191321499,-5.0480898993044745,-2.9,7.9
1.119861932938856,-5.005989826637601,-2.9,7.9
1.127860946745562,-4.9,-2.9051479289940825,7.9
1.1358599605522683,-4.9,-2.9158132807363577,7.9
1.1438589743589744,-4.9,-2.9264786324786325,7.9
1.1518579881656805,-4.9,-2.9371439842209073,7.9
1.1598570019723866,-4.9,-2.947809335963182,7.9
1.1678560157790927,-4.9,-2.958474687705457,7.9
1.1758550295857988,-4.9,-2.9691400394477316,7.9
1.1838540433925049,-4.9,-2.9798053911900064,7.9
1.191853057199211,-4.9,-2.990470742932281,7.9
1.199852071005917,-4.94260355029585,-3.04260355029585,7.85739644970415
1.2078510848126234,-5.0,-3.1,7.8259566074950655
1.2158500986193295,-5.0,-3.094425174000771,7.677700696003083
1.2238491124260356,-5.0,-3.0852309052574305,7.640923621029722
1.2318481262327416,-5.0,-3.07603663651409,7.604146546056361
1.2398471400394477,-5.0,-3.0668423677707497,7.5673694710829995
1.2478461538461538,-5.0,-3.0576480990274093,7.530592396109638
1.25584516765286,-5.0,-3.0484538302840694,7.493815321136276
1.263844181459566,-5.0,-3.039259561540729,7.457038246162915
1.271843195266272,-5.0,-3.0300652927973886,7.420261171189554
1.2798422090729784,-5.0,-3.0208710240540477,7.383484096216192
1.2878412228796845,-5.0,-3.0116767553107073,7.34670702124283
1.2958402366863906,-5.0,-3.0024824865673674,7.3099299462694685
1.3038392504930967,-4.4741124260354885,-3.035700197238697,6.825887573964511
1.3118382642998028,-4.373529723653793,-3.6029416131153114,7.066176751288414
1.3198372781065089,-4.459540624801171,-3.72335687472164,7.143586562321055
1.327836291913215,-4.545551525948548,-3.843772136327968,7.220996373353694
1.335835305719921,-4.6315624270959255,-3.9641873979342965,7.298406184386334
1.3438343195266271,-4.717573328243303,-4.084602659540625,7.375815995418973
1.3518333333333332,-4.8035842293906805,-4.205017921146953,7.453225806451613
1.3598323471400395,-4.88959513053806,-4.325433182753285,7.530635617484254
1.3678313609467456,-4.975606031685437,-4.445848444359613,7.608045428516894
1.3758303747534517,-5.061616932832814,-4.566263705965941,7.685455239549534
1.3838293885601578,-5.147627833980192,-4.68667896757227,7.762865050582174
1.391828402366864,-5.2336387351275695,-4.807094229178598,7.840274861614813
1.39982741617357,-5.091152437306281,-4.95221189067343,8.082741617357005
1.407826429980276,-5.582642998027615,-5.143392504930961,7.169428007889538
1.4158254437869822,-5.1,-4.873818230170866,7.05890898211555
1.4238244575936883,-5.1,-4.837867606320502,7.13979788577887
1.4318234714003946,-5.1,-4.801916982470137,7.220686789442192
1.4398224852071007,-5.1,-4.765966358619773,7.301575693105512
1.4478214990138067,-5.1,-4.730015734769408,7.382464596768832
1.4558205128205128,-5.1,-4.694065110919044,7.463353500432152
1.463819526627219,-5.1,-4.658114487068679,7.544242404095472
1.471818540433925,-5.1,-4.622163863218315,7.625131307758792
1.479817554240631,-5.1,-4.58621323936795,7.706020211422112
1.4878165680473372,-5.1,-4.550262615517586,7.7869091150854315
1.4958155818540433,-5.1,-4.514311991667221,7.8677980187487515
1.5038145956607496,-5.768211702827086,-3.477481919789607,8.354306377383306
1.5118136094674557,-5.7015532544378695,-3.0108727810650855,8.887573964497046
1.5198126232741618,-5.35277229892614,-2.913193074731535,8.03193074731535
1.5278116370808679,-5.76909483447945,-5.427887947118716,8.738189668958901
1.535810650887574,-5.704237965776428,-5.276555253478331,8.608475931552857
1.54380966469428,-5.6393810970734055,-5.125222559837946,8.47876219414681
1.5518086785009861,-5.574524228370383,-4.973889866197561,8.349048456740766
1.5598076923076922,-5.509667359667361,-4.8225571725571745,8.219334719334721
1.5678067061143983,-5.444810490964338,-4.671224478916789,8.089620981928677
1.5758057199211046,-5.379953622261314,-4.5198917852764,7.959907244522628
1.5838047337278107,-5.315096753558292,-4.368559091636015,7.830193507116584
1.5918037475345168,-5.25023988485527,-4.2172263979956295,7.700479769710539
1.599802761341223,-5.560552268244562,-4.460552268244562,7.419723865877719
1.607801775147929,-5.706025322898772,-4.906025322898772,6.087949354202456
1.615800788954635,-5.723227503128248,-4.923227503128248,6.053544993743505
1.6237998027613412,-5.740429683357723,-4.940429683357723,6.019140633284554
1.6317988165680473,-5.757631863587199,-4.957631863587198,5.984736272825603
1.6397978303747534,-5.774834043816674,-4.974834043816674,5.950331912366652
1.6477968441814597,-5.79203622404615,-4.99203622404615,5.9159275519077
1.6557958579881658,-5.809238404275626,-5.009238404275625,5.881523191448749
1.6637948717948718,-5.826440584505101,-5.0264405845051,5.847118830989798
1.671793885601578,-5.843642764734577,-5.043642764734576,5.812714470530848
1.679792899408284,-5.860844944964052,-5.060844944964051,5.778310110071897
1.6877919132149901,-5.878047125193527,-5.078047125193527,5.743905749612946
1.6957909270216962,-5.895249305423003,-5.095249305423002,5.709501389153995
1.7037899408284023,-6.039497041420111,-5.539497041420111,5.381508875739667
1.7117889546351084,-6.457900504054351,-5.99158010081087,4.32525969756739
1.7197879684418147,-6.369022572868725,-5.973804514573745,4.378586456278764
1.7277869822485208,-6.280144641683102,-5.956028928336621,4.431913214990138
1.7357859960552269,-6.191266710497479,-5.938253342099496,4.485239973701512
1.743785009861933,-6.102388779311855,-5.920477755862371,4.538566732412886
1.751784023668639,-6.0135108481262325,-5.902702169625247,4.59189349112426
1.7597830374753451,-5.92463291694061,-5.884926583388122,4.645220249835634
1.7677820512820512,-5.835754985754987,-5.867150997150997,4.698547008547008
1.7757810650887573,-5.746877054569364,-5.849375410913873,4.751873767258382
1.7837800788954634,-5.65799912338374,-5.831599824676748,4.805200525969756
1.7917790927021695,-5.569121192198117,-5.813824238439623,4.85852728468113
1.7997781065088758,-5.944526627218944,-5.355473372781056,5.166715976331367
1.807777120315582,-5.91509304519338,-6.98490695480662,4.48490695480662
1.815776134122288,-5.958565946316783,-6.941434053683217,4.441434053683217
1.823775147928994,-6.002038847440186,-6.897961152559814,4.397961152559814
1.8317741617357002,-6.045511748563588,-6.854488251436412,4.354488251436412
1.8397731755424063,-6.088984649686991,-6.811015350313009,4.311015350313009
1.8477721893491124,-6.132457550810393,-6.767542449189607,4.267542449189607
1.8557712031558184,-6.175930451933796,-6.724069548066204,4.224069548066204
1.8637702169625245,-6.219403353057199,-6.680596646942801,4.180596646942801
1.8717692307692309,-6.262876254180603,-6.637123745819397,4.137123745819397
1.879768244575937,-6.306349155304005,-6.593650844695995,4.093650844695995
1.887767258382643,-6.349822056427408,-6.550177943572592,4.050177943572592
1.8957662721893491,-6.393294957550811,-6.506705042449189,4.006705042449189
1.9037652859960552,-6.4,-6.61275476660092,4.056377383300459
1.9117642998027613,-7.045003287310987,-6.147140039447725,3.7314266929651505
1.9197633136094674,-6.965694561848408,-5.968610876303185,3.445111298957453
1.9277623274161735,-6.918081384427539,-6.063837231144923,3.3689302150840614
1.9357613412228796,-6.8704682070066685,-6.1590635859866625,3.2927491312106705
1.9437603550295859,-6.822855029585798,-6.2542899408284045,3.216568047337277
1.951759368836292,-6.775241852164928,-6.349516295670144,3.1403869634638855
1.959758382642998,-6.727628674744059,-6.444742650511882,3.0642058795904945
1.9677573964497042,-6.68001549732319,-6.539969005353622,2.988024795717103
1.9757564102564102,-6.63240231990232,-6.635195360195361,2.911843711843712
1.9837554240631163,-6.58478914248145,-6.7304217150370995,2.8356626279703208
1.9917544378698224,-6.53717596506058,-6.825648069878839,2.7594815440969294
1.9997534516765285,-6.412327416173574,-6.987672583826426,2.8753451676528514
2.0077524654832346,-6.618811637080862,-6.2188116370808615,3.3594058185404307
2.015751479289941,-6.705461470448208,-6.3,3.3836155886553763
2.023750493096647,-6.7146557391915485,-6.3,3.356032782425356
2.031749506903353,-6.723850007934889,-6.3,3.3284499761953343
2.039748520710059,-6.733044276678228,-6.3,3.300867169965314
2.0477475345167653,-6.74223854542157,-6.3,3.273284363735292
2.0557465483234716,-6.75143281416491,-6.3,3.2457015575052703
2.0637455621301775,-6.7606270829082495,-6.3,3.21811875127525
2.0717445759368838,-6.769821351651591,-6.3,3.1905359450452284
2.0797435897435896,-6.77901562039493,-6.3,3.162953138815208
2.087742603550296,-6.788209889138272,-6.3,3.135370332585186
2.095741617357002,-6.797404157881611,-6.3,3.1077875263551658
2.103740631163708,-7.150624589086137,-5.3,3.275312294543068
2.111739644970414,-6.8215477694302225,-5.306156505551492,3.0815304833455235
2.1197386587771203,-6.884461361168362,-5.324131817476674,3.0276045475699753
2.1277376725838266,-6.947374952906501,-5.342107129401858,2.973678611794427
2.1357366863905325,-7.010288544644638,-5.360082441327039,2.919752676018882
2.143735700197239,-7.073202136382777,-5.378057753252222,2.865826740243334
2.1517347140039447,-7.136115728120913,-5.396033065177404,2.8119008044677885
2.159733727810651,-7.1990293198590525,-5.414008377102586,2.7579748686922403
2.167732741617357,-7.261942911597189,-5.431983689027768,2.7040489329166952
2.175731755424063,-7.324856503335329,-5.449959000952951,2.650122997141147
2.183730769230769,-7.387770095073464,-5.467934312878133,2.5961970613656016
2.1917297830374753,-7.450683686811605,-5.485909624803315,2.5422711255900534
2.1997287968441817,-7.327120315581849,-5.5,2.327120315581849
2.2077278106508875,-8.209171597633139,-5.5636094674556205,1.5272189349112408
2.215726824457594,-8.430232918910534,-5.492441770272366,1.4
2.2237258382642997,-8.466183542760898,-5.483454114309776,1.4
2.231724852071006,-8.502134166611263,-5.474466458347185,1.4
2.239723865877712,-8.538084790461626,-5.4654788023845935,1.4
2.247722879684418,-8.574035414311993,-5.456491146422002,1.4
2.255721893491124,-8.609986038162356,-5.447503490459411,1.4
2.2637209072978304,-8.645936662012721,-5.43851583449682,1.4
2.2717199211045367,-8.681887285863086,-5.429528178534229,1.4
2.2797189349112426,-8.71783790971345,-5.420540522571638,1.4
2.287717948717949,-8.753788533563815,-5.411552866609046,1.4
2.2957169625246547,-8.789739157414179,-5.402565210646456,1.4
2.303715976331361,-8.874556213017753,-5.300591715976331,1.4
2.311714990138067,-8.978891175713915,-5.161478432381447,1.4
2.3197140039447732,-9.083226138410083,-5.022365148786555,1.4
2.327713017751479,-8.009136094674554,-5.388579881656807,1.0137041420118322
2.3357120315581854,-8.051797501643655,-5.335253122945431,1.077696252465483
2.3437110453648917,-8.094458908612756,-5.281926364234056,1.1416883629191337
2.3517100591715976,-8.137120315581853,-5.228599605522683,1.205680473372781
2.359709072978304,-8.179781722550954,-5.175272846811307,1.2696725838264316
2.3677080867850098,-8.222443129520054,-5.121946088099935,1.333664694280079
2.375707100591716,-8.265104536489153,-5.068619329388559,1.3976568047337297
2.383706114398422,-8.307765943458252,-5.015292570677186,1.4616489151873768
2.3917051282051283,-8.350427350427353,-4.961965811965811,1.5256410256410275
2.399704142011834,-8.39308875739645,-4.908639053254438,1.5896331360946747
2.4077031558185404,-7.910946745562147,-4.959368836291902,1.5242110453648774
2.4157021696252468,-7.6913903031971005,-5.452646667584053,1.5086096968028995
2.4237011834319526,-7.672787945507087,-5.350333700288978,1.527212054492913
2.431700197238659,-7.654185587817072,-5.248020732993897,1.5458144121829278
2.439699211045365,-7.635583230127059,-5.145707765698822,1.5644167698729414
2.447698224852071,-7.616980872437044,-5.043394798403742,1.583019127562956
2.455697238658777,-7.59837851474703,-4.941081831108668,1.6016214852529695
2.4636962524654833,-7.579776157057016,-4.838768863813588,1.620223842942984
2.471695266272189,-7.561173799367002,-4.736455896518512,1.6388262006329977
2.4796942800788955,-7.542571441676988,-4.634142929223432,1.6574285583230124
2.487693293885602,-7.523969083986973,-4.531829961928352,1.676030916013027
2.4956923076923077,-7.505366726296959,-4.4295169946332775,1.6946332737030405
2.503691321499014,-7.307396449704179,-5.30369822485209,1.4308678500986072
2.51169033530572,-7.692882622015191,-5.564056401863276,1.2430609761215325
2.519689349112426,-7.6843730328591215,-5.64064270426791,1.1749842628729685
2.527688362919132,-7.675863443703051,-5.717229006672541,1.106907549624408
2.5356873767258383,-7.66735385454698,-5.793815309077176,1.038830836375844
2.543686390532544,-7.65884426539091,-5.870401611481806,0.9707541231272836
2.5516854043392505,-7.65033467623484,-5.94698791388644,0.9026774098787195
2.559684418145957,-7.641825087078769,-6.023574216291076,0.8346006966301553
2.5676834319526627,-7.633315497922699,-6.100160518695706,0.766523983381595
2.575682445759369,-7.6248059087666284,-6.17674682110034,0.6984472701330309
2.583681459566075,-7.616296319610559,-6.253333123504971,0.6303705568844704
2.591680473372781,-7.607786730454488,-6.329919425909606,0.5622938436359063
2.599679487179487,-7.532051282051312,-6.252777777777845,0.5339743589743436
2.6076785009861934,-7.63747534516763,-4.4053254437869525,1.0982248520710158
2.6156775147928992,-8.73262939536149,-5.376008297626337,1.1869482418554038
2.6236765285996055,-8.778600739078193,-5.2013171915028655,1.1685597043687226
2.6316755424063114,-8.824572082794893,-5.026626085379404,1.1501711668820425
2.6396745562130177,-8.870543426511595,-4.851934979255933,1.1317826293953615
2.647673570019724,-8.916514770228298,-4.677243873132463,1.1133940919086802
2.65567258382643,-8.962486113945,-4.502552767009002,1.095005554422
2.663671597633136,-9.008457457661702,-4.327861660885531,1.076617016935319
2.671670611439842,-9.054428801378402,-4.15317055476207,1.058228479448639
2.6796696252465484,-9.100400145095104,-3.9784794486385993,1.0398399419619577
2.6876686390532543,-9.146371488811806,-3.803788342515138,1.0214514044752776
2.6956676528599606,-9.192342832528508,-3.629097236391667,1.0030628669885966
2.7036666666666664,-9.46666666666663,-3.7666666666667408,0.9666666666666297
2.7116656804733728,-9.508154979226992,-3.7,0.9836900415460158
2.719664694280079,-9.516664568383062,-3.7,0.9666708632338746
2.727663708086785,-9.525174157539134,-3.7,0.9496516849217345
2.7356627218934912,-9.533683746695203,-3.7,0.9326325066095934
2.743661735700197,-9.542193335851273,-3.7,0.9156133282974532
2.7516607495069034,-9.550702925007343,-3.7,0.8985941499853121
2.7596597633136093,-9.559212514163415,-3.7,0.881574971673172
2.7676587771203156,-9.567722103319484,-3.7,0.8645557933610308
2.7756577909270215,-9.576231692475554,-3.7,0.8475366150488907
2.783656804733728,-9.584741281631626,-3.7,0.8305174367367496
2.791655818540434,-9.593250870787696,-3.7,0.8134982584246084
2.79965483234714,-9.475887573964506,-3.575887573964506,0.8413708086784981
2.8076538461538463,-9.599273504273503,-3.702179487179488,0.4963675213675203
2.815652859960552,-9.590385711154942,-3.728842866535174,0.4519285557747099
2.8236518737672585,-9.58149791803638,-3.755506245890862,0.407489590181897
2.8316508875739643,-9.572610124917817,-3.7821696252465484,0.36305062458908655
2.8396499013806706,-9.563722331799255,-3.808833004602236,0.31861165899627364
2.8476489151873765,-9.554834538680693,-3.8354963839579224,0.2741726934034632
2.855647928994083,-9.54594674556213,-3.8621597633136098,0.22973372781065027
2.863646942800789,-9.537058952443568,-3.8888231426692976,0.18529476221783736
2.871645956607495,-9.528171159325005,-3.9154865220249837,0.1408557966250269
2.8796449704142013,-9.519283366206443,-3.9421499013806716,0.09641683103221399
2.887643984220907,-9.51039557308788,-3.968813280736358,0.051977865439403526
2.8956429980276135,-9.501507779969318,-3.9954766600920455,0.007538899846590619
2.9036420118343194,-8.85369822485209,-4.7,0.28210059171597024
2.9116410256410257,-8.791783843396747,-4.691783843396746,0.26713537358698597
2.9196400394477315,-8.78318275328201,-4.683182753282009,0.23273101312803599
2.927639053254438,-8.774581663167272,-4.674581663167271,0.1983266526690841
2.935638067061144,-8.765980573052532,-4.665980573052533,0.16392229221013221
2.94363708086785,-8.757379482937795,-4.657379482937795,0.12951793175118223
2.9516360946745563,-8.748778392823057,-4.648778392823058,0.09511357129223033
2.959635108481262,-8.74017730270832,-4.64017730270832,0.06070921083328035
2.9676341222879685,-8.731576212593582,-4.631576212593582,0.026304850374328448
2.9756331360946744,-8.722975122478845,-4.622975122478844,-0.008099510084621508
2.9836321499013807,-8.714374032364105,-4.614374032364107,-0.04250387054357341
2.9916311637080866,-8.705772942249368,-4.605772942249369,-0.07690823100252342
2.999630177514793,-8.7,-4.731508875739645,-0.14383629191321495
3.007629191321499,-8.4,-5.384270216962523,-0.3947567389875077
3.015628205128205,-8.4,-5.184294871794877,-0.3280982905982922
3.0236272189349114,-8.394142760841884,-5.11171447831623,-0.3
3.0316262327416172,-8.384017426909345,-5.131965146181309,-0.3
3.0396252465483236,-8.373892092976806,-5.1522158140463885,-0.3
3.0476242603550294,-8.363766759044267,-5.172466481911466,-0.3
3.0556232741617357,-8.353641425111727,-5.192717149776546,-0.3
3.0636222879684416,-8.343516091179188,-5.2129678176416245,-0.3
3.071621301775148,-8.333390757246649,-5.233218485506703,-0.3
3.0796203155818542,-8.323265423314108,-5.253469153371783,-0.3
3.08761932938856,-8.31314008938157,-5.2737198212368614,-0.3
3.0956183431952664,-8.30301475544903,-5.29397048910194,-0.3
3.1036173570019723,-8.479421433267595,-4.817685733070381,0.40289283366202366
3.1116163708086786,-8.424687344213973,-4.5123436721069865,0.9234367210698616
3.1196153846153845,-8.45984784446323,-4.529923922231615,1.099239222316144
3.1276143984220908,-8.495008344712488,-4.547504172356244,1.2750417235624363
3.1356134122287966,-8.530168844961745,-4.565084422480872,1.4508442248087188
3.143612426035503,-8.565329345211003,-4.582664672605501,1.6266467260550108
3.1516114398422093,-8.600489845460261,-4.6002449227301305,1.802449227301303
3.159610453648915,-8.635650345709518,-4.617825172854759,1.9782517285475854
3.1676094674556214,-8.670810845958776,-4.635405422979388,2.1540542297938776
3.1756084812623273,-8.705971346208033,-4.652985673104016,2.3298567310401603
3.1836074950690336,-8.741131846457291,-4.670565923228645,2.505659232286452
3.1916065088757395,-8.776292346706548,-4.688146173353274,2.6814617335327346
3.199605522682446,-12.435798816568186,-0.36873767258332224,8.67800788954654
3.2076045364891517,-13.330719921105057,-6.920660749506616,-10.857938856015565
3.215603550295858,-7.2949435180204425,-10.290048413125334,-13.074878967186663
3.2236025641025643,-7.167686480186479,-10.399125874125875,-12.802185314685312
3.23160157790927,-7.040429442352522,-10.50820333512641,-12.529491662183975
3.2396005917159765,-6.913172404518558,-10.61728079612695,-12.256798009682624
3.2475996055226823,-6.785915366684601,-10.726358257127485,-11.984104357181288
3.2555986193293887,-6.658658328850637,-10.835435718128025,-11.711410704679937
3.2635976331360945,-6.53140129101668,-10.94451317912856,-11.438717052178601
3.271596646942801,-6.404144253182716,-11.0535906401291,-11.16602339967725
3.2795956607495067,-6.27688721534876,-11.162668101129634,-10.893329747175914
3.287594674556213,-6.149630177514795,-11.271745562130176,-10.620636094674563
3.2955936883629193,-6.022373139680831,-11.380823023130716,-10.34794244217321
3.303592702169625,-5.4592702169625085,0.029487179487384996,-4.114891518737561
3.3115917159763315,-5.4781965526112675,-2.115255981476718,-5.071340365320298
3.3195907297830374,-5.330388688791702,-2.497817511362652,-5.036562044421577
3.3275897435897437,-5.182580824972129,-2.8803790412486077,-5.001783723522854
3.3355887573964496,-5.034772961152563,-3.2629405711345423,-4.967005402624133
3.343587771203156,-4.88696509733299,-3.645502101020498,-4.932227081725409
3.3515867850098617,-4.739157233513424,-4.028063630906432,-4.897448760826688
3.359585798816568,-4.59134936969385,-4.410625160792388,-4.862670439927965
3.3675848126232744,-4.443541505874276,-4.793186690678343,-4.827892119029242
3.3755838264299802,-4.295733642054711,-5.1757482205642775,-4.79311379813052
3.3835828402366865,-4.1479257782351375,-5.558309750450234,-4.758335477231797
3.3915818540433924,-4.000117914415572,-5.940871280336168,-4.723557156333076
3.3995808678500987,-4.122435897435804,-1.83530571992099,-4.251479289940742
3.4075798816568046,-2.99754210286755,-1.3073736913973488,-2.995084205735101
3.415578895463511,-2.089497041420082,-2.847337278106557,-2.6
3.4235779092702168,-1.9093554435434774,-3.2216207660652088,-2.6561326612608656
3.431576923076923,-1.9192307692307693,-3.3500000000000014,-2.715384615384616
3.4395759368836294,-1.929106094918061,-3.478379233934794,-2.774636569508367
3.4475749506903353,-1.9389814206053522,-3.6067584678695797,-2.8338885236321136
3.4555739644970416,-1.948856746292644,-3.7351377018043728,-2.8931404777558645
3.4635729783037474,-1.9587320719799353,-3.8635169357391583,-2.9523924318796118
3.4715719921104538,-1.968607397667227,-3.991896169673951,-3.011644386003362
3.4795710059171596,-1.9784827233545181,-4.120275403608737,-3.070896340127109
3.487570019723866,-1.98835804904181,-4.248654637543529,-3.13014829425086
3.495569033530572,-1.9982333747291012,-4.377033871478315,-3.189400248374607
3.503568047337278,-1.0892998027613408,-6.49464990138067,-3.4652243589743574
3.5115670611439844,-1.0559705785667313,-6.477985289283366,-3.3569043803418763
3.5195660749506903,-1.0226413543721236,-6.461320677186062,-3.248584401709401
3.5275650887573966,-0.9893121301775138,-6.444656065088757,-3.14026442307692
3.5355641025641025,-0.9559829059829061,-6.427991452991453,-3.0319444444444446
3.543563116370809,-0.9226536817882964,-6.411326840894148,-2.9236244658119634
3.5515621301775147,-0.8893244575936887,-6.394662228796844,-2.815304487179488
3.559561143984221,-0.855995233399079,-6.377997616699539,-2.706984508547007
3.567560157790927,-0.8226660092044713,-6.361333004602235,-2.5986645299145317
3.575559171597633,-0.7893367850098617,-6.34466839250493,-2.4903445512820506
3.583558185404339,-0.7560075608152539,-6.328003780407627,-2.3820245726495752
3.5915571992110453,-0.7226783366206444,-6.311339168310322,-2.273704594017094
3.5995562130177516,-1.9674556213018004,-6.6792899408284505,0.6455621301775505
3.6075552268244575,-29.477454991816774,-25.611346468588696,24.606808930294996
3.615554240631164,-25.826841243862503,-25.636875236056905,25.74709387720845
3.6235532544378697,-22.17622749590844,-25.66240400352512,26.88737882412184
3.631552268244576,-18.525613747954168,-25.687932770993328,28.027663771035296
3.639551282051282,-14.875000000000103,-25.713461538461537,29.167948717948686
3.647550295857988,-11.224386252045832,-25.73899030592975,30.30823366486214
3.655549309664694,-7.573772504091767,-25.76451907339796,31.448518611775533
3.6635483234714004,-3.9231587561374965,-25.790047840866173,32.58880355868899
3.6715473372781067,-0.27254500818322924,-25.815576608334382,33.72908850560244
3.6795463510848125,3.378068739770839,-25.84110537580259,34.86937345251583
3.687545364891519,7.028682487725106,-25.866634143270804,36.009658399429284
3.6955443786982247,10.679296235679175,-25.892162910739014,37.14994334634268
3.703543392504931,-4.835338593030997,-0.17509861932933202,3.5820184089414093
3.711542406311637,0.5743080025707636,-4.8199964541364695,2.28857345477916
3.719541420118343,0.17885114021674353,-4.882910045874609,2.252622830928795
3.727540433925049,-0.2166057221372547,-4.945823637612745,2.2166722070784313
3.7355394477317554,-0.6120625844912748,-5.008737229350884,2.180721583228066
3.7435384615384617,-1.0075194468452948,-5.071650821089024,2.1447709593777002
3.7515374753451676,-1.4029763091992933,-5.13456441282716,2.1088203355273367
3.759536489151874,-1.7984331715533133,-5.1974780045652995,2.0728697116769714
3.7675355029585798,-2.1938900339073113,-5.260391596303435,2.036919087826608
3.775534516765286,-2.5893468962613317,-5.323305188041576,2.0009684639762426
3.783533530571992,-2.98480375861533,-5.386218779779711,1.965017840125879
3.7915325443786982,-3.3802606209693495,-5.449132371517851,1.9290672162755136
3.799531558185404,-3.80133136094691,-7.386045364891443,2.16577909270206
3.8075305719921104,-3.5163214990137828,-8.280950032873099,3.008842866535171
3.8155295857988167,-2.4292899408283812,-10.061538461538479,4.842603550295879
3.8235285996055226,2.0356379113464196,-13.665241876881566,9.24971711823939
3.831527613412229,1.698837330011417,-12.960065659711406,8.98659166407142
3.839526627218935,1.3620367486764335,-12.254889442541284,8.723466209903464
3.847525641025641,1.0252361673414312,-11.549713225371121,8.460340755735494
3.855524654832347,0.6884355860064475,-10.844537008201,8.197215301567537
3.8635236686390533,0.35163500467144515,-10.139360791030839,7.934089847399567
3.871522682445759,0.014834423336461455,-9.434184573860716,7.6709643932316105
3.8795216962524655,-0.3219661579985411,-8.729008356690557,7.40783893906364
3.8875207100591718,-0.6587667393335432,-8.023832139520394,7.14471348489567
3.8955197238658776,-0.9955673206685267,-7.318655922350272,6.8815880307277135
3.903518737672584,-2.374063116370801,-3.1034516765284215,8.551873767258398
3.91151775147929,-4.414573391868677,-0.8797384997136798,9.14857797289559
3.919516765285996,-4.440376662212891,-1.1979788339589847,9.234588874042968
3.927515779092702,-4.466179932557104,-1.516219168204272,9.320599775190344
3.9355147928994083,-4.491983202901317,-1.8344595024495771,9.406610676337722
3.943513806706114,-4.51778647324553,-2.1526998366948646,9.492621577485098
3.9515128205128205,-4.543589743589743,-2.4709401709401693,9.578632478632478
3.959511834319527,-4.569393013933958,-2.789180505185474,9.664643379779857
3.9675108481262327,-4.59519628427817,-3.1074208394307616,9.750654280927233
3.975509861932939,-4.620999554622384,-3.4256611736760663,9.836665182074611
3.983508875739645,-4.6468028249665965,-3.743901507921354,9.922676083221987
3.991507889546351,-4.67260609531081,-4.062141842166659,10.008686984369367
3.999506903353057,-4.6984093656550225,-4.380382176411946,10.094697885516743
4.007505917159763,-3.0038916704597205,-0.8027797646140862,7.9
4.015504930966469,-3.0654225458959194,-0.8467303899256567,7.9
4.023503944773176,-3.126953421332125,-0.8906810152372322,7.9
4.031502958579882,-3.188484296768324,-0.9346316405488029,7.9
4.039501972386588,-3.250015172204523,-0.9785822658603734,7.9
4.047500986193294,-3.311546047640722,-1.022532891171944,7.9
4.0555,-3.3730769230769275,-1.0664835164835196,7.9
4.063499013806706,-3.4346077985131265,-1.11043414179509,7.9
4.071498027613412,-3.496138673949325,-1.1543847671066607,7.9
4.079497041420118,-3.557669549385524,-1.1983353924182314,7.9
4.087496055226825,-3.61920042482173,-1.242286017729807,7.9
4.0954950690335306,-3.6807313002579285,-1.2862366430413774,7.9
4.103494082840236,-6.101183431952745,-2.1782544378700486,8.448224852070883
4.111493096646943,-6.007971379411641,-1.8760858617650753,8.584057241176717
4.119492110453649,-6.016480968567712,-1.8505570942968652,8.567038062864576
4.127491124260355,-6.024990557723782,-1.825028326828655,8.550018884552436
4.135490138067061,-6.0335001468798515,-1.7994995593604448,8.532999706240297
4.1434891518737675,-6.042009736035922,-1.773970791892232,8.515980527928155
4.151488165680473,-6.050519325191993,-1.7484420244240217,8.498961349616014
4.159487179487179,-6.059028914348063,-1.7229132569558117,8.481942171303874
4.167486193293885,-6.0675385035041325,-1.6973844894876016,8.464922992991735
4.175485207100592,-6.076048092660203,-1.6718557220193886,8.447903814679593
4.183484220907298,-6.084557681816274,-1.6463269545511785,8.430884636367452
4.191483234714004,-6.093067270972344,-1.6207981870829684,8.413865458055312
4.19948224852071,-6.70876815492201,-2.713152232383015,7.4824636901559805
4.207481262327416,-6.854204769589388,-2.9313071543840814,7.191590460821224
4.215480276134122,-5.992951066027992,-3.192951066027992,7.103524466986004
4.223479289940828,-5.954860524091297,-3.1548605240912972,7.122569737954351
4.231478303747535,-5.916769982154598,-3.116769982154598,7.141615008922701
4.239477317554241,-5.878679440217903,-3.078679440217903,7.160660279891048
4.2474763313609465,-5.840588898281208,-3.0405888982812086,7.179705550859396
4.255475345167653,-5.802498356344509,-3.0024983563445096,7.198750821827745
4.263474358974359,-5.764407814407814,-2.9644078144078145,7.2177960927960925
4.271473372781065,-5.726317272471119,-2.92631727247112,7.23684136376444
4.279472386587771,-5.688226730534425,-2.888226730534425,7.2558866347327875
4.287471400394478,-5.650136188597726,-2.850136188597726,7.274931905701137
4.2954704142011835,-5.612045646661031,-2.8120456466610313,7.293977176669484
4.303469428007889,-4.532642998027688,-1.6265285996055376,8.479585798816613
4.311468441814595,-4.391969417403661,-1.6080305825963388,8.440152912981693
4.319467455621302,-4.383368327288923,-1.6166316727110772,8.483158363555386
4.327466469428008,-4.3747672371741855,-1.6252327628258147,8.526163814129074
4.335465483234714,-4.366166147059448,-1.633833852940552,8.569169264702762
4.3434644970414205,-4.3575650569447095,-1.6424349430552905,8.612174715276453
4.351463510848126,-4.348963966829972,-1.651036033170028,8.65518016585014
4.359462524654832,-4.3403628767152345,-1.6596371232847655,8.698185616423828
4.367461538461538,-4.331761786600497,-1.668238213399503,8.741191066997516
4.375460552268245,-4.3231606964857585,-1.6768393035142415,8.784196517571207
4.383459566074951,-4.314559606371021,-1.685440393628979,8.827201968144895
4.3914585798816566,-4.3059585162562835,-1.6940414837437163,8.870207418718582
4.399457593688363,-3.8169625246547456,-1.6084812623273728,8.7
4.407456607495069,-3.0181130834977052,-1.3818869165022944,8.990943458251147
4.415455621301775,-2.991807009558489,-1.4,9.01638598088302
4.423454635108481,-2.983016884496175,-1.4,9.03396623100765
4.431453648915188,-2.97422675943386,-1.4,9.05154648113228
4.4394526627218935,-2.9654366343715455,-1.4,9.069126731256908
4.447451676528599,-2.9566465093092313,-1.4,9.086706981381537
4.455450690335305,-2.947856384246917,-1.4,9.104287231506165
4.463449704142012,-2.939066259184602,-1.4,9.121867481630796
4.471448717948718,-2.9302761341222876,-1.4,9.139447731755423
4.479447731755424,-2.9214860090599735,-1.4,9.157027981880052
4.4874467455621305,-2.9126958839976584,-1.4,9.174608232004683
4.495445759368836,-2.9039057589353443,-1.4,9.19218848212931
4.503444773175542,-3.1722386587771214,-1.6444773175542424,9.051840894148585
4.511443786982248,-3.3,-2.10519954677074,8.9
4.519442800788955,-3.3,-2.1222187250828823,8.9
4.527441814595661,-3.3,-2.1392379033950224,8.9
4.535440828402367,-3.3,-2.1562570817071625,8.9
4.543439842209073,-3.3,-2.1732762600193047,8.9
4.551438856015779,-3.3,-2.190295438331445,8.9
4.559437869822485,-3.3,-2.2073146166435853,8.9
4.567436883629191,-3.3,-2.2243337949557254,8.9
4.575435897435898,-3.3,-2.2413529732678676,8.9
4.583434911242604,-3.3,-2.2583721515800077,8.9
4.5914339250493095,-3.3,-2.275391329892148,8.9
4.599432938856015,-3.3,-2.2924105082042883,8.9
4.607431952662722,-3.3,-2.272300295857985,8.927699704142015
4.615430966469428,-3.3,-2.2223064595660738,8.977693540433926
4.623429980276134,-4.385996055226804,-2.3809993425378004,8.476002629848798
4.631428994082841,-4.3,-2.5075402695595,8.307540269559501
4.6394280078895465,-4.3,-2.518650010957703,8.318650010957704
4.647427021696252,-4.3,-2.5297597523559054,8.329759752355907
4.655426035502958,-4.3,-2.540869493754108,8.34086949375411
4.663425049309665,-4.3,-2.551979235152312,8.351979235152312
4.671424063116371,-4.3,-2.5630889765505147,8.363088976550515
4.679423076923077,-4.3,-2.5741987179487174,8.374198717948717
4.687422090729783,-4.3,-2.585308459346921,8.385308459346922
4.695421104536489,-4.3,-2.5964182007451235,8.396418200745124
4.703420118343195,-4.3,-2.4789940828402535,8.421005917159746
4.711419132149901,-4.2,-2.40096352218368,8.59951823890816
4.719418145956608,-4.2,-2.419352059670362,8.59032397016482
4.727417159763314,-4.2,-2.4377405971570423,8.581129701421478
4.7354161735700195,-4.2,-2.4561291346437226,8.571935432678139
4.743415187376725,-4.2,-2.4745176721304025,8.562741163934799
4.751414201183432,-4.2,-2.492906209617085,8.553546895191458
4.759413214990138,-4.2,-2.5112947471037654,8.544352626448116
4.767412228796844,-4.2,-2.5296832845904453,8.535158357704777
4.775411242603551,-4.2,-2.548071822077128,8.525964088961436
4.7834102564102565,-4.2,-2.566460359563808,8.516769820218096
4.791409270216962,-4.2,-2.584848897050488,8.507575551474757
4.799408284023668,-4.220414201183396,-2.6,8.5
4.807407297830375,-4.29633623889207,-2.50366376110793,8.40366376110793
4.815406311637081,-4.287735148777332,-2.5122648512226675,8.412264851222668
4.823405325443787,-4.279134058662595,-2.520865941337405,8.420865941337405
4.8314043392504935,-4.270532968547856,-2.5294670314521435,8.429467031452143
4.839403353057199,-4.261931878433119,-2.538068121566881,8.43806812156688
4.847402366863905,-4.253330788318381,-2.5466692116816185,8.446669211681618
4.855401380670611,-4.244729698203645,-2.5552703017963556,8.455270301796356
4.863400394477318,-4.236128608088906,-2.5638713919110945,8.463871391911095
4.871399408284024,-4.227527517974169,-2.5724724820258316,8.472472482025832
4.87939842209073,-4.218926427859431,-2.581073572140569,8.48107357214057
4.8873974358974355,-4.210325337744694,-2.5896746622553066,8.489674662255307
4.895396449704142,-4.201724247629955,-2.598275752370045,8.498275752370045
4.903395463510848,-4.2,-2.4,8.5
4.911394477317554,-4.2,-2.4,8.5
4.919393491124261,-4.2,-2.4,8.5
4.927392504930967,-4.2,-2.4,8.5
4.9353915187376725,-4.2,-2.4,8.5
4.943390532544378,-4.2,-2.4,8.5
4.951389546351085,-4.2,-2.4,8.5
4.959388560157791,-4.2,-2.4,8.5
4.967387573964497,-4.2,-2.4,8.5
4.975386587771204,-4.2,-2.4,8.5
4.983385601577909,-4.2,-2.4,8.5
4.991384615384615,-4.2,-2.4,8.5
4.999383629191321,-4.2,-2.4,8.5
5.007382642998028,-4.2,-2.5,8.5
5.015381656804734,-4.2,-2.5,8.5
5.02338067061144,-4.2,-2.5,8.5
5.0313796844181455,-4.2,-2.5,8.5
5.039378698224852,-4.2,-2.5,8.5
5.047377712031558,-4.2,-2.5,8.5
5.055376725838264,-4.2,-2.5,8.5
5.063375739644971,-4.2,-2.5,8.5
5.071374753451677,-4.2,-2.5,8.5
5.0793737672583825,-4.2,-2.5,8.5
5.087372781065088,-4.2,-2.5,8.5
5.095371794871795,-4.2,-2.5,8.5
5.103370808678501,-4.2,-2.537080867850113,8.5
5.111369822485207,-4.194099096170103,-2.5940990961701025,8.511801807659795
5.119368836291914,-4.185308971107787,-2.585308971107787,8.529382057784426
5.1273678500986195,-4.176518846045473,-2.576518846045473,8.546962307909054
5.135366863905325,-4.167728720983159,-2.5677287209831587,8.564542558033683
5.143365877712031,-4.158938595920844,-2.5589385959208446,8.58212280815831
5.151364891518738,-4.15014847085853,-2.5501484708585296,8.599703058282941
5.159363905325444,-4.141358345796215,-2.5413583457962154,8.617283308407568
5.16736291913215,-4.132568220733901,-2.5325682207339013,8.634863558532198
5.175361932938856,-4.123778095671587,-2.523778095671587,8.652443808656825
5.183360946745562,-4.114987970609272,-2.514987970609272,8.670024058781456
5.191359960552268,-4.106197845546958,-2.506197845546958,8.687604308906083
5.199358974358974,-4.335897435897385,-2.2641025641026156,8.464102564102616
5.207357988165681,-4.49743696938513,-2.407689091844611,8.1
5.215357001972387,-4.488742389160449,-2.433772832518652,8.1
5.223356015779093,-4.480047808935769,-2.459856573192693,8.1
5.2313550295857985,-4.471353228711089,-2.485940313866734,8.1
5.239354043392505,-4.462658648486407,-2.512024054540778,8.1
5.247353057199211,-4.453964068261727,-2.538107795214819,8.1
5.255352071005917,-4.445269488037047,-2.56419153588886,8.1
5.263351084812623,-4.436574907812367,-2.590275276562901,8.1
5.27135009861933,-4.427880327587685,-2.616359017236945,8.1
5.279349112426035,-4.419185747363005,-2.642442757910986,8.1
5.287348126232741,-4.410491167138325,-2.668526498585027,8.1
5.295347140039448,-4.401796586913643,-2.6946102392590707,8.1
5.303346153846154,-3.934615384615388,-2.132692307692306,8.865384615384613
5.31134516765286,-4.015796059468515,-2.115796059468515,8.776305910797229
5.319344181459566,-4.03299823969799,-2.13299823969799,8.750502640453016
5.327343195266272,-4.050200419927467,-2.150200419927467,8.7246993701088
5.335342209072978,-4.067402600156942,-2.167402600156942,8.698896099764587
5.343341222879684,-4.084604780386417,-2.184604780386417,8.673092829420375
5.351340236686391,-4.101806960615894,-2.201806960615894,8.64728955907616
5.359339250493097,-4.119009140845369,-2.219009140845369,8.621486288731948
5.367338264299803,-4.136211321074844,-2.236211321074844,8.595683018387735
5.3753372781065085,-4.153413501304319,-2.2534135013043186,8.569879748043522
5.383336291913215,-4.170615681533796,-2.2706156815337954,8.544076477699306
5.391335305719921,-4.187817861763271,-2.2878178617632705,8.518273207355094
5.399334319526627,-4.416715976331352,-2.5167159763313514,8.3
5.407333333333333,-4.292831541218638,-2.3035842293906805,8.50358422939068
5.41533234714004,-4.275629360989162,-2.312185319505419,8.512185319505418
5.4233313609467455,-4.2584271807596865,-2.3207864096201565,8.520786409620156
5.431330374753451,-4.2412250005302115,-2.329387499734894,8.529387499734893
5.439329388560158,-4.224022820300735,-2.3379885898496324,8.537988589849633
5.447328402366864,-4.2068206400712596,-2.34658967996437,8.54658967996437
5.45532741617357,-4.1896184598417845,-2.3551907700791075,8.555190770079108
5.463326429980276,-4.172416279612309,-2.363791860193845,8.563791860193845
5.4713254437869825,-4.155214099382833,-2.3723929503085834,8.572392950308583
5.479324457593688,-4.1380119191533575,-2.380994040423321,8.58099404042332
5.487323471400394,-4.1208097389238825,-2.3895951305380585,8.589595130538058
5.495322485207101,-4.103607558694406,-2.398196220652797,8.598196220652797
5.503321499013807,-4.1,-2.766962524654823,8.5
5.511320512820513,-4.1,-2.5984821691718243,8.5
5.519319526627219,-4.1,-2.5892879004284843,8.5
5.527318540433925,-4.1,-2.580093631685143,8.5
5.535317554240631,-4.1,-2.570899362941803,8.5
5.543316568047337,-4.1,-2.561705094198463,8.5
5.551315581854043,-4.1,-2.552510825455123,8.5
5.55931459566075,-4.1,-2.5433165567117824,8.5
5.567313609467456,-4.1,-2.534122287968442,8.5
5.575312623274161,-4.1,-2.524928019225102,8.5
5.583311637080868,-4.1,-2.515733750481761,8.5
5.591310650887574,-4.1,-2.5065394817384212,8.5
5.59930966469428,-4.2,-2.315483234713988,8.5
5.607308678500986,-4.2,-2.4308678500985765,8.5
5.6153076923076926,-4.2,-2.5,8.508210890233363
5.623306706114398,-4.2,-2.5,8.517198546195953
5.631305719921104,-4.2,-2.5,8.526186202158545
5.639304733727811,-4.2,-2.5,8.535173858121135
5.647303747534517,-4.2,-2.5,8.544161514083727
5.655302761341223,-4.2,-2.5,8.553149170046318
5.663301775147929,-4.2,-2.5,8.562136826008908
5.671300788954635,-4.2,-2.5,8.5711244819715
5.679299802761341,-4.2,-2.5,8.58011213793409
5.687298816568047,-4.2,-2.5,8.589099793896683
5.695297830374753,-4.2,-2.5,8.598087449859273
5.70329684418146,-4.2,-2.5,8.566858714834423
5.711295857988166,-4.2,-2.5,8.52475864216755
5.7192948717948715,-4.197731755424068,-2.5,8.5
5.727293885601578,-4.136200879987861,-2.5,8.5
5.735292899408284,-4.1,-2.5,8.5
5.74329191321499,-4.1,-2.5,8.5
5.751290927021696,-4.1,-2.5,8.5
5.759289940828403,-4.1,-2.5,8.5
5.7672889546351085,-4.1,-2.5,8.5
5.775287968441814,-4.1,-2.5,8.5
5.783286982248521,-4.1,-2.5,8.5
5.791285996055227,-4.1,-2.5,8.5
5.799285009861933,-4.128500986193263,-2.4714990138067368,8.571499013806736
5.807284023668639,-4.1035312082458475,-2.5,8.5
5.8152830374753455,-4.112132298360586,-2.5,8.5
5.823282051282051,-4.1207333884753234,-2.5,8.5
5.831281065088757,-4.129334478590061,-2.5,8.5
5.839280078895463,-4.1379355687047985,-2.5,8.5
5.84727909270217,-4.146536658819537,-2.5,8.5
5.855278106508876,-4.1551377489342745,-2.5,8.5
5.863277120315582,-4.163738839049012,-2.5,8.5
5.871276134122288,-4.17233992916375,-2.5,8.5
5.879275147928994,-4.180941019278488,-2.5,8.5
5.8872741617357,-4.1895421093932255,-2.5,8.5
5.895273175542406,-4.198143199507963,-2.5,8.5
5.903272189349113,-4.1363905325443655,-2.5,8.5
5.9112712031558186,-4.1074960857276475,-2.5,8.5
5.919270216962524,-4.1157424917139425,-2.5,8.5
5.927269230769231,-4.123988897700238,-2.5,8.5
5.935268244575937,-4.1322353036865325,-2.5,8.5
5.943267258382643,-4.1404817096728275,-2.5,8.5
5.951266272189349,-4.1487281156591225,-2.5,8.5
5.9592652859960555,-4.1569745216454175,-2.5,8.5
5.967264299802761,-4.1652209276317125,-2.5,8.5
5.975263313609467,-4.1734673336180075,-2.5,8.5
5.983262327416173,-4.181713739604302,-2.5,8.5
5.99126134122288,-4.1899601455905975,-2.5,8.5
5.999260355029586,-4.1982065515768925,-2.5,8.5
6.007259368836292,-4.162968441814577,-2.5,8.5
6.015258382642998,-4.2,-2.5,8.5
6.023257396449704,-4.2,-2.5,8.5
6.03125641025641,-4.2,-2.5,8.5
6.039255424063116,-4.2,-2.5,8.5
6.047254437869823,-4.2,-2.5,8.5
6.055253451676529,-4.2,-2.5,8.5
6.0632524654832345,-4.2,-2.5,8.5
6.071251479289941,-4.2,-2.5,8.5
6.079250493096647,-4.2,-2.5,8.5
6.087249506903353,-4.2,-2.5,8.5
6.095248520710059,-4.2,-2.5,8.5
6.103247534516766,-4.1,-2.5,8.5
6.1112465483234715,-4.1,-2.5,8.5
6.119245562130177,-4.1,-2.5,8.5948224852071
6.127244575936883,-4.1,-2.5,8.585067590320874
6.13524358974359,-4.1,-2.5,8.575312695434647
6.143242603550296,-4.1,-2.5,8.56555780054842
6.151241617357002,-4.1,-2.5,8.555802905662192
6.1592406311637085,-4.1,-2.5,8.546048010775966
6.167239644970414,-4.1,-2.5,8.53629311588974
6.17523865877712,-4.1,-2.5,8.526538221003513
6.183237672583826,-4.1,-2.5,8.516783326117285
6.191236686390533,-4.1,-2.5,8.507028431231058
6.199235700197239,-4.1,-2.5,8.5
6.2072347140039446,-4.2,-2.5,8.5
6.21523372781065,-4.2,-2.5,8.5
6.223232741617357,-4.2,-2.5,8.5
6.231231755424063,-4.2,-2.5,8.5
6.239230769230769,-4.2,-2.5,8.5
6.247229783037476,-4.2,-2.5,8.5
6.2552287968441815,-4.2,-2.5,8.5
6.263227810650887,-4.2,-2.5,8.5
6.271226824457593,-4.2,-2.5,8.5
6.2792258382643,-4.2,-2.5,8.5
6.287224852071006,-4.2,-2.5,8.5
6.295223865877712,-4.2,-2.5,8.5
6.3032228796844185,-4.161143984220925,-2.5,8.5
6.311221893491124,-4.104690992767916,-2.5,8.595309007232084
6.31922090729783,-4.113578785886477,-2.5,8.586421214113521
6.327219921104536,-4.12246657900504,-2.5,8.57753342099496
6.335218934911243,-4.131354372123603,-2.5,8.568645627876396
6.343217948717949,-4.140242165242165,-2.5,8.559757834757836
6.351216962524655,-4.149129958360727,-2.5,8.550870041639273
6.3592159763313605,-4.158017751479289,-2.5,8.54198224852071
6.367214990138067,-4.166905544597852,-2.5,8.533094455402148
6.375214003944773,-4.1757933377164145,-2.5,8.524206662283586
6.383213017751479,-4.184681130834976,-2.5,8.515318869165023
6.391212031558186,-4.193568923953539,-2.5,8.50643107604646
6.399211045364892,-4.2,-2.478895463510849,8.5
6.4072100591715975,-4.196548323471401,-2.5,8.5965483234714
6.415209072978303,-4.187947233356663,-2.5,8.587947233356664
6.42320808678501,-4.179346143241925,-2.5,8.579346143241924
6.431207100591716,-4.170745053127187,-2.5,8.570745053127187
6.439206114398422,-4.16214396301245,-2.5,8.56214396301245
6.447205128205129,-4.153542872897711,-2.5,8.553542872897712
6.4552041420118345,-4.144941782782974,-2.5,8.544941782782974
6.46320315581854,-4.136340692668236,-2.5,8.536340692668237
6.471202169625246,-4.127739602553499,-2.5,8.527739602553499
6.479201183431953,-4.11913851243876,-2.5,8.51913851243876
6.487200197238659,-4.110537422324023,-2.5,8.510537422324022
6.495199211045365,-4.101936332209285,-2.5,8.501936332209285
6.5031982248520706,-4.2,-2.5,8.5
6.511197238658777,-4.2,-2.5,8.5
6.519196252465483,-4.193739454860864,-2.5,8.5
6.527195266272189,-4.184102088828689,-2.5,8.5
6.535194280078896,-4.174464722796511,-2.5,8.5
6.543193293885602,-4.164827356764336,-2.5,8.5
6.5511923076923075,-4.15518999073216,-2.5,8.5
6.559191321499013,-4.1455526246999845,-2.5,8.5
6.56719033530572,-4.135915258667807,-2.5,8.5
6.575189349112426,-4.126277892635631,-2.5,8.5
6.583188362919132,-4.116640526603455,-2.5,8.5
6.591187376725839,-4.107003160571279,-2.5,8.5
6.5991863905325445,-4.172879684418156,-2.4271203155818446,8.5
6.60718540433925,-4.101209596264541,-2.5,8.5
6.615184418145956,-4.109371855250975,-2.5,8.5
6.623183431952663,-4.117534114237412,-2.5,8.5
6.631182445759369,-4.125696373223846,-2.5,8.5
6.639181459566075,-4.133858632210281,-2.5,8.5
6.647180473372781,-4.142020891196715,-2.5,8.5
6.655179487179487,-4.1501831501831505,-2.5,8.5
6.663178500986193,-4.158345409169585,-2.5,8.5
6.671177514792899,-4.16650766815602,-2.5,8.5
6.679176528599606,-4.174669927142455,-2.5,8.5
6.687175542406312,-4.1828321861288895,-2.5,8.5
6.695174556213018,-4.190994445115324,-2.5,8.5
6.7031735700197235,-4.1991567041017595,-2.5,8.5
6.71117258382643,-4.2,-2.5,8.5
6.719171597633136,-4.2,-2.5,8.5
6.727170611439842,-4.2,-2.5,8.5
6.735169625246549,-4.2,-2.5,8.5
6.743168639053255,-4.2,-2.5,8.5
6.7511676528599605,-4.2,-2.5,8.5
6.759166666666666,-4.2,-2.5,8.5
6.767165680473373,-4.2,-2.5,8.5
6.775164694280079,-4.2,-2.5,8.5
6.783163708086785,-4.2,-2.5,8.5
6.791162721893491,-4.2,-2.5,8.5
6.799161735700197,-4.3,-2.4,8.558086785009875
6.807160749506903,-4.206417447403024,-2.6064174474030244,8.506417447403024
6.815159763313609,-4.2147497534516765,-2.6147497534516764,8.514749753451676
6.823158777120316,-4.223082059500329,-2.6230820595003292,8.523082059500329
6.831157790927022,-4.231414365548981,-2.631414365548981,8.531414365548981
6.839156804733728,-4.239746671597633,-2.6397466715976328,8.539746671597632
6.8471558185404335,-4.248078977646284,-2.6480789776462847,8.548078977646284
6.85515483234714,-4.256411283694938,-2.6564112836949376,8.556411283694937
6.863153846153846,-4.264743589743589,-2.6647435897435896,8.564743589743589
6.871152859960552,-4.273075895792242,-2.6730758957922416,8.573075895792241
6.879151873767259,-4.281408201840894,-2.6814082018408945,8.581408201840894
6.887150887573965,-4.2897405078895465,-2.6897405078895464,8.589740507889546
6.8951499013806705,-4.298072813938198,-2.6980728139381984,8.598072813938197
6.903148915187376,-4.278722879684404,-2.773759040105199,8.521277120315597
6.911147928994083,-4.47869822485208,-2.7071005917159736,8.321301775147921
6.919146942800789,-4.053209610901916,-2.5596288327057475,8.493580778196169
6.927145956607495,-3.997019504711812,-2.4029804952881877,8.605960990576374
6.935144970414201,-3.98590976331361,-2.41409023668639,8.62818047337278
6.9431439842209075,-3.974800021915406,-2.425199978084594,8.650399956169188
6.951142998027613,-3.9636902805172034,-2.4363097194827965,8.672619438965594
6.959142011834319,-3.9525805391190008,-2.447419460880999,8.694838921761999
6.967141025641026,-3.941470797720797,-2.458529202279203,8.717058404558406
6.975140039447732,-3.9303610563225946,-2.4696389436774053,8.739277887354811
6.983139053254438,-3.919251314924392,-2.480748685075608,8.761497370151217
6.991138067061144,-3.9081415735261893,-2.4918584264738106,8.783716852947622
6.99913708086785,-3.5810486522024956,-2.2810486522024953,8.818951347797505
7.007136094674556,-4.199848783694938,-2.700151216305063,8.4
7.015135108481262,-4.190960990576375,-2.709039009423625,8.4
7.023134122287969,-4.182073197457813,-2.717926802542188,8.4
7.031133136094675,-4.17318540433925,-2.72681459566075,8.4
7.039132149901381,-4.164297611220688,-2.7357023887793117,8.4
7.0471311637080865,-4.155409818102126,-2.7445901818978737,8.4
7.055130177514793,-4.146522024983563,-2.7534779750164367,8.4
7.063129191321499,-4.137634231865001,-2.7623657681349987,8.4
7.071128205128205,-4.128746438746439,-2.7712535612535607,8.4
7.079127218934911,-4.119858645627877,-2.7801413543721227,8.4
7.087126232741618,-4.110970852509314,-2.7890291474906856,8.4
7.095125246548323,-4.102083059390752,-2.7979169406092477,8.4
7.103124260355029,-4.1,-2.4001321918670526,8.6
7.111123274161736,-4.1,-2.4086417810231238,8.6
7.119122287968442,-4.1,-2.4171513701791936,8.6
7.127121301775148,-4.1,-2.425660959335264,8.6
7.135120315581854,-4.1,-2.4341705484913336,8.6
7.14311932938856,-4.1,-2.4426801376474048,8.6
7.151118343195266,-4.1,-2.451189726803475,8.6
7.159117357001972,-4.1,-2.459699315959545,8.6
7.167116370808678,-4.1,-2.468208905115615,8.6
7.175115384615385,-4.1,-2.4767184942716858,8.6
7.183114398422091,-4.1,-2.485228083427756,8.6
7.1911134122287965,-4.1,-2.493737672583826,8.6
7.199112426035503,-4.029585798816562,-2.5,8.6
7.207111439842209,-4.1,-2.402295043306749,8.6
7.215110453648915,-4.1,-2.4109896235314294,8.6
7.223109467455621,-4.1,-2.4196842037561095,8.6
7.231108481262328,-4.1,-2.428378783980791,8.6
7.2391074950690335,-4.1,-2.4370733642054714,8.6
7.247106508875739,-4.1,-2.4457679444301514,8.6
7.255105522682446,-4.1,-2.454462524654833,8.6
7.263104536489152,-4.1,-2.4631571048795133,8.6
7.271103550295858,-4.1,-2.4718516851041934,8.6
7.279102564102564,-4.1,-2.480546265328874,8.6
7.2871015779092705,-4.1,-2.4892408455535553,8.6
7.295100591715976,-4.1,-2.4979354257782354,8.6
7.303099605522682,-4.049169953977647,-2.5508300460223525,8.6
7.311098619329388,-3.9,-2.7,8.5
7.319097633136095,-3.9961757615603766,-2.7,8.6
7.327096646942801,-3.9863004358730856,-2.7,8.6
7.335095660749507,-3.976425110185794,-2.7,8.6
7.343094674556213,-3.966549784498502,-2.7,8.6
7.351093688362919,-3.956674458811211,-2.7,8.6
7.359092702169625,-3.94679913312392,-2.7,8.6
7.367091715976331,-3.9369238074366284,-2.7,8.6
7.375090729783038,-3.927048481749336,-2.7,8.6
7.383089743589744,-3.917173156062045,-2.7,8.6
7.391088757396449,-3.907297830374754,-2.7,8.6
7.399087771203156,-3.9,-2.7456114398421927,8.5
7.407086785009862,-3.9960703990289783,-2.796070399028978,8.503929600971022
7.415085798816568,-3.9883790395994536,-2.7883790395994534,8.511620960400547
7.423084812623274,-3.9806876801699285,-2.7806876801699287,8.519312319830071
7.4310838264299806,-3.972996320740403,-2.7729963207404027,8.527003679259597
7.439082840236686,-3.965304961310878,-2.765304961310878,8.534695038689122
7.447081854043392,-3.957613601881353,-2.7576136018813533,8.542386398118646
7.455080867850098,-3.9499222424518283,-2.749922242451828,8.550077757548172
7.463079881656805,-3.9422308830223027,-2.7422308830223026,8.557769116977697
7.471078895463511,-3.9345395235927776,-2.734539523592778,8.565460476407223
7.479077909270217,-3.926848164163253,-2.726848164163253,8.573151835836747
7.487076923076923,-3.9191568047337273,-2.719156804733727,8.580843195266272
7.495075936883629,-3.911465445304202,-2.7114654453042024,8.588534554695798
7.503074950690335,-3.9037740858746774,-2.7037740858746777,8.596225914125322
7.511073964497041,-3.9,-2.6,8.6
7.519072978303748,-4.0,-2.606112022052708,8.6
7.527071992110454,-4.0,-2.615749388084884,8.6
7.5350710059171595,-4.0,-2.6253867541170592,8.6
7.543070019723866,-4.0,-2.6350241201492364,8.6
7.551069033530572,-4.0,-2.6446614861814117,8.6
7.559068047337278,-4.0,-2.6542988522135875,8.6
7.567067061143984,-4.0,-2.6639362182457633,8.6
7.575066074950691,-4.0,-2.67357358427794,8.6
7.5830650887573965,-4.0,-2.683210950310116,8.6
7.591064102564102,-4.0,-2.6928483163422916,8.6
7.599063116370808,-2.617948717948981,-1.9089743589744905,6.420611439842624
7.607062130177515,-3.204367881911307,-1.143678819113067,10.30827447986256
7.615061143984221,-3.212968972026044,-1.229689720260442,10.127651587453073
7.623060157790927,-3.2215700621407817,-1.3157006214078169,9.947028695043585
7.6310591715976335,-3.23017115225552,-1.4017115225552015,9.766405802634077
7.639058185404339,-3.2387722423702576,-1.4877224237025763,9.58578291022459
7.647057199211045,-3.247373332484995,-1.5737333248499512,9.405160017815103
7.655056213017751,-3.2559744225997327,-1.6597442259973263,9.224537125405615
7.663055226824458,-3.264575512714471,-1.7457551271447107,9.043914232996109
7.671054240631164,-3.2731766028292086,-1.8317660282920856,8.86329134058662
7.67905325443787,-3.2817776929439457,-1.9177769294394607,8.682668448177132
7.687052268244576,-3.2903787830586846,-2.003787830586845,8.502045555767626
7.695051282051282,-3.2989798731734217,-2.08979873173422,8.321422663358138
7.703050295857988,-3.7999506903353057,-2.899901380670612,8.899802761341224
7.711049309664694,-3.7921085199365745,-2.8842170398731497,8.868434079746299
7.719048323471401,-3.7842663495378424,-2.8685326990756854,8.83706539815137
7.7270473372781066,-3.776424179139111,-2.852848358278223,8.805696716556445
7.735046351084812,-3.76858200874038,-2.83716401748076,8.77432803496152
7.743045364891518,-3.7607398383416486,-2.8214796766832975,8.742959353366595
7.751044378698225,-3.7528976679429165,-2.805795335885833,8.711590671771667
7.759043392504931,-3.745055497544185,-2.7901109950883707,8.680221990176742
7.767042406311637,-3.737213327145454,-2.774426654290908,8.648853308581817
7.7750414201183435,-3.729371156746722,-2.758742313493444,8.617484626986888
7.783040433925049,-3.7215289863479906,-2.7430579726959814,8.586115945391963
7.791039447731755,-3.7136868159492593,-2.727373631898519,8.554747263797037
7.799038461538461,-3.705844645550528,-2.7116892911010564,8.523378582202112
7.807037475345168,-3.6037475345167524,-2.8012491781722506,8.501249178172252
7.815036489151874,-3.9379561143984185,-2.7,8.7
7.82303550295858,-4.003942211634518,-2.7,8.692115576730963
7.831034516765286,-4.014330541253618,-2.7,8.671338917492763
7.839033530571992,-4.024718870872717,-2.7,8.650562258254565
7.847032544378698,-4.035107200491815,-2.7,8.629785599016369
7.855031558185404,-4.045495530110914,-2.7,8.609008939778171
7.863030571992111,-4.055883859730013,-2.7,8.588232280539973
7.871029585798817,-4.066272189349112,-2.7,8.567455621301775
7.8790285996055225,-4.07666051896821,-2.7,8.546678962063579
7.887027613412228,-4.087048848587309,-2.7,8.525902302825381
7.895026627218935,-4.097437178206409,-2.7,8.505125643587181
7.903025641025641,-3.9,-2.8,8.6
7.911024654832347,-3.9,-2.8,8.6
7.919023668639054,-3.9,-2.8,8.6
7.9270226824457595,-3.9,-2.8,8.6
7.935021696252465,-3.9,-2.8,8.6
7.943020710059171,-3.9,-2.8,8.6
7.951019723865878,-3.9,-2.8,8.6
7.959018737672584,-3.9,-2.8,8.6
7.96701775147929,-3.9,-2.8,8.6
7.9750167652859965,-3.9,-2.8,8.6
7.983015779092702,-3.9,-2.8,8.6
7.991014792899408,-3.9,-2.8,8.6
7.999013806706114,-3.849309664694302,-2.9,8.5
8.00701282051282,-3.8736167341430567,-2.9,8.526383265856943
8.015011834319527,-3.8315166614761793,-2.9,8.568483338523821
8.023010848126233,-3.797577291414177,-2.8975772914141773,8.6
8.031009861932938,-3.7879399253820023,-2.8879399253820024,8.6
8.039008875739645,-3.7783025593498256,-2.8783025593498257,8.6
8.047007889546352,-3.7686651933176485,-2.8686651933176486,8.6
8.055006903353057,-3.7590278272854736,-2.8590278272854737,8.6
8.063005917159764,-3.749390461253297,-2.8493904612532965,8.6
8.071004930966469,-3.739753095221122,-2.8397530952211216,8.6
8.079003944773175,-3.730115729188945,-2.830115729188945,8.6
8.087002958579882,-3.720478363156768,-2.820478363156768,8.6
8.095001972386587,-3.7108409971245933,-2.810840997124593,8.6
8.103000986193294,-3.701203631092416,-2.8012036310924158,8.6
8.111,-3.9,-2.7,8.6
