gyro_time_list,gyro_x_list,gyro_y_list,gyro_z_list
0.0,0.2,0.0,-0.1
0.00799760191846523,-0.38501199040767387,-0.09400479616306955,-0.2910071942446043
0.01599520383693046,-0.34502398081534774,-0.07800959232613909,-0.2670143884892086
0.02399280575539569,-0.30503597122302156,-0.06201438848920862,-0.2430215827338129
0.03199040767386092,-0.26504796163069544,-0.04601918465227816,-0.21902877697841724
0.039988009592326144,-0.2250599520383693,-0.030023980815347698,-0.19503597122302155
0.04798561151079138,-0.1850719424460431,-0.014028776978417229,-0.17104316546762585
0.055983213429256606,-0.14508393285371696,0.00196642685851324,-0.14705035971223016
0.06398081534772183,-0.10509592326139083,0.017961630695443695,-0.12305755395683449
0.07197841726618706,-0.06510791366906477,0.033956834532374136,-0.09906474820143882
0.07997601918465229,-0.025119904076738586,0.04995203836930459,-0.07507194244604315
0.08797362110311752,0.014868105515587537,0.06594724220623505,-0.05107913669064745
0.09597122302158276,0.05485611510791377,0.08194244604316553,-0.027086330935251757
0.10396882494004799,0.0948441247002399,0.09793764988009601,-0.0030935251798560603
0.11196642685851321,0.1,0.1,0.20226026075691175
0.11996402877697844,0.1,0.1,0.2114529066402051
0.12796163069544367,0.1,0.1,0.2206455525234985
0.1359592326139089,0.1,0.1,0.22983819840679184
0.14395683453237412,0.1,0.1,0.2390308442900852
0.15195443645083936,0.1,0.1,0.24822349017337858
0.15995203836930458,0.1,0.1,0.2574161360566719
0.16794964028776982,0.1,0.1,0.2666087819399653
0.17594724220623503,0.1,0.1,0.27580142782325867
0.18394484412470027,0.1,0.1,0.28499407370655205
0.19194244604316552,0.1,0.1,0.29418671958984544
0.19994004796163073,0.1,0.1,0.2
0.20793764988009597,0.0,0.1,0.19513307386877382
0.21593525179856118,0.0,0.1,0.18857766246019578
0.22393285371702643,0.0,0.1,0.1820222510516177
0.23193045563549164,0.0,0.1,0.17546683964303966
0.23992805755395688,0.0,0.1,0.1689114282344616
0.2479256594724221,0.0,0.1,0.16235601682588355
0.25592326139088734,0.0,0.1,0.15580060541730548
0.26392086330935255,0.0,0.1,0.14924519400872743
0.2719184652278178,0.0,0.1,0.14268978260014936
0.27991606714628303,0.0,0.1,0.1361343711915713
0.28791366906474825,0.0,0.1,0.12957895978299327
0.29591127098321346,0.0,0.1,0.12302354837441522
0.30390887290167873,0.0,0.1,0.11646813696583713
0.31190647482014394,0.0,0.1,0.10991272555725909
0.31990407673860916,0.0,0.1,0.10335731414868105
0.3279016786570744,-0.1,0.1,0.1
0.33589928057553964,-0.1,0.1,0.1
0.34389688249400485,-0.1,0.1,0.1
0.35189448441247007,-0.1,0.1,0.1
0.35989208633093533,-0.002910902047592846,0.1,0.10291090204759284
0.36788968824940055,-0.01521490499907779,0.1,0.1152149049990778
0.37588729016786576,-0.027518907950562735,0.1,0.12751890795056275
0.38388489208633103,-0.039822910902047766,0.1,0.13982291090204776
0.39188249400479624,-0.05212691385353271,0.1,0.15212691385353272
0.39988009592326146,-0.06443091680501765,0.1,0.16443091680501765
0.40787769784172667,-0.0767349197565026,0.1,0.1767349197565026
0.41587529976019194,-0.08903892270798763,0.1,0.18903892270798764
0.42387290167865715,-0.27458033573143337,0.1,0.2
0.43187050359712237,-0.9623501199040794,0.23247002398081587,0.4216466826538773
0.4398681055155876,-1.2289368505195866,0.2857873701039173,0.4571915800692782
0.44786570743405285,-1.4955235811350955,0.3391047162270191,0.4927364774846794
0.45586330935251806,-1.7621103117506027,0.39242206235012056,0.5282813749000803
0.4638609112709833,-2.02869704236611,0.445739408473222,0.5638262723154813
0.47185851318944855,-2.295283772981619,0.4990567545963238,0.5993711697308826
0.47985611510791376,-3.374919576533894,0.2968649470667368,1.1062701058665265
0.487853717026379,-3.322902653486966,0.29036283168587074,1.1192743366282587
0.4958513189448442,-3.2708857304400376,0.2838607163050047,1.1322785673899907
0.5038489208633095,-3.218868807393109,0.2773586009241386,1.1452827981517228
0.5118465227817747,-3.1668518843461806,0.2708564855432726,1.1582870289134548
0.5198441247002399,-3.1148349612992527,0.2643543701624066,1.171291259675187
0.5278417266187051,-3.0628180382523245,0.25785225478154056,1.184295490436919
0.5358393285371703,-3.010801115205396,0.2513501394006745,1.1972997211986511
0.5438369304556356,-2.9587841921584674,0.2448480240198084,1.2103039519603833
0.5518345323741009,-2.906767269111539,0.2383459086389424,1.2233081827221153
0.5598321342925661,-2.854750346064611,0.23184379325807636,1.2363124134838475
0.5678297362110313,-2.8027334230176826,0.22534167787721032,1.2493166442455794
0.5758273381294965,-2.7507164999707543,0.2188395624963443,1.2623208750073114
0.5838249400479617,-2.6986995769238264,0.21233744711547828,1.2753251057690436
0.5918225419664269,-2.6466826538768977,0.20583533173461224,1.2883293365307755
0.5998201438848922,-1.779856115107735,0.2,1.5460431654676796
0.6078177458033575,-2.138177458033575,0.003817745803357476,1.7038177458033574
0.6158153477218227,-2.218153477218227,0.011815347721822692,1.7118153477218228
0.6238129496402879,-2.298129496402879,0.019812949640287906,1.7198129496402879
0.6318105515587531,-2.3781055155875315,0.027810551558753123,1.7278105515587532
0.6398081534772183,-2.4580815347721834,0.03580815347721834,1.7358081534772183
0.6478057553956835,-2.5380575539568357,0.04380575539568355,1.7438057553956836
0.6558033573141488,-2.618033573141489,0.05180335731414888,1.751803357314149
0.6638009592326141,-2.698009592326141,0.059800959232614095,1.759800959232614
0.6717985611510793,-2.7779856115107933,0.06779856115107931,1.7677985611510794
0.6797961630695445,-2.857961630695445,0.07579616306954452,1.7757961630695445
0.6877937649880097,-2.9379376498800975,0.08379376498800974,1.7837937649880098
0.6957913669064749,-3.0179136690647494,0.09179136690647495,1.791791366906475
0.7037889688249401,-3.097889688249402,0.09978896882494018,1.7997889688249402
0.7117865707434055,-3.549390053174854,0.3164633510582847,1.9164633510582847
0.7197841726618707,-3.653706599937444,0.3512355333124813,1.9512355333124813
0.7277817745803359,-3.7580231467000336,0.38600771556667784,1.9860077155666778
0.7357793764988011,-3.810620836664002,0.42124167332800494,2.0212416733280048
0.7437769784172663,-3.828393285371703,0.45678657074340584,2.056786570743406
0.7517745803357315,-3.846165734079403,0.4923314681588068,2.092331468158807
0.7597721822541967,-3.8639381827871038,0.5278763655742077,2.127876365574208
0.7677697841726621,-3.8817106314948044,0.563421262989609,2.1634212629896092
0.7757673860911273,-3.899483080202505,0.59896616040501,2.19896616040501
0.7837649880095925,-3.9422010217912633,0.7097226566572848,2.3688040871650538
0.7917625899280577,-3.985666249609009,0.8227322489834238,2.5426649984360368
0.7997601918465229,-4.029131477426755,0.9357418413095626,2.71652590970702
0.8077577937649881,-4.072596705244501,1.0487514336357016,2.890386820978003
0.8157553956834533,-4.116061933062246,1.1617610259618405,3.064247732248986
0.8237529976019186,-4.159527160879993,1.2747706182879794,3.2381086435199684
0.8317505995203839,-4.202992388697739,1.38778021061412,3.411969554790954
0.8397482014388491,-4.246457616515484,1.5007898029402589,3.585830466061937
0.8477458033573143,-4.28992284433323,1.6137993952663976,3.7596913773329197
0.8557434052757795,-4.333388072150976,1.7268089875925368,3.933552288603903
0.8637410071942447,-4.3768532999687215,1.8398185799186755,4.107413199874886
0.87173860911271,-4.7738609112709955,1.8376898481215007,4.386930455635498
0.8797362110311752,-5.838896882494013,1.4611031175059872,4.834724220623503
0.8877338129496405,-6.089433453237409,1.1809802158273373,4.897886690647482
0.8957314148681057,-6.071581663240835,1.1488469938335037,4.894316332648168
0.9037290167865709,-6.053729873244261,1.1167137718396705,4.890745974648852
0.9117266187050361,-6.035878083247687,1.084580549845837,4.887175616649538
0.9197242206235013,-6.018026293251113,1.0524473278520035,4.883605258650223
0.9277218225419666,-6.000174503254539,1.0203141058581702,4.880034900650908
0.9357194244604318,-5.982322713257965,0.9881808838643367,4.876464542651593
0.9437170263788971,-5.96447092326139,0.9560476618705027,4.872894184652278
0.9517146282973623,-5.946619133264816,0.9239144398766692,4.8693238266529635
0.9597122302158275,-5.928767343268242,0.8917812178828358,4.865753468653649
0.9677098321342927,-5.910915553271668,0.8596479958890024,4.862183110654334
0.975707434052758,-5.8930637632750935,0.8275147738951689,4.858612752655019
0.9837050359712232,-5.875211973278519,0.7953815519013354,4.855042394655704
0.9917026378896884,-5.857360183281945,0.763248329907502,4.851472036656389
0.9997002398081537,-5.839508393285371,0.7311151079136682,4.847901678657074
1.007697841726619,-5.821656603288797,0.6989818859198347,4.844331320657759
1.015695443645084,-5.803804813292222,0.6668486639260016,4.840760962658445
1.0236930455635493,-5.785953023295648,0.6347154419321678,4.8371906046591295
1.0316906474820147,-5.768101233299074,0.6025822199383338,4.833620246659815
1.0396882494004798,-5.7502494433025,0.5704489979445009,4.8300498886605
1.047685851318945,-5.7323976533059255,0.5383157759506669,4.826479530661185
1.0556834532374102,-5.714545863309352,0.506182553956834,4.822909172661871
1.0636810551558755,-5.696694073312777,0.47404933196300003,4.819338814662555
1.0716786570743406,-5.678842283316204,0.4419161099691671,4.815768456663241
1.079676258992806,-5.66099049331963,0.40978288797533313,4.8121980986639254
1.0876738609112713,-5.6431387033230545,0.3776496659814993,4.808627740664611
1.0956714628297364,-5.625286913326481,0.34551644398766623,4.8050573826652965
1.1036690647482017,-5.607435123329907,0.3133832219938324,4.801487024665981
1.1116666666666668,-4.025925925925906,-0.18888888888889274,4.322222222222215
1.1196642685851321,-0.5700239808151704,-0.4,3.4007194244603935
1.1276618705035972,0.5626482597705634,-0.21363017693952904,3.0515069025860386
1.1356594724220626,1.2543327500162145,-0.019093914057939643,2.7921252187439194
1.1436570743405279,1.9460172402618658,0.17544234882364973,2.5327435349018
1.151654676258993,2.6377017305074975,0.3699786117052337,2.2733618510596885
1.1596522781774583,2.536930455635431,0.8326139088729139,1.3043165467625173
1.1676498800959234,1.2094016353182442,0.7795787466412405,0.36596457773540075
1.1756474820143887,0.9396030163820652,0.7506717517552213,0.3177862529253688
1.1836450839328538,0.6698043974458936,0.7217647568692029,0.2696079281153382
1.1916426858513192,0.40000577850971464,0.6928577619831837,0.2214296033053062
1.1996402877697845,0.13020715957353568,0.6639507670971645,0.17325127849527422
1.2076378896882496,-0.13959145936263595,0.6350437722111462,0.12507295368524357
1.215635491606715,-0.4093900782988149,0.6061367773251269,0.07689462887521159
1.22363309352518,-0.6791886972349865,0.5772297824391086,0.028716304065180998
1.2316306954436453,-0.9489873161711655,0.5483227875530894,-0.019462020744850983
1.2396282973621104,-1.218785935107337,0.519415792667071,-0.06764034555488163
1.2476258992805758,-2.309629219701164,0.495185390149418,-0.09518539014941797
1.255623501199041,-2.432669249216016,0.43366537539199196,-0.03366537539199192
1.2636211031175062,-2.4965508444308377,0.3,0.0017245777845810455
1.2716187050359715,-2.4795346701362306,0.3,0.010232664931884575
1.2796163069544366,-2.4625184958416244,0.3,0.018740752079187867
1.287613908872902,-2.4455023215470173,0.3,0.0272488392264914
1.295611510791367,-2.4284861472524106,0.3,0.03575692637379469
1.3036091127098324,-2.4114699729578035,0.3,0.04426501352109822
1.3116067146282977,-2.3944537986631964,0.3,0.052773100668401754
1.3196043165467628,-2.3774376243685897,0.3,0.061281187815705046
1.3276019184652281,-2.3604214500739826,0.3,0.06978927496300857
1.3355995203836932,-2.343405275779376,0.3,0.07829736211031187
1.3435971223021586,-2.326389101484769,0.3,0.0868054492576154
1.3515947242206237,-2.3093729271901626,0.3,0.09531353640491869
1.359592326139089,-1.8407673860911118,0.22038369304555588,0.02038369304555586
1.3675899280575543,-1.4351490236382107,0.39414182939363157,-0.19414182939363153
1.3755875299760194,-1.354701313576004,0.4,-0.2
1.3835851318944847,-1.3069544364508379,0.4,-0.2
1.3915827338129498,-1.259207559325673,0.4,-0.2
1.3995803357314152,-1.211460682200507,0.4,-0.2
1.4075779376498803,-1.1637138050753422,0.4,-0.2
1.4155755395683456,-1.115966927950176,0.4,-0.2
1.423573141486811,-1.06822005082501,0.4,-0.2
1.431570743405276,-1.0204731736998451,0.4,-0.2
1.4395683453237413,-0.9522781774580444,0.19544364508391107,-0.7091127098321779
1.4475659472422064,-0.9880619141050793,0.11193808589492071,-0.9119380858949208
1.4555635491606718,-0.9735208197078696,0.1264791802921304,-0.9264791802921304
1.4635611510791369,-0.9589797253106603,0.1410202746893397,-0.9410202746893397
1.4715587529976022,-0.9444386309134506,0.1555613690865494,-0.9555613690865494
1.4795563549160675,-0.929897536516241,0.17010246348375913,-0.9701024634837591
1.4875539568345326,-0.9153564421190317,0.1846435578809684,-0.9846435578809684
1.495551558752998,-0.9008153477218219,0.1991846522781781,-0.9991846522781781
1.503549160671463,-0.2774325220674544,0.1096790652584318,-1.1806418694831364
1.5115467625899284,-0.41356191642431117,0.1266952395530389,-1.1466095208939222
1.5195443645083935,-0.5496913107811642,0.14371141384764552,-1.1125771723047089
1.5275419664268588,-0.685820705138021,0.16072758814225263,-1.0785448237154946
1.5355395683453241,-0.8219500994948779,0.17774376243685974,-1.0445124751262806
1.5435371702637892,-0.9580794938517307,0.19475993673146635,-1.0104801265370673
1.5515347721822546,-0.8155075939248475,0.2,-1.0614974686917176
1.5595323741007197,-0.09626404139845818,0.09906601034961454,-1.2
1.567529976019185,-0.04014051916361395,0.0850351297909035,-1.2
1.57552757793765,0.015983003071228713,0.07100424923219283,-1.2
1.5835251798561154,0.07210652530607295,0.05697336867348177,-1.2
1.5915227817745805,0.1282300475409156,0.0429424881147711,-1.2
1.5995203836930458,0.1843535697757598,0.02891160755606005,-1.2
1.6075179856115112,0.24047709201060405,0.014880726997348992,-1.2
1.6155155875299763,0.2966006142454467,0.0008498464386383214,-1.2
1.6235131894484416,2.7445375345293446,-0.20636250493276354,-0.7
1.6315107913669067,2.886267188780625,-0.22660959839723216,-0.7
1.639508393285372,3.0279968430319095,-0.24685669186170134,-0.7
1.6475059952038371,3.1697264972831896,-0.26710378532616996,-0.7
1.6555035971223024,3.311456151534474,-0.28735087879063914,-0.7
1.6635011990407678,3.453185805785758,-0.3075979722551083,-0.7
1.6714988009592329,3.5949154600370385,-0.32784506571957694,-0.7
1.6794964028776982,3.736645114288323,-0.3480921591840461,-0.7
1.6874940047961633,3.878374768539603,-0.36833925264851475,-0.7
1.6954916067146286,4.0201044227908875,-0.388586346112984,-0.7
1.7034892086330937,2.2926258992804627,-0.6,-1.0489208633093763
1.711486810551559,0.3725756473472881,-0.4921644706706537,-1.9352598819820581
1.7194844124700244,0.30967316034812264,-0.474192331528035,-2.016134508123842
1.7274820143884895,0.24677067334895889,-0.45622019238541683,-2.0970091342656243
1.7354796163069548,0.18386818634979338,-0.4382480532427981,-2.1778837604074086
1.74347721822542,0.12096569935062962,-0.4202759141001799,-2.2587583865491903
1.7514748201438852,0.058063212351464166,-0.40230377495756114,-2.3396330126909746
1.7594724220623503,-0.004839274647699621,-0.38433163581494295,-2.4205076388327567
1.7674700239808157,-0.06774176164686507,-0.36635949667232426,-2.5013822649745405
1.775467625899281,-0.13064424864603064,-0.3483873575297055,-2.582256891116325
1.783465227817746,-0.1935467356451943,-0.3304152183870873,-2.663131517258107
1.7914628297362114,-0.2564492226443599,-0.31244307924446857,-2.7440061433998912
1.7994604316546765,-0.3,-0.25079136690646964,-2.9476258992805913
1.8074580335731418,0.9103117505996231,-0.07290167865708902,-3.345803357314178
1.815455635491607,1.1418073018220947,-0.11393576727403157,-3.3860642327259685
1.8234532374100723,1.1866536677200312,-0.12888455590667702,-3.371115444093323
1.8314508393285376,1.2315000336179676,-0.1438333445393225,-3.3561666554606773
1.8394484412470027,1.2763463995159028,-0.15878213317196754,-3.3412178668280323
1.847446043165468,1.3211927654138391,-0.17373092180461303,-3.326269078195387
1.8554436450839331,1.3660391313117741,-0.18867971043725806,-3.311320289562742
1.8634412470023984,1.4108854972097107,-0.20362849906990355,-3.2963715009300967
1.8714388489208635,1.455731863107646,-0.21857728770254858,-3.2814227122974513
1.8794364508393289,1.5005782290055822,-0.23352607633519407,-3.266473923664806
1.8874340527577942,1.5454245949035186,-0.24847486496783952,-3.2515251350321606
1.8954316546762593,1.5902709608014538,-0.2634236536004846,-3.2365763463995156
1.9034292565947246,1.6351173266993901,-0.27837244223313007,-3.2216275577668703
1.9114268585131897,1.6799636925973251,-0.2933212308657751,-3.206678769134225
1.919424460431655,1.9,-0.34244604316550514,-2.4726618705034844
1.9274220623501201,1.8818974089021456,-0.4,-2.227589635608583
1.9354196642685855,1.8623910627595472,-0.4,-2.1495642510381896
1.9434172661870508,1.8428847166169489,-0.4,-2.071538866467796
1.951414868105516,1.8233783704743511,-0.4,-1.9935134818974045
1.9594124700239812,1.8038720243317528,-0.4,-1.915488097327011
1.9674100719424463,1.7843656781891548,-0.4,-1.8374627127566197
1.9754076738609117,1.7648593320465564,-0.4,-1.759437328186226
1.9834052757793768,1.7453529859039587,-0.4,-1.6814119436158346
1.991402877697842,1.7258466397613603,-0.4,-1.603386559045441
1.9994004796163074,1.706340293618762,-0.4,-1.5253611744750475
2.0073980815347725,0.9977635868833012,0.10089456524667953,-0.19642173901328192
2.015395683453238,0.9528332390267544,0.11886670438929824,-0.12453318244280706
2.023393285371703,0.9079028911702076,0.13683884353191694,-0.05264462587233221
2.031390887290168,0.8629725433136634,0.15481098267453466,0.019243930698138678
2.0393884892086334,0.8180421954571165,0.17278312181715338,0.09113248726861356
2.0473860911270987,0.7731118476005697,0.19075526095977208,0.1630210438390884
2.055383693045564,0.728181499744023,0.2087274001023908,0.23490960040956327
2.0633812949640293,0.6832511518874762,0.22669953924500952,0.30679815698003815
2.071378896882494,0.6383208040309318,0.24467167838762724,0.37868671355050904
2.0793764988009595,0.5933904561743851,0.2626438175302459,0.4505752701209838
2.087374100719425,0.5484601083178383,0.28061595667286465,0.5224638266914587
2.09537170263789,0.5035297604612916,0.2985880958154834,0.5943523832619335
2.103369304556355,0.17801676184825177,0.6073277460505827,2.021983238151748
2.1113669064748204,0.10381220796558378,0.6320625973448054,2.0961877920344163
2.1193645083932857,0.029607654082915824,0.6567974486390281,2.170392345917084
2.127362110311751,-0.04459689979975215,0.6815322999332507,2.244596899799752
2.1353597122302164,-0.11880145368242012,0.7062671512274734,2.31880145368242
2.1433573141486812,-0.19300600756508396,0.7310020025216947,2.393006007565084
2.1513549160671466,-0.2672105614477519,0.7557368538159174,2.467210561447752
2.159352517985612,-0.34141511533041985,0.78047170511014,2.5414151153304196
2.167350119904077,-0.41561966921308785,0.8052065564043627,2.6156196692130878
2.1753477218225425,-0.48982422309575585,0.8299414076985854,2.689824223095756
2.1833453237410074,-0.5640287769784196,0.8546762589928066,2.7640287769784195
2.1913429256594728,-0.6382333308610877,0.8794111102870292,2.8382333308610876
2.199340527577938,-1.1021582733813915,0.9670263788968986,3.101079136690696
2.2073381294964034,-1.9865484356700664,1.0932742178350334,3.4966371089175166
2.2153357314148683,-1.9617496700314156,1.080874835015708,3.490437417507854
2.2233333333333336,-1.9369509043927635,1.068475452196382,3.4842377260981907
2.231330935251799,-1.9121521387541114,1.0560760693770557,3.478038034688528
2.2393285371702643,-1.8873533731154593,1.0436766865577296,3.471838343278865
2.2473261390887296,-1.8625546074768071,1.0312773037384035,3.4656386518692015
2.2553237410071945,-1.8377558418381563,1.0188779209190781,3.459438960459539
2.26332134292566,-1.8129570761995042,1.006478538099752,3.453239269049876
2.271318944844125,-1.7881583105608518,0.994079155280426,3.4470395776402127
2.2793165467625904,-1.7633595449221997,0.9816797724610999,3.44083988623055
2.2873141486810558,-1.7385607792835476,0.9692803896417739,3.434640194820887
2.2953117505995206,-1.7137620136448968,0.9568810068224485,3.428440503411224
2.303309352517986,-1.6889632480062446,0.9444816240031223,3.422240812001561
2.3113069544364513,-1.6641644823675925,0.9320822411837962,3.416041120591898
2.3193045563549166,-1.6393657167289404,0.9196828583644702,3.4098414291822348
2.3273021582733815,-1.6145669510902896,0.9072834755451448,3.4036417377725723
2.335299760191847,-1.0050359712229668,0.6700239808153113,3.005035971222967
2.343297362110312,-0.586137541579638,0.5,2.4237564786880097
2.3512949640287775,-0.5603388257136208,0.5,2.2818635414249147
2.359292565947243,-0.5345401098476036,0.5,2.13997060416182
2.3672901678657077,-0.5087413939815878,0.5,1.998077666898733
2.375287769784173,-0.48294267811557057,0.5,1.856184729635638
2.3832853717026383,-0.45714396224955334,0.5,1.7142917923725431
2.3912829736211036,-0.4313452463835361,0.5,1.5723988551094483
2.399280575539569,-0.4055465305175189,0.5,1.4305059178463533
2.407278177458034,0.08830269118040768,0.43024247268851323,1.1209698907540528
2.415275779376499,-0.004324675852539109,0.5,0.3956753241474609
2.4232733812949645,-0.031435190830387795,0.5,0.3685648091696122
2.43127098321343,-0.05854570580823649,0.5,0.34145429419176354
2.4392685851318947,-0.08565622078608368,0.5,0.3143437792139163
2.44726618705036,-0.11276673576393235,0.5,0.28723326423606765
2.4552637889688254,-0.13987725074178103,0.5,0.260122749258219
2.4632613908872907,-0.16698776571962973,0.5,0.2330122342803703
2.471258992805756,-0.19409828069747842,0.5,0.2059017193025216
2.479256594724221,-1.0989783782729914,0.2989783782729913,0.2010216217270087
2.487254196642686,-1.0924762628921252,0.2924762628921252,0.20752373710787483
2.4952517985611515,-1.0859741475112592,0.28597414751125905,0.21402585248874095
2.503249400479617,-1.079472032130393,0.2794720321303929,0.22052796786960707
2.511247002398082,-1.0729699167495268,0.2729699167495268,0.22703008325047322
2.519244604316547,-1.066467801368661,0.266467801368661,0.23353219863133898
2.5272422062350124,-1.059965685987795,0.2599656859877949,0.2400343140122051
2.5352398081534777,-1.0534635706069289,0.25346357060692876,0.24653642939307124
2.543237410071943,-1.0469614552260627,0.24696145522606264,0.2530385447739374
2.551235011990408,-1.040459339845197,0.24045933984519688,0.25954066015480315
2.5592326139088732,-1.0339572244643307,0.23395722446433076,0.26604277553566924
2.5672302158273386,-1.0274551090834647,0.2274551090834646,0.2725448909165354
2.575227817745804,-1.0209529937025985,0.22095299370259847,0.27904700629740153
2.583225419664269,-1.0144508783217323,0.21445087832173237,0.2855491216782676
2.591223021582734,-1.0079487629408665,0.2079487629408666,0.2920512370591334
2.5992206235011994,-1.0014466475600003,0.20144664756000047,0.29855335243999953
2.6072182254196647,-0.48553606552959705,0.3,0.3036159836176007
2.61521582733813,-0.4495917872443596,0.3,0.3126020531889101
2.6232134292565954,-0.41364750895912217,0.3,0.3215881227602194
2.6312110311750603,-0.3777032306738868,0.3,0.3305741923315283
2.6392086330935256,-0.3417589523886493,0.3,0.33956026190283767
2.647206235011991,-0.3058146741034119,0.3,0.34854633147414704
2.6552038369304563,-0.26987039581817446,0.3,0.35753240104545636
2.663201438848921,-0.23392611753293902,0.3,0.36651847061676524
2.6711990407673865,-0.19798183924770157,0.3,0.3755045401880746
2.679196642685852,-0.1620375609624642,0.3,0.384490609759384
2.687194244604317,-0.12609328267722675,0.3,0.3934766793306933
2.6951918465227824,0.11918465227822872,0.22693844924059042,0.1808153477217713
2.7031894484412473,0.09708073541167034,-0.005838529176659338,-0.40583852917665936
2.7111870503597126,0.08641726618704987,-0.02716546762590028,-0.4271654676259003
2.719184652278178,0.0757537969624294,-0.04849240607514122,-0.44849240607514124
2.7271822541966433,0.06509032773780893,-0.06981934452438217,-0.4698193445243822
2.7351798561151086,0.05442685851318845,-0.09114628297362311,-0.4911462829736231
2.7431774580335735,0.04376338928856857,-0.11247322142286287,-0.5124732214228629
2.751175059952039,0.0330999200639481,-0.1338001598721038,-0.5338001598721038
2.759172661870504,0.022436450839327632,-0.15512709832134475,-0.5551270983213448
2.7671702637889695,0.011772981614707162,-0.1764540367705857,-0.5764540367705857
2.7751678657074343,0.001109512390087275,-0.19778097521982546,-0.5977809752198254
2.7831654676258997,0.2129161786849605,-0.4,-1.0
2.791163069544365,0.23771494432361265,-0.4,-1.0
2.7991606714628303,0.2625137099622648,-0.4,-1.0
2.8071582733812956,0.287312475600917,-0.4,-1.0
2.8151558752997605,0.3121112412395678,-0.4,-1.0
2.823153477218226,0.3369100068782199,-0.4,-1.0
2.831151079136691,0.3617087725168721,-0.4,-1.0
2.8391486810551565,0.3865075381555243,-0.4,-1.0
2.847146282973622,0.41130630379417643,-0.4,-1.0
2.8551438848920867,0.43610506943282723,-0.4,-1.0
2.863141486810552,0.4609038350714794,-0.4,-1.0
2.8711390887290174,0.48570260071013155,-0.4,-1.0
2.8791366906474827,0.5105013663487837,-0.4,-1.0
2.8871342925659476,0.5353001319874345,-0.4,-1.0
2.895131894484413,0.5600988976260868,-0.4,-1.0
2.903129496402878,0.5848976632647389,-0.4,-1.0
2.9111270983213435,1.7726618705038537,-0.32182254196640975,-0.9218225419664098
2.919124700239809,3.3702998891209486,-0.4,-0.49771537608622685
2.9271223021582737,3.2585054537015474,-0.4,-0.48911580413088823
2.935119904076739,3.1467110182821396,-0.4,-0.4805162321755492
2.9431175059952044,3.034916582862732,-0.4,-0.4719166602202101
2.9511151079136697,2.923122147443324,-0.4,-0.46331708826487106
2.959112709832135,2.811327712023916,-0.4,-0.454717516309532
2.9671103117506,2.6995332766045146,-0.4,-0.44611794435419344
2.9751079136690652,2.5877388411851068,-0.4,-0.4375183723988544
2.9831055155875306,2.475944405765699,-0.4,-0.4289188004435153
2.991103117505996,2.364149970346291,-0.4,-0.42031922848817627
2.9991007194244608,2.2523555349268896,-0.4,-0.41171965653283765
3.007098321342926,2.140561099507482,-0.4,-0.4031200845774986
3.0150959232613914,1.2401164782459577,-0.42994176087702124,-0.5299417608770212
3.0230935251798567,1.0156311314584539,-0.47187704381948464,-0.6281229561805154
3.031091127098322,0.8091127098321941,-0.395443645083903,-0.6954436450839029
3.039088729016787,1.0176484899037306,-0.3,-0.6088242449518653
3.0470863309352523,1.040829944739862,-0.3,-0.6204149723699309
3.0550839328537176,1.0640113995759932,-0.3,-0.6320056997879966
3.063081534772183,1.0871928544121248,-0.3,-0.6435964272060624
3.0710791366906482,1.110374309248256,-0.3,-0.655187154624128
3.079076738609113,1.1335557640843863,-0.3,-0.666777882042193
3.0870743405275785,1.1567372189205176,-0.3,-0.6783686094602588
3.0950719424460438,1.179918673756649,-0.3,-0.6899593368783244
3.103069544364509,1.235651478816973,-0.3,-0.6643485211830269
3.111067146282974,1.191109048245273,-0.1977772620613183,-0.6022227379386816
3.1190647482014393,1.1567107604239169,-0.18917769010597923,-0.6108223098940208
3.1270623501199046,1.1223124726025606,-0.18057811815064018,-0.6194218818493599
3.13505995203837,1.0879141847812044,-0.17197854619530112,-0.6280214538046989
3.1430575539568353,1.0535158969598482,-0.16337897423996206,-0.636621025760038
3.1510551558753,1.019117609138494,-0.15477940228462345,-0.6452205977153765
3.1590527577937655,0.9847193213171376,-0.1461798303292844,-0.6538201696707155
3.167050359712231,0.9503210334957813,-0.13758025837394533,-0.6624197416260547
3.175047961630696,0.915922745674425,-0.12898068641860627,-0.6710193135813937
3.183045563549161,0.8815244578530708,-0.12038111446326769,-0.6796188855367322
3.1910431654676263,0.8471261700317145,-0.11178154250792863,-0.6882184574920713
3.1990407673860917,0.8127278822103583,-0.10318197055258957,-0.6968180294474104
3.207038369304557,0.39982291090204397,0.2,-0.3998819406013627
3.2150359712230223,0.36291090204758863,0.2,-0.37527393469839243
3.223033573141487,0.3259988931931353,0.2,-0.3506659287954235
3.2310311750599525,0.2890868843386799,0.2,-0.3260579228924533
3.239028776978418,0.25217487548422457,0.2,-0.30144991698948304
3.247026378896883,0.21526286662976915,0.2,-0.2768419110865128
3.2550239808153485,0.1783508577753138,0.2,-0.2522339051835425
3.2630215827338134,0.14143884892086045,0.2,-0.22762589928057364
3.2710191846522787,0.10452684006640506,0.2,-0.20301789337760337
3.279016786570744,0.8288112367249127,1.0020579454803509,-0.5020579454803509
3.2870143884892093,0.943062692702989,1.0102187637644993,-0.5102187637644993
3.2950119904076742,1.0573141486810589,1.018379582048647,-0.5183795820486471
3.3030095923261396,1.1715656046591352,1.0265404003327954,-0.5265404003327954
3.311007194244605,1.2858170606372115,1.0347012186169438,-0.5347012186169436
3.31900479616307,1.4000685166152875,1.042862036901092,-0.5428620369010919
3.3270023980815355,1.5143199725933638,1.0510228551852403,-0.5510228551852403
3.3350000000000004,1.6285714285714337,1.0591836734693882,-0.5591836734693881
3.3429976019184657,1.74282288454951,1.0673444917535364,-0.5673444917535364
3.350995203836931,1.8570743405275862,1.0755053100376848,-0.5755053100376847
3.3589928057553964,1.9713257965056623,1.0836661283218332,-0.583666128321833
3.3669904076738617,2.0855772524837386,1.0918269466059813,-0.5918269466059813
3.3749880095923266,2.1998287084618084,1.0999877648901293,-0.5999877648901292
3.382985611510792,2.6791366906475247,1.1,-0.6798561151079208
3.3909832134292572,2.806574959812371,1.1,-0.7065749598123707
3.3989808153477226,2.815363533349146,1.1,-0.7153635333491458
3.4069784172661874,2.8241521068859203,1.1,-0.7241521068859205
3.4149760191846528,2.8329406804226953,1.1,-0.7329406804226954
3.422973621103118,2.8417292539594703,1.1,-0.7417292539594705
3.4309712230215834,2.8505178274962457,1.1,-0.7505178274962456
3.4389688249400487,2.8593064010330207,1.1,-0.7593064010330207
3.4469664268585136,2.8680949745697952,1.1,-0.7680949745697954
3.454964028776979,2.87688354810657,1.1,-0.7768835481065703
3.4629616306954443,2.885672121643345,1.1,-0.7856721216433454
3.4709592326139096,2.89446069518012,1.1,-0.7944606951801205
3.478956834532375,1.9146282973624231,0.6043165467625177,-1.2275779376499765
3.48695443645084,2.374487506768776,0.0,-1.504252082205204
3.494952038369305,2.322890075036742,0.0,-1.512851654160543
3.5029496402877704,2.271292643304707,0.0,-1.5214512261158821
3.5109472422062358,2.219695211572673,0.0,-1.5300507980712212
3.5189448441247007,2.1680977798406413,0.0,-1.5386503700265597
3.526942446043166,2.116500348108607,0.0,-1.5472499419818988
3.5349400479616313,2.064902916376573,0.0,-1.555849513937238
3.5429376498800966,2.0133054846445386,0.0,-1.564449085892577
3.550935251798562,1.961708052912504,0.0,-1.5730486578479161
3.558932853717027,1.9101106211804726,0.0,-1.5816482298032546
3.566930455635492,1.8585131894484381,0.0,-1.5902478017585937
3.5749280575539575,1.806915757716404,0.0,-1.5988473737139328
3.582925659472423,1.8694244604317218,0.13884892086344344,-1.4074340527577043
3.590923261390888,2.093575249690356,0.9096371254644662,-0.8967876248451779
3.598920863309353,2.075998102616807,0.93600284607479,-0.8879990513084034
3.6069184652278183,2.0584209555432564,0.9623685666851153,-0.8792104777716283
3.6149160671462837,2.0408438084697065,0.9887342872954407,-0.8704219042348531
3.622913669064749,2.023266661396156,1.015100007905766,-0.861633330698078
3.630911270983214,2.005689514322607,1.0414657285160898,-0.8528447571613035
3.638908872901679,1.9881123672490566,1.0678314491264151,-0.8440561836245283
3.6469064748201445,1.9705352201755064,1.0941971697367405,-0.8352676100877532
3.65490407673861,1.952958073101956,1.1205628903470657,-0.8264790365509781
3.662901678657075,1.9353809260284058,1.146928610957391,-0.817690463014203
3.67089928057554,1.9178037789548565,1.173294331567715,-0.8089018894774284
3.6788968824940054,1.9002266318813064,1.1996600521780403,-0.8001133159406533
3.6868944844124707,2.268345323741255,1.9788968824941704,0.08944844124708515
3.694892086330936,2.3194067696662364,2.0,0.1
3.7028896882494013,2.3390730038919707,2.0,0.1
3.7108872901678662,2.358739238117704,2.0,0.1
3.7188848920863316,2.3784054723434385,2.0,0.1
3.726882494004797,2.398071706569173,2.0,0.1
3.734880095923262,2.417737940794907,2.0,0.1
3.742877697841727,2.4374041750206406,2.0,0.1
3.7508752997601924,2.457070409246375,2.0,0.1
3.7588729016786577,2.476736643472109,2.0,0.1
3.766870503597123,2.4964028776978435,2.0,0.1
3.7748681055155884,2.516069111923578,2.0,0.1
3.7828657074340533,2.5357353461493113,2.0,0.1
3.7908633093525186,2.5554015803750456,2.0,0.1
3.798860911270984,2.57506781460078,2.0,0.1
3.8068585131894492,2.5947340488265143,2.0,0.1
3.8148561151079146,2.43812949640285,2.2214028776978627,0.019064748201424994
3.8228537170263794,2.1905142552624515,2.4094857447375486,-0.1
3.8308513189448448,2.101652011723947,2.4983479882760533,-0.1
3.83884892086331,2.012789768185442,2.587210231814558,-0.1
3.8468465227817754,1.9786046163069515,2.6106976918465246,-0.1
3.8548441247002403,1.9536121103117488,2.6231939448441257,-0.1
3.8628417266187056,1.9286196043165447,2.6356901978417278,-0.1
3.870839328537171,1.9036270983213406,2.64818645083933,-0.1
3.8788369304556363,1.8786345923261363,2.660682703836932,-0.1
3.8868345323741016,1.8536420863309322,2.673178956834534,-0.1
3.8948321342925665,1.8286495803357294,2.6856752098321355,-0.1
3.902829736211032,1.8036570743405254,2.6981714628297375,-0.1
3.910827338129497,1.433504624871508,2.716752312435754,-0.083247687564246
3.9188249400479624,1.738293174983828,2.4693654600129378,-0.31531726999353116
3.9268225419664278,1.8017662060827593,2.4185870351337924,-0.34070648243310375
3.9348201438848927,1.8652392371816873,2.36780861025465,-0.3660956948726749
3.942817745803358,1.9287122682806188,2.317030185375505,-0.3914849073122475
3.9508153477218233,1.9921852993795501,2.26625176049636,-0.41687411975182004
3.9588129496402886,2.0556583304784817,2.2154733356172147,-0.4422633321913926
3.9668105515587535,2.1191313615774097,2.1646949107380724,-0.4676525446309638
3.974808153477219,2.182604392676341,2.1139164858589274,-0.4930417570705363
3.982805755395684,3.0171462829736835,1.41942446043158,-1.2171462829736832
3.9908033573141495,2.489596015495291,0.4913300129127423,-1.5
3.998800959232615,2.4434560044272216,0.4528800036893514,-1.5
4.00679856115108,2.3973159933591526,0.4144299944659604,-1.5
4.014796163069545,2.351175982291086,0.3759799852425716,-1.5
4.02279376498801,2.3050359712230195,0.3375299760191828,-1.5
4.030791366906476,2.2588959601549474,0.29907996679578974,-1.5
4.0387889688249405,2.212755949086881,0.2606299575724009,-1.5
4.046786570743406,2.1666159380188095,0.22217994834900784,-1.5
4.054784172661871,2.1204759269507427,0.18372993912561902,-1.5
4.062781774580336,2.074335915882676,0.1452799299022302,-1.5
4.070779376498802,2.0281959048146043,0.10682992067883712,-1.5
4.078776978417267,1.982055893746538,0.0683799114554483,-1.5
4.0867745803357325,1.9359158826784661,0.029929902232055217,-1.5
4.094772182254197,1.5961973278518606,-0.15190133607406964,-1.5
4.102769784172662,0.3013047189367151,-0.7026094378734302,-1.5006523594683576
4.110767386091128,0.31485997642564023,-0.7297199528512804,-1.5074299882128201
4.118764988009593,0.32841523391456384,-0.7568304678291277,-1.514207616957282
4.126762589928059,0.3419704914034889,-0.7839409828069779,-1.5209852457017445
4.1347601918465235,0.3555257488924125,-0.8110514977848251,-1.5277628744462062
4.142757793764988,0.3690810063813361,-0.8381620127626722,-1.534540503190668
4.150755395683454,0.3826362638702612,-0.8652725277405224,-1.5413181319351306
4.158752997601919,0.3961915213591848,-0.8923830427183697,-1.5480957606795924
4.166750599520385,0.4097467788481099,-0.9194935576962198,-1.554873389424055
4.17474820143885,0.4233020363370335,-0.946604072674067,-1.5616510181685168
4.182745803357315,0.43685729382595706,-0.9737145876519142,-1.5684286469129787
4.19074340527578,0.45041255131488217,-1.0008251026297645,-1.5752062756574412
4.198741007194245,0.4639678088038057,-1.0279356176076115,-1.5819839044019028
4.20673860911271,0.47752306629272934,-1.0550461325854588,-1.5887615331463647
4.214736211031176,0.49107832378165445,-1.082156647563309,-1.5955391618908272
4.222733812949641,0.9065402223675263,-1.7800523217789546,-1.4333551340745643
4.2307314148681066,-1.2019184652281418,-2.6525179856116448,-1.7968824940048518
4.238729016786571,-5.556746501533074,-2.6927571866557014,-1.8350180615001792
4.246726618705036,-7.206884618887226,-2.1967033967762326,-1.996994809215924
4.254724220623502,-8.85702273624156,-1.7006496068967085,-2.1589715569316867
4.262721822541967,-10.507160853595714,-1.2045958170172395,-2.320948304647432
4.270719424460433,-12.157298970950048,-0.7085420271377156,-2.482925052363195
4.278717026378898,-13.807437088304201,-0.2124882372582464,-2.64490180007894
4.2867146282973625,-15.457575205658351,0.2835655526212224,-2.8068785477946845
4.294712230215828,-17.10771332301269,0.7796193425007467,-2.9688552955104477
4.302709832134293,-18.75785144036684,1.2756731323802155,-3.1308320432261927
4.310707434052759,-20.407989557721173,1.7717269222597398,-3.2928087909419554
4.318705035971224,-1.009352517980819,2.9791366906476875,-9.892086330936769
4.326702637889689,-1.0077193941049767,-2.3703821752724346,-8.30941322891054
4.334700239808154,-2.536374950672489,-1.2264213945298588,-7.681753331511958
4.342697841726619,-4.0650305072398325,-0.08246061378740999,-7.0540934341134465
4.350695443645085,-5.593686063807345,1.0615001669551658,-6.426433536714865
4.35869304556355,-7.122341620374688,2.2054609476976146,-5.798773639316353
4.366690647482015,-8.650997176942031,3.349421728440063,-5.171113741917842
4.374688249400481,-10.179652733509544,4.49338250918264,-4.54345384451926
4.3826858513189455,-11.708308290076888,5.637343289925086,-3.915793947120749
4.390683453237411,-13.2369638466444,6.781304070667662,-3.288134049722167
4.398681055155876,-14.765619403211742,7.925264851410111,-2.6604741523236557
4.406678657074341,-1.8069544364498693,-1.419664268585242,-4.578657074340969
4.414676258992807,0.6510137344669364,-1.884826684107258,-2.9227599738391126
4.422673860911272,0.23295727054718174,-1.866650316110747,-2.9500245258338795
4.430671462829737,-0.18509919337257297,-1.8484739481142358,-2.977289077828646
4.438669064748202,-0.6031556572923742,-1.8302975801177228,-3.0045536298234157
4.446666666666667,-1.021212121212129,-1.8121212121212118,-3.031818181818182
4.454664268585133,-1.4392685851319298,-1.7939448441246986,-3.059082733812952
4.462661870503598,-1.8573250490516848,-1.7757684761281876,-3.0863472858077188
4.470659472422063,-2.2753815129714394,-1.7575921081316765,-3.1136118378024853
4.4786570743405285,-2.6934379768912406,-1.7394157401351633,-3.140876389797255
4.486654676258993,-3.1114944408109952,-1.7212393721386523,-3.1681409417920214
4.494652278177459,-3.5295509047307965,-1.7030630041421393,-3.195405493786791
4.502649880095924,-5.804858916605041,-0.795748447970589,-2.9
4.510647482014389,-5.86465407113562,-0.7434276877563328,-2.9
4.518645083932855,-5.924449225666205,-0.6911069275420709,-2.9
4.52664268585132,-5.984244380196783,-0.6387861673278148,-2.9
4.534640287769785,-6.044039534727368,-0.5864654071135529,-2.9
4.54263788968825,-6.103834689257947,-0.5341446468992967,-2.9
4.550635491606715,-6.163629843788525,-0.4818238866850406,-2.9
4.558633093525181,-6.22342499831911,-0.42950312647077865,-2.9
4.566630695443646,-6.2832201528496885,-0.3771823662565225,-2.9
4.5746282973621115,-6.3430153073802735,-0.3248616060422606,-2.9
4.582625899280576,-6.4028104619108515,-0.2725408458280044,-2.9
4.590623501199041,-6.46260561644143,-0.22022008561374828,-2.9
4.598621103117507,-6.522400770972015,-0.16789932539948638,-2.9
4.606618705035972,-6.582195925502594,-0.11557856518523024,-2.9
4.614616306954438,-0.37613908872779744,0.24592326139052867,-1.307553956834317
4.622613908872903,0.7838685149441394,-0.10806574252793032,-1.0919342574720698
4.6306115107913675,0.7643621688015423,-0.11781891559922887,-1.082181084400771
4.638609112709833,0.744855822658943,-0.1275720886705285,-1.0724279113294715
4.646606714628298,0.725349476516346,-0.13732526174182705,-1.062674738258173
4.654604316546763,0.7058431303737489,-0.1470784348131256,-1.0529215651868744
4.662601918465229,0.6863367842311496,-0.15683160788442524,-1.0431683921155748
4.670599520383694,0.6668304380885525,-0.16658478095572377,-1.0334152190442762
4.678597122302159,0.6473240919459532,-0.1763379540270234,-1.0236620459729766
4.686594724220624,0.6278177458033561,-0.18609112709832196,-1.013908872901678
4.694592326139089,0.608311399660759,-0.1958443001696205,-1.0041556998303796
4.702589928057555,0.7589928057555043,0.21151079136674353,-0.6884892086332565
4.71058752997602,0.08771971433841817,-0.2,-1.306140142830791
4.718585131894486,0.07014256726486708,-0.2,-1.3149287163675665
4.7265827338129505,0.05256542019131792,-0.2,-1.323717289904341
4.734580335731415,0.03498827311776877,-0.2,-1.3325058634411155
4.742577937649881,0.01741112604421767,-0.2,-1.3412944369778912
4.750575539568346,-0.000166021029331484,-0.2,-1.3500830105146657
4.758573141486812,-0.01774316810288258,-0.2,-1.3588715840514414
4.766570743405277,-0.03532031517643172,-0.2,-1.367660157588216
4.7745683453237415,-0.052897462249980876,-0.2,-1.3764487311249904
4.782565947242207,-0.070474609323532,-0.2,-1.3852373046617659
4.790563549160672,-0.08805175639708113,-0.2,-1.3940258781985404
4.798561151079138,0.839088729017114,-0.11462829736208058,-1.4853717026379194
4.806558752997603,1.9158565321655763,-0.1,-1.4841434678344236
4.814556354916068,1.9436742779689324,-0.1,-1.4563257220310675
4.8225539568345335,1.9714920237722915,-0.1,-1.4285079762277084
4.830551558752998,1.9993097695756474,-0.1,-1.4006902304243525
4.838549160671464,2.0271275153790067,-0.1,-1.3728724846209932
4.846546762589929,2.054945261182363,-0.1,-1.3450547388176373
4.854544364508394,2.0827630069857186,-0.1,-1.317236993014281
4.86254196642686,2.110580752789078,-0.1,-1.289419247210922
4.8705395683453245,2.138398498592434,-0.1,-1.2616015014075659
4.878537170263789,2.16621624439579,-0.1,-1.23378375560421
4.886534772182255,2.194033990199149,-0.1,-1.205966009800851
4.89453237410072,2.221851736002505,-0.1,-1.1781482639974947
4.902529976019186,2.2496694818058645,-0.1,-1.1503305181941355
4.910527577937651,2.27748722760922,-0.1,-1.1225127723907795
4.918525179856116,2.5033573141487624,-0.5575539568347158,-0.7441247002396656
4.926522781774581,2.060837483859025,-0.22604685482378128,0.639162516140975
4.934520383693046,1.8147574248293346,0.0815532189633319,0.8852425751706655
4.942517985611512,1.6397806345087544,0.16162283288124835,0.9616228328812484
4.950515587529977,1.4693399378857346,0.22717694696702515,1.027176946967025
4.958513189448442,1.2988992412627147,0.292731061052802,1.092731061052802
4.9665107913669075,1.1284585446396762,0.35828517513858604,1.158285175138586
4.974508393285372,0.9580178480166565,0.42383928922436287,1.2238392892243628
4.982505995203838,0.7875771513936178,0.4893934033101469,1.2893934033101468
4.990503597122303,0.6171364547705982,0.5549475173959237,1.3549475173959236
4.998501199040768,-1.084092725819832,0.7667466027178771,2.1503597122304465
5.006498800959234,-1.1,0.8934799986098059,2.7
5.014496402877699,-1.1,0.8818892711917409,2.7
5.022494004796164,-1.1,0.8702985437736745,2.7
5.030491606714629,-1.1,0.8587078163556094,2.7
5.038489208633094,-1.1,0.8471170889375444,2.7
5.04648681055156,-1.1,0.8355263615194781,2.7
5.054484412470025,-1.1,0.823935634101413,2.7
5.0624820143884905,-1.1,0.8123449066833467,2.7
5.070479616306955,-1.1,0.8007541792652817,2.7
5.07847721822542,-0.25871302957632347,0.017426059152646958,2.8
5.086474820143886,-0.2,-0.11040655847415398,2.794796720762923
5.094472422062351,-0.2,-0.12900563270314203,2.785497183648429
5.102470023980816,-0.2,-0.14760470693213004,2.776197646533935
5.110467625899282,-0.2,-0.16620378116112014,2.76689810941944
5.1184652278177465,-0.2,-0.18480285539010816,2.757598572304946
5.126462829736212,-0.2,-0.20340192961909825,2.748299035190451
5.134460431654677,-0.2,-0.2220010038480863,2.738999498075957
5.142458033573142,-0.2,-0.24060007807707431,2.729699960961463
5.150455635491608,-0.2,-0.2591991523060644,2.720400423846968
5.158453237410073,-0.2,-0.27779822653505243,2.7111008867324737
5.166450839328538,-0.2,-0.2963973007640425,2.7018013496179787
5.174448441247003,-0.7104498219606153,-0.8026124554901539,2.5973875445098464
5.182446043165468,-0.7346849792892969,-0.8086712448223242,2.591328755177676
5.190443645083934,-0.7589201366179811,-0.8147300341544953,2.5852699658455047
5.198441247002399,-0.7831552939466626,-0.8207888234866657,2.5792111765133345
5.206438848920865,-0.8073904512753468,-0.8268476128188368,2.5731523871811635
5.2144364508393295,-0.8316256086040283,-0.8329064021510071,2.567093597848993
5.222434052757794,-0.8558607659327098,-0.8389651914831775,2.5610348085168226
5.23043165467626,-0.8800959232613941,-0.8450239808153486,2.5549760191846516
5.238429256594725,-0.9043310805900755,-0.8510827701475189,2.5489172298524814
5.246426858513191,-0.9285662379187598,-0.85714155947969,2.5428584405203103
5.254424460431656,-0.9528013952474412,-0.8632003488118604,2.5367996511881397
5.2624220623501206,-0.9770365525761229,-0.8692591381440307,2.5307408618559695
5.270419664268586,-1.001271709904807,-0.8753179274762017,2.5246820725237984
5.278417266187051,-1.0255068672334886,-0.8813767168083722,2.5186232831916278
5.286414868105516,-1.04974202456217,-0.8874355061405426,2.5125644938594576
5.294412470023982,-1.0739771818908543,-0.8934942954727135,2.5065057045272865
5.302410071942447,-1.0982123392195358,-0.8995530848048839,2.500446915195116
5.3104076738609125,-1.6,-1.2203836930456202,2.5
5.318405275779377,-1.5887626740712684,-1.3112373259287318,2.5056186629643658
5.326402877697842,-1.574731793512558,-1.3252682064874421,2.512634103243721
5.334400479616308,-1.560700912953846,-1.339299087046154,2.519649543523077
5.342398081534773,-1.5466700323951357,-1.3533299676048645,2.526664983802432
5.350395683453239,-1.5326391518364237,-1.3673608481635762,2.5336804240817883
5.358393285371704,-1.5186082712777134,-1.3813917287222865,2.5406958643611435
5.366390887290168,-1.5045773907190032,-1.395422609280997,2.5477113046404987
5.374388489208634,-1.4905465101602913,-1.4094534898397089,2.5547267449198543
5.382386091127099,-1.476515629601581,-1.423484370398419,2.5617421851992095
5.390383693045565,-1.462484749042869,-1.437515250957131,2.5687576254785656
5.39838129496403,-1.4484538684841586,-1.4515461315158413,2.5757730657579208
5.406378896882495,-1.4344229879254482,-1.4655770120745517,2.582788506037276
5.41437649880096,-1.4203921073667365,-1.4796078926332636,2.589803946316632
5.422374100719425,-1.406361226808026,-1.4936387731919738,2.596819386595987
5.430371702637891,-1.045723421263024,-1.9914468425260479,2.7
5.438369304556356,-1.398213042469244,-2.1,2.6994043474897484
5.446366906474821,-1.3595149686702208,-2.1,2.6865049895567403
5.454364508393287,-1.320816894871193,-2.1,2.6736056316237313
5.4623621103117515,-1.2821188210721695,-2.1,2.660706273690723
5.470359712230217,-1.2434207472731418,-2.1,2.647806915757714
5.478357314148682,-1.2047226734741185,-2.1,2.634907557824706
5.486354916067147,-1.166024599675095,-2.1,2.6220081998916984
5.494352517985613,-1.1273265258760672,-2.1,2.609108841958689
5.502350119904078,0.016306954436997145,-1.4537170263785808,2.4237410071941583
5.5103477218225425,3.823900879296615,0.8695443645084828,0.8869704236610115
5.518345323741008,3.7835497455693825,0.9910422881207217,0.728338304965774
5.526342925659473,3.6567584956425003,0.9812891150494231,0.6503129203953848
5.534340527577939,3.5299672457156035,0.9715359419781233,0.5722875358249868
5.542338129496404,3.403175995788721,0.9617827689068247,0.49426215125459766
5.550335731414869,3.2763847458618387,0.952029595835526,0.41623676668420845
5.5583333333333345,3.1495934959349423,0.9422764227642263,0.3382113821138106
5.566330935251799,3.0228022460080597,0.9325232496929277,0.2601859975434213
5.574328537170265,2.896010996081163,0.9227700766216279,0.18216061297302344
5.58232613908873,2.7692197461542807,0.9130169035503293,0.10413522840263423
5.590323741007195,2.642428496227398,0.9032637304790306,0.026109843832245017
5.598321342925661,-0.7997366041592945,0.29973660415929443,-0.4
5.6063189448441255,-0.7931811927507167,0.29318119275071663,-0.4
5.614316546762591,-0.7866257813421382,0.2866257813421382,-0.4
5.622314148681056,-0.7800703699335604,0.2800703699335604,-0.4
5.630311750599521,-0.7735149585249826,0.2735149585249826,-0.4
5.638309352517987,-0.7669595471164041,0.26695954711640413,-0.4
5.646306954436452,-0.7604041357078264,0.26040413570782633,-0.4
5.6543045563549175,-0.7538487242992479,0.2538487242992478,-0.4
5.662302158273382,-0.74729331289067,0.24729331289067005,-0.4
5.670299760191847,-0.7407379014820923,0.2407379014820923,-0.4
5.678297362110313,-0.7341824900735138,0.23418249007351377,-0.4
5.686294964028778,-0.7276270786649359,0.22762707866493598,-0.4
5.694292565947244,-0.7210716672563575,0.2210716672563575,-0.4
5.7022901678657085,-0.7145162558477797,0.21451625584777972,-0.4
5.710287769784173,-0.7079608444392019,0.20796084443920193,-0.4
5.718285371702639,-0.7014054330306234,0.20140543303062342,-0.4
5.726282973621104,-0.04961207504583798,-0.05038792495416203,-0.274806037522919
5.734280575539569,0.04447735928904595,-0.14447735928904595,-0.22776132035547703
5.742278177458035,-0.3108484640858786,-0.4,-0.3
5.7502757793765,-0.3489322827452353,-0.4,-0.3
5.758273381294965,-0.3870161014045963,-0.4,-0.3
5.76627098321343,-0.42509992006395303,-0.4,-0.3
5.774268585131895,-0.46318373872330976,-0.4,-0.3
5.782266187050361,-0.5012675573826707,-0.4,-0.3
5.790263788968826,-0.5393513760420274,-0.4,-0.3
5.7982613908872915,-0.5774351947013885,-0.4,-0.3
5.806258992805756,-0.8354573484069643,-0.07091469681392862,-0.2354573484069643
5.814256594724221,-0.2929481414868093,0.2,0.11057778776978601
5.822254196642687,-0.26795563549160384,0.2,0.1480665467625943
5.830251798561152,-0.2429631294964011,0.2,0.18555530575539836
5.838249400479618,-0.2179706235011956,0.2,0.22304406474820665
5.846247002398083,-0.19297811750599286,0.2,0.2605328237410107
5.8542446043165475,-0.16798561151079014,0.2,0.29802158273381485
5.862242206235013,-0.14299310551558464,0.2,0.3355103417266231
5.870239808153478,-0.11800059952038192,0.2,0.3729991007194272
5.878237410071944,-0.010503597122255806,0.2447482014388721,0.4447482014388721
5.886235011990409,0.4002901382597638,0.1,0.6
5.894232613908874,0.41016372087515257,0.1,0.6
5.902230215827339,0.42003730349054247,0.1,0.6
5.910227817745804,0.42991088610593126,0.1,0.6
5.91822541966427,0.43978446872132115,0.1,0.6
5.926223021582735,0.44965805133671,0.1,0.6
5.9342206235012,0.4595316339520988,0.1,0.6
5.942218225419666,0.4694052165674887,0.1,0.6
5.9502158273381305,0.47927879918287747,0.1,0.6
5.958213429256595,0.48915238179826626,0.1,0.6
5.966211031175061,0.49902596441365615,0.1,0.6
5.974208633093526,0.19684480986639202,-0.2,0.4
5.982206235011992,0.18541966426858375,-0.2,0.4
5.990203836930457,0.17399451867077675,-0.2,0.4
5.9982014388489215,0.16256937307296976,-0.2,0.4
6.006199040767387,0.15114422747516149,-0.2,0.4
6.014196642685852,0.1397190818773545,-0.2,0.4
6.022194244604318,0.12829393627954622,-0.2,0.4
6.030191846522783,0.11686879068173922,-0.2,0.4
6.038189448441248,0.10544364508393221,-0.2,0.4
6.0461870503597135,0.09401849948612395,-0.2,0.4
6.054184652278178,0.08259335388831696,-0.2,0.4
6.062182254196644,0.07116820829050868,-0.2,0.4
6.070179856115109,0.05974306269270169,-0.2,0.4
6.078177458033574,0.04831791709489469,-0.2,0.4
6.08617505995204,0.03689277149708642,-0.2,0.4
6.0941726618705045,0.025467625899279422,-0.2,0.4
6.10217026378897,0.01404248030147115,-0.2,0.4
6.110167865707435,0.0026173347036641537,-0.2,0.4
6.1181654676259,0.14165467625900288,-0.15834532374099713,0.35834532374099715
6.126163069544366,0.2332779929902492,-0.06672200700975081,0.2833610035048754
6.134160671462831,0.3563180225050945,0.05631802250509446,0.22184098874745278
6.1421582733812965,0.3838803956834471,0.1,0.2
6.150155875299761,0.3588878896882444,0.1,0.2
6.158153477218226,0.33389538369304167,0.1,0.2
6.166151079136692,0.3089028776978362,0.1,0.2
6.174148681055157,0.28391037170263345,0.1,0.2
6.182146282973622,0.2589178657074307,0.1,0.2
6.1901438848920876,0.2339253597122252,0.1,0.2
6.198141486810552,0.20893285371702247,0.1,0.2
6.206139088729018,-0.2916546762589318,-0.10834532374106819,-0.0027817745803560595
6.214136690647483,0.012716313435741054,-0.395761228854753,-0.1
6.222134292565948,0.04513902391600415,-0.3849536586946653,-0.1
6.230131894484414,0.07756173439627084,-0.37414608853457637,-0.1
6.238129496402879,0.10998444487653394,-0.3633385183744887,-0.1
6.246127098321344,0.14240715535680065,-0.3525309482143998,-0.1
6.254124700239809,0.17482986583706372,-0.3417233780543121,-0.1
6.262122302158274,0.20725257631732683,-0.33091580789422437,-0.1
6.27011990407674,0.23967528679759353,-0.3201082377341355,-0.1
6.278117505995205,0.2720979972778566,-0.3093006675740478,-0.1
6.286115107913671,0.29342240493308763,-0.3,-0.2016443987667281
6.294112709832135,-0.1834532374101563,-0.2165467625898437,-0.27218225419661457
6.3021103117506,-0.19192126818025987,0.1,-0.1
6.310107913669066,-0.17114827618424489,0.1,-0.1
6.318105515587531,-0.1503752841882322,0.1,-0.1
6.326103117505997,-0.1296022921922172,0.1,-0.1
6.334100719424462,-0.1088293001962045,0.1,-0.1
6.3420983213429265,-0.08805630820019181,0.1,-0.1
6.350095923261392,-0.06728331620417682,0.1,-0.1
6.358093525179857,-0.04651032420816412,0.1,-0.1
6.366091127098322,-0.025737332212151437,0.1,-0.1
6.374088729016788,-0.004964340216136426,0.1,-0.1
6.382086330935253,0.09893496967132112,0.09893496967132112,0.10106503032867889
6.3900839328537185,0.09109418347674679,0.09109418347674679,0.10890581652325322
6.398081534772183,0.08325339728217333,0.08325339728217333,0.11674660271782668
6.406079136690648,0.07541261108759988,0.07541261108759988,0.12458738891240013
6.414076738609114,0.06757182489302554,0.06757182489302554,0.13242817510697447
6.422074340527579,0.059731038698452095,0.059731038698452095,0.14026896130154792
6.430071942446045,0.051890252503877764,0.051890252503877764,0.14810974749612224
6.4380695443645095,0.04404946630930431,0.04404946630930431,0.1559505336906957
6.446067146282974,0.03620868011473086,0.03620868011473086,0.16379131988526915
6.45406474820144,0.028367893920156526,0.028367893920156526,0.17163210607984347
6.462062350119905,0.02052710772558307,0.02052710772558307,0.17947289227441693
6.470059952038371,0.012686321531008737,0.012686321531008737,0.18731367846899127
6.478057553956836,0.0048455353364352804,0.0048455353364352804,0.19515446466356473
6.486055155875301,0.0,-0.00811658365615584,0.19188341634384418
6.494052757793766,0.0,-0.06963659841358531,0.13036340158641468
6.502050359712231,0.0,-0.1,0.06317854807062767
6.510047961630697,-0.0015411200451421376,-0.1,0.0
6.518045563549162,-0.013302299337002322,-0.1,0.0
6.526043165467627,-0.025063478628862507,-0.1,0.0
6.5340407673860925,-0.036824657920724,-0.1,0.0
6.542038369304557,-0.048585837212584186,-0.1,0.0
6.550035971223023,-0.060347016504445676,-0.1,0.0
6.558033573141488,-0.07210819579630585,-0.1,0.0
6.566031175059953,-0.08386937508816604,-0.1,0.0
6.574028776978419,-0.09563055438002753,-0.1,0.0
6.582026378896884,-0.16842525979222922,0.0,-0.1
6.5900239808153485,-0.2896138261804331,0.005193086909783449,-0.09480691309021656
6.598021582733814,-0.27582485735549217,0.012087571322253906,-0.0879124286777461
6.606019184652279,-0.2620358885305528,0.0189820557347236,-0.0810179442652764
6.614016786570745,-0.24824691970561188,0.025876540147194056,-0.07412345985280595
6.62201438848921,-0.2344579508806725,0.03277102455966375,-0.06722897544033626
6.630011990407675,-0.2206689820557331,0.03966550897213344,-0.06033449102786657
6.63800959232614,-0.2068800132307922,0.0465599933846039,-0.05344000661539611
6.646007194244605,-0.19309104440585284,0.05345447779707359,-0.04654552220292642
6.654004796163071,-0.1793020755809119,0.06034896220954405,-0.03965103779045596
6.662002398081536,-0.16551310675597253,0.06724344662201374,-0.03275655337798626
6.670000000000001,-0.15172413793103315,0.07413793103448343,-0.02586206896551657
6.677997601918467,-0.13793516910609221,0.08103241544695389,-0.01896758455304612
6.6859952038369315,-0.12414620028115284,0.08792689985942358,-0.012073100140576429
6.693992805755397,-0.11035723145621193,0.09482138427189404,-0.005178615728105962
6.701990407673862,0.050479616306891927,0.050479616306891927,0.0
6.709988009592327,0.1,0.0,0.0
6.717985611510793,0.1,0.0,0.0
6.725983213429258,0.1,0.0,0.0
6.733980815347723,0.1,0.0,0.0
6.741978417266188,0.1,0.0,0.0
6.749976019184653,0.1,0.0,0.0
6.757973621103119,0.1,0.0,0.0
6.765971223021584,0.1,0.0,0.0
6.77396882494005,0.1,0.0,0.0
6.7819664268585145,0.1,0.0,0.0
6.789964028776979,0.1,0.0,0.0
6.797961630695445,0.1,0.0,0.0
6.80595923261391,0.0020383693045025325,0.0,0.0
6.813956834532375,-0.2,-0.09796163069544313,-0.002038369304556881
6.821954436450841,-0.2,-0.08963079536370795,-0.01036920463629205
6.8299520383693055,-0.2,-0.0812999600319737,-0.018700039968026293
6.837949640287771,-0.2,-0.07296912470023854,-0.027030875299761465
6.845947242206236,-0.2,-0.0646382893685043,-0.03536171063149571
6.853944844124701,-0.2,-0.05630745403677005,-0.04369254596322995
6.861942446043167,-0.2,-0.04797661870503488,-0.05202338129496512
6.869940047961632,-0.2,-0.03964578337330064,-0.06035421662669937
6.8779376498800975,-0.2,-0.03131494804156547,-0.06868505195843454
6.885935251798562,-0.2,-0.022984112709831223,-0.07701588729016878
6.893932853717027,-0.2,-0.014653277378096977,-0.08534672262190303
6.901930455635493,-0.2,-0.006322442046361815,-0.09367755795363819
6.909928057553958,-0.09337101747172809,0.0,0.0
6.917925659472424,-0.036245289482687834,0.0,0.0
6.9259232613908885,-0.2,0.0,0.0
6.933920863309353,-0.2,0.0,0.0
6.941918465227819,-0.2,0.0,0.0
6.949916067146284,-0.2,0.0,0.0
6.95791366906475,-0.2,0.0,0.0
6.965911270983215,-0.2,0.0,0.0
6.97390887290168,-0.2,0.0,0.0
6.981906474820145,-0.2,0.0,0.0
6.98990407673861,-0.2,0.0,0.0
6.997901678657076,-0.2,0.0,0.0
7.005899280575541,0.09748201438851709,0.0,0.0
7.013896882494006,0.006103435835403611,0.0,0.0
7.0218944844124715,0.013180959657054707,0.0,0.0
7.029892086330936,0.020258483478705017,0.0,0.0
7.037889688249401,0.027336007300355326,0.0,0.0
7.045887290167867,0.03441353112200642,0.0,0.0
7.053884892086332,0.04149105494365673,0.0,0.0
7.061882494004798,0.048568578765307825,0.0,0.0
7.069880095923263,0.05564610258695814,0.0,0.0
7.0778776978417275,0.06272362640860844,0.0,0.0
7.085875299760193,0.06980115023025954,0.0,0.0
7.093872901678658,0.07687867405190985,0.0,0.0
7.101870503597124,0.08395619787356094,0.0,0.0
7.109868105515589,0.09103372169521126,0.0,0.0
7.117865707434054,0.09811124551686157,0.0,0.0
7.125863309352519,0.07841726618701171,0.039208633093505856,0.0
7.133860911270984,0.0961854516386879,0.0961854516386879,0.0
7.14185851318945,0.08552198241406689,0.08552198241406689,0.0
7.149856115107915,0.07485851318944708,0.07485851318944708,0.0
7.15785371702638,0.06419504396482727,0.06419504396482727,0.0
7.165851318944846,0.05353157474020626,0.05353157474020626,0.0
7.1738489208633105,0.04286810551558645,0.04286810551558645,0.0
7.181846522781776,0.032204636290965455,0.032204636290965455,0.0
7.189844124700241,0.021541167066345637,0.021541167066345637,0.0
7.197841726618706,0.01087769784172582,0.01087769784172582,0.0
7.205839328537172,0.00021422861710482244,0.00021422861710482244,0.0
7.213836930455637,-0.08707700506263052,0.0,0.0
7.221834532374102,0.07165467625898689,0.07165467625898689,-0.02834532374101311
7.229832134292567,-0.16642685851339095,0.0,-0.1
7.237829736211032,-0.1875718472840765,0.0,-0.1
7.245827338129498,-0.1748772410642895,0.0,-0.1
7.253824940047963,-0.16218263484450393,0.0,-0.1
7.261822541966428,-0.14948802862471833,0.0,-0.1
7.2698201438848935,-0.13679342240493136,0.0,-0.1
7.277817745803358,-0.12409881618514577,0.0,-0.1
7.285815347721824,-0.11140420996535878,0.0,-0.1
7.293812949640289,-0.04580335731407641,0.0270983213429618,-0.1
7.301810551558754,0.1,0.09446614137261555,-0.1
7.30980815347722,0.1,0.08684937764074335,-0.1
7.317805755395685,0.1,0.07923261390887201,-0.1
7.32580335731415,0.1,0.07161585017699981,-0.1
7.333800959232615,0.1,0.06399908644512847,-0.1
7.34179856115108,0.1,0.05638232271325711,-0.1
7.349796163069546,0.1,0.04876555898138492,-0.1
7.357793764988011,0.1,0.04114879524951357,-0.1
7.3657913669064765,0.1,0.03353203151764138,-0.1
7.373788968824941,0.1,0.025915267785770024,-0.1
7.381786570743406,0.1,0.01829850405389867,-0.1
7.389784172661872,0.1,0.010681740322026484,-0.1
7.397781774580337,0.1,0.00306497659015513,-0.1
7.405779376498803,0.2,0.11862509992018058,-0.1593125499600903
7.413776978417268,0.19279044849226862,0.2072095515077314,-0.2072095515077314
7.4217745803357325,0.18428236134496556,0.21571763865503446,-0.21571763865503446
7.429772182254198,0.1757742741976616,0.22422572580233843,-0.22422572580233843
7.437769784172663,0.16726618705035856,0.23273381294964146,-0.23273381294964146
7.445767386091128,0.1587580999030555,0.2412419000969445,-0.2412419000969445
7.453764988009594,0.15025001275575153,0.24974998724424846,-0.24974998724424846
7.461762589928059,0.1417419256084485,0.2582580743915515,-0.2582580743915515
7.469760191846524,0.1332338384611445,0.26676616153885546,-0.26676616153885546
7.477757793764989,0.12472575131384148,0.2752742486861585,-0.2752742486861585
7.485755395683454,0.11621766416653843,0.2837823358334616,-0.2837823358334616
7.49375299760192,0.10770957701923445,0.2922904229807655,-0.2922904229807655
7.501750599520385,-0.050119904076911775,0.3750599520384559,-0.33752997601922796
7.509748201438851,-0.6748201438850505,1.0330935251800675,-0.26690647481993257
7.5177458033573155,-0.8503418160993681,1.2,-0.12013672643974724
7.52574340527578,-0.9100254125058223,1.2,-0.1440101650023289
7.533741007194246,-0.9697090089122831,1.2,-0.16788360356491322
7.541738609112711,-1.0293926053187372,1.2,-0.1917570421274949
7.549736211031177,-1.089076201725198,1.2,-0.21563048069007923
7.557733812949642,-1.1487597981316522,1.2,-0.23950391925266087
7.5657314148681065,-1.2084433945381066,1.2,-0.2633773578152425
7.573729016786572,-1.2681269909445674,1.2,-0.2872507963778269
7.581726618705037,-0.18201438848884666,1.2739979445015934,-0.12600205549840665
7.589724220623503,2.266797471114643,1.6981251362547753,0.05046871593630613
7.597721822541968,4.811488990626168,2.279768912143124,-0.09494222803578103
7.605719424460433,4.911187571681787,2.2664372849546397,-0.1335627150453602
7.6137170263788985,4.922778299099853,2.2316651027004406,-0.1683348972995592
7.621714628297363,4.934369026517919,2.1968929204462455,-0.20310707955375437
7.629712230215829,4.945959753935985,2.1621207381920464,-0.2378792618079534
7.637709832134294,4.957550481354049,2.1273485559378513,-0.2726514440621486
7.645707434052759,4.969141208772115,2.0925763736836562,-0.30742362631634373
7.653705035971225,4.980731936190181,2.057804191429457,-0.34219580857054277
7.6617026378896895,4.992322663608246,2.023032009175262,-0.376967990824738
7.669700239808154,6.412086330935546,1.8360191846523435,-0.2659952038369141
7.67769784172662,7.658117629607672,2.1,-0.22905881480383602
7.685695443645085,7.757057034784557,2.1,-0.27852851739227885
7.693693045563551,7.855996439961454,2.1,-0.3279982199807271
7.701690647482016,7.95493584513834,2.1,-0.37746792256916994
7.709688249400481,8.053875250315226,2.1,-0.42693762515761274
7.717685851318946,8.152814655492122,2.1,-0.47640732774606104
7.725683453237411,8.251754060669008,2.1,-0.5258770303345038
7.733681055155877,8.350693465845904,2.1,-0.5753467329229521
7.741678657074342,8.449632871022791,2.1,-0.624816435511395
7.749676258992807,8.548572276199677,2.1,-0.6742861380998377
7.7576738609112725,8.647511681376573,2.1,-0.723755840688286
7.765671462829737,8.746451086553458,2.1,-0.7732255432767288
7.773669064748203,9.406690647482035,1.273237410071862,-1.1200719424461036
7.781666666666668,9.486666666666679,0.9533333333332884,-1.3600000000000336
7.789664268585133,9.440497601918459,0.8464478417266128,-1.4
7.797661870503599,9.369090441932157,0.782181397738941,-1.4
7.805659472422064,9.297683281945863,0.7179149537512763,-1.4
7.813657074340529,9.226276121959561,0.6536485097636044,-1.4
7.821654676258994,9.154868961973266,0.5893820657759399,-1.4
7.829652278177459,9.083461801986973,0.5251156217882751,-1.4
7.837649880095925,9.01205464200067,0.4608491778006033,-1.4
7.84564748201439,8.940647482014377,0.3965827338129386,-1.4
7.8536450839328555,8.869240322028075,0.33231628982526684,-1.4
7.86164268585132,8.79783316204178,0.26804984583760216,-1.4
7.869640287769785,8.726426002055486,0.20378340184993748,-1.4
7.877637889688251,8.655018842069184,0.1395169578622657,-1.4
7.885635491606716,8.583611682082891,0.07525051387460102,-1.4
7.893633093525181,8.512204522096596,0.010984069886936343,-1.4
7.901630695443647,5.037553956834199,-0.3636930455635333,-1.4363069544364666
7.9096282973621115,3.6742051903031903,-0.2983878243939494,-1.4983878243939495
7.917625899280577,3.547510506446307,-0.29046940665289417,-1.490469406652894
7.925623501199042,3.4208158225894376,-0.28255098891183983,-1.4825509889118398
7.933621103117507,3.294121138732568,-0.2746325711707855,-1.4746325711707855
7.941618705035973,3.1674264548756845,-0.26671415342973026,-1.4667141534297303
7.949616306954438,3.040731771018815,-0.2587957356886759,-1.4587957356886758
7.957613908872903,2.9140370871619314,-0.2508773179476207,-1.4508773179476206
7.965611510791368,2.787342403305062,-0.24295890020656638,-1.4429589002065664
7.973609112709833,2.6606477194481926,-0.23504048246551204,-1.435040482465512
7.981606714628299,2.5339530355913094,-0.22712206472445684,-1.4271220647244567
7.989604316546764,2.40725835173444,-0.2192036469834025,-1.4192036469834024
7.99760191846523,2.2805636678775563,-0.21128522924234727,-1.4112852292423472
8.005599520383694,2.153868984020701,-0.20336681150129382,-1.4033668115012938
8.01359712230216,1.9686536485097106,-0.2,-1.4
8.021594724220625,1.1056463919772657,-0.2,-1.3
8.02959232613909,0.814824504033068,-0.2,-1.3
8.037589928057555,0.8111616589081697,-0.2,-1.2888383410918303
8.04558752997602,0.8229228382000296,-0.2,-1.2770771617999706
8.053585131894486,0.8346840174918921,-0.2,-1.265315982508108
8.061582733812951,0.846445196783752,-0.2,-1.253554803216248
8.069580335731416,0.8582063760756118,-0.2,-1.241793623924388
8.077577937649881,0.8699675553674717,-0.2,-1.2300324446325284
8.085575539568346,0.8817287346593315,-0.2,-1.2182712653406684
8.093573141486813,0.893489913951194,-0.2,-1.2065100860488058
8.101570743405277,0.9,-0.12146282973613362,-1.1214628297361338
8.109568345323742,0.20971988366753613,0.004859941833768064,-0.7097198836675361
8.117565947242207,0.22673605796214238,0.013368028981071181,-0.7267360579621424
8.125563549160672,0.2437522322567486,0.0218761161283743,-0.7437522322567486
8.133561151079139,0.26076840655135863,0.030384203275679308,-0.7607684065513586
8.141558752997604,0.27778458084596486,0.03889229042298242,-0.7777845808459648
8.149556354916069,0.2948007551405711,0.04740037757028554,-0.794800755140571
8.157553956834533,0.31181692943517736,0.05590846471758866,-0.8118169294351772
8.165551558752998,0.3288331037297836,0.06441655186489177,-0.8288331037297836
8.173549160671465,0.3458492780243936,0.07292463901219678,-0.8458492780243936
8.18154676258993,0.3628654523189998,0.0814327261594999,-0.8628654523189998
8.189544364508395,0.379881626613606,0.08994081330680302,-0.879881626613606
8.19754196642686,0.39689780090821225,0.09844890045410613,-0.8968978009082123
8.205539568345324,0.3769784172662072,0.1884892086331036,-0.5787769784172411
8.213537170263791,0.6083227535618596,0.3041613767809298,-0.3
8.221534772182256,0.627140640428836,0.313570320214418,-0.3
8.229532374100721,0.6459585272958124,0.3229792636479062,-0.3
8.237529976019186,0.6647764141627888,0.3323882070813944,-0.3
8.24552757793765,0.6835943010297652,0.3417971505148826,-0.3
8.253525179856117,0.7024121878967458,0.3512060939483729,-0.3
8.261522781774582,0.7212300747637221,0.36061503738186107,-0.3
8.269520383693047,0.7400479616306985,0.37002398081534926,-0.3
8.277517985611512,0.758865848497675,0.3794329242488375,-0.3
8.285515587529977,0.7776837353646514,0.3888418676823257,-0.3
8.293513189448444,0.7965016222316319,0.39825081111581595,-0.3
8.301510791366908,0.5,0.2,0.0005159508756648843
8.309508393285373,0.5,0.2,0.00859433665189202
8.317505995203838,0.5,0.2,0.01667272242811916
8.325503597122303,0.5,0.2,0.024751108204346294
8.33350119904077,0.5,0.2,0.032829493980575226
8.341498800959235,0.5,0.2,0.040907879756802365
8.3494964028777,0.5,0.2,0.0489862655330295
8.357494004796164,0.5,0.2,0.057064651309256635
8.36549160671463,0.5,0.2,0.06514303708548377
8.373489208633096,0.5,0.2,0.0732214228617127
8.38148681055156,0.5,0.2,0.08129980863793984
8.389484412470026,0.5,0.2,0.08937819441416697
8.39748201438849,0.5,0.2,0.09745658019039412
8.405479616306955,0.6,0.16266986410870482,0.2373301358912952
8.41347721822542,0.552278177458,0.1,0.2681854516386667
8.421474820143887,0.289471499723295,0.089471499723295,0.1
8.429472422062352,0.27409149603393934,0.07409149603393934,0.1
8.437470023980817,0.2587114923445837,0.058711492344583685,0.1
8.445467625899282,0.24333148865522802,0.043331488655228026,0.1
8.453465227817746,0.22795148496587236,0.027951484965872367,0.1
8.461462829736213,0.21257148127651332,0.012571481276513294,0.1
8.469460431654678,-0.04604316546784187,-0.12302158273392094,-0.12302158273392094
8.477458033573143,-0.2060355453954606,-0.2,-0.2
8.485455635491608,-0.21350993971178295,-0.2,-0.2
8.493453237410073,-0.22098433402810533,-0.2,-0.2
8.50145083932854,-0.22845872834442935,-0.2,-0.2
8.509448441247004,-0.23593312266075173,-0.2,-0.2
8.517446043165469,-0.24340751697707408,-0.2,-0.2
8.525443645083934,-0.25088191129339643,-0.2,-0.2
8.533441247002399,-0.2583563056097188,-0.2,-0.2
8.541438848920865,-0.2658306999260428,-0.2,-0.2
8.54943645083933,-0.2733050942423652,-0.2,-0.2
8.557434052757795,-0.28077948855868756,-0.2,-0.2
8.56543165467626,-0.2882538828750099,-0.2,-0.2
8.573429256594725,-0.2957282771913323,-0.2,-0.2
8.581426858513192,-0.2,-0.21707434052768254,-0.1
8.589424460431657,-0.1879136690647426,-0.40402877697841916,-0.1
8.597422062350121,-0.159686838764278,-0.41343772041190735,-0.1
8.605419664268586,-0.1314600084638134,-0.42284666384539554,-0.1
8.613417266187051,-0.10323317816334882,-0.43225560727888374,-0.1
8.621414868105518,-0.07500634786287795,-0.44166455071237404,-0.1
8.629412470023983,-0.04677951756241336,-0.45107349414586223,-0.1
8.637410071942448,-0.018552687261948753,-0.4604824375793504,-0.1
8.645407673860912,0.009674143038515853,-0.4698913810128386,-0.1
8.653405275779377,0.03790097333898043,-0.4793003244463268,-0.1
8.661402877697844,0.06612780363945131,-0.48870926787981706,-0.1
8.669400479616309,0.09435463393991589,-0.49811821131330525,-0.1
8.677398081534774,-0.0010672378128042804,0.0,-0.09893276218719572
8.685395683453239,-0.007172277445220209,0.0,-0.09282772255477979
8.693393285371704,-0.013277317077636139,0.0,-0.08672268292236386
8.70139088729017,-0.019382356710053422,0.0,-0.08061764328994658
8.709388489208635,-0.025487396342469354,0.0,-0.07451260365753065
8.7173860911271,-0.03159243597488528,0.0,-0.06840756402511472
8.725383693045565,-0.03769747560730121,0.0,-0.062302524392698795
8.73338129496403,-0.04380251523971714,0.0,-0.05619748476028286
8.741378896882496,-0.04990755487213443,0.0,-0.05009244512786558
8.749376498800961,-0.05601259450455035,0.0,-0.043987405495449654
8.757374100719426,-0.062117634136966283,0.0,-0.03788236586303372
8.765371702637891,-0.06822267376938221,0.0,-0.0317773262306178
8.773369304556356,-0.07432771340179814,0.0,-0.025672286598201866
8.781366906474823,-0.08043275303421543,0.0,-0.019567246965784574
8.789364508393287,-0.08653779266663135,0.0,-0.013462207333368656
8.797362110311752,-0.09264283229904728,0.0,-0.007357167700952724
8.805359712230217,-0.09874787193146321,0.0,-0.0012521280685367925
8.813357314148682,0.0,-0.03351780114371403,0.0
8.821354916067149,0.0,-0.09503781590115032,0.0
8.829352517985614,0.01221638074156395,-0.1,0.0
8.837350119904078,0.027596384430919607,-0.1,0.0
8.845347721822543,0.042976388120275266,-0.1,0.0
8.853345323741008,0.058356391809630925,-0.1,0.0
8.861342925659473,0.07373639549898658,-0.1,0.0
8.86934052757794,0.08911639918834566,-0.1,0.0
8.877338129496405,0.1,-0.13309352517976156,0.06690647482023845
8.88533573141487,0.1,-0.09444194644284505,0.09444194644284505
8.893333333333334,0.1,-0.0861111111111108,0.0861111111111108
8.9013309352518,0.1,-0.07778027577937656,0.07778027577937656
8.909328537170266,0.1,-0.06944944044764047,0.06944944044764047
8.91732613908873,0.1,-0.06111860511590622,0.06111860511590622
8.925323741007196,0.1,-0.05278776978417198,0.05278776978417198
8.93332134292566,0.1,-0.04445693445243774,0.04445693445243774
8.941318944844125,0.1,-0.0361260991207035,0.0361260991207035
8.949316546762592,0.1,-0.027795263788967392,0.027795263788967392
8.957314148681057,0.1,-0.01946442845723316,0.01946442845723316
8.965311750599522,0.1,-0.011133593125498914,0.011133593125498914
8.973309352517987,0.1,-0.002802757793764668,0.002802757793764668
8.981306954436452,0.00032310993310714475,0.00032310993310714475,-0.2
8.989304556354918,0.008741638268335149,0.008741638268335149,-0.2
8.997302158273383,0.017160166603561285,0.017160166603561285,-0.2
9.005299760191848,0.02557869493878742,0.02557869493878742,-0.2
9.013297362110313,0.033997223274013555,0.033997223274013555,-0.2
9.021294964028778,0.04241575160923969,0.04241575160923969,-0.2
9.029292565947244,0.050834279944467695,0.050834279944467695,-0.2
9.03729016786571,0.05925280827969383,0.05925280827969383,-0.2
9.045287769784174,0.06767133661491996,0.06767133661491996,-0.2
9.05328537170264,0.0760898649501461,0.0760898649501461,-0.2
9.061282973621104,0.08450839328537223,0.08450839328537223,-0.2
9.06928057553957,0.09292692162060023,0.09292692162060023,-0.2
9.077278177458036,-0.027817745803575405,0.1,-0.2639088729017877
9.0852757793765,-0.76369621284103,0.6919324917424511,0.0
9.093273381294965,-0.6957920456087808,0.6768426768019512,0.0
9.10127098321343,-0.6278878783765318,0.6617528618614514,0.0
9.109268585131897,-0.5599837111442676,0.6466630469209483,0.0
9.117266187050362,-0.4920795439120185,0.6315732319804486,0.0
9.125263788968827,-0.42417537667976946,0.6164834170399487,0.0
9.133261390887291,-0.3562712094475204,0.6013936020994489,0.0
9.141258992805756,-0.2883670422152713,0.5863037871589492,0.0
9.149256594724223,-0.2204628749830072,0.571213972218446,0.0
9.157254196642688,-0.15255870775075808,0.5561241572779463,0.0
9.165251798561153,-0.08465454051850896,0.5410343423374464,0.0
9.173249400479618,-0.016750373286259945,0.5259445273969466,0.0
9.181247002398083,0.05115379394598918,0.5108547124564469,0.0
9.18924460431655,0.1612164813604442,0.5612164813604442,-0.04081098757362944
9.197242206235014,0.37933289731855735,0.7793328973185574,-0.18622193154570485
9.205239808153479,0.1868300481565893,0.5920980288939536,-0.1
9.213237410071944,0.15431947125226034,0.5725916827513562,-0.1
9.221235011990409,0.12180889434793139,0.5530853366087588,-0.1
9.229232613908875,0.0892983174435952,0.5335789904661571,-0.1
9.23723021582734,0.056787740539266246,0.5140726443235597,-0.1
9.245227817745805,0.024277163634937288,0.4945662981809623,-0.1
9.25322541966427,-0.00823341326939167,0.47505995203836493,-0.1
9.261223021582735,-0.0407439901737206,0.4555536058957676,-0.1
9.2692206235012,-0.07325456707804956,0.4360472597531702,-0.1
9.277218225419666,-0.10576514398238573,0.4165409136105685,-0.1
9.285215827338131,-0.1382757208867147,0.39703456746797117,-0.1
9.293213429256596,-0.17078629779104365,0.3775282213253738,-0.1
9.301211031175061,-0.2032968746953726,0.3580218751827764,-0.1
9.309208633093526,-0.23580745159970157,0.338515529040179,-0.1
9.317206235011993,-0.26831802850403774,0.3190091828975773,-0.1
9.325203836930458,-0.2184652278167379,0.31019184652290777,-0.07961630695418448
9.333201438848922,0.3803993539861897,0.5673322566436494,0.013067097342540227
9.341199040767387,0.33143444428130214,0.4857240738021702,0.04571037047913192
9.349196642685852,0.2824695345764146,0.404115890960691,0.07835364361572361
9.357194244604319,0.2335046248715162,0.3225077081191936,0.11099691675232255
9.365191846522784,0.18453971516662865,0.2408995252777144,0.14364018988891425
9.373189448441249,0.1355748054617411,0.15929134243623516,0.17628346302550593
9.381187050359713,0.2,0.1,0.1
9.389184652278178,0.19965485555480564,0.09948228333220846,0.20017257222259718
9.397182254196645,0.18470606692215785,0.07705910038323674,0.2076469665389211
9.40517985611511,0.16975727828951337,0.054635917434270015,0.21512136085524333
9.413177458033575,0.1548084896568689,0.03221273448530329,0.22259575517156557
9.42117505995204,0.1398597010242244,0.009789551536336552,0.23007014948788782
9.429172661870505,0.1249109123915799,-0.012633631412630172,0.23754454380421006
9.437170263788971,0.1099621237589321,-0.03505681436160188,0.24501893812053396
9.445167865707436,0.09501333512628762,-0.057479997310568604,0.2524933324368562
9.453165467625901,0.08006454649364314,-0.07990318025953536,0.2599677267531784
9.461163069544366,0.06511575786099866,-0.10232636320850208,0.26744212106950066
9.46916067146283,0.050166969228354175,-0.1247495461574688,0.2749165153858229
9.477158273381297,0.03521818059570636,-0.14717272910644053,0.2823909097021468
9.485155875299762,0.020269391963061878,-0.16959591205540722,0.28986530401846905
9.493153477218227,0.005320603330417395,-0.19201909500437395,0.2973396983347913
9.501151079136692,-0.799881969424459,-0.5998819694244589,-0.2997639388489179
9.509148681055157,-0.7936338429256583,-0.5936338429256582,-0.2872676858513165
9.517146282973624,-0.7873857164268563,-0.5873857164268562,-0.27477143285371236
9.525143884892088,-0.7811375899280555,-0.5811375899280555,-0.26227517985611104
9.533141486810553,-0.7748894634292549,-0.5748894634292548,-0.24977892685850966
9.541139088729018,-0.7686413369304541,-0.5686413369304542,-0.2372826738609083
9.549136690647483,-0.7623932104316535,-0.5623932104316535,-0.2247864208633069
9.55713429256595,-0.7561450839328514,-0.5561450839328513,-0.2122901678657028
9.565131894484415,-0.7498969574340507,-0.5498969574340506,-0.19979391486810144
9.57312949640288,-0.74364883093525,-0.5436488309352501,-0.18729766187050007
9.581127098321344,-0.7374007044364493,-0.5374007044364494,-0.1748014088728987
9.58912470023981,-0.7311525779376487,-0.5311525779376487,-0.16230515587529734
9.597122302158276,-0.7249044514388465,-0.5249044514388466,-0.1498089028776932
9.60511990407674,-0.7186563249400459,-0.5186563249400459,-0.13731264988009184
9.613117505995206,-0.7124081984412451,-0.5124081984412452,-0.12481639688249047
9.62111510791367,-0.7061600719424446,-0.5061600719424446,-0.11232014388488912
9.629112709832135,-0.6605515587524661,-0.5112709832135811,-0.11690647482037168
9.637110311750602,0.48085961999629695,-0.009570190001851532,-0.19521490499907423
9.645107913669067,0.43164360819035885,-0.03417819590482059,-0.18291090204758972
9.653105515587532,0.3824275963844207,-0.05878620180778964,-0.17060689909610519
9.661103117505997,0.33321158457848266,-0.08339420771075869,-0.15830289614462068
9.669100719424462,0.2839955727725445,-0.10800221361372775,-0.14599889319313614
9.677098321342928,0.23477956096659547,-0.13261021951670227,-0.13369489024164888
9.685095923261393,0.18556354916065737,-0.15721822541967131,-0.12139088729016435
9.693093525179858,0.13634753735471927,-0.18182623132264036,-0.10908688433867983
9.701091127098323,-0.0454436450838384,0.0,0.1454436450838384
9.709088729016788,0.1,-0.1,-0.006547020448159533
9.717086330935253,0.1,-0.1,-0.015146592403498117
9.72508393285372,0.1,-0.1,-0.023746164358838612
9.733081534772184,0.1,-0.1,-0.0323457363141772
9.741079136690649,0.1,-0.1,-0.04094530826951578
9.749076738609114,0.1,-0.1,-0.049544880224854364
9.757074340527579,0.1,-0.1,-0.05814445218019295
9.765071942446045,0.1,-0.1,-0.06674402413553344
9.77306954436451,0.1,-0.1,-0.07534359609087203
9.781067146282975,0.1,-0.1,-0.08394316804621062
9.78906474820144,0.1,-0.1,-0.09254274000154919
9.797062350119905,0.0031175059952221543,-0.10935251798566648,-0.20935251798566648
9.805059952038372,-0.18090584136463791,-0.27613230170579733,-0.46658522238811634
9.813057553956837,-0.15072621148363832,-0.23840776435454789,-0.41377087009636704
9.821055155875301,-0.12054658160263873,-0.20068322700329838,-0.3609565178046178
9.829052757793766,-0.09036695172163914,-0.1629586896520489,-0.3081421655128685
9.837050359712231,-0.060187321840639546,-0.12523415230079943,-0.2553278132211192
9.845047961630698,-0.030007691959633265,-0.08750961494954157,-0.20251346092935824
9.853045563549163,0.00017193792136632746,-0.04978507759829209,-0.14969910863760894
9.861043165467628,0.03035156780236592,-0.012060540247042617,-0.09688475634585969
9.869040767386092,0.06053119768336551,0.02566399710420686,-0.04407040405411039
9.877038369304557,0.0907108275643651,0.06338853445545634,0.00874394823763891
9.885035971223024,0.12089045744537141,0.1011130718067142,0.06155830052939992
9.893033573141489,0.151070087326371,0.13883760915796367,0.11437265282114917
9.901031175059954,0.18124971720737054,0.1765621465092132,0.1671870051128984
9.909028776978419,-0.1996802557953559,0.10031974420464412,-0.09936051159071177
9.917026378896884,-0.11081801225684304,0.18918198774315698,0.07836397548631394
9.92502398081535,-0.10856583026262302,0.18286833947475398,0.09143416973737699
9.933021582733815,-0.11831900333392158,0.16336199333215687,0.08168099666607843
9.94101918465228,-0.12807217640522012,0.1438556471895598,0.0719278235947799
9.949016786570745,-0.13782534947651867,0.12434930104696269,0.062174650523481347
9.95701438848921,-0.14757852254781723,0.1048429549043656,0.0524214774521828
9.965011990407676,-0.15733169561911792,0.08533660876176416,0.04266830438088208
9.973009592326141,-0.16708486869041647,0.06583026261916708,0.03291513130958354
9.981007194244606,-0.17683804176171503,0.04632391647656997,0.023161958238284985
9.989004796163071,-0.18659121483301355,0.02681757033397289,0.013408785166986445
9.997002398081536,-0.19634438790431213,0.007311224191375781,0.0036556120956878907
10.005,-0.1,0.0,0.1
