accel_time_list,vertical_Accel_x,vertical_Accel_y,vertical_Accel_z
0.0,1.185,-3.217,9.528
0.007998420221169035,-0.15705121994031948,-2.077458522029138,9.515598630858346
0.01599684044233807,-0.06649132876952787,-2.118694821836054,9.522530595050027
0.023995260663507108,0.02406856240126376,-2.1599311216429697,9.529462559241706
0.03199368088467614,0.11462845357205537,-2.2011674214498855,9.536394523433385
0.039992101105845175,0.20518834474284703,-2.2424037212568018,9.543326487625066
0.047990521327014216,0.2957482359136387,-2.2836400210637176,9.550258451816745
0.05598894154818325,0.38630812708443035,-2.3248763208706333,9.557190416008424
0.06398736176935228,0.4768680182552219,-2.3661126206775496,9.564122380200105
0.07198578199052132,0.5674279094260135,-2.4073489204844654,9.571054344391785
0.07998420221169035,0.657987800596805,-2.448585220291381,9.577986308583464
0.08798262243285938,0.7485476917675966,-2.489821520098297,9.584918272775145
0.09598104265402843,0.6940876777251195,-2.5382630331753555,9.439919431279622
0.10397946287519746,0.24284597156398102,-2.4071208530805683,8.965304107424961
0.1119778830963665,0.26324495065314507,-2.433619918802765,8.981499872598482
0.11997630331753553,0.28354201702084286,-2.45830321561433,8.99904479437395
0.12797472353870457,0.3038390833885406,-2.4829865124258945,9.016589716149417
0.1359731437598736,0.3241361497562384,-2.507669809237459,9.034134637924884
0.14397156398104263,0.3444332161239361,-2.532353106049024,9.051679559700352
0.15196998420221167,0.36473028249163386,-2.5570364028605885,9.06922448147582
0.1599684044233807,0.38502734885933165,-2.581719699672153,9.086769403251287
0.16796682464454973,0.40532441522702944,-2.606402996483718,9.104314325026754
0.17596524486571877,0.4256214815947271,-2.6310862932952825,9.121859246802222
0.1839636650868878,0.4459185479624249,-2.655769590106847,9.13940416857769
0.19196208530805686,0.46621561433012276,-2.6804528869184123,9.156949090353157
0.1999605055292259,0.7843791469194286,-2.597052132701421,9.529063191153236
0.20795892575039493,0.5766495099288251,-2.703622127095755,9.309762319726852
0.21595734597156396,0.5506761453396525,-2.6829810426540286,9.330919431279622
0.223955766192733,0.5247027807504799,-2.6623399582123017,9.35207654283239
0.23195418641390203,0.4987294161613074,-2.6416988737705753,9.37323365438516
0.23995260663507106,0.4727560515721348,-2.621057789328849,9.39439076593793
0.2479510268562401,0.4467826869829622,-2.6004167048871225,9.415547877490699
0.25594944707740913,0.42080932239378965,-2.5797756204453957,9.436704989043468
0.26394786729857816,0.3948359578046171,-2.5591345360036692,9.45786210059624
0.2719462875197472,0.3688625932154445,-2.538493451561943,9.479019212149009
0.27994470774091623,0.34288922862627197,-2.5178523671202164,9.500176323701778
0.28794312796208527,0.31691586403709937,-2.4972112826784896,9.521333435254547
0.2959415481832543,0.3796808846761426,-2.514778830963664,9.528701421800948
0.30393996840442333,0.5561216429699863,-2.4103996840442337,9.627178515007898
0.31193838862559237,0.5408790195179127,-2.4102317688426846,9.607465219385416
0.3199368088467614,0.5286663778898912,-2.40945772817612,9.584760026499517
0.32793522906793043,0.5164537362618696,-2.408683687509555,9.562054833613617
0.33593364928909947,0.5042410946338481,-2.4079096468429904,9.539349640727718
0.3439320695102685,0.4920284530058266,-2.4071356061764257,9.516644447841818
0.35193048973143753,0.47981581137780505,-2.406361565509861,9.493939254955919
0.35992890995260657,0.46760316974978355,-2.405587524843296,9.471234062070021
0.3679273301737756,0.455390528121762,-2.4048134841767315,9.448528869184122
0.37592575039494464,0.44317788649374046,-2.404039443510167,9.425823676298222
0.3839241706161137,0.43096524486571886,-2.4032654028436022,9.403118483412323
0.39192259083728276,0.41875260323769725,-2.402491362177037,9.380413290526423
0.3999210110584518,0.5777614533965225,-2.5227298578198973,9.420210110584517
0.4079194312796208,0.6869523104265405,-2.508289395734597,9.457737460505529
0.41591785150078986,0.6544587282780412,-2.516787717219589,9.446572998946813
0.4239162717219589,0.621965146129542,-2.5252860387045812,9.4354085373881
0.4319146919431279,0.5894715639810428,-2.533784360189573,9.424244075829384
0.43991311216429696,0.5569779818325437,-2.5422826816745654,9.413079614270668
0.447911532385466,0.5244843996840445,-2.5507810031595577,9.401915152711954
0.455909952606635,0.4919908175355452,-2.5592793246445495,9.390750691153238
0.46390837282780406,0.459497235387046,-2.567777646129542,9.379586229594524
0.4719067930489731,0.42700365323854683,-2.5762759676145337,9.368421768035809
0.47990521327014213,0.3945100710900476,-2.584774289099526,9.357257306477093
0.48790363349131116,0.3620164889415484,-2.5932726105845183,9.34609284491838
0.4959020537124802,0.3295229067930492,-2.60177093206951,9.334928383359664
0.5039004739336492,0.5422432187153374,-2.608080367046486,9.363348593324595
0.5118988941548183,0.5355211421464826,-2.5999117676716748,9.35756250210077
0.5198973143759873,0.5287990655776277,-2.591743168296864,9.351776410876946
0.5278957345971563,0.5220769890087729,-2.583574568922053,9.345990319653122
0.5358941548183254,0.515354912439918,-2.575405969547242,9.340204228429297
0.5438925750394944,0.5086328358710632,-2.5672373701724314,9.334418137205473
0.5518909952606634,0.5019107593022084,-2.5590687707976203,9.328632045981648
0.5598894154818325,0.4951886827333536,-2.5509001714228092,9.322845954757824
0.5678878357030015,0.4884666061644988,-2.542731572047998,9.317059863533999
0.5758862559241705,0.48174452959564396,-2.5345629726731875,9.311273772310175
0.5838846761453396,0.4750224530267891,-2.5263943732983765,9.30548768108635
0.5918830963665086,0.46830037645793426,-2.5182257739235654,9.299701589862526
0.5998815165876776,0.2977488151658755,-2.4042654028436043,9.346563981042651
0.6078799368088467,0.26750933732435384,-2.3959589756381474,9.246746453812255
0.6158783570300157,0.23147434938056072,-2.41902810343394,9.255923588592333
0.6238767772511847,0.1954393614367676,-2.442097231229733,9.265100723372413
0.6318751974723538,0.15940437349297445,-2.4651663590255257,9.274277858152491
0.6398736176935228,0.12336938554918131,-2.4882354868213183,9.283454992932569
0.6478720379146918,0.08733439760538819,-2.5113046146171114,9.292632127712647
0.6558704581358609,0.05129940966159505,-2.534373742412904,9.301809262492725
0.6638688783570299,0.015264421717801901,-2.557442870208697,9.310986397272803
0.6718672985781989,-0.020770566225991216,-2.5805119980044897,9.32016353205288
0.679865718799368,-0.056805554169784334,-2.6035811258002823,9.329340666832959
0.687864139020537,-0.09284054211357745,-2.6266502535960754,9.338517801613037
0.695862559241706,-0.12887553005737062,-2.649719381391868,9.347694936393115
0.7038609794628751,-0.6247908947292786,-2.7527121930202547,9.113662789027718
0.7118593996840441,-0.9878647635842632,-2.355817553914543,9.172739961056616
0.7198578199052131,-0.7911594290752808,-2.5216452661743616,9.040021988316985
0.7278562401263822,-0.5944540945662983,-2.6874729784341795,8.907304015577356
0.7358546603475512,-0.39774876005731585,-2.853300690693998,8.774586042837726
0.7438530805687202,-0.20104342554833332,-3.0191284029538163,8.641868070098095
0.7518515007898893,-0.0043380910393509,-3.1849561152136348,8.509150097358464
0.7598499210110583,0.19236724346963174,-3.350783827473453,8.376432124618834
0.7678483412322274,0.38907257797861683,-3.516611539733274,8.243714151879203
0.7758467614533965,0.5857779124875995,-3.682439251993092,8.110996179139573
0.7838451816745655,0.7824832469965819,-3.84826696425291,7.978278206399942
0.7918436018957346,0.9791885815055643,-4.0140946765127286,7.845560233660311
0.7998420221169036,1.5589921011058363,-2.533009478672937,8.178745655608225
0.8078404423380726,0.06581875779496166,-2.035161370250268,7.729179047143929
0.8158388625592417,0.03955026191070125,-2.1969820404090776,7.456895984035922
0.8238372827804107,0.013281766026440836,-2.358802710567887,7.184612920927916
0.8318357030015797,-0.012986729857819568,-2.5206233807266964,6.912329857819908
0.8398341232227488,-0.039255225742079985,-2.682444050885506,6.6400467947119015
0.8478325434439178,-0.06552372162634039,-2.844264721044315,6.367763731603894
0.8558309636650868,-0.09179221751060081,-3.0060853912031242,6.095480668495887
0.8638293838862559,-0.11806071339486122,-3.1679060613619336,5.823197605387881
0.8718278041074249,-0.14432920927912163,-3.329726731520743,5.550914542279873
0.8798262243285939,-0.17059770516338202,-3.4915474016795525,5.2786314791718665
0.887824644549763,-0.19686620104764246,-3.6533680718383614,5.00634841606386
0.895823064770932,-0.22313469693190285,-3.815188741997171,4.734065352955852
0.903821484992101,0.02772169562927572,-5.51877040547655,7.954758030542386
0.91181990521327,0.08493118483412321,-6.096557535545019,7.982271658767774
0.9198183254344391,0.08621093206951025,-6.439529794628747,7.909805971563983
0.9278167456556081,0.0874906793048973,-6.782502053712475,7.837340284360191
0.9358151658767772,0.08877042654028434,-7.125474312796204,7.764874597156399
0.9438135860979462,0.0900501737756714,-7.468446571879932,7.692408909952608
0.9518120063191152,0.09132992101105844,-7.81141883096366,7.619943222748816
0.9598104265402843,0.09260966824644548,-8.154391090047389,7.547477535545025
0.9678088467614533,0.09388941548183252,-8.497363349131117,7.475011848341233
0.9758072669826223,0.09516916271721958,-8.840335608214845,7.402546161137441
0.9838056872037914,0.09644890995260662,-9.183307867298574,7.33008047393365
0.9918041074249604,0.09772865718799367,-9.5262801263823,7.257614786729858
0.9998025276461294,0.09900840442338071,-9.86925238546603,7.185149099526067
1.0078009478672985,-0.6601895734597124,-10.458386255924172,6.531732227488156
1.0157993680884674,1.8894600173953138,-9.644666063155658,5.766717698848003
1.0237977883096365,2.096879723804958,-9.40579189520209,5.812910822372508
1.0317962085308057,2.3042994302146025,-9.16691772724852,5.8591039458970124
1.0397946287519746,2.511719136624241,-8.92804355929496,5.9052970694215166
1.0477930489731437,2.7191388430338854,-8.689169391341393,5.9514901929460216
1.0557914691943127,2.9265585494435244,-8.450295223387831,5.997683316470525
1.0637898894154818,3.133978255853169,-8.211421055434263,6.04387643999503
1.0717883096366507,3.3413979622628074,-7.972546887480702,6.090069563519533
1.0797867298578199,3.5488176686724517,-7.733672719527133,6.136262687044038
1.0877851500789888,3.7562373750820903,-7.494798551573572,6.182455810568542
1.095783570300158,3.9636570814917347,-7.2559243836200045,6.228648934093046
1.1037819905213269,4.887971563981019,-7.928823064770908,4.4171058451816965
1.111780410742496,5.677815560821471,-8.71800052659293,3.7039133754607816
1.119778830963665,5.780053141475865,-9.437445802166012,4.1313092369477795
1.127777251184834,5.492302746531154,-9.366423685262378,4.476975903614451
1.135775671406003,5.20455235158645,-9.295401568358745,4.822642570281113
1.1437740916271721,4.916801956641739,-9.22437945145511,5.168309236947785
1.151772511848341,4.629051561697034,-9.153357334551478,5.513975903614447
1.1597709320695102,4.341301166752323,-9.082335217647843,5.8596425702811175
1.1677693522906791,4.053550771807619,-9.01131310074421,6.20530923694778
1.1757677725118483,3.765800376862907,-8.940290983840576,6.550975903614452
1.1837661927330172,3.4780499819182036,-8.869268866936943,6.896642570281113
1.1917646129541863,3.1902995869734916,-8.798246750033309,7.242309236947785
1.1997630331753553,2.65988625592425,-8.523402843601957,7.464199052132728
1.2077614533965244,1.0574755134281517,-5.944113744075915,7.418295418641361
1.2157598736176933,0.7551362559241723,-5.1779320695102715,7.532858609794633
1.2237582938388625,0.7044190004308497,-5.104492029297718,7.3907048685911265
1.2317567140600314,0.6537017449375284,-5.031051989085167,7.248551127387624
1.2397551342812005,0.6029844894442058,-4.957611948872613,7.106397386184118
1.2477535545023695,0.5522672339508846,-4.884171908660063,6.964243644980615
1.2557519747235386,0.501549978457562,-4.810731868447509,6.822089903777109
1.2637503949447075,0.4508327229642408,-4.737291828234959,6.679936162573607
1.2717488151658767,0.4001154674709182,-4.663851788022405,6.537782421370101
1.2797472353870456,0.34939821197759696,-4.5904117478098545,6.395628680166598
1.2877456556082147,0.29868095648427434,-4.516971707597301,6.253474938963092
1.2957440758293837,0.2479637009909531,-4.44353166738475,6.111321197759589
1.3037424960505528,1.7448065010292524,-5.956696092042061,4.2849452662485845
1.3117409162717217,1.6199826703049494,-6.097597555332148,4.2571527757831085
1.3197393364928909,1.495158839580643,-6.238499018622239,4.229360285317632
1.3277377567140598,1.3703350088563402,-6.379400481912326,4.201567794852156
1.335736176935229,1.2455111781320336,-6.520301945202417,4.173775304386679
1.3437345971563979,1.1206873474077308,-6.661203408492503,4.145982813921203
1.351733017377567,0.9958635166834244,-6.8021048717825945,4.118190323455727
1.359731437598736,0.8710396859591215,-6.943006335072681,4.090397832990251
1.367729857819905,0.7462158552348153,-7.083907798362771,4.062605342524774
1.375728278041074,0.6213920245105122,-7.224809261652859,4.034812852059298
1.3837266982622431,0.49656819378620587,-7.36571072494295,4.007020361593822
1.391725118483412,0.37174436306190306,-7.506612188233037,3.979227871128346
1.3997235387045812,0.2469205323375967,-7.647513651523127,3.9514353806628693
1.4077219589257501,-0.146880197211947,-4.464266288214155,3.9751036230751895
1.4157203791469193,-0.31818702150929457,-4.498017863652934,3.8687510025519516
1.4237187993680882,-0.4894938458066374,-4.531769439091713,3.762398382028717
1.4317172195892574,-0.660800670103985,-4.565521014530493,3.656045761505479
1.4397156398104263,-0.8321074944013278,-4.599272589969272,3.549693140982244
1.4477140600315954,-1.0034143186986755,-4.633024165408051,3.443340520459006
1.4557124802527643,-1.1747211429960183,-4.66677574084683,3.336987899935771
1.4637109004739335,-1.346027967293366,-4.700527316285609,3.2306352794125335
1.4717093206951024,-1.5173347915907087,-4.734278891724388,3.1242826588892982
1.4797077409162716,-1.6886416158880564,-4.768030467163168,3.0179300383660603
1.4877061611374405,-1.8599484401853992,-4.801782042601946,2.9115774178428255
1.4957045813586096,-2.0312552644827466,-4.835533618040726,2.8052247973195876
1.5037030015797785,-3.2332440040211967,-5.230383455407133,2.346211259514599
1.5117014218009477,-7.0741611374406705,-5.775976303317534,1.495464454976297
1.5196998420221166,-8.153602215451752,-6.030267189498225,1.6995405100428769
1.5276982622432858,-7.740064846159638,-6.305165274956741,1.8183741819002468
1.535696682464455,-7.326527476867524,-6.580063360415256,1.937207853757617
1.5436951026856238,-6.912990107575422,-6.854961445873764,2.0560415256149835
1.551693522906793,-6.499452738283308,-7.129859531332279,2.1748751974723537
1.5596919431279619,-6.0859153689912056,-7.404757616790787,2.2937088693297203
1.567690363349131,-5.6723779996990915,-7.679655702249303,2.4125425411870904
1.5756887835703,-5.25884063040699,-7.954553787707811,2.531376213044457
1.583687203791469,-4.845303261114875,-8.229451873166326,2.650209884901827
1.591685624012638,-4.431765891822773,-8.504349958624834,2.769043556759194
1.5996840442338072,-12.201549763032904,-14.302323854660118,1.6208278041074684
1.607682464454976,-10.700318682963367,-15.507013519580932,2.187368620603654
1.6156808846761452,-9.788667165544215,-15.792767606219334,1.8641482497713553
1.6236793048973142,-8.877015648125088,-16.078521692857727,1.540927878939066
1.6316777251184833,-7.965364130705934,-16.364275779496126,1.2177075081067674
1.6396761453396522,-7.053712613286806,-16.65002986613452,0.894487137274478
1.6476745655608214,-6.142061095867653,-16.935783952772923,0.5712667664421796
1.6556729857819903,-5.230409578448525,-17.221538039411314,0.24804639560989017
1.6636714060031594,-4.3187580610293725,-17.507292126049716,-0.07517397522240854
1.6716698262243284,-3.4071065436102446,-17.793046212688107,-0.3983943460546979
1.6796682464454975,-2.4954550261910917,-18.07880029932651,-0.7216147168869962
1.6876666666666664,-1.5838035087719646,-18.3645543859649,-1.044835087719286
1.6956650868878356,-0.6721519913528109,-18.650308472603303,-1.3680554585515843
1.7036635071090045,-4.273033175355085,-14.586163507109285,-4.996526066350421
1.7116619273301736,-5.791236480738855,-11.70850054684652,-6.339040588163809
1.7196603475513426,-5.404499678836182,-11.51284688297485,-6.443635314132941
1.7276587677725117,-5.017762876933498,-11.317193219103174,-6.5482300401020765
1.7356571879936806,-4.6310260750308245,-11.121539555231504,-6.652824766071209
1.7436556082148498,-4.244289273128141,-10.925885891359828,-6.757419492040344
1.7516540284360187,-3.857552471225467,-10.730232227488157,-6.862014218009476
1.7596524486571878,-3.4708156693227834,-10.534578563616481,-6.966608943978611
1.7676508688783568,-3.08407886742011,-10.33892489974481,-7.071203669947743
1.775649289099526,-2.6973420655174256,-10.143271235873135,-7.175798395916878
1.7836477093206948,-2.3106052636147525,-9.947617572001464,-7.28039312188601
1.791646129541864,-1.9238684617120683,-9.751963908129788,-7.384987847855145
1.799644549763033,-0.03748104265405247,-9.83165402843599,-6.039426540284415
1.807642969984202,-0.26106320619875006,-8.705929993229528,-6.114550409990216
1.815641390205371,-0.30509260513051806,-8.372738659444835,-6.264158955841414
1.82363981042654,-0.3491220040622872,-8.03954732566013,-6.413767501692616
1.831638230647709,-0.39315140299405527,-7.706355991875437,-6.563376047543814
1.8396366508688782,-0.4371808019258244,-7.373164658090734,-6.712984593395016
1.847635071090047,-0.4812102008575925,-7.03997332430604,-6.862593139246213
1.8556334913112162,-0.5252395997893616,-6.706781990521336,-7.012201685097415
1.8636319115323852,-0.5692689987211297,-6.373590656736642,-7.161810230948613
1.8716303317535543,-0.6132983976528988,-6.04039932295194,-7.311418776799815
1.8796287519747232,-0.6573277965846668,-5.7072079891672445,-7.461027322651013
1.8876271721958924,-0.701357195516436,-5.374016655382542,-7.610635868502214
1.8956255924170613,-0.745386594448204,-5.040825321597848,-7.760244414353412
1.9036240126382304,-0.7894159933799733,-4.707633987813145,-7.909852960204614
1.9116224328593994,-0.6248931016324154,-3.4115803054239398,-7.777930489731467
1.9196208530805685,-0.561122537543541,-3.311398561068921,-7.7358463427168385
1.9276192733017374,-0.4583958392812994,-3.2572405831858258,-7.738833704486191
1.9356176935229066,-0.35566914101905495,-3.203082605302729,-7.741821066255543
1.9436161137440755,-0.2529424427568134,-3.148924627419633,-7.744808428024895
1.9516145339652446,-0.15021574449456887,-3.0947666495365365,-7.747795789794248
1.9596129541864136,-0.0474890462323273,-3.040608671653441,-7.7507831515636
1.9676113744075827,0.05523765202991715,-2.986450693770344,-7.753770513332952
1.9756097946287516,0.15796435029215872,-2.9322927158872485,-7.756757875102305
1.9836082148499208,0.26069104855440317,-2.8781347380041513,-7.759745236871657
1.9916066350710897,0.36341774681664485,-2.823976760121056,-7.762732598641009
1.9996050552922588,1.1197472353870577,-2.420695102685592,-7.751361769352283
2.0076034755134278,1.7233176884268453,-2.4871810120776656,-8.082001902529344
2.015601895734597,1.7566014370891299,-2.398940376089284,-8.096278652601539
2.023600315955766,1.7898851857514142,-2.310699740100902,-8.110555402673732
2.0315987361769348,1.8231689344136965,-2.222459104112525,-8.124832152745926
2.039597156398104,1.856452683075981,-2.134218468124143,-8.139108902818121
2.047595576619273,1.8897364317382654,-2.045977832135762,-8.153385652890314
2.055593996840442,1.9230201804005498,-1.9577371961473797,-8.16766240296251
2.0635924170616113,1.9563039290628341,-1.8694965601589981,-8.181939153034703
2.07159083728278,1.9895876777251167,-1.7812559241706212,-8.196215903106896
2.079589257503949,2.0228714263874013,-1.6930152881822393,-8.210492653179092
2.0875876777251183,2.0561551750496854,-1.6047746521938575,-8.224769403251285
2.0955860979462875,2.2563823064770423,-1.6867166929962645,-8.608999999999888
2.103584518167456,3.279037552659291,-2.9415110913638736,-12.707887885071091
2.1115829383886253,3.380184241706159,-3.0046652843601884,-12.636651954976305
2.1195813586097945,3.4813309307530274,-3.067819477356503,-12.565416024881516
2.1275797788309636,3.5824776197998953,-3.1309736703528177,-12.49418009478673
2.1355781990521323,3.6836243088467575,-3.1941278633491286,-12.422944164691947
2.1435766192733015,3.7847709978936255,-3.2572820563454434,-12.351708234597158
2.1515750394944706,3.885917686940494,-3.320436249341758,-12.280472304502371
2.1595734597156397,3.987064375987362,-3.3835904423380727,-12.209236374407583
2.1675718799368084,4.0882110650342245,-3.446744635334384,-12.1380004443128
2.1755703001579776,4.189357754081092,-3.5098988283306984,-12.066764514218011
2.1835687203791467,4.29050444312796,-3.573053021327013,-11.995528584123225
2.191567140600316,4.391651132174829,-3.6362072143233277,-11.924292654028436
2.1995655608214846,3.7147467087943093,-5.081914691942747,-13.293225908372438
2.2075639810426537,2.7188388625592745,-5.69253554502383,-13.667713270142357
2.215562401263823,2.498566185385209,-4.985570153201801,-12.321606047246416
2.223560821484992,2.494380965502039,-5.1898088835004925,-12.090767919468021
2.2315592417061607,2.4901957456188692,-5.394047613799172,-11.859929791689641
2.23955766192733,2.4860105257356993,-5.598286344097864,-11.629091663911248
2.247556082148499,2.4818253058525293,-5.802525074396556,-11.398253536132854
2.255554502369668,2.4776400859693597,-6.006763804695247,-11.167415408354461
2.263552922590837,2.4734548660861897,-6.211002534993927,-10.93657728057608
2.271551342812006,2.46926964620302,-6.415241265292619,-10.705739152797687
2.279549763033175,2.46508442631985,-6.619479995591311,-10.474901025019292
2.2875481832543443,2.46089920643668,-6.823718725890002,-10.2440628972409
2.295546603475513,2.4339515534491993,-6.95683438651926,-9.936760663507172
2.303545023696682,2.0966848341232343,-6.120332938388655,-8.58702725118488
2.3115434439178513,1.9269197472353885,-5.81488436018957,-7.589637914691968
2.3195418641390204,1.6210506568554108,-6.745466346553585,-6.942529620853081
2.327540284360189,1.3856234721875902,-6.9590031179845235,-6.876542654028439
2.3355387045813583,1.1501962875197564,-7.172539889415473,-6.810555687203794
2.3435371248025274,0.9147691028519227,-7.386076660846423,-6.7445687203791485
2.3515355450236965,0.6793419181840891,-7.599613432277373,-6.678581753554504
2.3595339652448653,0.4439147335162683,-7.813150203708311,-6.612594786729861
2.3675323854660344,0.20848754884843457,-8.02668697513926,-6.5466078199052165
2.3755308056872035,-0.026939635819398955,-8.24022374657021,-6.480620853080571
2.3835292259083727,-0.2623668204872327,-8.45376051800116,-6.414633886255926
2.3915276461295414,-0.49779400515505356,-8.667297289432097,-6.348646919431284
2.3995260663507105,-1.4214170616114044,-9.709872037914733,-5.790445497630223
2.4075244865718797,-1.2085818291822112,-9.281023226110047,-5.969577694867401
2.415522906793049,-1.3134972774024403,-9.29208487109677,-5.882020520318645
2.4235213270142175,-1.4184127256226633,-9.303146516083492,-5.794463345769894
2.4315197472353867,-1.5233281738428923,-9.314208161070216,-5.706906171221139
2.439518167456556,-1.6282436220631213,-9.325269806056939,-5.619348996672383
2.447516587677725,-1.7331590702833501,-9.336331451043662,-5.531791822123627
2.4555150078988937,-1.8380745185035732,-9.347393096030384,-5.444234647574877
2.463513428120063,-1.9429899667238022,-9.358454741017107,-5.356677473026121
2.471511848341232,-2.047905414944031,-9.36951638600383,-5.2691202984773655
2.479510268562401,-2.1528208631642602,-9.380578030990554,-5.18156312392861
2.48750868878357,-2.257736311384483,-9.391639675977277,-5.094005949379859
2.495507109004739,-2.482143364928783,-9.323524881516667,-4.856951421801104
2.503505529225908,-3.0362347422381277,-7.750312989650836,-3.2194637456878485
2.511503949447077,-3.021543766321695,-7.730725021762259,-3.2113020924009414
2.519502369668246,-3.0068527904052624,-7.711137053873682,-3.203140439114035
2.527500789889415,-2.992161814488829,-7.6915490859851054,-3.1949787858271272
2.535499210110584,-2.9774708385723963,-7.671961118096528,-3.18681713254022
2.5434976303317534,-2.962779862655963,-7.652373150207951,-3.178655479253313
2.551496050552922,-2.948088886739531,-7.632785182319374,-3.170493825966406
2.559494470774091,-2.9333979108230976,-7.613197214430797,-3.162332172679499
2.5674928909952603,-2.9187069349066648,-7.593609246542219,-3.1541705193925913
2.5754913112164295,-2.9040159589902315,-7.5740212786536425,-3.146008866105684
2.5834897314375986,-2.8893249830737986,-7.554433310765065,-3.137847212818777
2.5914881516587673,-2.874634007157366,-7.534845342876489,-3.12968555953187
2.5994865718799365,-2.8599430312409333,-7.515257374987911,-3.121523906244963
2.6074849921011056,-1.6392369838115124,-7.220628904856547,-2.839924204589852
2.6154834123222748,-1.753622993426082,-7.186313101972176,-2.828743617183917
2.6234818325434435,-1.868009003040645,-7.151997299087807,-2.817563029777982
2.6314802527646126,-1.9823950126552146,-7.117681496203436,-2.8063824423720467
2.6394786729857818,-2.0967810222697842,-7.083365693319065,-2.7952018549661113
2.647477093206951,-2.2111670318843535,-7.049049890434694,-2.784021267560176
2.6554755134281196,-2.325553041498917,-7.014734087550325,-2.7728406801542413
2.6634739336492887,-2.4399390511134866,-6.980418284665954,-2.761660092748306
2.671472353870458,-2.554325060728056,-6.946102481781583,-2.7504795053423705
2.679470774091627,-2.668711070342625,-6.911786678897212,-2.739298917936435
2.6874691943127957,-2.7830970799571886,-6.877470876012843,-2.7281183305305006
2.695467614533965,-2.8974830895717583,-6.8431550731284725,-2.716937743124565
2.703466034755134,-3.8037962085308044,-7.913320695102519,-2.745837282780372
2.711464454976303,-3.351065818201181,-8.298858991426593,-2.513457106342191
2.719462875197472,-3.4272754850275975,-8.310362337362657,-2.4965615669985985
2.727461295418641,-3.503485151854018,-8.32186568329872,-2.4796660276550053
2.73545971563981,-3.579694818680439,-8.333369029234783,-2.462770488311412
2.7434581358609793,-3.6559044855068596,-8.344872375170848,-2.445874948967819
2.751456556082148,-3.732114152333276,-8.35637572110691,-2.4289794096242265
2.759454976303317,-3.8083238191596966,-8.367879067042974,-2.4120838702806333
2.7674533965244863,-3.8845334859861174,-8.379382412979037,-2.39518833093704
2.7754518167456554,-3.960743152812538,-8.3908857589151,-2.378292791593447
2.783450236966824,-4.036952819638954,-8.402389104851164,-2.3613972522498545
2.7914486571879933,-4.1131624864653755,-8.413892450787227,-2.3445017129062613
2.7994470774091624,-4.361200895207986,-10.615115060557999,-4.713962875197268
2.8074454976303316,-0.5792031595576663,-8.436197156398109,-4.378260979462875
2.8154439178515003,-0.47193545725821484,-8.358345866245399,-4.372573213972267
2.8234423380726694,-0.3646677549587574,-8.280494576092686,-4.366885448481657
2.8314407582938386,-0.25740005265929994,-8.202643285939972,-4.361197682991048
2.8394391785150077,-0.15013235035984246,-8.124791995787259,-4.355509917500439
2.8474375987361764,-0.04286464806039092,-8.046940705634551,-4.34982215200983
2.8554360189573456,0.06440305423906645,-7.969089415481838,-4.344134386519221
2.8634344391785147,0.17167075653852393,-7.891238125329124,-4.338446621028612
2.871432859399684,0.2789384588379814,-7.813386835176411,-4.332758855538002
2.8794312796208525,0.3862061611374329,-7.735535545023702,-4.327071090047394
2.8874296998420217,0.49347386343689037,-7.657684254870989,-4.321383324556784
2.895428120063191,0.0756903633495577,-7.6721927330173045,-4.579864665613264
2.90342654028436,-4.945069510268563,-10.298883096366508,-6.529932069510268
2.9114249605055287,-4.642046027514494,-10.33145999539231,-6.592336410610845
2.919423380726698,-4.33902254476041,-10.364036894418113,-6.654740751711425
2.927421800947867,-4.035999062006325,-10.396613793443917,-6.717145092812006
2.935420221169036,-3.7329755792522397,-10.42919069246972,-6.779549433912585
2.943418641390205,-3.429952096498172,-10.461767591495523,-6.841953775013161
2.951417061611374,-3.126928613744087,-10.494344490521325,-6.904358116113742
2.959415481832543,-2.823905130990002,-10.526921389547129,-6.966762457214322
2.9674139020537122,-2.5208816482359166,-10.559498288572932,-7.029166798314902
2.975412322274881,-2.2178581654818488,-10.592075187598734,-7.091571139415478
2.98341074249605,-1.9148346827277636,-10.624652086624538,-7.153975480516058
2.9914091627172192,-1.6118111999736788,-10.657228985650342,-7.216379821616639
2.9994075829383884,-1.1486483412322466,-10.242301421800981,-7.47860853080567
3.007406003159557,-0.3637140600315832,-7.720725118485241,-8.314161137440523
3.0154044233807262,0.8868371511320925,-5.969551342812012,-7.220502238020096
3.0234028436018954,1.6400962228924347,-5.857508210062719,-6.436394609603137
3.0314012638230645,1.569807075494282,-5.712971101217551,-6.5007859319897205
3.039399684044233,1.4995179280961328,-5.568433992372392,-6.565177254376302
3.0473981042654024,1.4292287806979798,-5.423896883527225,-6.629568576762885
3.0553965244865715,1.358939633299827,-5.2793597746820575,-6.693959899149469
3.0633949447077407,1.2886504859016739,-5.13482266583689,-6.758351221536053
3.07139336492891,1.218361338503521,-4.990285556991723,-6.822742543922637
3.0793917851500785,1.148072191105372,-4.845748448146564,-6.887133866309217
3.0873902053712476,1.077783043707219,-4.701211339301397,-6.9515251886958005
3.095388625592417,1.007493896309066,-4.556674230456229,-7.015916511082384
3.103387045813586,0.9372047489109131,-4.412137121611062,-7.080307833468968
3.1113854660347546,0.8669156015127641,-4.267600012765902,-7.144699155855548
3.1193838862559238,0.7385781990522291,-3.990495734597375,-7.374142180094523
3.127382306477093,-0.023538704581424597,-2.0857014218009162,-8.813416271722096
3.135380726698262,0.14278682143919977,-2.173453236257068,-8.502591066236237
3.1433791469194308,0.18915447489525022,-2.2042877258053415,-8.44254495501065
3.1513775671406,0.2355221283513033,-2.2351222153536168,-8.382498843785061
3.159375987361769,0.28188978180735635,-2.265956704901892,-8.322452732559473
3.167374407582938,0.3282574352634094,-2.2967911944501673,-8.262406621333884
3.175372827804107,0.3746250887194599,-2.327625683998441,-8.2023605101083
3.183371248025276,0.42099274217551286,-2.358460173546716,-8.14231439888271
3.191369668246445,0.46736039563156595,-2.3892946630949914,-8.082268287657122
3.1993680884676143,0.8946814112690302,-2.528615060558171,-7.780299631384978
3.207366508688783,1.1554707740916441,-2.1330473933647127,-9.52150157977836
3.215364928909952,1.2991660402026346,-2.3952158849485166,-10.082299558751423
3.2233633491311213,1.4731086960469113,-2.450837083038256,-10.19014032794029
3.2313617693522905,1.647051351891188,-2.506458281127996,-10.297981097129156
3.239360189573459,1.820994007735455,-2.5620794792177324,-10.405821866318018
3.2473586097946283,1.9949366635797317,-2.617700677307472,-10.513662635506885
3.2553570300157975,2.168879319424008,-2.6733218753972117,-10.621503404695751
3.2633554502369666,2.3428219752682846,-2.7289430734869513,-10.72934417388462
3.2713538704581353,2.5167646311125518,-2.784564271576688,-10.83718494307348
3.2793522906793044,2.6907072869568287,-2.8401854696664275,-10.945025712262346
3.2873507109004736,2.8646499428011047,-2.895806667756167,-11.052866481451215
3.2953491311216427,2.931497630331803,-2.9670384412848776,-11.298212743549167
3.3033475513428114,3.6288105609895354,-5.488791939766743,-17.270289402036934
3.3113459715639806,3.7576361802964513,-5.351797721085016,-16.97826197438744
3.3193443917851497,3.8864617996033672,-5.214803502403289,-16.686234546737943
3.327342812006319,4.015287418910283,-5.077809283721562,-16.39420711908845
3.3353412322274876,4.144113038217192,-4.940815065039843,-16.10217969143897
3.3433396524486567,4.272938657524108,-4.803820846358115,-15.810152263789474
3.351338072669826,4.401764276831024,-4.666826627676389,-15.518124836139979
3.359336492890995,4.53058989613794,-4.529832408994661,-15.226097408490483
3.3673349131121637,4.659415515444849,-4.392838190312942,-14.934069980841004
3.375333333333333,4.788241134751765,-4.255843971631215,-14.642042553191509
3.383331753554502,4.9170667540586805,-4.118849752949488,-14.350015125542013
3.391330173775671,5.0458923733655965,-3.981855534267761,-14.057987697892518
3.39932859399684,2.7032020800421757,-3.8483098999472514,-10.020227093206882
3.407327014218009,2.174639810426582,-4.825450236966748,-10.76208056872032
3.415325434439178,0.7545655988884583,-6.824959230286066,-13.315128380821866
3.4233238546603473,0.4095734977826092,-7.000442642608343,-13.32746329393403
3.431322274881516,0.06458139667677931,-7.17592605493061,-13.339798207046194
3.439320695102685,-0.2804107044290699,-7.351409467252887,-13.352133120158358
3.4473191153238543,-0.6254028055349189,-7.526892879575164,-13.364468033270523
3.4553175355450234,-0.9703949066407679,-7.7023762918974406,-13.376802946382687
3.463315955766192,-1.315387007746598,-7.877859704219708,-13.38913785949485
3.4713143759873613,-1.6603791088524469,-8.053343116541985,-13.401472772607015
3.4793127962085304,-2.005371209958296,-8.228826528864262,-13.41380768571918
3.4873112164296995,-2.350363311064145,-8.40430994118654,-13.426142598831344
3.4953096366508682,-2.7498104265401198,-8.653711953659625,-13.170989994734718
3.5033080568720374,-2.5203459715641725,-9.76714691943129,-9.282819905213568
3.5113064770932065,-2.2196780091236548,-9.695743951577118,-8.285086515078907
3.5193048973143757,-2.5185852636810546,-9.645956032447593,-8.079733816142149
3.5273033175355444,-2.817492518238438,-9.59616811331807,-7.874381117205402
3.5353017377567135,-3.1163997727958375,-9.546380194188545,-7.669028418268644
3.5433001579778827,-3.4153070273532373,-9.49659227505902,-7.463675719331885
3.551298578199052,-3.714214281910637,-9.446804355929496,-7.258323020395126
3.5592969984202205,-4.01312153646802,-9.397016436799975,-7.05297032145838
3.5672954186413897,-4.31202879102542,-9.34722851767045,-6.847617622521621
3.575293838862559,-4.61093604558282,-9.297440598540925,-6.642264923584863
3.583292259083728,-4.90984330014022,-9.2476526794114,-6.436912224648104
3.591290679304897,-5.20875055469762,-9.197864760281874,-6.231559525711346
3.599289099526066,-5.5250900473933395,-7.645398104265582,-5.255800947867405
3.607287519747235,-4.139428190275586,-6.681668106020718,-4.531691767596978
3.615285939968404,-4.081484079340005,-6.589597402141481,-4.572572582060732
3.6232843601895732,-4.023539968404425,-6.497526698262246,-4.613453396524485
3.631282780410742,-3.9655958574688466,-6.405455994383015,-4.654334210988237
3.639281200631911,-3.907651746533266,-6.313385290503779,-4.69521502545199
3.64727962085308,-3.8497076355976847,-6.221314586624542,-4.736095839915744
3.6552780410742494,-3.7917635246621035,-6.129243882745306,-4.776976654379498
3.663276461295418,-3.733819413726526,-6.037173178866075,-4.817857468843249
3.671274881516587,-3.675875302790945,-5.9451024749868395,-4.858738283307002
3.6792733017377564,-3.617931191855364,-5.853031771107603,-4.899619097770755
3.6872717219589255,-3.5599870809197833,-5.760961067228367,-4.940499912234509
3.695270142180094,-3.4294407582939823,-5.437516587678176,-5.109668246445248
3.7032685624012633,-3.0673725252932678,-2.410907196396765,-5.023455446875736
3.7112669826224325,-3.065160196295923,-2.3365389062552557,-5.018009713959195
3.7192654028436016,-3.062947867298578,-2.262170616113747,-5.012563981042654
3.7272638230647703,-3.0607355383012336,-2.187802325972242,-5.0071182481261145
3.7352622432859395,-3.058523209303889,-2.1134340358307333,-5.001672515209574
3.7432606635071086,-3.0563108803065444,-2.039065745689224,-4.996226782293033
3.7512590837282778,-3.0540985513092,-1.9646974555477152,-4.990781049376492
3.7592575039494465,-3.0518862223118552,-1.8903291654062104,-4.985335316459952
3.7672559241706156,-3.0496738933145107,-1.8159608752647014,-4.979889583543411
3.7752543443917848,-3.0474615643171656,-1.7415925851231924,-4.97444385062687
3.783252764612954,-3.045249235319821,-1.6672242949816836,-4.9689981177103295
3.7912511848341226,-3.0430369063224765,-1.5928560048401788,-4.963552384793789
3.7992496050552917,-1.5787969984202332,-1.480286729857801,-3.819079778830964
3.807248025276461,-1.3173940830102082,-1.8871154674709,-3.814353439609364
3.81524644549763,-1.0559911676001832,-2.293944205083999,-3.8096271003877638
3.8232448657187987,-0.9160348815165965,-3.0217934913112168,-4.862531563981032
3.831243285939968,-0.7682240758293911,-3.016354565560822,-5.031458199052124
3.839241706161137,-0.6204132701421856,-3.0109156398104266,-5.200384834123216
3.847240126382306,-0.4726024644549802,-3.005476714060032,-5.369311469194308
3.855238546603475,-0.32479165876778304,-3.000037788309637,-5.538238104265391
3.863236966824644,-0.17698085308057765,-2.994598862559242,-5.707164739336482
3.871235387045813,-0.029170047393372145,-2.989159936808847,-5.876091374407575
3.8792338072669823,0.11864075829383314,-2.983721011058452,-6.0450180094786665
3.887232227488151,0.26645156398103054,-2.978282085308057,-6.213944644549749
3.89523064770932,0.2702274881519853,-3.110466034754813,-6.583968404422899
3.9032290679304893,-1.509337968508586,-4.729567574605484,-8.91935439126435
3.9112274881516584,-1.4862216551221301,-4.819220196864743,-8.826977032446232
3.919225908372827,-1.4631053417356756,-4.908872819123996,-8.734599673628118
3.9272243285939963,-1.4399890283492198,-4.998525441383254,-8.64222231481
3.9352227488151654,-1.416872714962764,-5.088178063642513,-8.549844955991881
3.9432211690363346,-1.3937564015763082,-5.177830685901771,-8.457467597173764
3.9512195892575033,-1.3706400881898535,-5.267483308161024,-8.36509023835565
3.9592180094786724,-1.3475237748033977,-5.357135930420283,-8.272712879537533
3.9672164296998416,-1.3244074614169419,-5.446788552679541,-8.180335520719414
3.9752148499210107,-1.301291148030486,-5.536441174938799,-8.087958161901296
3.9832132701421794,-1.2781748346440316,-5.6260937971980525,-7.995580803083183
3.9912116903633486,-1.2550585212575758,-5.715746419457311,-7.903203444265065
3.9992101105845177,-1.7324086361242295,-5.537727224855207,-7.513239073196453
4.007208530805687,-7.530121063717743,-9.742575250131646,-15.070147182727753
4.0152069510268555,-7.014400702123948,-9.340165841671073,-15.312321572757583
4.023205371248025,-6.498680340530095,-8.937756433210454,-15.554495962787437
4.031203791469194,-5.982959978936299,-8.535347024749882,-15.796670352817264
4.0392022116903625,-5.4672396173425035,-8.13293761628931,-16.038844742847093
4.047200631911532,-4.951519255748652,-7.730528207828691,-16.28101913287695
4.055199052132701,-4.435798894154856,-7.328118799368118,-16.523193522906777
4.0631974723538695,-3.9200785325610603,-6.925709390907545,-16.765367912936604
4.071195892575039,-3.4043581709672077,-6.523299982446927,-17.00754230296646
4.079194312796208,-2.888637809373412,-6.120890573986355,-17.249716692996287
4.087192733017377,-2.3729174477795594,-5.718481165525737,-17.491891083026143
4.095191153238546,-0.2532827804116986,-2.163459715641639,-15.488410742497308
4.103189573459715,0.417345971563982,2.1922227488151624,-10.584170616113758
4.111187993680884,0.4076509167504431,2.22591306429221,-10.453287376130982
4.119186413902053,0.39795586193690535,2.2596033797692536,-10.322404136148222
4.127184834123223,0.38826080712336647,2.2932936952463012,-10.191520896165446
4.135183254344391,0.3785657523098287,2.3269840107233453,-10.060637656182687
4.14318167456556,0.36887069749629087,2.3606743262003893,-9.929754416199927
4.15118009478673,0.359175642682752,2.394364641677437,-9.798871176217151
4.159178515007898,0.3494805878692142,2.4280549571544805,-9.667987936234391
4.167176935229067,0.3397855330556764,2.4617452726315245,-9.537104696251632
4.175175355450237,0.33009047824213755,2.495435588108572,-9.406221456268856
4.183173775671405,0.3203954234285997,2.5291259035856157,-9.275338216286096
4.191172195892575,0.31070036861506084,2.5628162190626638,-9.144454976303322
4.199170616113744,0.30100531380152307,2.5965065345397074,-9.01357173632056
4.207169036334912,-0.7953735048521318,1.6,-9.095373504852132
4.215167456556082,-1.2524260889189578,1.6,-9.552426088918958
4.223165876777251,-0.659746414722722,3.0138807164399366,-9.353476949590709
4.231164296998419,-0.5974210623499788,3.345036088713779,-9.126612666953923
4.239162717219589,-0.5350957099772288,3.6761914609876576,-8.899748384317112
4.247161137440758,-0.4727703576044856,4.0073468332615,-8.672884101680328
4.255159557661927,-0.41044500523173555,4.338502205535378,-8.446019819043517
4.263157977883096,-0.3481196528589924,4.66965757780922,-8.219155536406733
4.271156398104265,-0.2857943004862492,5.000812950083063,-7.992291253769947
4.279154818325434,-0.22346894811349916,5.331968322356941,-7.765426971133137
4.287153238546603,-0.16114359574075598,5.663123694630784,-7.538562688496352
4.295151658767772,-0.10758293838858476,6.000132701421736,-7.249270142180454
4.303150078988941,-0.17266631560470555,7.208546954537425,-5.8783928383359925
4.31114849921011,-0.30886713325250714,8.131389139939012,-5.6356873691171625
4.3191469194312795,-0.31361038245343326,8.127296924942135,-5.606948859252728
4.327145339652448,-0.31835363165435887,8.123204709945258,-5.578210349388296
4.335143759873617,-0.3230968808552845,8.119112494948382,-5.549471839523865
4.3431421800947865,-0.3278401300562106,8.115020279951505,-5.52073332965943
4.351140600315955,-0.3325833792571362,8.110928064954628,-5.491994819794998
4.359139020537124,-0.33732662845806183,8.10683584995775,-5.463256309930567
4.3671374407582935,-0.34206987765898794,8.102743634960873,-5.434517800066132
4.375135860979462,-0.34681312685991356,8.098651419963996,-5.4057792902017
4.383134281200632,-0.35155637606083967,8.09455920496712,-5.377040780337265
4.3911327014218005,-0.3562996252617653,8.090466989970242,-5.348302270472834
4.399131121642969,0.44443108214844684,6.635332938388705,-5.685071287519708
4.407129541864139,1.652087473596391,5.263906739798005,-6.151262367538209
4.4151279620853074,1.6824634964588072,5.21097337451409,-6.1334681292933615
4.423126382306476,1.7128395193212234,5.1580400092301755,-6.115673891048514
4.431124802527646,1.7432155421836428,5.105106643946255,-6.097879652803664
4.439123222748814,1.773591565046059,5.052173278662341,-6.080085414558817
4.447121642969984,1.8039675879084784,4.99923991337842,-6.062291176313968
4.455120063191153,1.8343436107708946,4.946306548094506,-6.044496938069121
4.463118483412321,1.8647196336333107,4.893373182810591,-6.026702699824273
4.471116903633491,1.8950956564957302,4.840439817526671,-6.008908461579424
4.47911532385466,1.9254716793581463,4.787506452242757,-5.991114223334577
4.487113744075828,1.9558477022205625,4.734573086958842,-5.97331998508973
4.495112164296998,1.903777777777794,4.74664718272774,-5.980614007372297
4.503110584518167,0.5957187993682157,6.01093996840429,-6.219976303317517
4.511109004739336,-1.0755030680967819,6.737734547268645,-4.863129658268895
4.519107424960505,-1.1193680884676125,6.702036334913114,-4.837113744075831
4.527105845181674,-1.1632331088384429,6.6663381225575815,-4.811097829882766
4.535104265402843,-1.2070981292092784,6.630639910202046,-4.785081915689698
4.543102685624012,-1.250963149580109,6.594941697846514,-4.759066001496634
4.551101105845181,-1.2948281699509394,6.559243485490982,-4.733050087303569
4.55909952606635,-1.338693190321775,6.523545273135446,-4.707034173110502
4.567097946287519,-1.3825582106926055,6.487847060779914,-4.681018258917438
4.575096366508689,-1.426423231063441,6.452148848424378,-4.65500234472437
4.583094786729857,-1.4702882514342714,6.416450636068847,-4.628986430531305
4.591093206951026,-1.514153271805102,6.380752423713314,-4.602970516338241
4.5990916271721956,-1.5580182921759373,6.345054211357779,-4.5769546021451735
4.607090047393364,-1.4366682464455047,6.099938388625606,-4.505033175355454
4.615088467614534,-1.7953799368088676,3.890469984202189,-2.6631192733017017
4.6230868878357025,-1.9799880908980432,3.8233930408717116,-2.324486612387087
4.631085308056871,-2.003675720014581,3.9457278527159967,-2.2607043383157164
4.639083728278041,-2.0273633491311216,4.068062664560295,-2.196922064244339
4.6470821484992095,-2.05105097824766,4.19039747640458,-2.1331397901729683
4.655080568720378,-2.0747386073641976,4.312732288248865,-2.0693575161015976
4.663078988941548,-2.0984262364807384,4.435067100093163,-2.0055752420302198
4.6710774091627165,-2.122113865597276,4.557401911937449,-1.941792967958849
4.679075829383886,-2.1458014947138166,4.6797367237817475,-1.8780106938874712
4.687074249605055,-2.169489123830355,4.802071535626032,-1.8142284198161005
4.6950726698262235,-1.953476303317679,6.105635860978737,-2.7978807266976324
4.703071090047393,-2.5863159396459983,21.118963245961886,7.059577908888666
4.711069510268562,-2.406025018538228,20.6785604346004,6.389832640165096
4.7190679304897305,-2.225734097430457,20.23815762323891,5.720087371441526
4.7270663507109,-2.0454431763226664,19.79775481187737,5.050342102717882
4.735064770932069,-1.8651522552148958,19.35735200051588,4.380596833994312
4.743063191153238,-1.6848613341071053,18.91694918915434,3.7108515652706675
4.751061611374407,-1.5045704129993345,18.47654637779285,3.041106296547098
4.759060031595576,-1.324279491891564,18.036143566431363,2.3713610278235278
4.767058451816745,-1.1439885707837731,17.595740755069823,1.7016157590998837
4.775056872037914,-0.9636976496760026,17.155337943708332,1.0318704903763134
4.783055292259083,-0.7834067285682318,16.714935132346845,0.36212522165274397
4.791053712480252,-0.603115807460441,16.274532320985305,-0.30762004707090007
4.799052132701421,-0.5000094786713962,15.69545971564277,-0.9819668246443622
4.807050552922591,-15.738836154366936,4.940390587295805,-13.294459837161295
4.815048973143759,-13.678671631685917,5.289068972102136,-16.385541621096024
4.823047393364928,-11.618507109004897,5.637747356908467,-19.47662340503075
4.831045813586098,-9.558342586323649,5.986425741714838,-22.567705188965824
4.839044233807266,-7.498178063642628,6.335104126521169,-25.65878697290055
4.847042654028435,-5.4380135409616095,6.6837825113275,-28.749868756835276
4.855041074249605,-3.3778490182803615,7.0324608961338715,-31.84095054077035
4.863039494470773,-1.317684495599341,7.381139280940202,-34.93203232470508
4.871037914691943,0.742480027081907,7.729817665746573,-38.02311410864015
4.879036334913112,2.8026445497629275,8.078496050552904,-41.11419589257488
4.88703475513428,4.862809072443948,8.427174435359236,-44.20527767650961
4.89503317535545,6.922973595125196,8.775852820165605,-47.29635946044468
4.903031595576619,2.1178517091124207,18.241582365501806,-29.977768762043645
4.911030015797787,0.5614118709096183,17.882708192281676,-29.919230873392017
4.919028436018957,-0.9950279672933573,17.52383401906151,-29.86069298474038
4.927026856240126,-2.5514678054961597,17.16495984584138,-29.80215509608875
4.935025276461295,-4.107907643699136,16.80608567262121,-29.74361720743711
4.943023696682464,-5.664347481901938,16.44721149940108,-29.685079318785483
4.951022116903633,-7.220787320104741,16.088337326180955,-29.62654143013385
4.959020537124802,-8.777227158307715,15.729463152960786,-29.568003541482216
4.967018957345971,-10.333666996510518,15.370588979740656,-29.509465652830585
4.97501737756714,-11.890106834713322,15.011714806520528,-29.450927764178957
4.983015797788309,-13.446546672916297,14.65284063330036,-29.392389875527318
4.991014218009478,-15.002986511119099,14.293966460080231,-29.33385198687569
4.9990126382306475,-27.029523959978437,9.73216956292805,-15.193068983676236
5.007011058451816,3.28815441006793,-2.9752144061629235,-0.5699562099508577
5.015009478672985,4.1637567495605845,-2.797092283934201,-0.1481968155919302
5.023007898894154,5.039359089053336,-2.618970161705459,0.27356257876704404
5.031006319115323,5.9149614285459915,-2.4408480394767365,0.6953219731259713
5.039004739336492,6.790563768038647,-2.262725917248014,1.1170813674848987
5.047003159557661,7.666166107531399,-2.084603795019272,1.5388407618438729
5.05500157977883,8.541768447024054,-1.9064816727905498,1.9606001562028004
5.063,9.417370786516805,-1.7283595505618077,2.3823595505617745
5.070998420221168,10.29297312600946,-1.5502374283330853,2.804118944920702
5.078996840442337,11.168575465502116,-1.372115306104363,3.2258783392796295
5.086995260663507,12.044177804994867,-1.1939931838756208,3.6476377336386037
5.094993680884675,13.272067930489301,-0.19188072669905265,3.135108214850745
5.102992101105844,4.841229594523056,-2.564874670877653,6.447617693521762
5.110990521327014,5.426820686422575,-4.882973907609005,7.808391958752187
5.118988941548182,5.494675416210952,-4.654623405031022,7.459098310851917
5.126987361769352,5.562530145999336,-4.426272902453014,7.109804662951607
5.134985781990521,5.630384875787713,-4.19792239987503,6.7605110150513354
5.142984202211689,5.698239605576089,-3.9695718972970475,6.411217367151065
5.150982622432859,5.766094335364474,-3.741221394719039,6.061923719250755
5.158981042654028,5.83394906515285,-3.5128708921410565,5.712630071350484
5.166979462875197,5.901803794941234,-3.284520389563048,5.363336423450175
5.174977883096366,5.969658524729611,-3.056169886985065,5.014042775549903
5.182976303317535,6.037513254517988,-2.827819384407082,4.664749127649633
5.190974723538704,6.105367984306372,-2.599468881829074,4.315455479749323
5.198973143759873,7.79312743549241,-11.385571879936945,6.344681937862156
5.206971563981042,7.432531990521375,-10.321781990521469,5.3722073459716935
5.214969984202211,7.3924176935229,-9.968524430814977,5.253434736548627
5.22296840442338,7.5475870458135725,-10.048226335842386,5.654861332589871
5.2309668246445495,7.702756398104262,-10.127928240869807,6.056287928631159
5.238965244865718,7.857925750394935,-10.207630145897216,6.457714524672403
5.246963665086887,8.013095102685607,-10.287332050924627,6.8591411207136455
5.2549620853080565,8.168264454976297,-10.367033955952046,7.260567716754934
5.262960505529225,8.323433807266971,-10.446735860979457,7.6619943127961765
5.270958925750394,8.478603159557643,-10.526437766006868,8.06342090883742
5.2789573459715635,8.633772511848335,-10.606139671034287,8.464847504878708
5.286955766192732,8.788941864139007,-10.685841576061698,8.866274100919952
5.294954186413902,8.944111216429697,-10.765543481089116,9.267700696961239
5.3029526066350705,1.732942363552961,-2.6593731845283752,-0.23128369770166482
5.310951026856239,1.8678834530907427,-2.4929544412169617,-0.3594304302773784
5.318949447077409,2.0028245426285394,-2.32653569790553,-0.4875771628531063
5.3269478672985775,2.137765632166321,-2.1601169545941166,-0.61572389542882
5.334946287519746,2.272706721704103,-1.9936982112827033,-0.7438706280045335
5.342944707740916,2.4076478112418993,-1.8272794679712714,-0.8720173605802615
5.3509431279620845,2.5425889007796814,-1.6608607246598581,-1.000164093155975
5.358941548183254,2.6775299903174776,-1.4944419813484264,-1.128310825731703
5.366939968404423,2.8124710798552597,-1.328023238037013,-1.2564575583074165
5.3749383886255915,2.9474121693930413,-1.1616044947255997,-1.3846042908831302
5.382936808846761,3.082353258930838,-0.9951857514141678,-1.512751023458858
5.39093522906793,3.2172943484686196,-0.8287670081027545,-1.6408977560345717
5.3989336492890985,1.6043222748818602,-0.08240758293805706,-3.971530805686792
5.406932069510268,0.4028445688293272,-1.276950754480581,-5.602471495887125
5.414930489731437,0.5754311706705786,-1.1812455194203904,-5.786504112872462
5.422928909952606,0.7480177725118492,-1.0855402843601891,-5.9705367298578205
5.430927330173775,0.9206043743531005,-0.9898350492999985,-6.154569346843158
5.438925750394944,1.0931909761943521,-0.8941298142398081,-6.338601963828495
5.446924170616113,1.2657775780356226,-0.7984245791796069,-6.522634580813854
5.454922590837282,1.438364179876874,-0.7027193441194163,-6.706667197799191
5.462921011058451,1.6109507817181254,-0.6070141090592258,-6.890699814784528
5.47091943127962,1.7835373835593962,-0.5113088739990246,-7.0747324317698865
5.478917851500789,1.9561239854006476,-0.415603638938834,-7.258765048755224
5.486916271721959,2.128710587241918,-0.3198984038786328,-7.442797665740582
5.494914691943127,2.3012971890831695,-0.2241931688184422,-7.626830282725919
5.502913112164296,2.473883790924421,-0.12848793375825163,-7.810862899711257
5.510911532385466,2.6464703927656914,-0.032782698698050616,-7.994895516696616
5.518909952606634,2.819056994606943,0.06292253636213996,-8.178928133681953
5.526908372827803,29.07683116113931,-15.794057266984135,4.8462877172189005
5.534906793048973,20.435206374282238,-8.603566237869622,8.20555573108649
5.542905213270141,19.96799706612508,-7.672321597833547,8.872979462875126
5.550903633491311,19.50078775796787,-6.74107695779737,9.540403194663835
5.55890205371248,19.03357844981071,-5.809832317761295,10.207826926452471
5.566900473933648,18.566369141653553,-4.878587677725221,10.875250658241107
5.574898894154818,18.099159833496344,-3.947343037689043,11.542674390029816
5.582897314375987,17.631950525339185,-3.0160983976529687,12.210098121818453
5.590895734597155,17.164741217182026,-2.0848537576168944,12.877521853607089
5.598894154818325,4.432362559244594,-7.1068815165859665,1.7940592417070174
5.606892575039494,-1.464044482311809,-2.7540294300371055,1.3648778600209406
5.614890995260663,-1.4088643697747512,-2.6932773843122666,1.4032523031045299
5.622889415481832,-1.3536842572376993,-2.6325253385874343,1.4416267461881147
5.6308878357030006,-1.2985041447006476,-2.571773292862602,1.4800011892716995
5.63888625592417,-1.2433240321635897,-2.511021247137763,1.5183756323552886
5.646884676145339,-1.1881439196265378,-2.450269201412931,1.5567500754388734
5.654883096366508,-1.1329638070894799,-2.389517155688092,1.5951245185224627
5.662881516587677,-1.0777836945524282,-2.3287651099632596,1.6334989616060476
5.670879936808846,-1.0226035820153763,-2.2680130642384273,1.6718734046896324
5.678878357030015,-0.9674234694783185,-2.2072610185135884,1.7102478477732217
5.686876777251184,-0.9122433569412667,-2.146508972788756,1.7486222908568065
5.694875197472353,0.2391793048965517,-4.319296208529279,2.0255260663505403
5.702873617693522,1.9600624012636585,-5.089999999999938,-0.6384747235384371
5.710872037914691,3.6332319312793846,-5.7228749999999105,-3.3614369075825534
5.718870458135861,3.7601195488445507,-5.7505712553730834,-3.412138322495315
5.726868878357029,3.8618668944487204,-5.768428193541274,-3.4193927036261424
5.734867298578198,3.96361424005289,-5.786285131709465,-3.4266470847569703
5.742865718799368,4.0653615856570715,-5.804142069877658,-3.4339014658877987
5.750864139020536,4.167108931261241,-5.821999008045848,-3.441155847018626
5.758862559241705,4.268856276865412,-5.839855946214039,-3.4484102281494535
5.766860979462875,4.370603622469593,-5.857712884382232,-3.455664609280282
5.774859399684043,4.472350968073763,-5.875569822550423,-3.4629189904111093
5.782857819905213,4.574098313677944,-5.893426760718615,-3.4701733715419376
5.790856240126382,4.675845659282114,-5.911283698886806,-3.477427752672765
5.79885466034755,4.290334913112488,-1.0101500789923845,-3.0193349131124894
5.80685308056872,8.894686526742985,-7.730471902504729,-11.268368991198013
5.814851500789889,12.301476909511575,-9.028390682978804,-12.647310389801241
5.822849921011057,14.446541606965463,-8.997327050957056,-12.650007531503729
5.830848341232227,16.591606304419585,-8.966263418935304,-12.652704673206216
5.838846761453396,18.736671001873475,-8.935199786913556,-12.655401814908704
5.846845181674565,20.8817356993276,-8.904136154891804,-12.658098956611191
5.854843601895734,23.026800396781486,-8.873072522870057,-12.660796098313677
5.862842022116903,25.171865094235372,-8.842008890848309,-12.663493240016164
5.870840442338072,27.316929791689496,-8.810945258826557,-12.666190381718652
5.878838862559241,29.461994489143386,-8.779881626804809,-12.668887523421139
5.88683728278041,31.60705918659727,-8.74881799478306,-12.671584665123627
5.894835703001579,28.9955647709353,-10.253679304896222,-11.84581832543503
5.902834123222748,2.4604371748930713,-2.933506993411166,-6.108965553115245
5.9108325434439175,2.510313502613698,-2.935717938838156,-6.130619812738411
5.918830963665086,2.560189830334319,-2.937928884265146,-6.152274072361576
5.926829383886255,2.61006615805494,-2.9401398296921353,-6.173928331984739
5.9348278041074245,2.6599424857755665,-2.9423507751191256,-6.195582591607906
5.942826224328593,2.7098188134961876,-2.944561720546115,-6.21723685123107
5.950824644549762,2.7596951412168087,-2.946772665973105,-6.238891110854234
5.9588230647709315,2.809571468937435,-2.9489836114000947,-6.2605453704774
5.9668214849921,2.8594477966580563,-2.9511945568270845,-6.282199630100564
5.97481990521327,2.9093241243786827,-2.9534055022540744,-6.30385388972373
5.9828183254344385,2.959200452099304,-2.9556164476810642,-6.325508149346895
5.990816745655607,3.0090767798199245,-2.957827393108054,-6.347162408970059
5.998815165876777,3.0589531075405514,-2.960038338535044,-6.368816668593225
6.0068135860979455,3.1088294352611725,-2.962249283962034,-6.39047092821639
6.014812006319114,3.1587057629817936,-2.9644602293890236,-6.412125187839553
6.022810426540284,3.20858209070242,-2.9666711748160135,-6.43377944746272
6.0308088467614525,4.636761477700806,-2.6394209989062976,-4.751481224936236
6.038807266982622,4.6937348401992915,-2.702916150200506,-4.51891177542838
6.046805687203791,4.75070820269777,-2.766411301494707,-4.2863423259205495
6.0548041074249594,4.8076815651962495,-2.8299064527889084,-4.05377287641272
6.062802527646129,4.864654927694735,-2.8934016040831168,-3.8212034269048636
6.070800947867298,4.921628290193214,-2.956896755377318,-3.5886339773970333
6.078799368088466,4.978601652691693,-3.0203919066715192,-3.356064527889203
6.086797788309636,5.035575015190179,-3.0838870579657276,-3.123495078381347
6.094796208530805,5.092548377688657,-3.147382209259929,-2.890925628873517
6.102794628751974,6.035513315278653,-5.344239675016859,-3.794207176709496
6.110793048973143,7.526076055066423,-6.8593689911982185,-4.932268111035766
6.118791469194312,7.820438012136233,-7.117323913717495,-5.143669796695746
6.126789889415481,7.902216252528378,-7.151859148691143,-5.190389540978278
6.13478830963665,7.983994492920514,-7.186394383664787,-5.237109285260805
6.14278672985782,8.06577273331266,-7.2209296186384355,-5.283829029543338
6.150785150078988,8.147550973704796,-7.25546485361208,-5.330548773825865
6.158783570300157,8.22932921409693,-7.290000088585724,-5.377268518108393
6.166781990521327,8.311107454489076,-7.324535323559372,-5.4239882623909255
6.174780410742495,8.392885694881212,-7.359070558533016,-5.470708006673453
6.182778830963664,8.474663935273348,-7.39360579350666,-5.51742775095598
6.190777251184834,8.556442175665493,-7.428141028480308,-5.564147495238513
6.198775671406002,8.638220416057628,-7.462676263453952,-5.61086723952104
6.206774091627172,8.719998656449773,-7.497211498427601,-5.657586983803572
6.214772511848341,8.80177689684191,-7.531746733401245,-5.7043067280861
6.222770932069509,6.964284676144786,-6.251731753555297,-5.344621484992032
6.230769352290679,8.515848112278796,-3.946106325983911,-5.592025848844922
6.2387677725118476,8.277866130915617,-4.12033278384502,-5.679081118208656
6.246766192733016,8.039884149552439,-4.29455924170613,-5.766136387572391
6.254764612954186,7.801902168189233,-4.468785699567259,-5.8531916569361355
6.2627630331753545,7.563920186826054,-4.643012157428369,-5.94024692629987
6.270761453396524,7.325938205462848,-4.817238615289497,-6.027302195663615
6.278759873617693,7.08795622409967,-4.991465073150607,-6.114357465027349
6.2867582938388615,6.84997424273649,-5.165691531011717,-6.201412734391084
6.294756714060031,6.611992261373285,-5.3399179888728465,-6.288468003754828
6.3027551342812,5.408386650868906,-4.289776856240094,-5.6276086097947156
6.3107535545023685,5.654957345971544,-4.355393364928926,-5.104985781990532
6.318751974723538,5.766233613259044,-4.263481693966363,-5.043383913971349
6.326750394944707,5.877509880546532,-4.17157002300381,-4.981782045952173
6.334748815165876,5.988786147834031,-4.079658352041248,-4.920180177932989
6.342747235387045,6.100062415121519,-3.987746681078695,-4.8585783099138125
6.350745655608214,6.211338682409006,-3.895835010116142,-4.7969764418946355
6.358744075829383,6.322614949696506,-3.803923339153579,-4.735374573875452
6.366742496050552,6.433891216983994,-3.7120116681910265,-4.673772705856276
6.374740916271721,6.545167484271482,-3.6200999972284738,-4.612170837837099
6.38273933649289,6.656443751558982,-3.5281883262659113,-4.550568969817916
6.390737756714059,6.767720018846469,-3.4362766553033586,-4.488967101798739
6.398736176935229,6.878996286133969,-3.344364984340795,-4.427365233779556
6.406734597156397,6.990272553421456,-3.2524533133782425,-4.36576336576038
6.414733017377566,7.101548820708944,-3.16054164241569,-4.304161497741203
6.422731437598736,8.086744075829312,-3.4995797788309764,-3.681157187993762
6.430729857819904,8.113787703694086,-3.5196838927481626,-3.6733548659352033
6.438728278041073,8.104255339868857,-3.547294877621238,-3.7078685970265477
6.446726698262243,8.094722976043629,-3.5749058624943166,-3.7423823281178956
6.454725118483411,8.0851906122184,-3.602516847367392,-3.77689605920924
6.462723538704581,8.07565824839317,-3.63012783224047,-3.811409790300588
6.47072195892575,8.066125884567942,-3.657738817113546,-3.8459235213919323
6.478720379146918,8.056593520742714,-3.685349801986621,-3.880437252483276
6.486718799368088,8.047061156917485,-3.7129607868596994,-3.9149509835746246
6.494717219589257,8.037528793092257,-3.740571771732775,-3.9494647146659685
6.502715639810425,8.017568720379149,-4.06605924170615,-4.2098317535544805
6.510714060031595,7.98557398630859,-3.9274539231174925,-4.353566087414416
6.518712480252764,8.097194628751955,-3.682984044233822,-4.349095102685629
6.526710900473933,8.015317535545044,-3.7548918918918743,-4.424944793134353
6.534709320695102,7.771365718799399,-3.960148648648623,-4.582751462362817
6.542707740916271,7.527413902053753,-4.165405405405371,-4.740558131591281
6.55070616113744,7.28346208530808,-4.3706621621621435,-4.898364800819762
6.558704581358609,7.0395102685624344,-4.575918918918892,-5.056171470048226
6.566703001579778,6.795558451816788,-4.781175675675641,-5.213978139276691
6.574701421800947,6.551606635071115,-4.986432432432412,-5.371784808505172
6.582699842022116,6.307654818325469,-5.191689189189161,-5.529591477733636
6.5906982622432855,6.063703001579796,-5.396945945945932,-5.687398146962117
6.598696682464454,5.838146919431269,-5.120554502369714,-5.769563981042674
6.606695102685623,5.879531587083184,-4.9710416857768935,-5.702122475326573
6.6146935229067925,5.8858959214527165,-4.976717983998369,-5.702294484363587
6.622691943127961,5.892260255822249,-4.982394282219843,-5.7024664934006015
6.63069036334913,5.898624590191781,-4.988070580441318,-5.702638502437615
6.6386887835702995,5.904988924561313,-4.993746878662793,-5.70281051147463
6.646687203791468,5.911353258930846,-4.999423176884267,-5.702982520511644
6.654685624012638,5.917717593300378,-5.005099475105743,-5.703154529548659
6.6626840442338064,5.924081927669911,-5.010775773327218,-5.7033265385856735
6.670682464454975,5.9304462620394425,-5.016452071548692,-5.703498547622687
6.678680884676145,5.936810596408975,-5.022128369770168,-5.703670556659702
6.686679304897313,5.943174930778508,-5.027804667991642,-5.703842565696716
6.694677725118483,6.003218009478628,-5.07840758293835,-5.553545023696808
6.702676145339652,5.731482030015817,-5.393393167456519,-5.334376974723552
6.71067456556082,5.679766304575766,-5.503364565421017,-5.294100434788687
6.71867298578199,5.685074990563268,-5.508106991569853,-5.294241999748354
6.726671406003159,5.690383676550769,-5.512849417718687,-5.294383564708021
6.734669826224327,5.695692362538271,-5.517591843867522,-5.294525129667687
6.742668246445497,5.7010010485257725,-5.522334270016357,-5.294666694627354
6.750666666666666,5.706309734513274,-5.527076696165191,-5.29480825958702
6.758665086887835,5.711618420500776,-5.531819122314026,-5.294949824546687
6.766663507109004,5.716927106488277,-5.536561548462861,-5.295091389506354
6.774661927330173,5.722235792475779,-5.541303974611695,-5.29523295446602
6.782660347551342,5.7275444784632805,-5.546046400760531,-5.295374519425687
6.790658767772511,5.732853164450782,-5.550788826909365,-5.295516084385354
6.79865718799368,5.738161850438283,-5.5555312530581995,-5.295657649345021
6.806655608214849,5.743470536425786,-5.560273679207035,-5.2957992143046875
6.814654028436018,5.748779222413287,-5.56501610535587,-5.295940779264354
6.822652448657188,5.688237388099,-5.631545845181675,-5.343891248025276
6.830650868878356,5.679705739863087,-5.624507235387046,-5.3675665718799355
6.838649289099525,5.671174091627173,-5.6174686255924176,-5.391241895734595
6.8466477093206946,5.66264244339126,-5.610430015797789,-5.414917219589257
6.854646129541863,5.654110795155346,-5.60339140600316,-5.438592543443916
6.862644549763032,5.645579146919433,-5.5963527962085315,-5.462267867298575
6.8706429699842015,5.637047498683518,-5.589314186413903,-5.485943191153237
6.87864139020537,5.628515850447605,-5.582275576619274,-5.5096185150078965
6.88663981042654,5.6199842022116915,-5.575236966824645,-5.5332938388625585
6.8946382306477085,5.611452553975778,-5.568198357030017,-5.556969162717217
6.902636650868877,5.74159010005265,-5.416645918904698,-5.659481411269077
6.910635071090047,5.80344454976303,-5.345193364928915,-5.732533649289095
6.9186334913112155,5.89826224328596,-5.087905213270119,-5.779985781990585
6.926631911532384,5.8916602024696125,-5.1077876648289635,-5.7401468549505115
6.934630331753554,5.89549617951446,-5.115949318115871,-5.7329646000580325
6.9426287519747225,5.899332156559305,-5.124110971402778,-5.725782345165555
6.950627172195892,5.903168133604153,-5.132272624689686,-5.7186000902730765
6.958625592417061,5.907004110648998,-5.140434277976593,-5.711417835380598
6.9666240126382295,5.9108400876938445,-5.1485959312634995,-5.70423558048812
6.974622432859399,5.914676064738691,-5.156757584550407,-5.6970533255956415
6.982620853080568,5.918512041783537,-5.164919237837314,-5.6898710707031634
6.9906192733017365,5.922348018828384,-5.173080891124221,-5.682688815810685
6.998617693522906,5.92618399587323,-5.181242544411129,-5.6755065609182065
7.006616113744075,5.9300199729180765,-5.189404197698035,-5.6683243060257285
7.014614533965244,5.933855949962923,-5.197565850984943,-5.66114205113325
7.022612954186413,5.909265086887831,-5.247315745129018,-5.460824181147975
7.030611374407582,5.99884739336492,-5.187060979462881,-5.408247898894159
7.038609794628751,6.0884296998420195,-5.126806213796737,-5.355671616640339
7.04660821484992,6.178012006319109,-5.0665514481306,-5.303095334386523
7.054606635071089,6.267594312796198,-5.006296682464463,-5.250519052132708
7.062605055292258,6.357176619273297,-4.946041916798318,-5.197942769878886
7.070603475513427,6.446758925750386,-4.885787151132181,-5.145366487625071
7.078601895734597,6.536341232227485,-4.825532385466037,-5.09279020537125
7.086600315955765,6.6259235387045745,-4.765277619799899,-5.0402139231174345
7.094598736176934,6.715505845181664,-4.7050228541337615,-4.987637640863619
7.102597156398104,6.72,-4.702,-4.985
7.110595576619272,6.695354572582061,-4.744497688842081,-5.118344421040312
7.118593996840441,6.697131999297876,-4.741979667661343,-5.125083830671112
7.126592417061611,6.698909426013691,-4.7394616464806045,-5.131823240301912
7.134590837282779,6.700686852729507,-4.736943625299866,-5.138562649932712
7.142589257503949,6.702464279445322,-4.734425604119127,-5.145302059563512
7.150587677725118,6.704241706161137,-4.731907582938389,-5.152041469194312
7.158586097946286,6.7060191328769525,-4.7293895617576505,-5.1587808788251115
7.166584518167456,6.707796559592769,-4.726871540576912,-5.165520288455912
7.174582938388625,6.709573986308584,-4.724353519396174,-5.1722596980867115
7.182581358609794,6.711351413024399,-4.721835498215436,-5.178999107717512
7.190579778830963,6.7131288397402145,-4.719317477034697,-5.1857385173483115
7.198578199052132,6.71490626645603,-4.716799455853959,-5.1924779269791115
7.206576619273301,6.716683693171845,-4.71428143467322,-5.1992173366099115
7.21457503949447,6.71846111988766,-4.7117634134924815,-5.2059567462407115
7.222573459715639,7.039911848341234,-4.720270900473952,-5.467250236966828
7.230571879936808,7.03031374407583,-4.571926866771993,-5.440055608214852
7.238570300157977,7.020715639810428,-4.423582833070052,-5.412860979462878
7.2465687203791465,7.011117535545024,-4.275238799368093,-5.385666350710902
7.254567140600315,7.001519431279622,-4.126894765666152,-5.358471721958928
7.262565560821484,6.99192132701422,-3.9785507319642095,-5.331277093206954
7.2705639810426534,6.982323222748816,-3.8302066982622516,-5.304082464454978
7.278562401263822,6.972725118483414,-3.6818626645603096,-5.276887835703004
7.286560821484991,6.963127014218011,-3.5335186308583677,-5.249693206951031
7.29455924170616,6.953528909952608,-3.38517459715641,-5.222498578199055
7.302557661927329,7.006533438651913,-3.5294128488678,-4.990491311216468
7.310556082148499,7.279173775671392,-4.013323854660325,-4.38916850974199
7.318554502369667,7.540961905333257,-4.477547123402725,-3.9409305897174423
7.326552922590836,7.499147379366894,-4.466815065890777,-3.9019509468674434
7.334551342812006,7.457332853400526,-4.456083008378828,-3.86297130401744
7.342549763033174,7.415518327434164,-4.44535095086688,-3.823991661167441
7.350548183254343,7.373703801467801,-4.434618893354932,-3.785012018317442
7.358546603475513,7.331889275501434,-4.423886835842983,-3.7460323754674385
7.366545023696681,7.290074749535071,-4.413154778331035,-3.7070527326174396
7.374543443917851,7.248260223568704,-4.402422720819086,-3.6680730897674363
7.38254186413902,7.206445697602342,-4.391690663307138,-3.6290934469174374
7.390540284360188,7.164631171635979,-4.380958605795191,-3.590113804067438
7.398538704581358,8.0855829064739,-4.713802671262388,-3.017366125712099
7.406537124802527,8.116283913383436,-4.66363076260233,-2.9458650964622577
7.414535545023695,8.146984920292972,-4.613458853942272,-2.8743640672124164
7.422533965244865,8.177685927202512,-4.563286945282208,-2.802863037962567
7.430532385466034,8.208386934112049,-4.51311503662215,-2.731362008712726
7.438530805687203,8.23908794102159,-4.462943127962086,-2.659860979462877
7.446529225908372,8.269788947931126,-4.412771219302028,-2.588359950213036
7.454527646129541,8.300489954840662,-4.36259931064197,-2.5168589209631946
7.46252606635071,8.331190961750202,-4.312427401981907,-2.4453578917133454
7.470524486571879,8.361891968659739,-4.262255493321849,-2.373856862463504
7.478522906793048,8.392592975569274,-4.212083584661791,-2.302355833213663
7.486521327014217,8.423293982478814,-4.1619116760017265,-2.2308548039638136
7.494519747235386,8.388071090047523,-4.285477093206607,-2.019510268562693
7.5025181674565555,8.538592417061555,-4.5193791469193805,-1.792116903633467
7.510516587677724,8.8169237584999,-4.760887080156606,-1.9483097053369032
7.518515007898893,8.773871392265956,-4.719017089085793,-1.9781472903358717
7.5265134281200625,8.730819026032009,-4.6771470980149745,-2.0079848753348433
7.534511848341231,8.687766659798067,-4.635277106944161,-2.0378224603338118
7.5425102685624,8.644714293564125,-4.593407115873348,-2.0676600453327802
7.5505086887835695,8.601661927330177,-4.55153712480253,-2.097497630331752
7.558507109004738,8.558609561096233,-4.509667133731716,-2.1273352153307203
7.566505529225908,8.515557194862286,-4.467797142660898,-2.157172800329692
7.5745039494470765,8.472504828628344,-4.425927151590084,-2.1870103853286604
7.582502369668245,8.429452462394401,-4.384057160519271,-2.216847970327629
7.590500789889415,8.386400096160454,-4.342187169448453,-2.2466855553266005
7.5984992101105835,8.34334772992651,-4.3003171783776395,-2.276523140325569
7.606497630331752,8.300295363692568,-4.258447187306826,-2.3063607253245375
7.614496050552922,8.25724299745862,-4.216577196236008,-2.336198310323509
7.6224944707740905,9.11,-4.261,-1.755
7.63049289099526,9.038578199052136,-4.222774247380016,-1.7944145918162986
7.638491311216429,8.95059557661928,-4.175684956500461,-1.84296838217297
7.6464897314375975,8.862612954186426,-4.128595665620904,-1.8915221725296418
7.654488151658767,8.774630331753562,-4.081506374741343,-1.9400759628863187
7.662486571879936,8.686647709320706,-4.034417083861786,-1.9886297532429902
7.6704849921011045,8.598665086887852,-3.9873277929822306,-2.037183543599662
7.678483412322274,8.510682464454987,-3.940238502102669,-2.085737333956339
7.686481832543443,8.422699842022132,-3.893149211223113,-2.1342911243130103
7.694480252764612,8.334717219589267,-3.8460599203435515,-2.1828449146696873
7.702478672985781,9.701740013540684,-3.8137576167908076,-2.996570751523375
7.71047709320695,10.95848323998276,-3.756802024989225,-2.9360463306046194
7.718475513428119,11.005601206376559,-3.786250753985349,-2.970657676288953
7.726473933649288,11.052719172770352,-3.81569948298147,-3.005269021973283
7.734472353870458,11.099837139164151,-3.8451482119775946,-3.0398803676576165
7.742470774091626,11.146955105557945,-3.8745969409737153,-3.0744917133419465
7.750469194312795,11.194073071951738,-3.9040456699698365,-3.1091030590262765
7.758467614533965,11.241191038345537,-3.9334943989659608,-3.1437144047106105
7.766466034755133,11.28830900473933,-3.962943127962082,-3.17832575039494
7.774464454976302,11.335426971133124,-3.9923918569582026,-3.21293709607927
7.782462875197472,11.382544937526923,-4.021840585954327,-3.247548441763604
7.79046129541864,11.429662903920716,-4.0512893149504485,-3.2821597874479336
7.79845971563981,11.476780870314515,-4.080738043946573,-3.3167711331322676
7.806458135860979,11.523898836708309,-4.1101867729426935,-3.3513824788165976
7.814456556082147,11.571016803102104,-4.139635501938814,-3.3859938245009276
7.822454976303317,12.515689698179147,-4.164676976802196,-2.2523272636567886
7.830453396524486,12.084616945206685,-4.163624553088884,-2.11003957761705
7.838451816745654,11.653544192234222,-4.1625721293755715,-1.9677518915773113
7.846450236966824,11.22247143926171,-4.16151970566226,-1.825464205537557
7.854448657187993,10.791398686289249,-4.160467281948948,-1.6831765194978183
7.862447077409162,10.360325933316737,-4.159414858235636,-1.540888833458064
7.870445497630331,9.929253180344276,-4.158362434522325,-1.3986011474183253
7.8784439178515,9.498180427371812,-4.157310010809013,-1.2563134613785867
7.886442338072669,9.067107674399303,-4.156257587095702,-1.1140257753388323
7.894440758293838,8.63603492142684,-4.15520516338239,-0.9717380892990937
7.9024391785150065,6.546922590837778,-3.5909462875197935,-1.9504407582935948
7.910437598736176,5.996384193823485,-3.4948543807406836,-2.205941785849097
7.918436018957345,5.979467181143314,-3.4375205720756687,-2.194687371555594
7.926434439178514,5.9625501684631415,-3.3801867634106473,-2.18343295726209
7.934432859399683,5.9456331557829705,-3.3228529547456325,-2.172178542968587
7.942431279620852,5.9287161431027995,-3.2655191460806177,-2.160924128675084
7.950429699842021,5.911799130422627,-3.2081853374155966,-2.14966971438158
7.95842812006319,5.894882117742456,-3.150851528750582,-2.1384153000880772
7.966426540284359,5.877965105062285,-3.093517720085567,-2.127160885794574
7.974424960505528,5.861048092382112,-3.036183911420546,-2.11590647150107
7.982423380726697,5.84413107970194,-2.978850102755531,-2.1046520572075673
7.990421800947867,5.827214067021767,-2.9215162940905097,-2.0933976429140633
7.998420221169035,5.810297054341596,-2.864182485425495,-2.08214322862056
8.006418641390205,5.793380041661424,-2.806848676760474,-2.070888814327056
8.014417061611374,5.776463028981253,-2.749514868095459,-2.059634400033553
8.022415481832542,5.7545945497630235,-3.8601566802076275,-1.5588927443015201
8.030413902053711,5.875770616113729,-3.867298126833671,-1.4591981494019535
8.03841232227488,5.996946682464434,-3.8744395734597146,-1.3595035545023868
8.04641074249605,6.118122748815166,-3.8815810200857594,-1.2598089596027982
8.054409162717219,6.2392988151658715,-3.888722466711803,-1.1601143647032315
8.062407582938388,6.360474881516577,-3.8958639133378465,-1.0604197698036648
8.070406003159556,6.481650947867283,-3.90300535996389,-0.9607251749040984
8.078404423380725,6.602827014217988,-3.910146806589933,-0.8610305800045317
8.086402843601896,6.72400308056872,-3.9172882532159785,-0.761335985104943
8.094401263823064,6.845179146919426,-3.924429699842022,-0.6616413902053764
8.102399684044233,6.9663552132701305,-3.931571146468065,-0.5619467953058097
8.110398104265402,7.087531279620836,-3.9387125930941087,-0.46225220040624326
8.11839652448657,7.208707345971542,-3.9458540397201523,-0.3625576055066766
8.126394944707739,7.329883412322246,-3.952995486346196,-0.2628630106071099
8.13439336492891,7.451059478672979,-3.9601369329722407,-0.16316841570752127
8.142391785150078,7.572235545023684,-3.967278379598284,-0.0634738208079546
8.150390205371247,7.69341161137439,-3.9744198262243278,0.03622077409161184
8.158388625592416,7.814587677725095,-3.981561272850371,0.1359153689911785
8.166387045813584,10.337845633039782,-3.4328302866161597,1.3307779282328838
8.174385466034755,10.981385906301034,-7.1999113769974645,1.6284350089347361
8.182383886255923,10.590381166964557,-6.508900318545676,2.303842591873097
8.190382306477092,10.19937642762808,-5.817889260093888,2.979250174811458
8.198380726698261,9.808371688291603,-5.126878201642099,3.654657757749819
8.20637914691943,9.417366948955125,-4.435867143190311,4.330065340688179
8.2143775671406,9.026362209618561,-3.744856084738369,5.005472923626691
8.222375987361769,8.635357470282084,-3.053845026286581,5.680880506565051
8.230374407582937,8.244352730945607,-2.362833967834792,6.356288089503412
8.238372827804106,7.532731514661083,-2.4311152275267274,4.9969852040226375
8.246371248025275,7.74673802643235,-2.169605902978519,5.107597503178798
8.254369668246445,7.960744538203666,-1.9080965784302522,5.218209802334984
8.262368088467614,8.174751049974933,-1.6465872538820436,5.328822101491146
8.270366508688783,8.388757561746202,-1.3850779293338351,5.439434400647307
8.278364928909951,8.60276407351747,-1.1235686047856268,5.5500466998034685
8.28636334913112,8.816770585288737,-0.8620592802374183,5.660658998959629
8.294361769352289,9.030777097060005,-0.6005499556892098,5.771271298115791
8.30236018957346,9.24478360883132,-0.3390406311409433,5.881883597271977
8.310358609794628,9.458790120602588,-0.07753130659273477,5.992495896428139
8.318357030015797,9.672796632373856,0.18397801795547375,6.1031081955843
8.326355450236965,7.1169004739337245,-4.498421800944165,6.737535545021586
8.334353870458134,6.375894831866342,0.05141141954410006,3.1904190927555014
8.342352290679305,6.555630760550648,0.12076914917625124,3.470478063642491
8.350350710900473,6.735366689234914,0.19012687880838702,3.750537034529418
8.358349131121642,6.915102617919181,0.2594846084405228,4.030596005416345
8.36634755134281,7.094838546603446,0.3288423380726586,4.310654976303272
8.37434597156398,7.274574475287713,0.3982000677047943,4.590713947190199
8.38234439178515,7.454310403972019,0.4675577973369456,4.870772918077189
8.390342812006319,7.634046332656284,0.5369155269690813,5.150831888964116
8.398341232227487,7.813782261340551,0.6062732566012171,5.4308908598510435
8.406339652448656,9.001437598736295,-3.791872037914704,6.160081095313337
8.414338072669825,7.445744865719041,-3.629904028436044,5.981449710373909
8.422336492890993,3.099507257108924,1.0965189079779296,2.445611275671362
8.430334913112164,3.460685920221153,0.8894764678778397,2.6394063322801387
8.438333333333333,3.8218645833333014,0.6824340277777959,2.8332013888888716
8.446331753554501,4.18304324644545,0.47539158767775214,3.0269964454976046
8.45433017377567,4.544221909557599,0.26834914757770834,3.220791502106338
8.462328593996839,4.905400572669748,0.061306707477664535,3.414586558715071
8.47032701421801,5.266579235781977,-0.14573573262242534,3.6083816153238475
8.478325434439178,5.627757898894126,-0.35277817272246903,3.8021766719325805
8.486323854660347,5.988936562006274,-0.5598206128225129,3.9959717285413134
8.494322274881515,6.350115225118423,-0.7668630529225566,4.189766785150047
8.502320695102684,6.711293888230571,-0.9739054930226003,4.38356184175878
8.510319115323854,7.0724725513428,-1.1809479331226904,4.577356898367556
8.518317535545023,7.95925118483484,-4.509080568720137,4.363748815166288
8.526315955766192,7.590635617936554,-4.540285312107603,4.411177765625592
8.53431437598736,7.687539555231483,-4.40502997529066,4.7502902742333495
8.54231279620853,7.784443492526412,-4.2697746384737165,5.089402782841107
8.550311216429698,7.881347429821341,-4.1345193016567725,5.428515291448865
8.558309636650868,7.978251367116292,-3.999263964839799,5.767627800056697
8.566308056872037,8.07515530441122,-3.8640086280228556,6.106740308664455
8.574306477093206,8.172059241706151,-3.728753291205912,6.445852817272213
8.582304897314375,8.26896317900108,-3.593497954388969,6.784965325879971
8.590303317535543,8.365867116296009,-3.458242617572025,7.1240778344877285
8.598301737756714,7.5968467614538655,-3.346721169036845,7.069781200631839
8.606300157977882,7.782096697160062,-1.7977618942650253,6.714003453470029
8.614298578199051,7.850362283698874,-1.8701196958007138,6.535620081560708
8.62229699842022,7.918627870237686,-1.9424774973364025,6.357236709651389
8.630295418641388,7.986893456776498,-2.0148352988720912,6.178853337742068
8.638293838862559,8.055159043315324,-2.087193100407796,6.000469965832709
8.646292259083728,8.123424629854137,-2.1595509019434846,5.822086593923389
8.654290679304896,8.191690216392947,-2.2319087034791734,5.643703222014069
8.662289099526065,8.25995580293176,-2.304266505014862,5.465319850104748
8.670287519747234,8.328221389470572,-2.376624306550551,5.286936478195429
8.678285939968402,8.396486976009383,-2.4489821080862395,5.108553106286109
8.686284360189573,8.46475256254821,-2.521339909621944,4.930169734376749
8.694282780410742,8.390335690463656,-3.0234585119988178,4.492158053110653
8.70228120063191,8.371545750896466,-2.9232878206575137,4.524913488302105
8.710279620853079,8.352755811329276,-2.82311712931621,4.557668923493559
8.718278041074248,8.333965871762086,-2.7229464379749064,4.590424358685011
8.726276461295418,8.315175932194892,-2.6227757466335806,4.623179793876472
8.734274881516587,8.296385992627702,-2.522605055292277,4.655935229067924
8.742273301737756,8.277596053060511,-2.4224343639509733,4.6886906642593775
8.750271721958924,8.258806113493323,-2.3222636726096697,4.72144609945083
8.758270142180093,8.240016173926133,-2.222092981268366,4.7542015346422835
8.766268562401264,8.221226234358937,-2.12192228992704,4.786956969833743
8.774266982622432,8.202436294791749,-2.021751598585736,4.8197124050251965
8.782265402843601,8.183646355224559,-1.9215809072444325,4.852467840216649
8.79026382306477,8.164856415657368,-1.8214102159031287,4.885223275408102
8.798262243285938,8.146066476090178,-1.721239524561825,4.917978710599555
8.806260663507109,8.127276536522984,-1.6210688332204992,4.9507341457910155
8.814259083728277,8.108486596955794,-1.5208981418791956,4.983489580982468
8.822257503949446,7.886058816381092,-1.3793961599222262,4.8913943371005
8.830255924170615,7.825763033175367,-1.3917014218009456,4.7172748815166194
8.838254344391784,7.559332515565451,-0.849666685252294,4.971005185391699
8.846252764612952,7.65710144038656,-0.8858007248396911,4.926402230276006
8.854251184834123,7.754870365207689,-0.9219347644270961,4.8817992751603025
8.862249605055291,7.852639290028798,-0.9580688040144932,4.83719632004461
8.87024802527646,7.950408214849906,-0.9942028436018903,4.7925933649289165
8.878246445497629,8.048177139671015,-1.0303368831892874,4.747990409813223
8.886244865718798,8.145946064492122,-1.0664709227766844,4.70338745469753
8.894243285939968,8.243714989313252,-1.1026049623640894,4.658784499581826
8.902241706161137,8.341483914134361,-1.1387390019514865,4.614181544466133
8.910240126382305,8.439252838955468,-1.1748730415388837,4.56957858935044
8.918238546603474,8.537021763776577,-1.2110070811262807,4.524975634234747
8.926236966824643,7.226860189573028,-1.0018815165874966,4.323248815166258
8.934235387045813,7.412927769906028,-1.2126845165388218,4.272108841875543
8.942233807266982,7.407320629957167,-1.3571508281624056,4.401567808341881
8.95023222748815,7.401713490008307,-1.5016171397859894,4.531026774808221
8.95823064770932,7.396106350059446,-1.6460834514095732,4.66048574127456
8.966229067930488,7.390499210110585,-1.790549763033157,4.7899447077409
8.974227488151657,7.384892070161724,-1.9350160746567409,4.919403674207239
8.982225908372827,7.3792849302128625,-2.0794823862803566,5.048862640673607
8.990224328593996,7.3736777902640025,-2.223948697903941,5.178321607139947
8.998222748815165,7.368070650315142,-2.3684150095275243,5.307780573606285
9.006221169036333,7.362463510366281,-2.5128813211511085,5.437239540072625
9.014219589257502,7.35685637041742,-2.6573476327746923,5.566698506538964
9.022218009478673,7.351249230468558,-2.801813944398308,5.696157473005332
9.030216429699841,7.119470876012842,-3.2611555487608146,6.361216429699842
9.03821484992101,7.122567038679101,-3.1766991115867538,6.36921484992101
9.046213270142179,7.125663201345359,-3.092242674412693,6.377213270142179
9.054211690363347,7.128759364011619,-3.007786237238632,6.385211690363348
9.062210110584518,7.131855526677878,-2.9233298000645522,6.393210110584518
9.070208530805687,7.1349516893441365,-2.8388733628904914,6.401208530805687
9.078206951026855,7.138047852010396,-2.7544169257164306,6.409206951026856
9.086205371248024,7.141144014676654,-2.6699604885423693,6.417205371248024
9.094203791469193,7.144240177342914,-2.5855040513683085,6.425203791469193
9.102202211690361,7.147336340009172,-2.5010476141942477,6.433202211690362
9.110200631911532,7.150432502675432,-2.416591177020168,6.441200631911532
9.1181990521327,7.153528665341691,-2.332134739846107,6.449199052132701
9.12619747235387,6.702445497630361,-2.5847298578201157,6.573928909952689
9.134195892575038,6.703310409734121,-2.495310409734122,6.548310409734122
9.142194312796207,6.72032832509831,-2.5123283250983106,6.565328325098311
9.150192733017377,6.737346240462503,-2.5293462404625036,6.5823462404625035
9.158191153238546,6.754364155826692,-2.546364155826692,6.5993641558266924
9.166189573459715,6.771382071190881,-2.563382071190881,6.616382071190881
9.174187993680883,6.78839998655507,-2.58039998655507,6.6333999865550695
9.182186413902052,6.805417901919259,-2.597417901919259,6.650417901919258
9.190184834123222,6.822435817283451,-2.6144358172834514,6.667435817283451
9.198183254344391,6.83945373264764,-2.6314537326476404,6.68445373264764
9.20618167456556,6.856471648011829,-2.6484716480118293,6.701471648011829
9.214180094786729,6.873489563376018,-2.665489563376018,6.718489563376018
9.222178515007897,6.87877985317351,-2.680831892946751,6.720521605798735
9.230176935229068,6.816203977325528,-2.6864778366322835,6.6358324505157515
9.238175355450236,6.7571919431279595,-2.7306658767772096,6.573604265402821
9.246173775671405,6.450683958840351,-2.6949325818709684,6.678854361470475
9.254172195892574,6.5157521882071565,-2.720441057170912,6.6746389778404
9.262170616113742,6.580820417573961,-2.7459495324708554,6.670423594210325
9.270169036334911,6.645888646940766,-2.7714580077707986,6.666208210580249
9.278167456556082,6.710956876307586,-2.796966483070748,6.661992826950173
9.28616587677725,6.776025105674391,-2.8224749583706914,6.657777443320097
9.294164296998419,6.8410933350411955,-2.8479834336706347,6.653562059690022
9.302162717219588,6.906161564408,-2.8734919089705784,6.649346676059947
9.310161137440756,6.971229793774806,-2.8990003842705216,6.6451312924298716
9.318159557661927,7.054785150078964,-2.9624533965244377,6.566805687203885
9.326157977883096,7.343065851833384,-2.8130969817909697,6.206304348549103
9.334156398104264,7.28244624594663,-2.815875380394113,6.171616462958349
9.342154818325433,7.221826640059877,-2.8186537789972554,6.136928577367597
9.350153238546602,7.161207034173124,-2.8214321776003985,6.102240691776843
9.358151658767772,7.1005874282863575,-2.824210576203542,6.067552806186082
9.366150078988941,7.039967822399605,-2.8269889748066848,6.032864920595329
9.37414849921011,6.979348216512852,-2.829767373409828,5.998177035004576
9.382146919431278,6.918728610626099,-2.8325457720129705,5.963489149413823
9.390145339652447,6.858109004739346,-2.835324170616113,5.92880126382307
9.398143759873616,6.797489398852593,-2.8381025692192563,5.8941133782323165
9.406142180094786,6.736869792965827,-2.8408809678224,5.859425492641556
9.414140600315955,6.676250187079074,-2.8436593664255425,5.824737607050803
9.422139020537124,6.534939851383786,-2.7145442045521233,5.881889181440513
9.430137440758292,6.318390029840301,-2.462445848692334,6.024675794277668
9.438135860979461,6.101840208296816,-2.210347492832545,6.167462407114822
9.446134281200631,6.930546603475479,-2.5410726698261814,6.000865718799345
9.4541327014218,7.774389991163967,-3.5732844405173476,6.618637079283474
9.462131121642969,7.657938415401526,-3.3340096661044165,6.635582884836798
9.470129541864138,7.541486839639086,-3.094734891691486,6.652528690390121
9.478127962085306,7.425035263876645,-2.8554601172785548,6.6694744959434455
9.486126382306477,7.308583688114179,-2.6161853428655704,6.6864203014967725
9.494124802527645,7.1921321123517385,-2.3769105684526393,6.703366107050097
9.502123222748814,7.075680536589298,-2.1376357940397086,6.72031191260342
9.510121642969983,6.961486571879933,-2.0057614533955253,6.685119273302238
9.518120063191152,7.4889825908372885,-3.3360437282780695,6.105653428120057
9.52611848341232,7.462507819905221,-3.200390521327048,6.134527725118476
9.53411690363349,7.436033048973146,-3.064737314375996,6.163402022116902
9.54211532385466,7.409558278041077,-2.9290841074249743,6.1922763191153205
9.550113744075828,7.383083507109009,-2.793430900473953,6.221150616113739
9.558112164296997,7.35660873617694,-2.657777693522931,6.250024913112159
9.566110584518166,7.330133965244872,-2.5221244865719097,6.278899210110578
9.574109004739336,7.3036591943127975,-2.386471279620858,6.307773507109004
9.582107424960505,7.277184423380729,-2.250818072669836,6.336647804107423
9.590105845181673,7.25070965244866,-2.1151648657188145,6.365522101105841
9.598104265402842,7.224234881516592,-1.9795116587677928,6.394396398104261
9.60610268562401,7.1977601105845235,-1.843858451816771,6.42327069510268
9.614101105845181,7.1712853396524485,-1.7082052448657195,6.452144992101105
9.62209952606635,7.591743696682471,-2.1591626540284397,5.840297440758293
9.630097946287519,7.5462326856240205,-2.131248167456561,5.849735576619272
9.638096366508687,7.500721674565571,-2.103333680884682,5.859173712480251
9.646094786729856,7.4552106635071205,-2.0754191943128033,5.86861184834123
9.654093206951025,7.409699652448671,-2.0475047077409245,5.878049984202209
9.662091627172195,7.364188641390211,-2.0195902211690395,5.88748812006319
9.670090047393364,7.31867763033176,-1.9916757345971605,5.8969262559241695
9.678088467614533,7.273166619273311,-1.9637612480252817,5.906364391785148
9.686086887835701,7.22765560821486,-1.935846761453403,5.915802527646127
9.69408530805687,7.182144597156411,-1.907932274881524,5.925240663507107
9.70208372827804,7.13663358609795,-1.880017788309639,5.934678799368088
9.71008214849921,7.0911225750395,-1.8521033017377602,5.944116935229067
9.718080568720378,7.0456115639810495,-1.8241888151658814,5.953555071090046
9.726078988941547,6.914202437373069,-1.833305348679632,5.798888738433823
9.734077409162715,6.844374666563068,-2.4649782197705568,5.481362235516536
9.742075829383886,6.888169295315051,-2.3763399891228314,5.486607101235336
9.750074249605055,6.931963924067023,-2.2877017584751256,5.491851966954135
9.758072669826223,6.975758552818997,-2.1990635278274198,5.497096832672934
9.766071090047392,7.01955318157097,-2.1104252971797144,5.502341698391733
9.77406951026856,7.063347810322942,-2.0217870665320086,5.5075865641105315
9.782067930489731,7.107142439074925,-1.9331488358842832,5.512831429829332
9.7900663507109,7.150937067826898,-1.8445106052365776,5.5180762955481315
9.798064770932069,6.831420796851178,-2.2885494551101737,6.580017016092323
9.806063191153237,6.636408466543532,-2.356400460545681,6.582118295980935
9.814061611374406,6.441396136235885,-2.4242514659811882,6.584219575869548
9.822060031595575,6.246383805928239,-2.4921024714166955,6.586320855758159
9.830058451816745,6.051371475620549,-2.559953476852218,6.588422135646772
9.838056872037914,5.8563591453129025,-2.627804482287725,6.590523415535384
9.846055292259082,5.661346815005256,-2.695655487723232,6.592624695423996
9.854053712480251,5.46633448469761,-2.763506493158739,6.594725975312608
9.86205213270142,5.271322154389963,-2.8313574985942465,6.59682725520122
9.87005055292259,5.076309824082273,-2.899208504029769,6.598928535089833
9.878048973143759,4.8812974937746265,-2.967059509465276,6.601029814978445
9.886047393364928,4.68628516346698,-3.0349105149007833,6.603131094867057
9.894045813586096,4.491272833159334,-3.1027615203362906,6.605232374755669
9.902044233807265,4.296260502851688,-3.170612525771798,6.607333654644282
9.910042654028436,4.101248172543997,-3.23846353120732,6.609434934532894
9.918041074249604,4.662551869404551,-3.1678962611901684,7.038264876250417
9.926039494470773,4.5154347886870925,-2.979274713752456,6.5854274490066835
9.934037914691942,4.603488193599782,-3.03490974290147,6.671994421842872
9.94203633491311,4.6915415985124715,-3.0905447720504844,6.758561394679061
9.95003475513428,4.779595003425161,-3.146179801199499,6.845128367515251
9.95803317535545,4.86764840833787,-3.2018148303485257,6.9316953403514585
9.966031595576618,4.95570181325056,-3.25744985949754,7.018262313187648
9.974030015797787,5.043755218163248,-3.3130848886465545,7.104829286023837
9.982028436018956,5.131808623075938,-3.368719917795569,7.191396258860026
9.990026856240124,5.219862027988627,-3.4243549469445833,7.277963231696215
9.998025276461295,5.3079154329013365,-3.4799899760936097,7.364530204532423
10.006023696682464,5.395968837814026,-3.535625005242624,7.451097177368612
10.014022116903632,5.484022242726716,-3.5912600343916385,7.537664150204801
10.022020537124801,5.572075647639405,-3.646895063540653,7.624231123040991
10.03001895734597,5.660129052552095,-3.7025300926896674,7.71079809587718
10.03801737756714,5.748182457464804,-3.7581651218386942,7.797365068713388
10.046015797788309,6.0533058062282175,-3.2084871561816977,7.485244541106713
10.054014218009478,6.090230020125942,-3.1985165227553094,7.470343374667276
10.062012638230646,6.127154234023665,-3.188545889328921,7.455442208227838
10.070011058451815,6.16407844792139,-3.178575255902533,7.440541041788401
10.078009478672984,6.201002661819113,-3.1686046224761446,7.4256398753489625
10.086007898894154,6.237926875716846,-3.158633989049754,7.4107387089095225
10.094006319115323,6.274851089614569,-3.1486633556233654,7.395837542470085
10.102004739336492,6.311775303512293,-3.138692722196977,7.380936376030647
10.11000315955766,6.348699517410017,-3.128722088770589,7.366035209591209
10.118001579778829,6.44710426540269,-3.174085308056747,7.553816745655142
10.126,5.974,-2.249,6.56
