accel_time_list,vertical_Accel_x,vertical_Accel_y,vertical_Accel_z
0.0,3.566,12.799,3.971
0.007996805111821086,0.9205096687405414,9.239117706406592,1.7196715991256095
0.015993610223642173,0.8304403901126618,9.339709097023709,1.5141116193038506
0.02399041533546326,0.7403711114847822,9.440300487640828,1.3085516394820917
0.031987220447284345,0.6503018328569026,9.540891878257945,1.1029916596603329
0.039984025559105435,0.560232554229023,9.641483268875064,0.8974316798385739
0.04798083067092652,0.4701632756011434,9.742074659492182,0.6918717000168151
0.0559776357827476,0.38009399697326385,9.8426660501093,0.4863117201950562
0.06397444089456869,0.29002471834538424,9.943257440726418,0.2807517403732973
0.07197124600638978,0.19995543971750473,10.043848831343535,0.07519176055153842
0.07996805111821087,0.10988616108962501,10.144440221960654,-0.13036821927022046
0.08796485623003195,0.019816882461745622,10.24503161257777,-0.3359281990919789
0.09596166134185304,-0.07025239616613399,10.34562300319489,-0.5414881789137382
0.10395846645367413,0.9006501597444034,9.278121405750795,0.9650159744408928
0.1119552715654952,1.0123621518701391,9.437355052118631,1.063280795172169
0.11995207667731629,1.0415222189950624,9.38832413592797,1.1521341853035143
0.12794888178913738,1.0706822861199858,9.339293219737309,1.2409875754348598
0.13594568690095846,1.099842353244909,9.29026230354665,1.3298409655662051
0.14394249201277956,1.1290024203698326,9.241231387355988,1.4186943556975506
0.15193929712460064,1.158162487494756,9.192200471165327,1.507547745828896
0.15993610223642174,1.1873225546196793,9.143169554974666,1.5964011359602415
0.16793290734824282,1.2164826217446028,9.094138638784006,1.6852545260915868
0.1759297124600639,1.245642688869526,9.045107722593345,1.774107916222932
0.183926517571885,1.2748027559944495,8.996076806402684,1.8629613063542778
0.19192332268370607,1.3039628231193727,8.947045890212024,1.9518146964856231
0.19992012779552715,1.333122890244296,8.898014974021363,2.040668086616968
0.20791693290734825,1.4750670926517562,9.789757188498406,0.8661341853035095
0.21591373801916933,1.3188502662406816,9.890698189563365,0.8579199148029819
0.2239105431309904,1.2523879304224352,9.875415406460773,0.8591638622648207
0.2319073482428115,1.185925594604189,9.860132623358181,0.8604078097266595
0.23990415335463258,1.1194632587859425,9.844849840255591,0.8616517571884984
0.24790095846645369,1.053000922967696,9.829567057153,0.8628957046503373
0.25589776357827476,0.9865385871494498,9.814284274050408,0.864139652112176
0.26389456869009587,0.9200762513312033,9.799001490947816,0.8653835995740149
0.2718913738019169,0.8536139155129572,9.783718707845226,0.8666275470358538
0.279888178913738,0.7871515796947107,9.768435924742635,0.8678714944976926
0.2878849840255591,0.7206892438764642,9.753153141640043,0.8691154419595314
0.29588178913738017,0.6542269080582181,9.737870358537451,0.8703593894213703
0.3038785942492013,0.812964856230032,10.064316293929712,0.6507699680511181
0.3118753993610224,0.7922193360188916,10.01490387553827,0.7437207945547993
0.3198722044728435,0.8039537783025421,9.96735765384081,0.7846609598555356
0.32786900958466453,0.8156882205861925,9.919811432143353,0.8256011251562716
0.33586581469648563,0.8274226628698431,9.872265210445896,0.8665412904570079
0.34386261980830674,0.8391571051534936,9.824718988748437,0.9074814557577442
0.3518594249201278,0.850891547437144,9.77717276705098,0.9484216210584802
0.3598562300319489,0.8626259897207946,9.72962654535352,0.9893617863592166
0.36785303514377,0.8743604320044451,9.682080323656063,1.0303019516599528
0.37584984025559104,0.8860948742880955,9.634534101958605,1.071242116960689
0.38384664536741214,0.8978293165717461,9.586987880261146,1.1121822822614251
0.39184345047923325,0.9095637588553966,9.539441658563689,1.1531224475621613
0.3998402555910543,0.921298201139047,9.491895436866232,1.1940626128628975
0.4078370607028754,1.353017198015091,9.362749235266127,1.7676119570389501
0.4158338658146965,1.2529720617225206,9.357304601998505,1.8138062674189381
0.42383067092651755,1.1529269254299508,9.351859968730883,1.8600005777989257
0.43182747603833865,1.0528817891373805,9.34641533546326,1.9061948881789135
0.43982428115015976,0.95283665284481,9.340970702195637,1.9523891985589013
0.4478210862619808,0.8527915165522403,9.335526068928013,1.9985835089388888
0.4558178913738019,0.7527463802596698,9.330081435660391,2.0447778193188766
0.463814696485623,0.6527012439670994,9.324636802392767,2.090972129698865
0.4718115015974441,0.5526561076745289,9.319192169125145,2.1371664400788526
0.47980830670926516,0.45261097138195916,9.313747535857523,2.18336075045884
0.48780511182108627,0.35256583508938877,9.3083029025899,2.2295550608388277
0.49580191693290737,0.25252069879681827,9.302858269322277,2.275749371218816
0.5037987220447284,0.47782428115016007,8.86361199858005,2.2335406460773877
0.5117955271565495,0.32588498402555927,8.649475328363508,2.048725594604189
0.5197923322683706,0.2980917078129538,8.596183415625907,2.016815386291025
0.5277891373801917,0.2735560557653208,8.547112111530641,1.988917441185013
0.5357859424920128,0.2490204037176879,8.498040807435375,1.9610194960790008
0.5437827476038338,0.2244847516700553,8.44896950334011,1.9331215509729889
0.5517795527156549,0.19994909962242235,8.399898199244845,1.9052236058669767
0.559776357827476,0.1754134475747894,8.350826895149579,1.8773256607609643
0.5677731629392971,0.15087779552715647,8.301755591054313,1.8494277156549521
0.5757699680511182,0.12634214347952352,8.252684286959047,1.8215297705489397
0.5837667731629393,0.10180649143189058,8.203612982863781,1.7936318254429275
0.5917635782747603,0.07727083938425797,8.154541678768515,1.7657338803369158
0.5997603833865814,0.05273518733662502,8.10547037467325,1.7378359352309034
0.6077571884984025,-0.5115029426601648,5.381160215234572,1.013490263998655
0.6157539936102236,-0.6318759038170509,5.155397780393475,1.0729191525138728
0.6237507987220448,-0.7522488649739372,4.929635345552378,1.1323480410290907
0.6317476038338659,-0.8726218261308232,4.703872910711281,1.1917769295443086
0.639744408945687,-0.9929947872877093,4.478110475870184,1.2512058180595265
0.647741214057508,-1.1133677484445936,4.252348041029091,1.3106347065747435
0.6557380191693291,-1.2337407096014799,4.026585606187993,1.3700635950899613
0.6637348242811502,-1.354113670758366,3.800823171346897,1.4294924836051794
0.6717316293929713,-1.474486631915252,3.5750607365058,1.4889213721203973
0.6797284345047924,-1.5948595930721383,3.349298301664703,1.5483502606356152
0.6877252396166135,-1.7152325542290243,3.123535866823606,1.607779149150833
0.6957220447284345,-1.8356055153859088,2.8977734319825124,1.6672080376660503
0.7037188498402556,-4.43920999128667,0.8320322393261702,2.897570142317747
0.7117156549520767,-4.875399361022366,1.3663642172523978,3.2821437699680525
0.7197124600638978,-4.919174767181021,1.3809286248385553,3.6527677248317603
0.7277092651757189,-4.806028482088233,1.1876441438379433,4.017813370946913
0.73570607028754,-4.692882196995445,0.9943596628373311,4.382859017062065
0.743702875399361,-4.579735911902659,0.8010751818367218,4.747904663177213
0.7516996805111821,-4.466589626809871,0.6077907008361098,5.112950309292365
0.7596964856230032,-4.353443341717083,0.41450621983549785,5.477995955407517
0.7676932907348243,-4.240297056624295,0.22122173883488583,5.843041601522669
0.7756900958466454,-4.1271507715315074,0.02793725783427381,6.208087247637822
0.7836869009584665,-4.014004486438719,-0.1653472231663382,6.573132893752975
0.7916837060702876,-3.9008582013459314,-0.3586317041669502,6.938178539868127
0.7996805111821086,-3.787711916253145,-0.5519161851675596,7.303224185983274
0.8076773162939297,-3.674565631160357,-0.7452006661681716,7.668269832098426
0.8156741214057508,-8.23035077668833,-3.6559097719510887,9.236417649002977
0.8236709265175719,-7.624340016892507,-4.220833498586174,9.844726341302197
0.831667731629393,-7.018329257096686,-4.78575722522126,10.453035033601415
0.8396645367412141,-6.4123184973008645,-5.350680951856345,11.061343725900635
0.8476613418530351,-5.806307737505051,-5.915604678491423,11.669652418199844
0.8556581469648562,-5.200296977709229,-6.480528405126509,12.277961110499062
0.8636549520766773,-4.594286217913408,-7.045452131761595,12.886269802798282
0.8716517571884984,-3.9882754581175863,-7.610375858396681,13.4945784950975
0.8796485623003195,-3.382264698321764,-8.175299585031766,14.102887187396718
0.8876453674121406,-2.776253938525943,-8.74022331166685,14.711195879695936
0.8956421725239616,-2.1702431787301295,-9.305147038301929,15.319504571995147
0.9036389776357827,-0.9019835340378624,-11.172441877611181,15.667235438682722
0.9116357827476038,1.1593467682477143,-14.599380437453899,15.70291349225854
0.9196325878594249,-1.470500742997252,-16.189840552789956,13.034706033137676
0.927629392971246,-1.233851103350918,-15.663353220893082,13.11551095920945
0.9356261980830671,-0.9972014637045842,-15.136865888996208,13.196315885281225
0.9436230031948882,-0.7605518240582503,-14.610378557099336,13.277120811352997
0.9516198083067092,-0.5239021844119196,-14.08389122520247,13.357925737424772
0.9596166134185303,-0.2872525447655858,-13.557403893305597,13.438730663496544
0.9676134185303514,-0.050602905119251806,-13.030916561408723,13.519535589568319
0.9756102236421725,0.1860467345270822,-12.50442922951185,13.600340515640092
0.9836070287539936,0.4226963741734162,-11.977941897614977,13.681145441711866
0.9916038338658147,0.6593460138197498,-11.451454565718105,13.76195036778364
0.9996006389776357,0.8959956534660807,-10.924967233821238,13.842755293855413
1.0075974440894568,2.6598544779964963,-8.395402349788723,10.062374695111478
1.015594249201278,2.7114467690405037,-8.266937545089146,10.040619945721254
1.023591054313099,2.7630390600845107,-8.138472740389568,10.018865196331031
1.0315878594249202,2.8146313511285177,-8.010007935689991,9.997110446940809
1.0395846645367413,2.8662236421725247,-7.881543130990414,9.975355697550585
1.0475814696485624,2.9178159332165317,-7.7530783262908365,9.953600948160362
1.0555782747603835,2.9694082242605386,-7.624613521591259,9.93184619877014
1.0635750798722046,3.0210005153045456,-7.496148716891681,9.910091449379916
1.0715718849840257,3.0725928063485526,-7.367683912192104,9.888336699989694
1.0795686900958466,3.124185097392558,-7.23921910749253,9.866581950599471
1.0875654952076677,3.1757773884365648,-7.1107543027929525,9.844827201209249
1.0955623003194888,3.2273696794805717,-6.982289498093375,9.823072451819025
1.1035591054313099,2.135518849840266,-7.786030031948873,8.818499041533563
1.111555910543131,1.5021718849840355,-8.304223003194881,7.79010990415337
1.119552715654952,0.9649686754067082,-9.120459990452057,6.33162671220301
1.1275495207667732,0.7762624582277573,-9.256497594653151,5.811190958833688
1.1355463258785943,0.5875562410488063,-9.392535198854246,5.2907552054643645
1.1435431309904154,0.39885002386985546,-9.52857280305534,4.770319452095041
1.1515399361022365,0.2101438066909045,-9.664610407256434,4.249883698725718
1.1595367412140576,0.021437589511953625,-9.80064801145753,3.729447945356395
1.1675335463258787,-0.16726862766699724,-9.936685615658625,3.209012191987072
1.1755303514376998,-0.3559748448459483,-10.07272321985972,2.6885764386177486
1.1835271565495207,-0.5446810620248939,-10.20876082406081,2.1681406852484404
1.1915239616613418,-0.7333872792038449,-10.344798428261905,1.647704931879117
1.1995207667731629,-0.9220934963827956,-10.480836032463,1.1272691785097937
1.207517571884984,0.058881789137380014,-8.808384984025558,1.1769616613418528
1.215514376996805,0.21841158064622396,-8.692449787556404,1.30399420308949
1.2235111821086262,0.30398563947169105,-8.667387635453377,1.3380424557820891
1.2315079872204473,0.38955969829715814,-8.64232548335035,1.3720907084746883
1.2395047923322684,0.4751337571226252,-8.617263331247324,1.4061389611672874
1.2475015974440895,0.5607078159480923,-8.592201179144297,1.4401872138598866
1.2554984025559106,0.6462818747735594,-8.56713902704127,1.4742354665524857
1.2634952076677317,0.7318559335990265,-8.542076874938243,1.5082837192450849
1.2714920127795528,0.8174299924244935,-8.517014722835215,1.542331971937684
1.279488817891374,0.9030040512499605,-8.49195257073219,1.5763802246302832
1.2874856230031948,0.9885781100754253,-8.466890418629163,1.6104284773228814
1.295482428115016,1.0741521689008924,-8.441828266526135,1.6444767300154806
1.303479233226837,1.1597262277263596,-8.41676611442311,1.6785249827080797
1.3114760383386581,-0.1390719914802973,-10.147785729499466,3.802778061767837
1.3194728434504792,-0.22072825701100404,-10.341663826766062,3.899095136670216
1.3274696485623003,-0.3023845225417108,-10.535541924032659,3.9954122115725945
1.3354664536741214,-0.3840407880724175,-10.729420021299255,4.0917292864749735
1.3434632587859425,-0.4656970536031242,-10.923298118565851,4.188046361377352
1.3514600638977636,-0.5473533191338309,-11.117176215832448,4.284363436279731
1.3594568690095847,-0.6290095846645377,-11.311054313099044,4.38068051118211
1.3674536741214058,-0.7106658501952444,-11.50493241036564,4.476997586084488
1.375450479233227,-0.7923221157259511,-11.698810507632237,4.573314660986867
1.3834472843450478,-0.8739783812566556,-11.892688604898828,4.669631735889244
1.391444089456869,-0.9556346467873623,-12.086566702165424,4.765948810791622
1.39944089456869,-1.0372909123180691,-12.28044479943202,4.862265885694001
1.4074376996805111,1.1194263136428524,-10.303984161511796,7.4160822173883485
1.4154345047923322,1.1241052953572157,-10.202237577323093,7.380266739174767
1.4234313099041533,1.1287842770715792,-10.100490993134391,7.344451260961185
1.4314281150159744,1.1334632587859426,-9.998744408945688,7.308635782747603
1.4394249201277955,1.1381422405003059,-9.896997824756985,7.272820304534022
1.4474217252396167,1.1428212222146694,-9.795251240568282,7.23700482632044
1.4554185303514378,1.1475002039290327,-9.69350465637958,7.201189348106859
1.4634153354632589,1.152179185643396,-9.591758072190878,7.165373869893277
1.47141214057508,1.1568581673577596,-9.490011488002175,7.129558391679695
1.479408945686901,1.161537149072123,-9.388264903813472,7.093742913466114
1.487405750798722,1.1662161307864862,-9.286518319624772,7.057927435252533
1.495402555910543,1.1708951125008495,-9.18477173543607,7.022111957038952
1.5033993610223642,1.1131010076185814,-9.104481936593759,6.975542885229787
1.5113961661341853,1.0042214303268624,-9.041737773408702,6.9201803883017945
1.5193929712460064,0.5003536929148653,-8.859056117271193,7.215899191881224
1.5273897763578275,0.5530385265927455,-8.522155421913176,7.512627701559857
1.5353865814696486,0.6057233602706258,-8.18525472655516,7.809356211238489
1.5433833865814697,0.658408193948506,-7.848354031197143,8.10608472091712
1.5513801916932908,0.7110930276263863,-7.511453335839127,8.402813230595754
1.5593769968051119,0.7637778613042665,-7.17455264048111,8.699541740274388
1.567373801916933,0.8164626949821467,-6.837651945123094,8.99627024995302
1.575370607028754,0.869147528660027,-6.500751249765077,9.292998759631653
1.5833674121405752,0.9218323623379072,-6.163850554407061,9.589727269310284
1.591364217252396,0.974517196015786,-5.826949859049054,9.886455778988909
1.5993610223642172,1.0272020296936661,-5.4900491636910385,10.183184288667542
1.6073578274760383,1.8213058685051307,-4.113667731629394,8.332922986379687
1.6153546325878594,1.7229872540776878,-4.07048498402556,8.26768589204641
1.6233514376996805,1.6246686396502452,-4.027302236421726,8.202448797713133
1.6313482428115016,1.5263500252228026,-3.984119488817892,8.137211703379856
1.6393450479233227,1.42803141079536,-3.9409367412140583,8.071974609046578
1.6473418530351438,1.3297127963679172,-3.897753993610224,8.0067375147133
1.655338658146965,1.2313941819404746,-3.8545712460063903,7.941500420380024
1.663335463258786,1.133075567513032,-3.811388498402556,7.876263326046746
1.671332268370607,1.0347569530855893,-3.7682057507987223,7.811026231713469
1.6793290734824282,0.9364383386581466,-3.725023003194888,7.745789137380191
1.6873258785942493,0.838119724230704,-3.6818402555910543,7.680552043046914
1.6953226837060702,0.739801109803264,-3.6386575079872214,7.615314948713638
1.7033194888178913,0.9652332268370698,-3.6473290734824415,7.504945686900933
1.7113162939297124,0.5024038674962166,-1.9879634773835546,8.902080242138894
1.7193130990415335,0.5285828821254415,-2.0149842609719184,8.953343971750463
1.7273099041533546,0.5547618967546664,-2.0420050445602826,9.004607701362032
1.7353067092651757,0.5809409113838911,-2.0690258281486464,9.055871430973601
1.7433035143769968,0.607119926013116,-2.0960466117370102,9.10713516058517
1.751300319488818,0.6332989406423409,-2.1230673953253745,9.15839889019674
1.759297124600639,0.6594779552715658,-2.1500881789137383,9.209662619808308
1.7672939297124601,0.6856569699007907,-2.177108962502102,9.260926349419877
1.7752907348242812,0.7118359845300156,-2.2041297460904663,9.312190079031446
1.7832875399361023,0.7380149991592405,-2.23115052967883,9.363453808643015
1.7912843450479232,0.7641940137884646,-2.2581713132671934,9.414717538254582
1.7992811501597443,0.7903730284176895,-2.2851920968555572,9.465981267866152
1.8072779552715654,-1.9111375007535139,-2.947247633974318,12.731098438724455
1.8152747603833865,-1.7305304117186107,-3.124007203568628,12.75048691904274
1.8232715654952076,-1.5499233226837075,-3.300766773162938,12.769875399361021
1.8312683706070287,-1.369316233648804,-3.477526342757248,12.789263879679305
1.8392651757188498,-1.1887091446139009,-3.654285912351558,12.808652359997588
1.847261980830671,-1.0081020555789975,-3.831045481945868,12.828040840315872
1.855258785942492,-0.8274949665440943,-4.007805051540178,12.847429320634156
1.8632555910543132,-0.6468878775091911,-4.184564621134488,12.866817800952438
1.8712523961661343,-0.46628078847428767,-4.361324190728798,12.886206281270722
1.8792492012779554,-0.2856736994393845,-4.538083760323108,12.905594761589004
1.8872460063897765,-0.10506661040448129,-4.714843329917418,12.924983241907288
1.8952428115015973,0.07554047863041724,-4.891602899511724,12.94437172222557
1.9032396166134185,0.25614756766532043,-5.068362469106033,12.963760202543854
1.9112364217252396,0.4367546567002236,-5.245122038700343,12.983148682862137
1.9192332268370607,3.008800688129764,-2.9720079345574537,8.8287334199347
1.9272300319488818,2.7645905627918426,-3.1188503668855097,8.602186567426186
1.9352268370607029,2.5203804374539214,-3.265692799213565,8.375639714917671
1.943223642172524,2.2761703121159997,-3.412535231541621,8.149092862409157
1.951220447284345,2.031960186778078,-3.559377663869677,7.922546009900643
1.9592172523961662,1.7877500614401567,-3.7062200961977325,7.695999157392128
1.9672140575079873,1.5435399361022353,-3.853062528525788,7.469452304883614
1.9752108626198084,1.2993298107643139,-3.999904960853844,7.2429054523750995
1.9832076677316295,1.0551196854263925,-4.1467473931819,7.016358599866585
1.9912044728434506,0.8109095600884708,-4.293589825509955,6.789811747358071
1.9992012779552715,0.5666994347505563,-4.440432257838007,6.563264894849562
2.0071980830670926,0.32248930941263465,-4.587274690166063,6.336718042341047
2.0151948881789137,-2.9011548982302475,-4.029910399540512,9.12185533259145
2.023191693290735,-2.9928036759162873,-4.226326309365691,9.073964353663351
2.031188498402556,-3.084452453602327,-4.422742219190869,9.026073374735255
2.039185303514377,-3.1761012312883667,-4.619158129016049,8.978182395807158
2.047182108626198,-3.2677500089744065,-4.815574038841228,8.93029141687906
2.055178913738019,-3.359398786660446,-5.011989948666407,8.882400437950963
2.0631757188498403,-3.4510475643464855,-5.208405858491586,8.834509459022867
2.0711725239616614,-3.5426963420325253,-5.404821768316765,8.786618480094768
2.0791693290734825,-3.634345119718565,-5.601237678141944,8.738727501166672
2.0871661341853036,-3.7259938974046047,-5.797653587967123,8.690836522238575
2.0951629392971247,-3.817642675090644,-5.994069497792302,8.642945543310477
2.103159744408946,-3.6998434504792668,-6.002386581469654,8.768249201277982
2.111156549520767,-0.9632197335327314,-6.1340766093399495,6.279466113792402
2.119153354632588,-0.8385886751410513,-6.297755896947862,5.9783098361770115
2.127150159744409,-0.7139576167493711,-6.461435184555775,5.677153558561621
2.1351469648562302,-0.589326558357691,-6.625114472163688,5.37599728094623
2.1431437699680513,-0.4646954999660108,-6.788793759771601,5.074841003330839
2.151140575079872,-0.3400644415743376,-6.952473047379505,4.773684725715464
2.159137380191693,-0.21543338318265737,-7.116152334987418,4.472528448100073
2.167134185303514,-0.09080232479097727,-7.2798316225953315,4.171372170484682
2.1751309904153353,0.03382873360070282,-7.443510910203244,3.8702158928692914
2.1831277955271564,0.15845979199238314,-7.607190197811157,3.5690596152539005
2.1911246006389775,0.28309085038406323,-7.77086948541907,3.2679033376385096
2.1991214057507986,0.4077219087757433,-7.934548773026983,2.9667470600231187
2.2071182108626197,0.2120281150159642,-6.628975718849843,1.1727003194888237
2.215115015974441,0.5771402127729647,-6.60069964757419,0.9836071934389515
2.223111821086262,0.73526260663351,-6.656512400777313,0.9204571654425086
2.231108626198083,0.8933850004940551,-6.712325153980435,0.8573071374460657
2.239105431309904,1.0515073943546003,-6.768137907183558,0.7941571094496227
2.2471022364217252,1.2096297882151454,-6.82395066038668,0.7310070814531797
2.2550990415335463,1.3677521820756906,-6.879763413589803,0.6678570534567367
2.2630958466453674,1.5258745759362358,-6.935576166792925,0.6047070254602938
2.2710926517571886,1.683996969796781,-6.991388919996048,0.5415569974638508
2.2790894568690097,1.842119363657326,-7.047201673199171,0.4784069694674079
2.2870862619808308,2.0002417575178715,-7.103014426402294,0.4152569414709649
2.295083067092652,2.1583641513784166,-7.158827179605416,0.35210691347452194
2.303079872204473,2.316486545238962,-7.214639932808539,0.28895688547807896
2.311076677316294,3.6827532990693146,-9.5874909015141,1.949348798444237
2.319073482428115,3.657024447839977,-9.638687838588694,2.298600569523554
2.3270702875399363,3.6312955966106397,-9.689884775663288,2.647852340602871
2.3350670926517574,3.605566745381302,-9.741081712737882,2.997104111682188
2.3430638977635785,3.579837894151965,-9.792278649812475,3.346355882761505
2.3510607028753996,3.554109042922627,-9.843475586887068,3.6956076538408222
2.3590575079872202,3.5283801916932913,-9.89467252396166,4.04485942492012
2.3670543130990414,3.5026513404639537,-9.945869461036255,4.394111195999437
2.3750511182108625,3.4769224892346164,-9.997066398110848,4.743362967078754
2.3830479233226836,3.451193638005279,-10.04826333518544,5.092614738158071
2.3910447284345047,3.4254647867759416,-10.099460272260036,5.441866509237388
2.3990415335463258,3.3997359355466044,-10.150657209334629,5.791118280316706
2.407038338658147,3.374160383386581,-9.943574440894581,7.9595674121405535
2.415035143769968,4.230142646490885,-9.143406452971949,11.010428044798646
2.423031948881789,4.585165642664043,-9.233392479724747,11.54041410666011
2.43102875399361,4.9401886388372,-9.323378506477548,12.070400168521573
2.4390255591054313,5.295211635010357,-9.413364533230348,12.600386230383037
2.4470223642172524,5.650234631183515,-9.503350559983149,13.130372292244502
2.4550191693290735,6.005257627356673,-9.59333658673595,13.660358354105966
2.4630159744408946,6.36028062352983,-9.68332261348875,14.190344415967429
2.4710127795527157,6.715303619702988,-9.77330864024155,14.720330477828893
2.479009584664537,7.070326615876146,-9.86329466699435,15.250316539690356
2.487006389776358,7.425349612049303,-9.95328069374715,15.78030260155182
2.495003194888179,7.780372608222461,-10.04326672049995,16.310288663413285
2.503,8.108500000000003,-8.527499999999646,15.076499999999623
2.510996805111821,4.337306233430765,-3.6231192644959553,5.0542781592005985
2.5189936102236423,4.209867786010467,-3.697387465162124,5.156875467337367
2.5269904153354634,4.0824293385901695,-3.7716556658282925,5.259472775474136
2.5349872204472845,3.9549908911698712,-3.8459238664944606,5.362070083610905
2.5429840255591056,3.827552443749573,-3.920192067160629,5.464667391747674
2.5509808306709267,3.7001139963292746,-3.9944602678267978,5.567264699884442
2.558977635782748,3.5726755489089763,-4.068728468492966,5.6698620080212105
2.5669744408945685,3.4452371014886856,-4.14299666915913,5.772459316157974
2.5749712460063896,3.3177986540683873,-4.217264869825299,5.875056624294743
2.5829680511182107,3.190360206648089,-4.291533070491467,5.977653932431512
2.590964856230032,3.062921759227791,-4.365801271157635,6.0802512405682805
2.598961661341853,2.935483311807493,-4.440069471823804,6.182848548705049
2.606958466453674,2.4893493077742246,-7.361301916932876,9.164525559105408
2.614955271565495,2.614632587859422,-8.602805910543102,10.074162140575059
2.6229520766773162,2.4635776357827517,-8.491088178913746,10.439757827476033
2.6309488817891373,2.2709957526780715,-8.176014057507993,10.723597368915613
2.6389456869009584,2.0784138695733914,-7.860939936102242,11.007436910355192
2.6469424920127795,1.8858319864687112,-7.545865814696491,11.291276451794772
2.6549392971246006,1.6932501033640315,-7.230791693290739,11.575115993234352
2.6629361022364217,1.5006682202593513,-6.915717571884987,11.858955534673932
2.670932907348243,1.3080863371546712,-6.600643450479236,12.142795076113511
2.678929712460064,1.1155044540499912,-6.285569329073484,12.426634617553091
2.686926517571885,0.922922570945311,-5.970495207667732,12.710474158992671
2.694923322683706,0.7303406878406311,-5.65542108626198,12.99431370043225
2.7029201277955273,1.6746325878595663,-4.421373801916804,12.684845047923256
2.7109169329073484,-0.3347450479233278,-4.844542492012775,11.075803833865812
2.7189137380191695,-0.6075623675802977,-4.645379956280474,10.92748414326551
2.7269105431309906,-0.8803796872372677,-4.446217420548171,10.779164452665206
2.7349073482428117,-1.1531970068942377,-4.24705488481587,10.630844762064903
2.742904153354633,-1.4260143265512075,-4.047892349083567,10.4825250714646
2.750900958466454,-1.6988316462081774,-3.848729813351265,10.334205380864297
2.758897763578275,-1.9716489658651473,-3.6495672776189636,10.185885690263996
2.7668945686900956,-2.244466285522102,-3.4504047418866723,10.0375659996637
2.7748913738019167,-2.5172836051790717,-3.2512422061543704,9.889246309063399
2.782888178913738,-2.7901009248360418,-3.0520796704220685,9.740926618463096
2.790884984025559,-3.062918244493012,-2.8529171346897666,9.592606927862793
2.79888178913738,-3.3357355641499815,-2.6537545989574642,9.44428723726249
2.806878594249201,-2.6578206869009575,-3.1435858958998906,7.725548955005328
2.8148753993610223,-2.710799520766772,-3.285445886581467,7.59401817092652
2.8228722044728434,-2.763778354632587,-3.4273058772630436,7.462487386847712
2.8308690095846645,-2.8167571884984017,-3.5691658679446197,7.3309566027689055
2.8388658146964856,-2.8697360223642163,-3.711025858626196,7.199425818690098
2.8468626198083067,-2.9227148562300314,-3.8528858493077722,7.067895034611291
2.854859424920128,-2.975693690095846,-3.9947458399893487,6.936364250532483
2.862856230031949,-3.0286725239616605,-4.136605830670925,6.804833466453676
2.87085303514377,-3.0816513578274756,-4.278465821352501,6.673302682374868
2.878849840255591,-3.13463019169329,-4.420325812034078,6.54177189829606
2.886846645367412,-3.187609025559105,-4.562185802715654,6.4102411142172535
2.8948434504792333,-3.24058785942492,-4.70404579339723,6.278710330138446
2.9028402555910544,-3.0762555910543,-4.8956996805111865,5.9551373801916805
2.9108370607028755,-3.628191693290752,-5.5124313099041675,6.8341277955272
2.9188338658146966,-4.013420827799119,-5.893943568941383,7.596104103097963
2.9268306709265177,-4.08997451268981,-6.030787773270636,7.528355889004557
2.934827476038339,-4.166528197580503,-6.167631977599889,7.460607674911151
2.94282428115016,-4.243081882471195,-6.304476181929143,7.392859460817745
2.950821086261981,-4.319635567361886,-6.441320386258396,7.32511124672434
2.958817891373802,-4.3961892522525785,-6.578164590587649,7.257363032630934
2.9668146964856232,-4.472742937143271,-6.715008794916903,7.189614818537528
2.974811501597444,-4.549296622033959,-6.851852999246148,7.121866604444127
2.982808306709265,-4.62585030692465,-6.988697203575402,7.0541183903507205
2.990805111821086,-4.702403991815342,-7.125541407904655,6.986370176257315
2.998801916932907,-4.7789576767060336,-7.262385612233908,6.918621962163909
3.0067987220447283,-5.111589656549522,-7.784541333865802,7.36079932108625
3.0147955271565494,-5.098095047923323,-8.22986341853034,7.756141373801906
3.0227923322683705,-2.807083506389776,-7.327362260383387,8.198204193290735
3.0307891373801916,-2.352365175718849,-6.84265591054313,8.029571565495209
3.0387859424920127,-1.897646845047922,-6.357949560702874,7.8609389376996806
3.046782747603834,-1.442928514376995,-5.873243210862618,7.692306309904153
3.054779552715655,-0.988210183706068,-5.388536861022361,7.523673682108626
3.062776357827476,-0.5334918530351409,-4.903830511182106,7.355041054313098
3.070773162939297,-0.07877352236421409,-4.419124161341848,7.186408426517571
3.0787699680511182,0.3759448083067132,-3.934417811501593,7.0177757987220435
3.0867667731629393,0.83066313897764,-3.4497114616613365,6.849143170926516
3.0947635782747605,1.2853814696485673,-2.96500511182108,6.680510543130989
3.1027603833865816,1.6488019169329076,-2.7336986155484593,5.769736954206585
3.1107571884984027,0.016862268721687935,-3.6452156373977513,2.499147631920807
3.1187539936102238,-0.18525478355510874,-3.8270331074676176,2.923154056805826
3.126750798722045,-0.3873718358319055,-4.008850577537483,3.347160481690845
3.134747603833866,-0.5894888881087021,-4.19066804760735,3.771166906575864
3.142744408945687,-0.7916059403854988,-4.372485517677216,4.195173331460883
3.150741214057508,-0.9937229926622955,-4.554302987747082,4.619179756345902
3.1587380191693293,-1.1958400449390922,-4.7361204578169485,5.043186181230921
3.1667348242811504,-1.3979570972158888,-4.917937927886815,5.46719260611594
3.174731629392971,-1.6000741494926742,-5.099755397956671,5.8911990310009354
3.182728434504792,-1.802191201769471,-5.2815728680265375,6.315205455885955
3.1907252396166133,-2.0043082540462676,-5.463390338096404,6.7392118807709736
3.1987220447284344,-2.2064253063230646,-5.64520780816627,7.1632183056559935
3.2067188498402555,-2.4534446611737137,-8.922695174037322,10.238363578274758
3.2147156549520766,-2.1312155036152793,-9.089449604842772,10.324729073482425
3.2227124600638977,-1.8089863460568447,-9.25620403564822,10.411094568690093
3.2307092651757188,-1.4867571884984103,-9.42295846645367,10.497460063897762
3.23870607028754,-1.164528030939976,-9.589712897259119,10.58382555910543
3.246702875399361,-0.8422988733815415,-9.756467328064568,10.670191054313097
3.254699680511182,-0.5200697158231073,-9.923221758870017,10.756556549520765
3.262696485623003,-0.19784055826467295,-10.089976189675465,10.842922044728434
3.2706932907348243,0.12438859929376145,-10.256730620480914,10.929287539936102
3.2786900958466454,0.44661775685219585,-10.423485051286363,11.01565303514377
3.2866869009584665,0.7688469144106302,-10.590239482091812,11.102018530351438
3.2946837060702876,1.0910760719690646,-10.756993912897261,11.188384025559106
3.3026805111821087,3.3435686900959256,-9.915830670926482,10.249543130990377
3.31067731629393,-0.9459876536524605,-9.784970162993448,4.20876639410841
3.318674121405751,-0.843384577895705,-9.745596063247955,4.177592408079277
3.326670926517572,-0.7407815021389492,-9.706221963502463,4.146418422050143
3.334667731629393,-0.6381784263821937,-9.66684786375697,4.11524443602101
3.342664536741214,-0.535575350625438,-9.62747376401148,4.084070449991877
3.3506613418530353,-0.4329722748686824,-9.588099664265988,4.052896463962744
3.3586581469648564,-0.33036919911192686,-9.548725564520495,4.0217224779336105
3.3666549520766775,-0.2277661233551712,-9.509351464775003,3.9905484919044776
3.3746517571884986,-0.12516304759841557,-9.46997736502951,3.9593745058753442
3.3826485623003193,-0.022559971841665694,-9.430603265284022,3.9282005198462127
3.3906453674121404,0.08004310391508995,-9.39122916553853,3.8970265338170798
3.3986421725239615,0.1826461796718455,-9.351855065793037,3.8658525477879464
3.4066389776357826,0.28524925542860124,-9.312480966047545,3.8346785617588135
3.4146357827476037,0.3878523311853568,-9.273106866302053,3.80350457572968
3.422632587859425,0.49045540694211254,-9.23373276655656,3.772330589700547
3.430629392971246,2.6642501597444044,-8.527795207667735,5.572316613418528
3.438626198083067,3.1054562300319337,-8.318601277955276,5.802731629392951
3.446623003194888,3.647639616613416,-8.160264536741215,6.514447284345044
3.4546198083067092,3.836343627973021,-8.125920482783101,6.758271210507632
3.4626166134185303,3.9515198349307776,-8.11736834398296,6.904768237486688
3.4706134185303514,4.066696041888534,-8.108816205182817,7.051265264465744
3.4786102236421725,4.1818722488462905,-8.100264066382676,7.1977622914448
3.4866070287539936,4.297048455804047,-8.091711927582534,7.344259318423856
3.4946038338658147,4.412224662761804,-8.083159788782392,7.490756345402912
3.502600638977636,4.5274008697195605,-8.07460764998225,7.637253372381968
3.510597444089457,4.642577076677317,-8.066055511182107,7.783750399361024
3.518594249201278,4.757753283635074,-8.057503372381966,7.93024742634008
3.526591054313099,5.468177544500227,-9.059723413966225,7.735670470104975
3.5345878594249203,7.837659375768006,-11.1988608994839,6.602221676087495
3.5425846645367414,8.11471791594987,-11.000663160481688,6.930459768985014
3.5505814696485625,8.391776456131733,-10.802465421479475,7.258697861882533
3.5585782747603836,8.668834996313597,-10.604267682477262,7.586935954780052
3.5665750798722047,8.945893536495461,-10.40606994347505,7.915174047677571
3.574571884984026,9.222952076677323,-10.207872204472837,8.243412140575089
3.5825686900958464,9.500010616859173,-10.009674465470635,8.571650233472589
3.5905654952076675,9.777069157041037,-9.811476726468424,8.899888326370109
3.5985623003194886,9.0626198083069,-9.842600638977597,6.74868370607078
3.6065591054313098,7.97906826628415,-9.769223446567128,5.586975940535956
3.614555910543131,7.948957847036579,-9.55233050792202,5.798401675686247
3.622552715654952,7.918847427789007,-9.335437569276914,6.009827410836538
3.630549520766773,7.888737008541436,-9.118544630631806,6.221253145986829
3.638546325878594,7.8586265892938645,-8.901651691986698,6.43267888113712
3.6465431309904153,7.828516170046293,-8.684758753341592,6.644104616287411
3.6545399361022364,7.798405750798722,-8.467865814696484,6.855530351437702
3.6625367412140575,7.76829533155115,-8.250972876051376,7.066956086587992
3.6705335463258786,7.73818491230358,-8.034079937406268,7.278381821738283
3.6785303514376997,7.708074493056008,-7.817186998761162,7.489807556888574
3.686527156549521,7.677964073808437,-7.600294060116054,7.701233292038865
3.694523961661342,7.6478536545608655,-7.383401121470947,7.9126590271891555
3.702520766773163,7.264840255591032,-7.2848849840255605,7.312763578274717
3.710517571884984,6.824288257888499,-5.502059697742037,4.538175467566501
3.718514376996805,6.674235847363317,-5.240321570879846,4.6026890189180465
3.7265111821086263,6.524183436838134,-4.978583444017657,4.667202570269592
3.7345079872204474,6.374131026312952,-4.716845317155467,4.731716121621138
3.7425047923322685,6.22407861578777,-4.455107190293277,4.796229672972683
3.7505015974440896,6.074026205262586,-4.193369063431088,4.860743224324229
3.7584984025559107,5.923973794737404,-3.9316309365688977,4.925256775675774
3.766495207667732,5.773921384212222,-3.669892809706708,4.98977032702732
3.774492012779553,5.623868973687039,-3.4081546828445184,5.0542838783788655
3.782488817891374,5.473816563161856,-3.1464165559823285,5.118797429730411
3.7904856230031947,5.323764152636683,-2.8846784291201533,5.183310981081953
3.798482428115016,5.1737117421115,-2.622940302257964,5.247824532433499
3.806479233226837,2.4524379901249547,-12.463629392971015,1.6592483299448997
3.814476038338658,-7.137885773350856,-19.924028077429057,-1.8207103551964086
3.822472843450479,-7.841510543130974,-19.773311821086264,-1.1438984025559256
3.8304696485623,-8.545135312911093,-19.622595564743474,-0.4670864499154428
3.8384664536741213,-9.248760082691211,-19.47187930840068,0.2097255027250402
3.8464632587859424,-9.95238485247133,-19.321163052057887,0.886537455365523
3.8544600638977635,-10.656009622251448,-19.170446795715094,1.5633494080060057
3.8624568690095846,-11.359634392031566,-19.0197305393723,2.240161360646489
3.8704536741214057,-12.063259161811684,-18.869014283029507,2.916973313286972
3.878450479233227,-12.766883931591803,-18.718298026686714,3.5937852659274547
3.886447284345048,-13.47050870137192,-18.56758177034392,4.2705972185679375
3.894444089456869,-14.17413347115204,-18.416865514001127,4.94740917120842
3.90244089456869,-9.375038338658086,-2.856025559105175,5.0722044728432705
3.9104376996805112,-19.177967535813664,-10.204648768422148,25.41923600948162
3.9184345047923324,-19.358110618708988,-8.895752344635687,23.54015878250714
3.9264313099041535,-19.53825370160431,-7.586855920849226,21.66108155553266
3.9344281150159746,-19.71839678449964,-6.277959497062765,19.78200432855818
3.9424249201277957,-19.898539867394962,-4.969063073276304,17.9029271015837
3.9504217252396168,-20.078682950290286,-3.6601666494898435,16.02384987460922
3.958418530351438,-20.258826033185613,-2.3512702257033826,14.14477264763474
3.966415335463259,-20.438969116080937,-1.0423738019169217,12.265695420660261
3.97441214057508,-20.61911219897626,0.2665226218695391,10.38661819368578
3.982408945686901,-20.799255281871588,1.575419045656,8.5075409667113
3.9904057507987223,-20.97939836476691,2.884315469442461,6.628463739736819
3.998402555910543,-21.159541447662228,4.193211893228849,4.749386512762445
4.006399361022364,-15.925860030267385,37.2897519421557,7.127168824617472
4.014396166134185,-12.98774965528839,37.65406954767109,4.750855052967889
4.022392971246006,-10.049639280309396,38.01838715318648,2.374541281318307
4.030389776357827,-7.111528905330401,38.38270475870187,-0.001772490331275911
4.0383865814696485,-4.173418530351407,38.74702236421726,-2.378086261980859
4.04638338658147,-1.2353081553724117,39.11133996973265,-4.75440003363044
4.054380191693291,1.702802219606582,39.475657575248036,-7.130713805280023
4.062376996805112,4.640912594585576,39.83997518076342,-9.507027576929605
4.070373801916933,7.579022969564573,40.204292786278806,-11.88334134857919
4.078370607028754,10.517133344543566,40.568610391794195,-14.259655120228771
4.086367412140575,13.45524371952256,40.932927997309584,-16.635968891878353
4.094364217252396,16.393354094501557,41.29724560282497,-19.012282663527937
4.102361022364217,22.13775079872252,47.98621192758336,-3.810412140572904
4.110357827476038,21.659547390841297,43.361230031948814,-12.998775292864766
4.1183546325878595,20.52649469236316,40.31547913016585,-13.67549417705866
4.126351437699681,19.39344199388502,37.26972822838289,-14.352213061252552
4.134348242811502,18.260389295406885,34.22397732659993,-15.028931945446447
4.142345047923323,17.12733659692875,31.178226424816966,-15.70565082964034
4.150341853035144,15.994283898450611,28.132475523034007,-16.382369713834233
4.158338658146965,14.861231199972474,25.086724621251044,-17.059088598028126
4.166335463258786,13.728178501494337,22.040973719468084,-17.73580748222202
4.174332268370607,12.5951258030162,18.99522281768512,-18.412526366415914
4.182329073482428,11.462073104538064,15.949471915902162,-19.089245250609807
4.190325878594249,10.329020406059927,12.9037210141192,-19.765964134803703
4.1983226837060705,9.19596770758179,9.85797011233624,-20.442683018997595
4.206319488817892,0.35748056443007314,-13.43626118210908,-1.6114491480294504
4.214316293929713,-3.387150798722014,-4.543711821085875,7.006778913737962
4.222313099041534,-5.775932497747241,17.71120029491279,33.759005079053054
4.230309904153355,-2.607147210616875,15.443183337429355,30.15787970017205
4.238306709265176,0.561638076513491,13.17516637994592,26.55675432129104
4.246303514376997,3.730423363643858,10.907149422462489,22.955628942410037
4.254300319488818,6.899208650774224,8.639132464979054,19.354503563529033
4.262297124600639,10.067993937904589,6.37111550749562,15.753378184648028
4.2702939297124605,13.236779225034956,4.103098550012188,12.15225280576702
4.278290734824282,16.40556451216532,1.8350815925287538,8.551127426886016
4.286287539936103,19.57434979929569,-0.4329353649546803,4.950002048005011
4.294284345047924,22.743135086426058,-2.7009523224381127,1.348876669124003
4.302281150159744,20.875126198083958,-31.33652076676733,-1.7086038338657104
4.310277955271565,2.3828751839753033,-8.405580285027103,12.19488372760886
4.318274760383386,1.343560074667053,-8.451045266898804,10.753032810424672
4.326271565495207,0.30424496535880285,-8.496510248770505,9.311181893240486
4.334268370607028,-0.7350701439494478,-8.541975230642208,7.869330976056299
4.3422651757188495,-1.7743852532576976,-8.58744021251391,6.427480058872112
4.350261980830671,-2.8137003625659482,-8.63290519438561,4.985629141687925
4.358258785942492,-3.853015471874199,-8.678370176257314,3.543778224503738
4.366255591054313,-4.892330581182449,-8.723835158129015,2.101927307319551
4.374252396166134,-5.931645690490699,-8.769300140000716,0.6600763901353641
4.382249201277955,-6.970960799798949,-8.81476512187242,-0.7817745270488246
4.390246006389776,-8.0102759091072,-8.86023010374412,-2.2236254442330115
4.398242811501597,-9.04959101841545,-8.905695085615822,-3.6654763614171983
4.406239616613418,-12.38320367412131,2.7539273162935807,-4.071675718849832
4.4142364217252394,-9.9974297124601,-0.23568530351438693,2.544410543131018
4.4222332268370605,-9.314632736458904,-0.04608663347946432,2.0167143918567727
4.430230031948882,-8.63183576045771,0.1435120365554583,1.4890182405825276
4.438226837060703,-7.949038784456515,0.3331107065903809,0.9613220893082826
4.446223642172524,-7.2662418084553195,0.5227093766253035,0.4336259380340377
4.454220447284345,-6.583444832454125,0.7123080466602261,-0.09407021324020759
4.462217252396166,-5.90064785645293,0.9019067166951488,-0.6217663645144524
4.470214057507987,-5.217850880451735,1.0915053867300712,-1.1494625157886977
4.478210862619808,-4.53505390445054,1.281104056764994,-1.6771586670629426
4.486207667731629,-3.8522569284493446,1.4707027267999164,-2.204854818337188
4.4942044728434505,-3.1694599524481504,1.6603013968348392,-2.732550969611433
4.502201277955272,3.4089456869010704,3.215654952076442,-7.378913738018371
4.510198083067093,4.236,-0.204890841320545,0.3518477103301355
4.518194888178914,4.236,-0.4377755768548022,0.43092722754703316
4.526191693290735,4.236,-0.6706603123890594,0.5100067447639309
4.534188498402556,4.236,-0.9035450479233166,0.5890862619808286
4.542185303514377,4.236,-1.1364297834575738,0.6681657791977262
4.550182108626198,4.236,-1.3693145189918308,0.7472452964146239
4.558178913738019,4.236,-1.6021992545260881,0.8263248136315217
4.56617571884984,4.236,-1.8350839900603453,0.9054043308484194
4.5741725239616615,4.236,-2.0679687255946027,0.9844838480653171
4.582169329073483,4.236,-2.3008534611288596,1.0635633652822147
4.590166134185304,4.236,-2.533738196663117,1.1426428824991124
4.598162939297125,4.236,-2.766622932197374,1.2217223997160103
4.606159744408946,8.69889914023745,-5.483863087352986,19.914415491311452
4.614156549520767,9.544870100522132,-6.928749240240075,19.734974986363273
4.622153354632588,10.390841060806814,-8.373635393127163,19.555534481415094
4.630150159744409,11.236812021091497,-9.818521546014251,19.376093976466912
4.63814696485623,12.08278298137618,-11.26340769890134,19.196653471518733
4.6461437699680515,12.928753941660863,-12.708293851788428,19.01721296657055
4.6541405750798726,13.774724901945547,-14.153180004675516,18.83777246162237
4.662137380191694,14.620695862230228,-15.598066157562604,18.65833195667419
4.670134185303515,15.466666822514913,-17.042952310449692,18.47889145172601
4.678130990415336,16.312637782799595,-18.487838463336782,18.29945094677783
4.686127795527157,17.15860874308428,-19.932724616223872,18.12001044182965
4.694124600638978,18.00457970336896,-21.37761076911096,17.94056993688147
4.702121405750799,18.850550663653642,-22.822496921998045,17.761129431933288
4.710118210862619,19.69652162393823,-24.267383074884975,17.581688926985127
4.7181150159744405,20.542492584222913,-25.71226922777206,17.402248422036948
4.726111821086262,21.388463544507598,-27.157155380659155,17.222807917088765
4.734108626198083,17.697974440896083,-2.801869009586353,-27.96959105431523
4.742105431309904,9.225946751863685,3.2592172523962617,-13.708208732694422
4.750102236421725,9.236355291850499,-1.1885295907499094,-10.682877732136607
4.758099041533546,9.246763831837313,-5.63627643389608,-7.65754673157879
4.766095846645367,9.25717237182413,-10.084023277042249,-4.632215731020976
4.774092651757188,9.267580911810944,-14.531770120188419,-1.606884730463161
4.782089456869009,9.277989451797758,-18.979516963334593,1.4184462700946554
4.79008626198083,9.288397991784572,-23.427263806480763,4.443777270652468
4.7980830670926515,9.298806531771389,-27.87501064962693,7.469108271210285
4.806079872204473,-16.887724903312634,-5.455674962165786,-13.167224314780583
4.814076677316294,-15.658742222969597,-5.823612174205472,-12.48884271061041
4.822073482428115,-14.429759542626561,-6.191549386245157,-11.810461106440236
4.830070287539936,-13.200776862283526,-6.559486598284843,-11.132079502270063
4.838067092651757,-11.971794181940488,-6.9274238103245285,-10.45369789809989
4.846063897763578,-10.742811501597453,-7.295361022364214,-9.775316293929718
4.854060702875399,-9.513828821254418,-7.6632982344039,-9.096934689759545
4.86205750798722,-8.284846140911382,-8.031235446443585,-8.418553085589371
4.8700543130990415,-7.055863460568345,-8.399172658483272,-7.740171481419198
4.878051118210863,-5.826880780225309,-8.767109870522956,-7.0617898772490255
4.886047923322684,-4.597898099882274,-9.135047082562643,-6.383408273078852
4.894044728434505,-3.3689154195392383,-9.502984294602328,-5.705026668908679
4.902041533546326,0.33855165069263293,-9.051223642172404,-10.213306709265963
4.910038338658147,0.8612540451406427,-10.00600024047544,-16.577174379058
4.918035143769968,-0.007560136040437371,-9.667382836923274,-15.967611460373055
4.926031948881789,-0.8763743172215175,-9.328765433371107,-15.358048541688111
4.93402875399361,-1.7451884984025978,-8.99014802981894,-14.748485623003166
4.942025559105431,-2.6140026795836784,-8.651530626266773,-14.138922704318222
4.9500223642172525,-3.4828168607647587,-8.312913222714606,-13.529359785633277
4.958019169329074,-4.351631041945839,-7.974295819162439,-12.919796866948333
4.966015974440895,-5.2204452231269185,-7.635678415610273,-12.310233948263388
4.974012779552716,-6.089259404307999,-7.297061012058106,-11.700671029578444
4.982009584664537,-6.958073585489079,-6.958443608505939,-11.091108110893499
4.990006389776358,-7.82688776667016,-6.619826204953773,-10.481545192208554
4.998003194888179,-8.695701947851239,-6.281208801401606,-9.87198227352361
5.006,4.2950000000004165,2.8182857142862927,-6.595000000000264
5.013996805111821,-0.20630947816826345,3.2461073482428144,-8.546870358537449
5.021993610223642,-0.2660189563365278,2.977414696485625,-8.732307383741567
5.0299904153354635,-0.3257284345047921,2.708722044728436,-8.917744408945685
5.037987220447285,-0.38543791267305644,2.440029392971246,-9.103181434149805
5.045984025559106,-0.4451473908413207,2.1713367412140565,-9.288618459353923
5.053980830670927,-0.504856869009585,1.9026440894568672,-9.474055484558042
5.061977635782748,-0.5645663471778494,1.6339514376996778,-9.65949250976216
5.069974440894569,-0.6242758253461137,1.3652587859424883,-9.84492953496628
5.07797124600639,-0.6839853035143781,1.0965661341852986,-10.030366560170398
5.085968051118211,-0.7436947816826425,0.8278734824281093,-10.215803585374516
5.093964856230032,-0.8034042598509068,0.5591808306709196,-10.401240610578636
5.1019616613418535,1.6510862619808626,0.05275292864735365,-9.168412140574778
5.109958466453675,1.0854931464495294,1.4596500051530157,-7.801369267236941
5.117955271565496,0.7814425778968475,1.050867085780999,-7.8607004019375495
5.125952076677316,0.47739200934419923,0.642084166409028,-7.9200315366381515
5.133948881789137,0.17334144079151725,0.2333012470370115,-7.97936267133876
5.141945686900958,-0.13070912776116472,-0.175481672335005,-8.038693806039367
5.149942492012779,-0.4347596963138469,-0.5842645917070217,-8.098024940739975
5.1579392971246,-0.7388102648665289,-0.993047511079038,-8.157356075440584
5.165936102236421,-1.0428608334192109,-1.4018304304510547,-8.216687210141192
5.1739329073482425,-1.3469114019718929,-1.810613349823071,-8.2760183448418
5.181929712460064,-1.6509619705245748,-2.2193962691950877,-8.335349479542408
5.189926517571885,-1.9550125390772572,-2.6281791885671044,-8.394680614243017
5.197923322683706,-2.259063107629939,-3.0369621079391207,-8.454011748943625
5.205920127795527,-1.492012779552703,-5.902518484710174,-11.707631218621671
5.213916932907348,-1.6235143769968032,-5.934253993610223,-9.288550479233225
5.221913738019169,-1.4991196308129204,-5.915150514731984,-9.21951139510117
5.22991054313099,-1.3747248846290376,-5.896047035853745,-9.150472310969116
5.237907348242811,-1.2503301384451548,-5.8769435569755055,-9.08143322683706
5.2459041533546324,-1.125935392261272,-5.857840078097267,-9.012394142705006
5.2539009584664536,-1.0015406460773892,-5.838736599219027,-8.943355058572951
5.261897763578275,-0.8771458998935064,-5.8196331203407885,-8.874315974440895
5.269894568690096,-0.7527511537096236,-5.800529641462549,-8.805276890308841
5.277891373801917,-0.6283564075257408,-5.78142616258431,-8.736237806176787
5.285888178913738,-0.503961661341858,-5.762322683706071,-8.66719872204473
5.293884984025559,-0.37956691515797525,-5.743219204827832,-8.598159637912676
5.30188178913738,0.717492012779539,-2.794542332268393,-6.7826333865815
5.309878594249201,1.3,-1.3087589634362715,-5.879657791977286
5.317875399361022,1.2790741285852736,-1.0206970958825432,-6.195269519330875
5.3258722044728435,1.2447507628244237,-1.030041677136806,-6.389259432099658
5.333869009584665,1.2104273970635737,-1.039386258391069,-6.583249344868441
5.341865814696486,1.1761040313027238,-1.0487308396453316,-6.777239257637224
5.349862619808307,1.1417806655418739,-1.0580754208995946,-6.971229170406007
5.357859424920128,1.107457299781024,-1.0674200021538574,-7.16521908317479
5.365856230031949,1.073133934020174,-1.07676458340812,-7.359208995943574
5.37385303514377,1.0388105682593238,-1.086109164662383,-7.553198908712356
5.381849840255591,1.004487202498474,-1.0954537459166458,-7.747188821481139
5.389846645367412,0.970163836737624,-1.1047983271709088,-7.941178734249922
5.397843450479233,0.935840470976774,-1.1141429084251715,-8.135168647018705
5.4058402555910545,-0.021594249201268345,-2.2579531416400105,-11.473225772098003
5.413837060702876,-0.6028494094841507,-2.899307965681875,-9.021353914635458
5.421833865814697,-0.5650218257529518,-2.8770247334601713,-8.944979933230425
5.429830670926518,-0.5271942420217529,-2.8547415012384674,-8.868605951825392
5.437827476038339,-0.489366658290554,-2.8324582690167635,-8.792231970420358
5.44582428115016,-0.45153907455935505,-2.8101750367950595,-8.715857989015324
5.453821086261981,-0.41371149082815617,-2.7878918045733556,-8.639484007610292
5.461817891373802,-0.3758839070969573,-2.7656085723516517,-8.563110026205258
5.469814696485623,-0.33805632336575836,-2.7433253401299478,-8.486736044800224
5.4778115015974445,-0.3002287396345595,-2.721042107908244,-8.41036206339519
5.485808306709266,-0.26240115590336055,-2.69875887568654,-8.333988081990158
5.493805111821087,-0.22457357217216167,-2.676475643464836,-8.257614100585124
5.501801916932908,0.2747603833865045,-3.672076677316608,-8.616325878594402
5.509798722044729,0.01021004690367864,-5.181789953096321,-9.877315070355518
5.51779552715655,0.027224525865000085,-5.164775474135,-9.9028367887975
5.525792332268371,0.044239004826321524,-5.1477609951736785,-9.928358507239482
5.533789137380191,0.06125348378764108,-5.130746516212359,-9.953880225681463
5.541785942492012,0.07826796274896253,-5.1137320372510375,-9.979401944123444
5.5497827476038335,0.09528244171028397,-5.096717558289716,-10.004923662565426
5.557779552715655,0.1122969206716054,-5.079703079328395,-10.030445381007409
5.565776357827476,0.12931139963292684,-5.062688600367073,-10.05596709944939
5.573773162939297,0.1463258785942483,-5.045674121405752,-10.081488817891373
5.581769968051118,0.16334035755556975,-5.02865964244443,-10.107010536333355
5.589766773162939,0.1803548365168912,-5.0116451634831085,-10.132532254775338
5.59776357827476,0.19736931547821263,-4.994630684521788,-10.158053973217319
5.605760383386581,0.007987220447287946,-4.479309904153358,-8.940999201277966
5.613757188498402,-0.37571884984021625,-3.693541001065102,-8.155168264110783
5.621753993610223,-0.5065572753497313,-3.242918204658954,-8.059426377989393
5.6297507987220445,-0.51432116380781,-3.229797233164801,-8.048091100840598
5.637747603833866,-0.5220850522658889,-3.216676261670648,-8.036755823691802
5.645744408945687,-0.5298489407239676,-3.203555290176495,-8.025420546543009
5.653741214057508,-0.5376128291820463,-3.1904343186823416,-8.014085269394213
5.661738019169329,-0.5453767176401251,-3.1773133471881887,-8.002749992245418
5.66973482428115,-0.5531406060982038,-3.1641923756940353,-7.991414715096623
5.677731629392971,-0.5609044945562826,-3.1510714041998824,-7.980079437947828
5.685728434504792,-0.5686683830143614,-3.137950432705729,-7.968744160799033
5.693725239616613,-0.5764322714724401,-3.124829461211576,-7.9574088836502375
5.7017220447284345,-0.5841961599305189,-3.111708489717423,-7.946073606501443
5.709718849840256,-0.5919600483885976,-3.09858751822327,-7.934738329352648
5.717715654952077,-0.5997239368466764,-3.085466546729117,-7.923403052203852
5.725712460063898,-0.31693290734825275,-4.210769968051103,-8.704207667731586
5.733709265175719,-0.09755819260611616,-4.360746691008672,-9.43886992240986
5.74170607028754,-0.08613418530351448,-4.322133546325879,-9.405511821086263
5.749702875399361,-0.07471017800091281,-4.283520401643085,-9.372153719762665
5.757699680511182,-0.06328617069831113,-4.244907256960292,-9.338795618439068
5.765696485623003,-0.051862163395709454,-4.206294112277497,-9.305437517115472
5.773693290734824,-0.04043815609310778,-4.167680967594704,-9.272079415791875
5.7816900958466455,-0.02901414879050611,-4.12906782291191,-9.238721314468277
5.789686900958467,-0.01759014148790443,-4.090454678229117,-9.20536321314468
5.797683706070288,-0.006166134185302749,-4.051841533546323,-9.172005111821084
5.805680511182109,0.1,-3.7694472843450573,-8.526201277955295
5.81367731629393,0.0,-3.9477863684771033,-8.680764643237486
5.821674121405751,0.0,-3.976486013489528,-8.72652413915513
5.829670926517572,0.0,-4.0051856585019525,-8.772283635072773
5.837667731629393,0.0,-4.033885303514378,-8.818043130990416
5.845664536741214,0.0,-4.062584948526802,-8.86380262690806
5.853661341853035,0.0,-4.091284593539227,-8.909562122825703
5.8616581469648565,0.0,-4.119984238551651,-8.955321618743346
5.869654952076678,0.0,-4.148683883564076,-9.00108111466099
5.877651757188499,0.0,-4.177383528576501,-9.046840610578633
5.88564856230032,0.0,-4.206083173588925,-9.092600106496274
5.893645367412141,0.0,-4.234782818601349,-9.138359602413917
5.901642172523962,-0.1,-4.407808306709261,-9.278033774532167
5.909638977635783,-0.1,-4.169805667453813,-8.447923878316434
5.917635782747604,-0.1,-4.179888595638284,-8.472001215446591
5.925632587859425,-0.1,-4.189971523822754,-8.496078552576748
5.9336293929712465,-0.1,-4.200054452007223,-8.520155889706905
5.941626198083067,-0.1,-4.210137380191693,-8.54423322683706
5.949623003194888,-0.1,-4.220220308376162,-8.568310563967216
5.957619808306709,-0.1,-4.230303236560633,-8.592387901097373
5.96561661341853,-0.1,-4.240386164745103,-8.61646523822753
5.973613418530351,-0.1,-4.250469092929573,-8.640542575357687
5.981610223642172,-0.1,-4.260552021114043,-8.664619912487844
5.989607028753993,-0.1,-4.270634949298513,-8.688697249618002
5.997603833865814,-0.1,-4.280717877482983,-8.712774586748159
6.0056006389776355,-0.1,-4.300308839190647,-8.75987433439834
6.013597444089457,0.0,-4.108402555910543,-8.579725031254341
6.021594249201278,0.0,-4.100405750798722,-8.583028059452701
6.029591054313099,0.0,-4.092408945686901,-8.586331087651063
6.03758785942492,0.0,-4.08441214057508,-8.589634115849423
6.045584664536741,0.0,-4.076415335463259,-8.592937144047784
6.053581469648562,0.0,-4.068418530351438,-8.596240172246146
6.061578274760383,0.0,-4.060421725239617,-8.599543200444506
6.069575079872204,0.0,-4.0524249201277955,-8.602846228642868
6.0775718849840255,0.0,-4.044428115015974,-8.606149256841228
6.0855686900958466,0.0,-4.036431309904153,-8.60945228503959
6.093565495207668,0.0,-4.028434504792332,-8.61275531323795
6.101562300319489,0.0,-4.054485623003195,-8.716638977635782
6.10955910543131,0.0,-3.947619227417951,-8.839498983444669
6.117555910543131,0.0,-3.9728905844766023,-8.744410298816012
6.125552715654952,0.0,-3.981640030069536,-8.740835256530728
6.133549520766773,0.0,-3.9903894756624694,-8.737260214245444
6.141546325878594,0.0,-3.9991389212554034,-8.733685171960158
6.149543130990415,0.0,-4.007888366848337,-8.730110129674873
6.1575399361022365,0.0,-4.016637812441271,-8.726535087389589
6.165536741214058,0.0,-4.025387258034204,-8.722960045104303
6.173533546325879,0.0,-4.034136703627138,-8.719385002819019
6.1815303514377,0.0,-4.042886149220072,-8.715809960533734
6.189527156549521,0.0,-4.051635594813006,-8.71223491824845
6.197523961661342,0.0,-4.060385040405939,-8.708659875963164
6.205520766773163,0.0,-4.1723220447284355,-8.829812140575081
6.213517571884984,-0.09823538152908784,-4.193358756222603,-8.76524689798648
6.221514376996805,-0.08893677093394706,-4.200518686380861,-8.782356341481538
6.229511182108626,-0.07963816033880626,-4.20767861653912,-8.799465784976597
6.2375079872204475,-0.07033954974366548,-4.2148385466973775,-8.816575228471656
6.245504792332269,-0.06104093914852469,-4.221998476855636,-8.833684671966715
6.25350159744409,-0.051742328553383905,-4.229158407013895,-8.850794115461774
6.261498402555911,-0.042443717958243116,-4.236318337172153,-8.867903558956833
6.269495207667732,-0.03314510736310233,-4.243478267330412,-8.885013002451892
6.277492012779553,-0.023846496767961536,-4.250638197488669,-8.90212244594695
6.285488817891374,-0.014547886172820754,-4.257798127646928,-8.91923188944201
6.293485623003195,-0.005249275577679971,-4.264958057805186,-8.936341332937069
6.301482428115016,-0.049414270500549196,-4.185044728434489,-8.872777422790207
6.3094792332268375,0.0,-4.230789998923071,-8.853504612844167
6.317476038338659,0.0,-4.227285780952722,-8.845238252503858
6.32547284345048,0.0,-4.223781562982374,-8.836971892163549
6.333469648562301,0.0,-4.2202773450120254,-8.828705531823239
6.341466453674122,0.0,-4.216773127041677,-8.82043917148293
6.349463258785942,0.0,-4.213268909071329,-8.812172811142622
6.357460063897763,0.0,-4.20976469110098,-8.803906450802312
6.365456869009584,0.0,-4.206260473130632,-8.795640090462003
6.373453674121405,0.0,-4.202756255160283,-8.787373730121693
6.3814504792332265,0.0,-4.199252037189934,-8.779107369781384
6.389447284345048,0.0,-4.195747819219586,-8.770841009441074
6.397444089456869,0.0,-4.1922436012492375,-8.762574649100765
6.40544089456869,0.0,-3.968641259698777,-8.686518484710186
6.413437699680511,0.0,-4.1018947481781955,-8.804587285063
6.421434504792332,0.0,-4.105309114405714,-8.81285364540331
6.429431309904153,0.0,-4.108723480633234,-8.82112000574362
6.437428115015974,0.0,-4.112137846860753,-8.829386366083929
6.445424920127795,0.0,-4.115552213088272,-8.837652726424238
6.453421725239616,0.0,-4.118966579315791,-8.845919086764548
6.4614185303514375,0.0,-4.12238094554331,-8.854185447104857
6.469415335463259,0.0,-4.12579531177083,-8.862451807445167
6.47741214057508,0.0,-4.1292096779983485,-8.870718167785475
6.485408945686901,0.0,-4.132624044225867,-8.878984528125784
6.493405750798722,0.0,-4.136038410453387,-8.887250888466093
6.501402555910543,0.0,-4.145372204472843,-8.909579872204471
6.509399361022364,0.0,-4.1626986155484555,-8.950896698615548
6.517396166134185,0.0,-4.14116506922258,-8.898903088391913
6.525392971246006,0.0,-4.107444979172564,-8.796924899906985
6.5333897763578275,0.0,-4.116757714239495,-8.793078335422818
6.541386581469649,0.0,-4.126070449306426,-8.78923177093865
6.54938338658147,0.0,-4.135383184373357,-8.785385206454484
6.557380191693291,0.0,-4.144695919440288,-8.781538641970316
6.565376996805112,0.0,-4.154008654507219,-8.777692077486149
6.573373801916933,0.0,-4.16332138957415,-8.773845513001982
6.581370607028754,0.0,-4.172634124641081,-8.769998948517815
6.589367412140575,0.0,-4.181946859708012,-8.766152384033647
6.597364217252396,0.0,-4.191259594774943,-8.76230581954948
6.605361022364217,-0.00035394349433037314,-4.230861962037211,-8.853674371985216
6.6133578274760385,-0.008193948505919736,-4.227804360082692,-8.846461567374552
6.62135463258786,-0.016033953517509098,-4.2247467581281715,-8.83924876276389
6.629351437699681,-0.02387395852909846,-4.221689156173651,-8.832035958153229
6.637348242811502,-0.03171396354068782,-4.218631554219131,-8.824823153542567
6.645345047923323,-0.039553968552277184,-4.215573952264612,-8.817610348931904
6.653341853035144,-0.04739397356386655,-4.212516350310092,-8.810397544321242
6.661338658146965,-0.05523397857545591,-4.209458748355572,-8.80318473971058
6.669335463258786,-0.06307398358704527,-4.206401146401053,-8.795971935099919
6.677332268370607,-0.07091398859863464,-4.203343544446533,-8.788759130489256
6.685329073482428,-0.07875399361022399,-4.2002859424920125,-8.781546325878594
6.6933258785942495,-0.08659399862181336,-4.197228340537493,-8.774333521267932
6.701322683706071,-0.09443400363340272,-4.194170738582973,-8.76712071665727
6.709319488817892,-0.0680511182107985,-4.098067092651723,-8.618853035143854
6.717316293929713,0.0,-4.2513091054313215,-8.925659744408959
6.725313099041534,0.0,-4.254628910023032,-8.933584738836466
6.733309904153355,0.0,-4.238914258117244,-8.92000876736756
6.741306709265176,0.0,-4.223199606211456,-8.906432795898654
6.749303514376997,0.0,-4.207484954305668,-8.89285682442975
6.7573003194888175,0.0,-4.191770302399882,-8.879280852960845
6.765297124600639,0.0,-4.176055650494094,-8.86570488149194
6.77329392971246,0.0,-4.160340998588306,-8.852128910023033
6.781290734824281,0.0,-4.144626346682518,-8.838552938554129
6.789287539936102,0.0,-4.12891169477673,-8.824976967085224
6.797284345047923,0.0,-4.113197042870942,-8.811400995616317
6.805281150159744,0.0,-4.062,-8.708
6.813277955271565,0.0,-4.138,-8.892
6.821274760383386,0.0,-4.138,-8.892
6.829271565495207,0.0,-4.138,-8.892
6.8372683706070285,0.0,-4.138,-8.892
6.84526517571885,0.0,-4.138,-8.892
6.853261980830671,0.0,-4.138,-8.892
6.861258785942492,0.0,-4.138,-8.892
6.869255591054313,0.0,-4.138,-8.892
6.877252396166134,0.0,-4.138,-8.892
6.885249201277955,0.0,-4.138,-8.892
6.893246006389776,0.0,-4.138,-8.892
6.901242811501597,0.0,-4.138,-8.892
6.9092396166134185,0.0,-4.138,-8.892
6.91723642172524,0.0,-4.227579690676735,-8.855397545744989
6.925233226837061,0.0,-4.219128521638106,-8.85885071158873
6.933230031948882,0.0,-4.210677352599477,-8.86230387743247
6.941226837060703,0.0,-4.202226183560848,-8.865757043276211
6.949223642172524,0.0,-4.193775014522219,-8.869210209119952
6.957220447284345,0.0,-4.185323845483589,-8.872663374963693
6.965217252396166,0.0,-4.17687267644496,-8.876116540807434
6.973214057507987,0.0,-4.1684215074063315,-8.879569706651175
6.981210862619808,0.0,-4.159970338367702,-8.883022872494918
6.9892076677316295,0.0,-4.151519169329073,-8.886476038338659
6.997204472843451,0.0,-4.143068000290444,-8.8899292041824
7.005201277955272,-0.040255591054359635,-4.55953354632577,-10.061019169329295
7.013198083067093,-0.6114243583892149,-3.311061721026579,-12.679133412912964
7.021194888178914,-0.6289997542393712,-3.411153600393219,-12.599341115753255
7.029191693290735,-0.6465751500895274,-3.5112454797598582,-12.519548818593545
7.037188498402556,-0.6641505459396836,-3.611337359126498,-12.439756521433836
7.045185303514377,-0.6817259417898398,-3.711429238493138,-12.359964224274128
7.053182108626198,-0.6993013376399961,-3.811521117859778,-12.280171927114418
7.061178913738019,-0.7168767334901524,-3.9116129972264173,-12.200379629954709
7.0691757188498405,-0.7344521293403086,-4.011704876593057,-12.120587332795
7.077172523961662,-0.7520275251904648,-4.111796755959697,-12.04079503563529
7.085169329073483,-0.769602921040621,-4.2118886353263365,-11.961002738475582
7.093166134185304,-0.7871783168907773,-4.311980514692976,-11.881210441315872
7.101162939297125,0.43706070287509,-7.594884984025127,-11.057172523962311
7.109159744408946,-0.4894968051118216,-2.0036477635782495,-12.911656549520767
7.117156549520767,-0.41599186755736217,-1.532330816148708,-12.744899506244552
7.125153354632588,-0.3221202802788259,-1.585218777229161,-12.545888106302641
7.133150159744409,-0.2282486930002896,-1.6381067383096144,-12.34687670636073
7.1411469648562305,-0.13437710572175332,-1.6909946993900675,-12.147865306418819
7.149143769968052,-0.04050551844321704,-1.7438826604705207,-11.948853906476907
7.157140575079873,0.05336606883531925,-1.7967706215509738,-11.749842506534996
7.165137380191693,0.1472376561138451,-1.8496585826314211,-11.550831106593106
7.173134185303514,0.24110924339238138,-1.9025465437118743,-11.351819706651195
7.181130990415335,0.33498083067091766,-1.9554345047923274,-11.152808306709284
7.189127795527156,0.42885241794945395,-2.0083224658727805,-10.953796906767373
7.197124600638977,0.5227240052279902,-2.0612104269532336,-10.754785506825462
7.205121405750798,-0.18507774227899512,-1.8152012779553104,-7.1605095846647195
7.2131182108626195,-0.41979845013935074,-2.651533376385018,-5.986465841887024
7.221115015974441,-0.3126072326830257,-2.6545109102032494,-6.061159404527225
7.229111821086262,-0.2054160152267006,-2.6574884440214803,-6.135852967167426
7.237108626198083,-0.09822479777037552,-2.6604659778397117,-6.210546529807627
7.245105431309904,0.008966419685949578,-2.663443511657943,-6.285240092447829
7.253102236421725,0.11615763714227467,-2.666421045476174,-6.35993365508803
7.261099041533546,0.22334885459859977,-2.6693985792944055,-6.434627217728231
7.269095846645367,0.33054007205492486,-2.672376113112637,-6.509320780368432
7.277092651757188,0.43773128951124995,-2.675353646930868,-6.584014343008633
7.285089456869009,0.544922506967575,-2.6783311807490993,-6.658707905648834
7.2930862619808305,0.6521137244239,-2.6813087145673307,-6.733401468289035
7.301083067092652,0.7593049418802252,-2.684286248385562,-6.808095030929236
7.309079872204473,-1.7443278170657308,-1.091050507951326,-6.271854112072363
7.317076677316294,-1.677028861686472,-0.9959873640377667,-6.457487812758009
7.325073482428115,-1.609729906307213,-0.9009242201242075,-6.643121513443655
7.333070287539936,-1.5424309509279541,-0.8058610762106482,-6.828755214129301
7.341067092651757,-1.4751319955486952,-0.710797932297089,-7.014388914814948
7.349063897763578,-1.4078330401694366,-0.6157347883835297,-7.200022615500593
7.357060702875399,-1.3405340847901777,-0.5206716444699704,-7.385656316186239
7.3650575079872205,-1.2732351294109188,-0.4256085005564112,-7.5712900168718855
7.373054313099042,-1.2059361740316599,-0.3305453566428519,-7.756923717557531
7.381051118210863,-1.138637218652401,-0.2354822127292926,-7.942557418243178
7.389047923322684,-1.0713382632731423,-0.1404190688157334,-8.128191118928823
7.397044728434505,-1.0040393078938834,-0.045355924902174216,-8.313824819614469
7.405041533546326,-0.38597444089456345,0.8599488817891269,-9.218948881789126
7.413038338658147,-0.3362388431141698,-0.9415538927190146,-7.591427341516736
7.421035143769968,-0.20601718513535627,-0.8594814192029556,-7.709106642004377
7.429031948881789,-0.07579552715654281,-0.7774089456868967,-7.826785942492019
7.43702875399361,0.05442613082227071,-0.6953364721708378,-7.9444652429796605
7.4450255591054315,0.18464778880108423,-0.6132639986547789,-8.062144543467301
7.453022364217253,0.3148694467798977,-0.53119152513872,-8.179823843954942
7.461019169329074,0.44509110475871116,-0.4491190516226611,-8.297503144442585
7.469015974440895,0.5753127627375247,-0.36704657810660213,-8.415182444930226
7.477012779552716,0.7055344207163382,-0.2849741045905433,-8.532861745417867
7.485009584664537,0.8357560786951518,-0.20290163107448433,-8.65054104590551
7.493006389776358,0.9659777366739651,-0.12082915755842538,-8.76822034639315
7.501003194888179,1.0961993946527788,-0.03875668404236654,-8.885899646880791
7.509,1.641000000000075,0.7656666666664436,-10.10499999999961
7.5169968051118214,1.642693581179194,0.41094452512344065,-9.61292332268372
7.5249936102236425,1.4994780714493072,0.4360254138832432,-9.804846645367427
7.532990415335464,1.3562625617194204,0.46110630264304575,-9.996769968051133
7.540987220447285,1.2130470519895333,0.4861871914028483,-10.18869329073484
7.548984025559106,1.0698315422596465,0.5112680801626508,-10.380616613418546
7.556980830670927,0.9266160325297595,0.5363489689224533,-10.57253993610225
7.564977635782748,0.7834005227998726,0.5614298576822558,-10.764463258785957
7.572974440894569,0.6401850130699858,0.5865107464420584,-10.956386581469664
7.580971246006389,0.4969695033401147,0.6115916352018581,-11.148309904153349
7.5889680511182105,0.35375399361022786,0.6366725239616606,-11.340233226837055
7.596964856230032,0.21053848388034102,0.6617534127214633,-11.532156549520762
7.604961661341853,0.024146609868665875,2.4603351082710905,-12.952426340078004
7.612958466453674,0.000348242811498093,1.8086461661342437,-11.645464856230129
7.620955271565495,0.06165708200212423,0.7857215122471664,-9.95147497337609
7.628952076677316,0.2577037052404287,0.8740823617277206,-9.962241649724076
7.636948881789137,0.4545081946807014,0.9686939131156301,-9.982597153645075
7.644945686900958,0.6513126841209742,1.0633054645035396,-10.002952657566075
7.652942492012779,0.8481171735612469,1.1579170158914491,-10.023308161487074
7.6609392971246,1.0449216630015197,1.2525285672793585,-10.043663665408072
7.6689361022364215,1.2417261524417924,1.347140118667268,-10.064019169329072
7.676932907348243,1.4385306418820651,1.4417516700551776,-10.084374673250071
7.684929712460064,1.6353351313223379,1.5363632214430871,-10.10473017717107
7.692926517571885,1.8321396207626106,1.6309747728309965,-10.12508568109207
7.700923322683706,1.5864626198083414,1.475546964856274,-10.177620447284394
7.708920127795527,0.5956319488817893,0.8413916932907324,-8.378415335463256
7.716916932907348,0.5924332268370608,0.9056326943556954,-8.503698615548453
7.724913738019169,0.5892345047923323,0.9698736954206584,-8.62898189563365
7.73291054313099,0.5860357827476039,1.0341146964856214,-8.754265175718848
7.7409073482428115,0.5828370607028754,1.0983556975505842,-8.879548455804045
7.748904153354633,0.5796383386581471,1.1625966986155472,-9.004831735889242
7.756900958466454,0.5764396166134186,1.2268376996805102,-9.13011501597444
7.764897763578275,0.5732408945686902,1.2910787007454732,-9.255398296059637
7.772894568690096,0.5700421725239617,1.3553197018104362,-9.380681576144834
7.780891373801917,0.5668434504792332,1.419560702875399,-9.505964856230031
7.788888178913738,0.5636447284345049,1.4838017039403621,-9.631248136315229
7.796884984025559,0.5604460063897764,1.548042705005325,-9.756531416400426
7.80488178913738,0.5871325878594338,1.6432779552715884,-10.053961661341866
7.812878594249201,0.6672058966523131,1.884262883733853,-10.202075704959023
7.8208753993610225,0.6930216696763444,1.991524378385889,-10.285868315043759
7.828872204472844,0.7188374427003756,2.0987858730379245,-10.369660925128493
7.836869009584665,0.7446532157244069,2.20604736768996,-10.453453535213226
7.844865814696486,0.7704689887484382,2.3133088623419957,-10.537246145297962
7.852862619808307,0.7962847617724694,2.4205703569940313,-10.621038755382695
7.860859424920128,0.8221005347965007,2.527831851646067,-10.70483136546743
7.868856230031949,0.847916307820532,2.6350933462981025,-10.788623975552165
7.87685303514377,0.8737320808445632,2.7423548409501386,-10.872416585636898
7.884849840255591,0.8995478538685946,2.8496163356021738,-10.956209195721634
7.892846645367412,0.9253636268926257,2.95687783025421,-11.040001805806368
7.9008434504792335,0.9452875399361036,2.7780383386581393,-10.984111821086257
7.908840255591055,0.5985410010648697,4.237654952077115,-12.87407561235402
7.916837060702876,0.7621400725132045,4.310800481028104,-12.922213375453202
7.924833865814697,0.9581965753670647,4.248353519761636,-12.829576228596038
7.932830670926518,1.154253078220925,4.1859065584951685,-12.736939081738875
7.940827476038339,1.3503095810747854,4.123459597228701,-12.644301934881712
7.94882428115016,1.5463660839286457,4.061012635962232,-12.55166478802455
7.956821086261981,1.742422586782506,3.9985656746957647,-12.459027641167385
7.964817891373802,1.9384790896363664,3.9361187134292965,-12.366390494310222
7.9728146964856235,2.1345355924902267,3.8736717521628288,-12.27375334745306
7.980811501597445,2.330592095344087,3.811224790896361,-12.181116200595897
7.988808306709265,2.526648598197925,3.7487778296299,-12.088479053738743
7.996805111821086,2.7227051010517855,3.686330868363432,-11.99584190688158
8.004801916932907,1.367523961661346,2.31135782747603,-9.941958466453682
8.012798722044728,0.9521604961473742,3.166075173839435,-9.228831610599569
8.02079552715655,0.6691267700074988,3.6621550112412944,-8.727001538279508
8.02879233226837,0.6323019760975075,3.4909641462549006,-8.61830422435216
8.036789137380191,0.5954771821875163,3.3197732812685072,-8.509606910424814
8.044785942492013,0.5586523882775251,3.148582416282114,-8.400909596497467
8.052782747603834,0.5218275943675339,2.97739155129572,-8.29221228257012
8.060779552715655,0.4850028004575426,2.8062006863093267,-8.183514968642774
8.068776357827476,0.44817800654755136,2.6350098213229334,-8.074817654715426
8.076773162939297,0.41135321263756014,2.4638189563365396,-7.96612034078808
8.084769968051118,0.37452841872756887,2.292628091350146,-7.857423026860733
8.09276677316294,0.33770362481757765,2.1214372263637524,-7.7487257129333855
8.10076357827476,-0.9788498402555721,0.698944089456883,-6.930337060702883
8.108760383386581,-0.5889076607862194,0.6903974857619124,-8.300910473676899
8.116757188498402,-0.6035974440894561,0.6742300319488825,-8.319859424920127
8.124753993610224,-0.6182872273926929,0.6580625781358527,-8.338808376163355
8.132750798722045,-0.6329770106959297,0.6418951243228228,-8.357757327406583
8.140747603833866,-0.6476667939991665,0.625727670509793,-8.376706278649813
8.148744408945687,-0.6623565773024034,0.6095602166967632,-8.395655229893041
8.156741214057508,-0.6770463606056402,0.5933927628837333,-8.41460418113627
8.164738019169329,-0.6917361439088769,0.5772253090707035,-8.433553132379497
8.17273482428115,-0.7064259272121137,0.5610578552576737,-8.452502083622726
8.180731629392971,-0.7211157105153505,0.5448904014446438,-8.471451034865956
8.188728434504792,-0.7358054938185873,0.528722947631614,-8.490399986109184
8.196725239616613,-0.7504952771218241,0.5125554938185841,-8.509348937352412
8.204722044728435,-0.7567889068212555,0.02657376239253742,-9.50167995125325
8.212718849840256,-0.6682469615625348,0.13523138236552987,-9.548259279997364
8.220715654952077,-0.5797050163038142,0.24388900233852231,-9.594838608741476
8.228712460063898,-0.4911630710450935,0.35254662231151473,-9.641417937485588
8.236709265175719,-0.40262112578637277,0.4612042422845072,-9.687997266229702
8.24470607028754,-0.3140791805276521,0.5698618622574996,-9.734576594973815
8.252702875399361,-0.22553723526893144,0.6785194822304921,-9.781155923717927
8.260699680511182,-0.1369952900102107,0.7871771022034845,-9.82773525246204
8.268696485623003,-0.04845334475148999,0.895834722176477,-9.874314581206153
8.276693290734825,0.04008860050723073,1.0044923421494694,-9.920893909950266
8.284690095846646,0.12863054576595145,1.1131499621224619,-9.967473238694378
8.292686900958467,0.21717249102467218,1.2218075820954541,-10.01405256743849
8.300683706070288,-0.1835143769967993,-0.09308306709263553,-9.412686900958477
8.308680511182109,-0.3280785606187984,0.919701765596105,-9.252296721035817
8.31667731629393,-0.34508229359340775,0.8122920464099592,-9.237229056667228
8.324674121405751,-0.362086026568017,0.7048823272238134,-9.222161392298638
8.332670926517572,-0.3790897595426263,0.5974726080376676,-9.207093727930049
8.340667731629393,-0.3960934925172356,0.4900628888515218,-9.192026063561459
8.348664536741214,-0.4130972254918449,0.382653169665376,-9.17695839919287
8.356661341853036,-0.4301009584664542,0.27524345047923016,-9.161890734824281
8.364658146964857,-0.44710469144106346,0.16783373129308443,-9.14682307045569
8.372654952076678,-0.46410842441567274,0.060424012106938596,-9.131755406087102
8.380651757188499,-0.481112157390282,-0.04698570707920724,-9.116687741718511
8.38864856230032,-0.49811589036489134,-0.15439542626535308,-9.101620077349923
8.396645367412141,-0.5151196233395006,-0.2618051454514987,-9.086552412981334
8.404642172523962,-1.7469972615244413,0.25472478320407516,-9.43039251483339
8.412638977635783,-1.9577701962574503,0.7876547238704635,-9.255605203103578
8.420635782747604,-1.8970312945070718,0.9240185919396383,-9.248814657993005
8.428632587859425,-1.722546787790108,0.8942473536317743,-9.312403710689415
8.436629392971247,-1.5480622810731444,0.8644761153239102,-9.375992763385824
8.444626198083068,-1.3735777743561806,0.8347048770160462,-9.439581816082232
8.452623003194889,-1.199093267639217,0.8049336387081822,-9.503170868778641
8.46061980830671,-1.0246087609222534,0.7751624004003181,-9.566759921475049
8.468616613418531,-0.8501242542052896,0.7453911620924542,-9.630348974171458
8.476613418530352,-0.675639747488326,0.71561992378459,-9.693938026867867
8.484610223642173,-0.5011552407713622,0.6858486854767261,-9.757527079564275
8.492607028753994,-0.3266707340543986,0.656077447168862,-9.821116132260684
8.500603833865815,-0.7940607028758015,1.3102172523969968,-9.519623003194564
8.508600638977637,-0.7042149138697675,2.447515661539469,-8.99474579229933
8.516597444089458,-0.7102331280260866,2.3725765290998253,-8.987243634926385
8.524594249201279,-0.7162513421824056,2.297637396660182,-8.97974147755344
8.5325910543131,-0.7222695563387246,2.222698264220538,-8.972239320180494
8.540587859424921,-0.7282877704950437,2.147759131780895,-8.964737162807548
8.548584664536742,-0.7343059846513627,2.0728199993412515,-8.957235005434603
8.556581469648563,-0.7403241988076816,1.997880866901608,-8.949732848061657
8.564578274760384,-0.7463424129640006,1.9229417344619644,-8.942230690688712
8.572575079872205,-0.7523606271203197,1.848002602022321,-8.934728533315766
8.580571884984026,-0.7583788412766387,1.7730634695826775,-8.927226375942821
8.588568690095848,-0.7643970554329577,1.698124337143034,-8.919724218569876
8.596565495207669,-0.7704152695892766,1.6231852047033906,-8.91222206119693
8.604562300319488,-0.4863210862618549,1.1593242811503988,-7.767672523962099
8.612559105431309,-0.5574581057404892,0.9898153492047256,-7.666933422652776
8.62055591054313,-0.5801587137998523,0.9102772338452145,-7.743032051942686
8.628552715654951,-0.6028593218592154,0.8307391184857036,-7.819130681232597
8.636549520766772,-0.6255599299185786,0.7512010031261926,-7.895229310522508
8.644546325878594,-0.6482605379779417,0.6716628877666816,-7.971327939812419
8.652543130990415,-0.6709611460373048,0.5921247724071705,-8.04742656910233
8.660539936102236,-0.693661754096668,0.5125866570476596,-8.123525198392239
8.668536741214057,-0.7163623621560311,0.43304854168814855,-8.19962382768215
8.676533546325878,-0.7390629702153942,0.3535104263286376,-8.27572245697206
8.684530351437699,-0.7617635782747574,0.27397231096912655,-8.351821086261971
8.69252715654952,-0.7844641863341206,0.1944341956096156,-8.427919715551882
8.700523961661341,-1.1177987220444228,1.6508913738016209,-8.95128115015907
8.708520766773162,-0.9164792332268384,0.2622917178667896,-10.092080363725726
8.716517571884983,-0.9084824281150172,0.3111513183302244,-10.118794965417964
8.724514376996805,-0.9004856230031961,0.36001091879365926,-10.145509567110201
8.732511182108626,-0.8924888178913749,0.40887051925709406,-10.17222416880244
8.740507987220447,-0.8844920127795537,0.4577301197205289,-10.198938770494678
8.748504792332268,-0.8764952076677326,0.5065897201839638,-10.225653372186915
8.756501597444089,-0.8684984025559114,0.5554493206473985,-10.252367973879153
8.76449840255591,-0.8605015974440903,0.6043089211108333,-10.27908257557139
8.772495207667731,-0.8525047923322691,0.6531685215742682,-10.305797177263628
8.780492012779552,-0.8445079872204478,0.7020281220377029,-10.332511778955867
8.788488817891373,-0.8365111821086267,0.7508877225011378,-10.359226380648105
8.796485623003194,-0.8285143769968055,0.7997473229645726,-10.385940982340342
8.804482428115016,-0.6916658522834306,1.1184313099042045,-10.309341665100565
8.812479233226837,-0.48233771847398915,0.6946006389776725,-10.140467957150927
8.820476038338658,0.042974845310781135,0.221126744044963,-9.745973187204273
8.828472843450479,0.12952254620454243,0.2759909006349263,-9.729574675455982
8.8364696485623,0.21607024709830375,0.3308550572248896,-9.71317616370769
8.844466453674121,0.30261794799206504,0.38571921381485297,-9.6967776519594
8.852463258785942,0.3891656488858264,0.44058337040481627,-9.680379140211107
8.860460063897763,0.4757133497795877,0.49544752699477956,-9.663980628462815
8.868456869009584,0.562261050673349,0.5503116835847429,-9.647582116714524
8.876453674121406,0.6488087515671103,0.6051758401747062,-9.631183604966232
8.884450479233227,0.7353564524608716,0.6600399967646695,-9.61478509321794
8.892447284345048,0.8219041533546328,0.7149041533546328,-9.598386581469649
8.900444089456869,1.2265271565494846,0.5533674121406186,-9.552025559105463
8.90844089456869,2.790116697494538,-0.0011208676643707245,-8.482355103413486
8.916437699680511,2.685316462081725,0.08145666722717085,-8.517625222801412
8.924434504792332,2.5805162266689123,0.16403420211871245,-8.552895342189338
8.932431309904153,2.4757159912561,0.24661173701025402,-8.588165461577265
8.940428115015974,2.370915755843287,0.3291892719017956,-8.623435580965191
8.948424920127795,2.2661155204304744,0.41176680679333716,-8.658705700353117
8.956421725239617,2.1613152850176616,0.49434434168487873,-8.693975819741045
8.964418530351438,2.056515049604849,0.5769218765764204,-8.72924593912897
8.972415335463259,1.9517148141920364,0.6594994114679619,-8.764516058516897
8.98041214057508,1.8469145787792236,0.7420769463595035,-8.799786177904824
8.988408945686901,1.7421143433664108,0.824654481251045,-8.83505629729275
8.996405750798722,1.6373141079535982,0.9072320161425866,-8.870326416680676
9.004402555910543,0.578757188498425,0.46224600638977265,-8.865549520766779
9.012399361022364,1.5046663623915986,0.4935075308078603,-9.026547238703793
9.020396166134185,1.4167893831408183,0.7430781518800764,-9.19175595969526
9.028392971246006,1.328912403890038,0.9926487729522926,-9.356964680686728
9.036389776357828,1.2410354246392576,1.2422193940245085,-9.522173401678195
9.044386581469649,1.1531584453884771,1.4917900150967247,-9.687382122669662
9.05238338658147,1.065281466137697,1.7413606361689407,-9.85259084366113
9.060380191693291,0.9774044868869166,1.9909312572411568,-10.017799564652597
9.068376996805112,0.8895275076361363,2.240501878313373,-10.183008285644064
9.076373801916933,0.801650528385356,2.4900724993855894,-10.348217006635531
9.084370607028754,0.7137735491345757,2.7396431204578056,-10.513425727626998
9.092367412140575,0.6258965698837953,2.9892137415300213,-10.678634448618464
9.100364217252396,0.7312939297124776,1.0283833865812597,-9.92580191693282
9.108361022364218,1.1862594657059353,1.5291845557745902,-9.761542111345252
9.116357827476039,1.1321534226089327,1.5415200530215485,-9.774728332540276
9.12435463258786,1.0780473795119299,1.5538555502685065,-9.7879145537353
9.13235143769968,1.0239413364149272,1.5661910475154648,-9.801100774930324
9.140348242811502,0.9698352933179245,1.5785265447624228,-9.814286996125348
9.148345047923323,0.9157292502209218,1.590862042009381,-9.827473217320373
9.156341853035144,0.8616232071239192,1.6031975392563393,-9.840659438515397
9.164338658146965,0.8075171640269164,1.6155330365032974,-9.853845659710421
9.172335463258786,0.7534111209299137,1.6278685337502556,-9.867031880905445
9.180332268370607,0.699305077832911,1.6402040309972137,-9.88021810210047
9.188329073482429,0.6451990347359082,1.652539528244172,-9.893404323295494
9.19632587859425,0.5910929916389056,1.66487502549113,-9.906590544490518
9.20432268370607,0.28794071707487934,1.483888888888874,-9.906860134895279
9.212319488817892,0.02404792332267751,1.5024306709265312,-9.826681150159738
9.220316293929713,0.10099716908643196,1.6040033970962817,-9.71500254782221
9.228313099041534,0.16173239778380694,1.5311211226594317,-9.660340841994573
9.236309904153355,0.22246762648118193,1.4582388482225817,-9.605679136166936
9.244306709265176,0.2832028551785569,1.3853565737857316,-9.551017430339298
9.252303514376997,0.34393808387593194,1.3124742993488816,-9.49635572451166
9.260300319488818,0.40467331257330685,1.2395920249120318,-9.441694018684023
9.26829712460064,0.4654085412706819,1.1667097504751818,-9.387032312856386
9.27629392971246,0.5261437699680569,1.0938274760383317,-9.332370607028748
9.284290734824282,0.5868789986654318,1.0209452016014817,-9.27770890120111
9.292287539936103,0.6476142273628068,0.9480629271646317,-9.223047195373473
9.300284345047924,0.5075654952075911,1.0531469648564675,-9.663338658147095
9.308281150159745,0.7539547723642173,0.5280206669329072,-9.564986521565496
9.316277955271566,0.7523720713525026,0.5674215921192765,-9.57556562832801
9.324274760383387,0.750789370340788,0.6068225173056457,-9.586144735090523
9.332271565495208,0.7492066693290734,0.646223442492015,-9.596723841853036
9.34026837060703,0.7476239683173588,0.6856243676783842,-9.60730294861555
9.34826517571885,0.7460412673056441,0.7250252928647535,-9.617882055378063
9.356261980830672,0.7444585662939295,0.7644262180511228,-9.628461162140576
9.364258785942493,0.7428758652822149,0.8038271432374919,-9.63904026890309
9.372255591054314,0.7412931642705003,0.8432280684238613,-9.649619375665603
9.380252396166135,0.7397104632587856,0.8826289936102305,-9.660198482428116
9.388249201277956,0.738127762247071,0.9220299187965998,-9.670777589190632
9.396246006389777,0.7365450612353565,0.9614308439829691,-9.681356695953145
9.404242811501598,1.4811389776367898,2.2762891373794796,-10.729206070286917
9.41223961661342,3.1812336782886352,0.9669545770245909,-9.585629809695794
9.420236421725239,2.877789693012965,1.0437934435338123,-9.653081122378097
9.42823322683706,2.5743457077372276,1.120632310043051,-9.720532435060415
9.436230031948881,2.27090172246149,1.1974711765522896,-9.787983747742734
9.444226837060702,1.9674577371857525,1.2743100430615282,-9.855435060425052
9.452223642172523,1.6640137519100149,1.3511489095707667,-9.922886373107369
9.460220447284344,1.3605697666342773,1.4279877760800055,-9.990337685789687
9.468217252396165,1.0571257813585397,1.504826642589244,-10.057788998472006
9.476214057507987,0.7536817960828022,1.5816655090984826,-10.125240311154323
9.484210862619808,0.45023781080706504,1.6585043756077211,-10.192691623836641
9.492207667731629,0.14679382553132747,1.7353432421169597,-10.26014293651896
9.50020447284345,1.1482651757189637,0.9272715654957107,-9.212345047923353
9.508201277955271,0.7282930553220095,1.7188260635614578,-9.608745619640157
9.516198083067092,0.7441183117538238,1.7370082730788614,-9.571455254750298
9.524194888178913,0.7599435681856381,1.7551904825962652,-9.534164889860437
9.532191693290734,0.7757688246174523,1.7733726921136688,-9.496874524970577
9.540188498402555,0.7915940810492667,1.7915549016310723,-9.459584160080716
9.548185303514376,0.807419337481081,1.8097371111484761,-9.422293795190857
9.556182108626198,0.8232445939128953,1.8279193206658797,-9.385003430300996
9.564178913738019,0.8390698503447096,1.8461015301832835,-9.347713065411137
9.57217571884984,0.8548951067765238,1.864283739700687,-9.310422700521276
9.58017252396166,0.8707203632083381,1.8824659492180906,-9.273132335631416
9.588169329073482,0.8865456196401524,1.9006481587354944,-9.235841970741555
9.596166134185303,0.9023708760719668,1.918830368252898,-9.198551605851694
9.604162939297124,0.5960415335465263,1.512031948881574,-9.434306709265067
9.612159744408945,0.3619691847882033,1.7775779655776618,-9.524022570339078
9.620156549520766,0.4244818441031919,1.7268455460510546,-9.450331581297888
9.628153354632587,0.4869945034181805,1.6761131265244478,-9.376640592256697
9.636150159744409,0.5495071627331691,1.6253807069978405,-9.302949603215508
9.64414696485623,0.6120198220481579,1.5746482874712338,-9.229258614174318
9.65214376996805,0.6745324813631464,1.5239158679446265,-9.155567625133127
9.660140575079872,0.7370451406781351,1.4731834484180197,-9.081876636091938
9.668137380191693,0.7995577999931237,1.4224510288914125,-9.008185647050746
9.676134185303514,0.8620704593081123,1.3717186093648057,-8.934494658009557
9.684130990415335,0.924583118623101,1.3209861898381985,-8.860803668968368
9.692127795527156,0.9870957779380896,1.2702537703115917,-8.787112679927176
9.700124600638977,1.3272843450479614,1.0858434504793368,-8.812057507987214
9.708121405750799,0.45228570457481027,2.254077662973282,-10.176148018489563
9.71611821086262,0.5089439195160101,2.173003670722586,-10.098306777241518
9.72411501597444,0.56560213445721,2.09192967847189,-10.020465535993473
9.732111821086262,0.6222603493984099,2.0108556862211944,-9.942624294745428
9.740108626198083,0.6789185643396098,1.9297816939704984,-9.864783053497383
9.748105431309904,0.7355767792808097,1.8487077017198024,-9.786941812249339
9.756102236421725,0.7922349942220095,1.7676337094691066,-9.709100571001294
9.764099041533546,0.8488932091632094,1.6865597172184108,-9.631259329753249
9.772095846645367,0.9055514241044094,1.6054857249677148,-9.553418088505204
9.780092651757188,0.9622096390456092,1.5244117327170188,-9.475576847257159
9.78808945686901,1.018867853986809,1.443337740466323,-9.397735606009114
9.79608626198083,1.0755260689280088,1.362263748215627,-9.319894364761069
9.804083067092652,1.2813034498338018,1.1011628424823332,-9.360339949010875
9.812079872204473,1.2939852518798212,1.1401775583309148,-9.3386112563333
9.820076677316294,1.3066670539258405,1.1791922741794965,-9.316882563655724
9.828073482428115,1.3193488559718598,1.2182069900280783,-9.295153870978151
9.836070287539936,1.3320306580178791,1.25722170587666,-9.273425178300576
9.844067092651757,1.3447124600638984,1.2962364217252416,-9.251696485623002
9.852063897763578,1.3573942621099178,1.3352511375738232,-9.229967792945427
9.8600607028754,1.370076064155937,1.374265853422405,-9.208239100267853
9.86805750798722,1.3827578662019564,1.4132805692709867,-9.186510407590278
9.876054313099042,1.3954396682479757,1.4522952851195683,-9.164781714912703
9.884051118210863,1.408121470293995,1.49131000096815,-9.14305302223513
9.892047923322684,1.4208032723400144,1.5303247168167315,-9.121324329557554
9.900044728434505,1.4334850743860335,1.5693394326653134,-9.09959563687998
9.908041533546326,1.8265490054622393,1.044573430897659,-8.60465567350303
9.916038338658147,1.5740907279535645,1.0742389982479632,-8.834413342952342
9.924035143769968,1.3216324504448895,1.1039045655982673,-9.064171012401653
9.93203194888179,1.0691741729362145,1.1335701329485715,-9.293928681850964
9.94002875399361,0.8167158954275398,1.1632357002988756,-9.523686351300277
9.948025559105432,0.5642576179188648,1.1929012676491797,-9.753444020749589
9.956022364217253,0.31179934041019,1.2225668349994838,-9.9832016901989
9.964019169329074,0.059341062901514974,1.252232402349788,-10.212959359648213
9.972015974440895,-0.19311721460716003,1.2818979697000918,-10.442717029097524
9.980012779552716,-0.4455754921158346,1.311563537050396,-10.672474698546836
9.988009584664537,-0.6980337696245096,1.3412291044007,-10.902232367996149
9.996006389776358,-0.9504920471331846,1.3708946717510042,-11.13199003744546
10.00400319488818,0.9360073823629786,1.1150184559074463,-9.664980582524265
10.012,0.9544854368932061,1.161213592233015,-9.616378640776693
10.019996805111822,0.9729634914234335,1.2074087285585835,-9.56777669902912
10.027993610223643,0.991441545953661,1.2536038648841523,-9.519174757281547
10.035990415335464,1.0099196004838884,1.299799001209721,-9.470572815533973
10.043987220447285,1.0283976550141158,1.3459941375352895,-9.421970873786401
10.051984025559106,1.0468757095443433,1.3921892738608581,-9.373368932038828
10.059980830670927,1.0653537640745707,1.4383844101864267,-9.324766990291256
10.067977635782748,1.0838318186047982,1.4845795465119953,-9.276165048543682
10.07597444089457,1.1023098731350256,1.530774682837564,-9.227563106796108
10.08397124600639,1.120787927665253,1.5769698191631325,-9.178961165048536
10.091968051118211,1.1392659821954805,1.623164955488701,-9.130359223300962
10.099964856230033,1.157744036725708,1.6693600918142697,-9.08175728155339
10.107961661341854,1.289399361022487,1.4965111821083987,-9.098142172524025
10.115958466453675,1.312782438421092,1.2842600226734027,-9.207245697207057
10.123955271565496,1.1083049915833436,1.3211485107698677,-9.29865003950669
10.131952076677317,0.9038275447455953,1.358036998866333,-9.390054381806323
10.139948881789138,0.6993500979078471,1.394925486962798,-9.481458724105954
10.14794568690096,0.4948726510700988,1.431813975059263,-9.572863066405587
10.15594249201278,0.29039520423235055,1.4687024631557282,-9.66426740870522
10.163939297124601,0.08591775739460217,1.5055909512521932,-9.755671751004853
10.171936102236423,-0.11855968944314599,1.5424794393486585,-9.847076093304484
10.179932907348244,-0.32303713628089437,1.5793679274451236,-9.938480435604117
10.187929712460065,-0.5275145831186425,1.6162564155415886,-10.02988477790375
10.195926517571886,-0.7319920299563909,1.6531449036380539,-10.121289120203382
10.203923322683707,-0.9364694767941393,1.690033391734519,-10.212693462503015
10.211920127795528,1.1373348242811498,1.2992051473198438,-9.185969861554845
10.21991693290735,1.0637642172523956,1.2875653532126374,-9.30245665601704
10.22791373801917,0.9901936102236413,1.2759255591054313,-9.418943450479235
10.235910543130991,0.916623003194887,1.2642857649982249,-9.535430244941429
10.24390734824281,0.8430523961661491,1.2526459708910211,-9.651917039403596
10.251904153354632,0.7694817891373948,1.241006176783815,-9.768403833865792
10.259900958466453,0.6959111821086406,1.2293663826766086,-9.884890628327986
10.267897763578274,0.6223405750798863,1.2177265885694024,-10.00137742279018
10.275894568690095,0.548769968051132,1.206086794462196,-10.117864217252373
10.283891373801916,0.4751993610223777,1.1944470003549899,-10.234351011714569
10.291888178913737,0.4016287539936234,1.1828072062477835,-10.350837806176763
10.299884984025558,0.3280581469648691,1.171167412140577,-10.467324600638957
10.30788178913738,0.25221469648576156,1.581499680511123,-9.989184025558817
10.3158785942492,-0.1950346771009338,1.765074056790049,-10.973301863086506
10.323875399361022,-0.028449545895129824,1.6736049825896668,-10.78245676131675
10.331872204472843,0.13813558531067416,1.5821359083892848,-10.591611659546995
10.339869009584664,0.30472071651647814,1.4906668341889024,-10.400766557777239
10.347865814696485,0.4713058477222821,1.3991977599885204,-10.209921456007482
10.355862619808306,0.637890978928086,1.3077286857881383,-10.019076354237725
10.363859424920127,0.8044761101338901,1.2162596115877562,-9.82823125246797
10.371856230031948,0.9710612413396941,1.1247905373873741,-9.637386150698214
10.37985303514377,1.1376463725454977,1.0333214631869918,-9.446541048928458
10.38784984025559,1.3042315037513017,0.9418523889866098,-9.255695947158703
10.395846645367412,1.4708166349571057,0.8503833147862278,-9.064850845388946
10.403843450479233,1.6574504792331244,1.821488817891479,-9.692290734824418
10.411840255591054,2.0515236682532487,1.2799415139857837,-8.2503014931212
10.419837060702875,1.9747380191693344,1.3145399361022339,-8.43749201277954
10.427833865814696,1.8979523700854202,1.3491383582186842,-8.62468253243788
10.435830670926517,1.821166721001506,1.3837367803351344,-8.811873052096223
10.443827476038338,1.7443810719175916,1.4183352024515847,-8.999063571754565
10.45182428115016,1.6675954228336771,1.4529336245680349,-9.186254091412906
10.45982108626198,1.590809773749763,1.487532046684485,-9.373444611071246
10.467817891373802,1.5140241246658488,1.5221304688009354,-9.560635130729588
10.475814696485623,1.4372384755819343,1.5567288909173855,-9.74782565038793
10.483811501597444,1.36045282649802,1.591327313033836,-9.935016170046271
10.491808306709265,1.2836671774141057,1.625925735150286,-10.122206689704612
10.499805111821086,1.2068815283301915,1.6605241572667362,-10.309397209362954
10.507801916932907,2.0491916932910352,0.6388785942490578,-8.496089456868594
10.515798722044728,1.8413493787717539,1.30373006744764,-8.72466389776357
10.52379552715655,1.6853228257011108,1.2963552360667383,-8.825423642172517
10.53179233226837,1.5292962726304675,1.2889804046858364,-8.926183386581464
10.539789137380192,1.3732697195598245,1.2816055733049347,-9.026943130990409
10.547785942492013,1.2172431664891814,1.274230741924033,-9.127702875399356
10.555782747603834,1.0612166134185381,1.2668559105431314,-9.228462619808301
10.563779552715655,0.9051900603478953,1.2594810791622297,-9.329222364217248
10.571776357827476,0.749163507277252,1.252106247781328,-9.429982108626193
10.579773162939297,0.593136954206609,1.2447314164004264,-9.53074185303514
10.587769968051118,0.4371104011359659,1.2373565850195247,-9.631501597444085
10.59576677316294,0.2810838480653228,1.229981753638623,-9.732261341853032
10.60376357827476,0.7391437699679708,0.8284632587861438,-10.366233226837194
10.611760383386581,0.6482378492284632,1.005132655835778,-10.433749813065056
10.619757188498403,0.5856245666508009,1.109346339473871,-10.452040377948476
10.627753993610224,0.5230112840731385,1.2135600231119636,-10.470330942831897
10.635750798722045,0.46039800149547616,1.3177737067500566,-10.488621507715317
10.643747603833866,0.39778471891781386,1.4219873903881495,-10.506912072598737
10.651744408945687,0.33517143634015156,1.5262010740262424,-10.525202637482158
10.659741214057508,0.27255815376248926,1.6304147576643353,-10.543493202365578
10.66773801916933,0.20994487118482696,1.7346284413024282,-10.561783767248997
10.67573482428115,0.14733158860716467,1.838842124940521,-10.580074332132417
10.683731629392971,0.08471830602950237,1.9430558085786136,-10.598364897015838
10.691728434504792,0.022105023451840067,2.0472694922167065,-10.616655461899258
10.699725239616614,0.24731309904164997,3.1184249201282155,-10.38342811501587
10.707722044728435,0.368220447284342,1.3763769968051867,-9.401910543131027
10.715718849840256,0.7919273916450659,0.7601768340466561,-9.14661100729399
10.723715654952077,0.8087508590029536,0.874018144553619,-9.11205877388631
10.731712460063898,0.8255743263608415,0.9878594550605818,-9.07750654047863
10.739709265175719,0.8423977937187292,1.1017007655675446,-9.04295430707095
10.74770607028754,0.859221261076617,1.2155420760745075,-9.008402073663271
10.755702875399361,0.8760447284345049,1.3293833865814704,-8.97384984025559
10.763699680511182,0.8928681957923926,1.443224697088433,-8.93929760684791
10.771696485623004,0.9096916631502805,1.557066007595396,-8.90474537344023
10.779693290734825,0.9265151305081682,1.6709073181023588,-8.870193140032551
10.787690095846646,0.9433385978660561,1.7847486286093215,-8.835640906624871
10.795686900958467,0.9601620652239439,1.8985899391162846,-8.80108867321719
10.803683706070288,0.9769855325818317,2.0124312496232473,-8.766536439809512
10.811680511182109,0.9938089999397195,2.12627256013021,-8.731984206401831
10.81967731629393,0.1355175718849711,2.2107571884984067,-9.279428115015982
10.827674121405751,1.0483393954288471,1.301002949127552,-8.883042762349476
10.835670926517572,1.0135840501351636,1.3179192676333273,-8.919746047349886
10.843667731629393,0.9788287048414801,1.3348355861391026,-8.956449332350294
10.851664536741215,0.9440733595477966,1.3517519046448776,-8.993152617350704
10.859661341853036,0.9093180142541131,1.3686682231506528,-9.029855902351112
10.867658146964857,0.8745626689604296,1.385584541656428,-9.066559187351523
10.875654952076678,0.839807323666746,1.402500860162203,-9.10326247235193
10.883651757188499,0.8050519783730625,1.4194171786679783,-9.139965757352341
10.89164856230032,0.770296633079379,1.4363334971737536,-9.17666904235275
10.899645367412141,0.7355412877856956,1.4532498156795286,-9.21337232735316
10.907642172523962,0.4067154219914878,2.986028088391882,-10.112807707667717
10.915638977635783,0.4542797523961737,2.8317563897763334,-10.012347843450463
10.923635782747604,0.5018440828008596,2.6774846911607844,-9.911887979233212
10.931632587859426,0.5494084132055455,2.523212992545236,-9.811428115015959
10.939629392971247,0.5969727436102314,2.368941293929687,-9.710968250798706
10.947626198083068,0.6445370740149172,2.2146695953141387,-9.610508386581454
10.955623003194889,0.6921014044196032,2.06039789669859,-9.510048522364201
10.96361980830671,0.739665734824289,1.9061261980830415,-9.409588658146948
10.971616613418531,0.787230065228975,1.7518544994674927,-9.309128793929695
10.979613418530352,0.8347943956336609,1.5975828008519442,-9.208668929712443
10.987610223642173,0.8823587260383468,1.4433111022363956,-9.10820906549519
10.995607028753994,0.9299230564430326,1.289039403620847,-9.007749201277937
11.003603833865816,1.2819246006389324,1.618359744409007,-8.657831309904259
11.011600638977637,0.7909207667731063,2.2852932907349013,-9.807771884984158
11.019597444089458,0.18263180771231335,2.253682628724272,-10.27793435619288
11.027594249201279,0.23591284642247007,2.206166728583103,-10.199547068875843
11.0355910543131,0.2891938851326268,2.1586508284419335,-10.121159781558806
11.043587859424921,0.34247492384278344,2.111134928300764,-10.042772494241769
11.051584664536742,0.39575596255294015,2.0636190281595943,-9.964385206924732
11.059581469648561,0.449037001263085,2.0161031280184356,-9.885997919607712
11.067578274760383,0.5023180399732418,1.9685872278772663,-9.807610632290675
11.075575079872204,0.5555990786833984,1.9210713277360967,-9.72922334497364
11.083571884984025,0.6088801173935551,1.8735554275949273,-9.650836057656603
11.091568690095846,0.6621611561037118,1.826039527453758,-9.572448770339566
11.099565495207667,0.7154421948138685,1.7785236273125884,-9.494061483022529
11.107562300319488,0.5049699304642445,1.8749968051117991,-9.784181920691536
11.11555910543131,0.2368417590678814,2.0029456869009405,-10.154857357639491
11.12355591054313,0.44857794282394575,2.21903676196009,-9.434705406414674
11.131552715654951,0.49780502883697436,2.136991618605043,-9.397213891539772
11.139549520766773,0.547032114850003,2.054946475249995,-9.359722376664871
11.147546325878594,0.5962592008630316,1.972901331894947,-9.32223086178997
11.155543130990415,0.6454862868760602,1.8908561885398996,-9.284739346915067
11.163539936102236,0.694713372889089,1.8088110451848518,-9.247247832040166
11.171536741214057,0.7439404589021176,1.726765901829804,-9.209756317165265
11.179533546325878,0.7931675449151463,1.6447207584747563,-9.172264802290362
11.1875303514377,0.8423946309281749,1.5626756151197085,-9.134773287415461
11.19552715654952,0.8916217169412035,1.4806304717646608,-9.09728177254056
11.203523961661341,0.4864728434505229,1.6387156549520074,-10.146236421725147
11.211520766773162,0.5457836852340593,2.0348859911098667,-10.456730518127525
11.219517571884984,0.552476663425475,2.1019026948187163,-10.4031866925962
11.227514376996805,0.5591696416168905,2.1689193985275654,-10.349642867064876
11.235511182108626,0.5658626198083061,2.235936102236415,-10.296099041533552
11.243507987220447,0.5725555979997217,2.3029528059452646,-10.242555216002227
11.251504792332268,0.5792485761911372,2.3699695096541142,-10.189011390470903
11.259501597444089,0.5859415543825528,2.4369862133629634,-10.135467564939578
11.26749840255591,0.5926345325739684,2.504002917071813,-10.081923739408253
11.275495207667731,0.5993275107653839,2.5710196207806626,-10.028379913876929
11.283492012779552,0.6060204889567995,2.638036324489512,-9.974836088345604
11.291488817891373,0.6127134671482151,2.7050530281983614,-9.92129226281428
11.299485623003195,0.7025271565495296,2.898389776357841,-9.883383386581471
11.307482428115016,0.6766803430300995,2.5948856566335965,-9.35577265848327
11.315479233226837,0.6736499747771988,2.6038084076004706,-9.33228730452329
11.323476038338658,0.6706196065242981,2.6127311585673447,-9.30880195056331
11.331472843450479,0.6675892382713975,2.621653909534219,-9.28531659660333
11.3394696485623,0.6645588700184968,2.630576660501093,-9.26183124264335
11.347466453674121,0.6615285017655961,2.639499411467967,-9.23834588868337
11.355463258785942,0.6584981335126955,2.648422162434841,-9.214860534723389
11.363460063897763,0.6554677652597948,2.6573449134017157,-9.191375180763409
11.371456869009585,0.6524373970068941,2.66626766436859,-9.167889826803428
11.379453674121406,0.6494070287539935,2.675190415335464,-9.14440447284345
11.387450479233227,0.6463766605010928,2.684113166302338,-9.120919118883469
11.395447284345048,0.6433462922481921,2.693035917269212,-9.097433764923489
11.403444089456869,0.6500543130990423,2.0024025559105354,-8.981092651757168
11.41144089456869,0.5262227733871423,1.8693213104646604,-8.913666246286644
11.419437699680511,0.39104870803206193,1.7492990863740832,-8.903635166190236
11.427434504792332,0.25587464267698157,1.6292768622835059,-8.893604086093829
11.435431309904153,0.1207005773219012,1.5092546381929284,-8.883573005997421
11.443428115015974,-0.01447348803317916,1.389232414102351,-8.873541925901014
11.451424920127796,-0.14964755338825964,1.2692101900117736,-8.863510845804607
11.459421725239617,-0.28482161874334,1.1491879659211963,-8.853479765708201
11.467418530351438,-0.41999568409842036,1.029165741830619,-8.843448685611794
11.475415335463259,-0.5551697494535007,0.9091435177400418,-8.833417605515386
11.48341214057508,-0.6903438148085811,0.7891212936494645,-8.823386525418979
11.491408945686901,-0.8255178801636615,0.669099069558887,-8.813355445322571
11.499405750798722,-0.9606919455187418,0.5490768454683097,-8.803324365226164
11.507402555910543,-1.0958660108738223,0.4290546213777324,-8.793293285129756
11.515399361022364,-1.2310400762289029,0.30903239728715515,-8.78326220503335
11.523396166134185,1.6133218693228044,-0.2652281526028844,-9.30723873958529
11.531392971246007,1.5390770218630538,-0.10834965232098265,-9.291872329762574
11.539389776357828,1.4648321744033033,0.04852884796091911,-9.27650591993986
11.547386581469649,1.3905873269435525,0.20540734824282086,-9.261139510117145
11.55538338658147,1.316342479483802,0.36228584852472256,-9.24577310029443
11.563380191693291,1.2420976320240513,0.5191643488066243,-9.230406690471716
11.571376996805112,1.1678527845643007,0.6760428490885261,-9.215040280649
11.579373801916933,1.0936079371045502,0.8329213493704278,-9.199673870826285
11.587370607028754,1.0193630896447996,0.9897998496523296,-9.18430746100357
11.595367412140575,0.9451182421850489,1.1466783499342315,-9.168941051180855
11.603364217252397,0.8708733947252983,1.303556850216133,-9.15357464135814
11.611361022364218,0.7966285472655478,1.460435350498035,-9.138208231535424
11.619357827476039,0.7223836998057972,1.6173138507799365,-9.12284182171271
11.62735463258786,0.40209513667017954,1.7672438764643292,-9.688100106496352
11.635351437699681,0.44334824281199714,1.0076741214052098,-10.467324281149633
11.643348242811502,0.9329098080239759,1.1393481297181147,-9.433033221182392
11.651345047923323,0.9668077695156779,1.159941672085725,-9.487241652294383
11.659341853035144,1.00070573100738,1.1805352144533352,-9.541450083406374
11.667338658146965,1.0346036924990818,1.2011287568209452,-9.595658514518366
11.675335463258786,1.068501653990784,1.2217222991885555,-9.649866945630356
11.683332268370608,1.1023996154824858,1.2423158415561657,-9.704075376742347
11.691329073482429,1.1362975769741879,1.262909383923776,-9.758283807854339
11.69932587859425,1.1701955384658898,1.283502926291386,-9.81249223896633
11.70732268370607,1.2040934999575919,1.3040964686589962,-9.86670067007832
11.715319488817892,1.2379914614492937,1.3246900110266064,-9.920909101190311
11.723316293929713,1.2718894229409958,1.3452835533942165,-9.975117532302303
11.731313099041534,1.3057873844326977,1.3658770957618267,-10.029325963414294
11.739309904153355,1.3396853459243996,1.386470638129437,-10.083534394526286
11.747306709265176,1.3735833074161017,1.4070641804970472,-10.137742825638275
11.755303514376997,1.2124318014253879,1.3313195707380896,-10.083926599492084
11.763300319488819,0.9522280658638222,1.206651429507647,-9.975252068485284
11.77129712460064,0.6920243303022567,1.081983288277204,-9.866577537478484
11.77929392971246,0.43182059474069123,0.9573151470467613,-9.757903006471683
11.787290734824282,0.1716168591791256,0.8326470058163186,-9.649228475464882
11.795287539936103,0.23414376996769712,1.0200766773163257,-9.121373801916912
11.803284345047924,-0.4963372603833843,1.0713140308839184,-9.236011448349313
11.811281150159745,-0.40387420127795287,1.0449912140575073,-9.447260383386586
11.819277955271566,-0.31141114217252147,1.0186683972310964,-9.65850931842386
11.827274760383387,-0.21894808306709007,0.9923455804046851,-9.869758253461134
11.835271565495209,-0.12648502396165867,0.9660227635782741,-10.081007188498408
11.84326837060703,-0.034021964856227216,0.939699946751863,-10.292256123535681
11.85126517571885,0.22982747603800624,1.5431948881789725,-9.950699680511667
11.859261980830672,-0.036409977881540954,1.4424984025558967,-10.248625018432035
11.867258785942493,-0.0071293683951803855,1.2745654952076522,-10.106158859670668
11.875255591054312,0.022151241091173682,1.106632587859445,-9.963692700909332
11.883252396166133,0.05143185057753426,0.9386996805112006,-9.821226542147963
11.891249201277954,0.08071246006389482,0.770766773162956,-9.678760383386596
11.899246006389776,0.1099930695502554,0.6028338658147117,-9.536294224625228
11.907242811501597,0.13927367903661597,0.43490095846646715,-9.393828065863861
11.915239616613418,0.16855428852297655,0.26696805111822264,-9.251361907102492
11.923236421725239,0.31088834706573487,0.28448663191524637,-9.470441567176705
11.93123322683706,0.48513452160751985,0.35435345552378816,-9.791576425088255
11.939230031948881,0.24661661341855912,0.8239792332268012,-10.160651757188482
11.947226837060702,0.48643073251471947,0.8462188690865742,-9.521536587243553
11.955223642172523,0.5113846183455834,0.81953073636399,-9.463150275222302
11.963220447284344,0.5363385041764474,0.7928426036414058,-9.404763963201054
11.971217252396166,0.5612923900073112,0.7661544709188216,-9.346377651179806
11.979214057507987,0.5862462758381751,0.7394663381962374,-9.287991339158555
11.987210862619808,0.611200161669039,0.7127782054736531,-9.229605027137307
11.995207667731629,0.636154047499903,0.686090072751069,-9.171218715116057
12.00320447284345,0.6611079333307669,0.6594019400284847,-9.112832403094808
12.011201277955271,0.6860618191616308,0.6327138073059007,-9.05444609107356
12.019198083067092,0.7110157049924948,0.6060256745833164,-8.99605977905231
12.027194888178913,0.8288173104850447,0.6544786523380789,-8.898844902701132
12.035191693290734,0.8915654952081699,0.7788370607029638,-9.055242811500776
12.043188498402555,-0.32517699680512213,0.5293018104366278,-10.782811288604906
12.051185303514377,-0.216020607028765,0.6022060170393962,-10.71470516506923
12.059182108626198,-0.10686421725240786,0.6751102236421647,-10.646599041533554
12.067178913738019,0.0022921725239493096,0.7480144302449332,-10.578492917997877
12.07517571884984,0.11144856230030642,0.8209186368477016,-10.510386794462203
12.083172523961661,0.22060495207666364,0.89382284345047,-10.442280670926527
12.091169329073482,0.32976134185302075,0.9667270500532386,-10.37417454739085
12.099166134185303,-0.3783674121399862,0.31206070287592613,-10.200086261980916
12.107162939297124,-0.23493184238567322,-0.7121656017040154,-7.8936405750799805
12.115159744408945,0.21756898729475882,-1.4384164499591887,-8.01666297644696
12.123156549520766,0.1110069098744432,-0.9528430046809269,-8.258240879708723
12.131153354632588,0.0044448324541275785,-0.467269559402665,-8.499818782970486
12.139150159744409,-0.10211724496618801,0.01830388587559706,-8.741396686232248
12.14714696485623,-0.2086793223865036,0.5038773311538589,-8.982974589494011
12.155143769968051,-0.3152413998068192,0.9894507764321208,-9.224552492755773
12.163140575079872,-0.42180347722713474,1.4750242217103826,-9.466130396017537
12.171137380191693,-0.5283655546474504,1.960597666988645,-9.7077082992793
12.179134185303514,-0.634927632067766,2.4461711122669065,-9.949286202541062
12.187130990415335,-0.7414897094880816,2.9317445575451684,-10.190864105802824
12.195127795527156,-0.8480517869083971,3.417318002823431,-10.432442009064587
12.203124600638978,-0.7061046325878586,2.709537939297121,-9.473081869009581
12.211121405750799,0.9543776210936085,0.12540773383275317,-9.898192574639197
12.21911821086262,0.9133825052330082,0.34986978076456,-9.910877162057949
12.22711501597444,0.872387389372408,0.5743318276963668,-9.923561749476699
12.235111821086262,0.8313922735118078,0.7987938746281736,-9.936246336895449
12.243108626198083,0.7903971576512074,1.0232559215599806,-9.9489309243142
12.251105431309904,0.7494020417906072,1.2477179684917874,-9.961615511732951
12.259102236421725,0.708406925930007,1.4721800154235942,-9.974300099151701
12.267099041533546,0.6674118100694066,1.696642062355401,-9.986984686570452
12.275095846645367,0.6264166942088064,1.9211041092872079,-9.999669273989204
12.283092651757189,0.5854215783482062,2.1455661562190143,-10.012353861407954
12.29108945686901,0.5444264624876058,2.370028203150821,-10.025038448826704
12.29908626198083,0.5100862619808307,2.6754022009229694,-9.982531771388
12.307083067092652,0.4983546325879118,3.384453674121679,-9.592543130990416
12.315079872204473,0.9399922356787297,1.0452460435396382,-8.968246860836617
12.323076677316294,1.0183795229957666,1.0163273645887505,-9.062813730589198
12.331073482428115,1.0967668103128034,0.9874086856378627,-9.15738060034178
12.339070287539936,1.1751540976298402,0.9584900066869748,-9.251947470094363
12.347067092651757,1.253541384946877,0.9295713277360869,-9.346514339846944
12.355063897763578,1.3319286722639139,0.9006526487851991,-9.441081209599526
12.3630607028754,1.4103159595809507,0.8717339698343112,-9.535648079352107
12.37105750798722,1.4887032468979875,0.8428152908834233,-9.630214949104689
12.379054313099042,1.5670905342150245,0.8138966119325355,-9.72478181885727
12.387051118210863,1.6454778215320611,0.7849779329816476,-9.819348688609853
12.395047923322684,1.7238651088490982,0.7560592540307598,-9.913915558362435
12.403044728434505,0.29700319488813004,0.4167667731623975,-8.707111821086379
12.411041533546326,0.2005945752102741,-0.13449364282453352,-8.884004629327771
12.419038338658147,0.16379295168546504,0.04551607224360138,-8.912401447479951
12.427035143769968,0.12699132816065595,0.22552578731173628,-8.940798265632132
12.43503194888179,0.09018970463584686,0.4055355023798712,-8.969195083784314
12.44302875399361,0.053388081111037766,0.585545217448006,-8.997591901936495
12.451025559105432,0.016586457586228703,0.765554932516141,-9.025988720088675
12.459022364217253,-0.020215165938580387,0.9455646475842758,-9.054385538240856
12.467019169329074,-0.05701678946338948,1.1255743626524108,-9.082782356393038
12.475015974440895,-0.09381841298819851,1.3055840777205456,-9.111179174545217
12.483012779552716,-0.1306200365130076,1.4855937927886804,-9.139575992697399
12.491009584664537,-0.1674216600378167,1.6656035078568154,-9.16797281084958
12.499006389776358,-0.20422328356262578,1.8456132229249504,-9.196369629001762
12.50700319488818,-0.2535782747603882,2.265447284345096,-9.377108626198106
12.515,-0.036,1.885,-9.335
