accel_time_list,accel_x_list,accel_y_list,accel_z_list
0.0,-1.2,2.1,10.3
0.007999380037197768,-1.1,1.095654869403488,9.998913717350872
0.015998760074395536,-1.1,1.0608749561982804,9.99021873904957
0.023998140111593305,-1.1,1.0260950429930726,9.981523760748269
0.03199752014879107,-1.1,0.991315129787865,9.972828782446966
0.03999690018598884,-1.1,0.9565352165826573,9.964133804145664
0.04799628022318661,-1.1,0.9217553033774495,9.955438825844363
0.055995660260384376,-1.1,0.8869753901722419,9.946743847543061
0.06399504029758214,-1.1,0.8521954769670341,9.938048869241758
0.07199442033477992,-1.1,0.8174155637618264,9.929353890940456
0.07999380037197767,-1.1,0.7826356505566188,9.920658912639155
0.08799318040917545,-1.1,0.7478557373514111,9.911963934337853
0.09599256044637322,-1.1,0.7130758241462034,9.903268956036552
0.10399194048357098,-0.7,0.7669353172143006,9.666935317214302
0.11199132052076875,-0.9,-0.2734104842598333,9.603323689467521
0.11999070055796651,-0.9,-0.20230488392918655,9.61221188950885
0.12799008059516429,-0.9,-0.1311992835985397,9.621100089550183
0.13598946063236206,-0.9,-0.06009368326789283,9.629988289591513
0.14398884066955983,-0.9,0.011011917062754006,9.638876489632844
0.15198822070675758,-0.9,0.08211751739340062,9.647764689674174
0.15998760074395535,-0.9,0.1532231177240475,9.656652889715506
0.16798698078115312,-0.9,0.2243287180546944,9.665541089756836
0.1759863608183509,-0.9,0.29543431838534123,9.674429289798168
0.18398574085554867,-0.9,0.36653991871598807,9.683317489839498
0.19198512089274644,-0.9,0.4376455190466349,9.69220568988083
0.1999845009299442,-0.7030998140111648,0.7953502789832527,9.7
0.20798388096714196,-1.0,0.5062818546676673,9.5
0.21598326100433973,-1.0,0.5231226547459784,9.5
0.2239826410415375,-1.0,0.5399634548242895,9.5
0.23198202107873528,-1.0,0.5568042549026005,9.5
0.23998140111593302,-1.0,0.5736450549809117,9.5
0.2479807811531308,-1.0,0.5904858550592227,9.5
0.25598016119032857,-1.0,0.6073266551375338,9.5
0.2639795412275263,-1.0,0.6241674552158448,9.5
0.2719789212647241,-1.0,0.6410082552941561,9.5
0.27997830130192186,-1.0,0.6578490553724671,9.5
0.28797768133911966,-1.0,0.6746898554507782,9.5
0.2959770613763174,-1.0,0.6915306555290892,9.5
0.30397644141351515,-1.0,0.7,9.560471171729697
0.31197582145071295,-0.9198388096714197,0.7,9.48016119032858
0.3199752014879107,-0.9731680099194047,0.7,9.426831990080595
0.3279745815251085,-0.9952113475601102,0.6952113475601102,9.40478865243989
0.33597396156230624,-0.985573540286378,0.685573540286378,9.414426459713622
0.343973341599504,-0.9759357330126458,0.6759357330126458,9.424064266987354
0.3519727216367018,-0.9662979257389135,0.6662979257389134,9.433702074261086
0.35997210167389954,-0.9566601184651813,0.6566601184651812,9.443339881534818
0.36797148171109734,-0.947022311191449,0.6470223111914489,9.45297768880855
0.3759708617482951,-0.9373845039177168,0.6373845039177167,9.462615496082284
0.3839702417854929,-0.9277466966439845,0.6277466966439844,9.472253303356016
0.39196962182269063,-0.9181088893702523,0.6181088893702522,9.481891110629748
0.3999690018598884,-0.90847108209652,0.60847108209652,9.49152891790348
0.4079683818970862,-0.99683818970862,0.69683818970862,9.40316181029138
0.4159677619342839,-1.0034914846285694,0.5965085153714307,9.596508515371431
0.4239671419714817,-1.0129025199664492,0.5870974800335509,9.58709748003355
0.43196652200867947,-1.0223135553043288,0.5776864446956712,9.57768644469567
0.4399659020458772,-1.0317245906422086,0.5682754093577915,9.568275409357792
0.447965282083075,-1.0411356259800884,0.5588643740199117,9.558864374019912
0.45596466212027276,-1.050546661317968,0.549453338682032,9.549453338682032
0.46396404215747056,-1.0599576966558477,0.5400423033441523,9.540042303344151
0.4719634221946683,-1.0693687319937275,0.5306312680062726,9.530631268006273
0.47996280223186605,-1.078779767331607,0.5212202326683929,9.521220232668393
0.48796218226906385,-1.0881908026694869,0.5118091973305131,9.511809197330512
0.4959615623062616,-1.0976018380073667,0.5023981619926334,9.502398161992634
0.5039609423434593,-1.1,0.4,9.7
0.5119603223806571,-1.1,0.4,9.7
0.5199597024178549,-1.1,0.4,9.7
0.5279590824550526,-1.1,0.4,9.7
0.5359584624922504,-1.1,0.4,9.7
0.5439578425294482,-1.1,0.4,9.7
0.551957222566646,-1.1,0.4,9.7
0.5599566026038437,-1.1,0.4,9.7
0.5679559826410415,-1.1,0.4,9.7
0.5759553626782393,-1.1,0.4,9.7
0.583954742715437,-1.1,0.4,9.7
0.5919541227526348,-1.1,0.4,9.7
0.5999535027898326,-1.1,0.4,9.7
0.6079528828270303,-1.1031413647096069,0.1,9.796858635290395
0.6159522628642281,-1.1116513434725832,0.1,9.788348656527418
0.6239516429014259,-1.1201613222355595,0.1,9.779838677764442
0.6319510229386237,-1.1286713009985359,0.1,9.771328699001465
0.6399504029758214,-1.1371812797615122,0.1,9.762818720238489
0.6479497830130192,-1.1456912585244885,0.1,9.754308741475512
0.655949163050217,-1.154201237287465,0.1,9.745798762712536
0.6639485430874147,-1.1627112160504411,0.1,9.737288783949559
0.6719479231246125,-1.1712211948134175,0.1,9.728778805186582
0.6799473031618103,-1.179731173576394,0.1,9.720268826423606
0.687946683199008,-1.18824115233937,0.1,9.71175884766063
0.6959460632362058,-1.1967511311023467,0.1,9.703248868897653
0.7039454432734036,-1.1,0.1,9.7
0.7119448233106014,-1.1,0.1,9.643251262067132
0.7199442033477991,-1.0975997489533345,0.1,9.6
0.7279435833849969,-1.0877239711296336,0.1,9.6
0.7359429634221947,-1.0778481933059325,0.1,9.6
0.7439423434593924,-1.0679724154822317,0.1,9.6
0.7519417234965902,-1.0580966376585308,0.1,9.6
0.759941103533788,-1.0482208598348297,0.1,9.6
0.7679404835709858,-1.0383450820111286,0.1,9.6
0.7759398636081835,-1.028469304187428,0.1,9.6
0.7839392436453813,-1.018593526363727,0.1,9.6
0.7919386236825791,-1.0087177485400258,0.1,9.6
0.7999380037197767,-1.0,0.06873320934077659,9.6
0.8079373837569745,-1.2020393513231311,-0.1,9.6
0.8159367637941723,-1.2104597513622866,-0.1,9.6
0.82393614383137,-1.218880151401442,-0.1,9.6
0.8319355238685678,-1.2273005514405977,-0.1,9.6
0.8399349039057656,-1.2357209514797534,-0.1,9.6
0.8479342839429634,-1.2441413515189088,-0.1,9.6
0.8559336639801611,-1.2525617515580643,-0.1,9.6
0.8639330440173589,-1.26098215159722,-0.1,9.6
0.8719324240545567,-1.2694025516363756,-0.1,9.6
0.8799318040917544,-1.277822951675531,-0.1,9.6
0.8879311841289522,-1.2862433517146865,-0.1,9.6
0.89593056416615,-1.2946637517538422,-0.1,9.6
0.9039299442033477,-1.2035027898326156,-0.10350278983261565,9.503502789832616
0.9119293242405455,-1.202355858648484,-0.101177929324242,9.6
0.9199287042777433,-1.1769066865696798,-0.1,9.58460445771312
0.9279280843149411,-1.1536075214127928,-0.1,9.569071680941862
0.9359274643521388,-1.1303083562559064,-0.1,9.553538904170605
0.9439268443893366,-1.1070091910990196,-0.1,9.538006127399346
0.9519262244265344,-1.0837100259421328,-0.1,9.522473350628088
0.9599256044637321,-1.0604108607852463,-0.1,9.50694057385683
0.9679249845009299,-1.0371116956283595,-0.1,9.491407797085573
0.9759243645381277,-1.0138125304714727,-0.1,9.475875020314316
0.9839237445753254,-0.9905133653145861,-0.1,9.460342243543057
0.9919231246125232,-0.9672142001576992,-0.1,9.4448094667718
0.999922504649721,-0.9439150350008124,-0.1,9.429276690000542
1.0079218846869187,-0.920615869843926,-0.1,9.413743913229284
1.0159212647241165,-1.084252944823295,-0.28425294482329483,9.4
1.0239206447613143,-0.4391793809444611,-0.11068528571212576,9.610685285712126
1.031920024798512,-0.5464881375410169,-0.13995131023845914,9.639951310238459
1.0399194048357099,-0.6537968941375727,-0.16921733476479256,9.669217334764792
1.0479187848729077,-0.7611056507341284,-0.19848335929112593,9.698483359291126
1.0559181649101053,-0.8684144073306812,-0.22774938381745852,9.727749383817459
1.063917544947303,-0.975723163927237,-0.2570154083437919,9.757015408343792
1.0719169249845009,-1.0830319205237928,-0.2862814328701253,9.786281432870126
1.0799163050216987,-1.1903406771203486,-0.31554745739645873,9.815547457396459
1.0879156850588965,-1.2976494337169044,-0.34481348192279215,9.844813481922792
1.0959150650960943,-1.4049581903134603,-0.37407950644912547,9.874079506449126
1.103914445133292,-1.4085554866708017,0.14866707997519002,9.9
1.1119138251704896,-1.3478456292622387,-0.05359061789626893,9.801436247158508
1.1199132052076874,-1.2449059723083455,0.3275470138458273,9.827547013845827
1.1279125852448852,-1.0822754224490123,0.3822754224490122,9.891137711224507
1.135911965282083,-1.0617641915844025,0.3617641915844025,9.880882095792202
1.1439113453192808,-1.041252960719793,0.3412529607197928,9.870626480359897
1.1519107253564786,-1.020741729855183,0.320741729855183,9.860370864927592
1.1599101053936762,-1.000230498990574,0.30023049899057386,9.850115249495287
1.167909485430874,-0.9797192681259642,0.27971926812596415,9.839859634062982
1.1759088654680718,-0.9592080372613545,0.25920803726135444,9.829604018630677
1.1839082455052696,-0.9386968063967447,0.23869680639674468,9.819348403198372
1.1919076255424674,-0.918185575532135,0.21818557553213494,9.809092787766069
1.1999070055796652,-1.0360508369497747,0.24535027898325823,9.709299442033483
1.207906385616863,-0.8009960281503989,0.29900397184960115,9.399003971849602
1.2159057656540606,-0.8097865556638029,0.2902134443361972,9.390213444336197
1.2239051456912584,-0.818577083177207,0.281422916822793,9.381422916822794
1.2319045257284562,-0.8273676106906112,0.2726323893093888,9.37263238930939
1.239903905765654,-0.8361581382040154,0.2638418617959847,9.363841861795985
1.2479032858028518,-0.8449486657174196,0.2550513342825805,9.355051334282582
1.2559026658400496,-0.8537391932308237,0.2462608067691763,9.346260806769177
1.2639020458772474,-0.862529720744228,0.23747027925577213,9.337470279255772
1.271901425914445,-0.8713202482576319,0.2286797517423682,9.328679751742369
1.2799008059516428,-0.880110775771036,0.219889224228964,9.319889224228964
1.2879001859888406,-0.8889013032844402,0.21109869671555986,9.311098696715561
1.2958995660260384,-0.8976918307978443,0.20230816920215566,9.302308169202156
1.3038989460632362,-0.9,0.12626317420954813,9.152526348419096
1.311898326100434,-1.2738995660260395,-0.17389956602603937,9.04203347799132
1.3198977061376318,-1.4,-0.3070210787352759,9.007021078735276
1.3278970861748294,-1.4,-0.31654415020813015,9.01654415020813
1.3358964662120272,-1.4,-0.32606722168098473,9.026067221680984
1.343895846249225,-1.4,-0.33559029315383926,9.03559029315384
1.3518952262864228,-1.4,-0.3451133646266938,9.045113364626694
1.3598946063236206,-1.4,-0.3546364360995483,9.054636436099548
1.3678939863608184,-1.4,-0.3641595075724029,9.064159507572402
1.375893366398016,-1.4,-0.37368257904525715,9.073682579045258
1.3838927464352138,-1.4,-0.38320565051811173,9.083205650518112
1.3918921264724116,-1.4,-0.39272872199096626,9.092728721990966
1.3998915065096094,-1.1162740235585824,-0.1162740235585823,9.194575325480471
1.4078908865468072,-1.4,-0.48363298202108673,8.7
1.415890266584005,-1.584688296479989,-0.5229675552800164,8.592344148239993
1.4238896466212028,-1.5669118963973274,-0.5496321554040091,8.583455948198663
1.4318890266584003,-1.549135496314666,-0.576296755528001,8.574567748157333
1.4398884066955981,-1.5313590962320043,-0.6029613556519936,8.565679548116002
1.447887786732796,-1.5135826961493426,-0.6296259557759862,8.556791348074672
1.4558871667699937,-1.4958062960666807,-0.656290555899979,8.54790314803334
1.4638865468071915,-1.478029895984019,-0.6829551560239716,8.53901494799201
1.4718859268443893,-1.4602534959013571,-0.7096197561479642,8.530126747950678
1.4798853068815871,-1.4424770958186954,-0.7362843562719569,8.521238547909348
1.4878846869187847,-1.4247006957360342,-0.7629489563959488,8.512350347868017
1.4958840669559825,-1.4069242956533723,-0.7896135565199414,8.503462147826687
1.5038834469931803,-1.4647241165530054,-1.4618102913825135,8.402913825170492
1.5118828270303781,-1.5980471171729687,-1.7951177929324216,8.202929324240547
1.519882207067576,-1.9069711372873182,-2.3883814378544694,7.995352575141788
1.5278815871047737,-1.9365984707584212,-2.3390025487359645,7.975601019494386
1.5358809671419715,-1.9662258042295242,-2.2896236596174595,7.955849463846984
1.543880347179169,-1.9958531377006263,-2.240244770498956,7.936097908199582
1.551879727216367,-2.025480471171729,-2.190865881380451,7.91634635255218
1.5598791072535647,-2.0551078046428324,-2.141486992261946,7.896594796904778
1.5678784872907625,-2.084735138113935,-2.092108103143441,7.876843241257377
1.5758778673279603,-2.1143624715850384,-2.042729214024936,7.857091685609975
1.5838772473651581,-2.1439898050561412,-1.9933503249064313,7.8373401299625725
1.5918766274023557,-2.1736171385272436,-1.9439714357879276,7.817588574315171
1.5998760074395535,-2.1123992560446583,-1.9,7.8
1.6078753874767513,-3.512235691390431,-3.9305892284760775,7.5030589228476074
1.615874767513949,-3.5462756064423364,-4.015689016105841,7.511568901610584
1.623874147551147,-3.580315521494242,-4.100788803735606,7.5200788803735605
1.6318735275883447,-3.6143554365461474,-4.185888591365369,7.528588859136537
1.6398729076255425,-3.648395351598053,-4.270988378995133,7.537098837899513
1.64787228766274,-3.6824352666499576,-4.356088166624894,7.545608816662489
1.6558716676999379,-3.7164751817018633,-4.441187954254658,7.554118795425466
1.6638710477371357,-3.7505150967537686,-4.526287741884422,7.562628774188442
1.6718704277743335,-3.7845550118056743,-4.611387529514186,7.571138752951418
1.6798698078115313,-3.8185949268575796,-4.69648731714395,7.579648731714395
1.687869187848729,-3.8526348419094854,-4.781587104773713,7.588158710477371
1.6958685678859269,-3.8866747569613906,-4.866686892403477,7.596668689240348
1.7038679479231245,-4.342641041537511,-5.1,7.172076875387467
1.7118673279603223,-4.699014400045089,-4.091129600405796,6.797043200135265
1.71986670799752,-4.689924195457364,-4.009317759116272,6.769772586372091
1.7278660880347179,-4.680833990869639,-3.9275059178267493,6.742501972608917
1.7358654680719157,-4.6717437862819144,-3.8456940765372263,6.715231358845742
1.7438648481091135,-4.662653581694189,-3.7638822352477033,6.6879607450825675
1.751864228146311,-4.653563377106464,-3.6820703939581825,6.660690131319394
1.7598636081835088,-4.64447317251874,-3.6002585526686595,6.63341951755622
1.7678629882207066,-4.635382967931015,-3.5184467113791364,6.606148903793045
1.7758623682579044,-4.62629276334329,-3.4366348700896134,6.578878290029871
1.7838617482951022,-4.617202558755565,-3.3548230288000904,6.551607676266697
1.7918611283323,-4.60811235416784,-3.2730111875105674,6.524337062503522
1.7998605083694978,-4.427898326100417,-2.941847489150626,6.370923744575313
1.8078598884066954,-8.286000839949605,-7.166002039877611,4.111999280043196
1.8158592684438932,-8.225790452572848,-7.0197768133912,4.1636081835089875
1.823858648481091,-8.16558006519609,-6.873551586904789,4.21521708697478
1.8318580285182888,-8.105369677819333,-6.7273263604183775,4.266825990440573
1.8398574085554866,-8.045159290442575,-6.581101133931965,4.318434893906365
1.8478567885926844,-7.984948903065817,-6.434875907445554,4.3700437973721575
1.8558561686298822,-7.924738515689059,-6.288650680959143,4.421652700837949
1.8638555486670798,-7.864528128312303,-6.142425454472735,4.47326160430374
1.8718549287042776,-7.804317740935545,-5.996200227986324,4.524870507769533
1.8798543087414754,-7.744107353558787,-5.849975001499912,4.576479411235325
1.8878536887786732,-7.683896966182029,-5.703749775013501,4.628088314701118
1.895853068815871,-7.6236865788052715,-5.557524548527089,4.679697218166909
1.9038524488530688,-7.2765034097954135,-4.853006819590829,4.902185368877866
1.9118518288902666,-7.055548667079974,-3.6444513329200254,5.2
1.9198512089274642,-8.80777602434763,-3.712960040579383,4.6792639350729885
1.927850588964662,-8.82959251535817,-3.7493208589302816,4.621086625711549
1.9358499690018598,-8.851409006368709,-3.7856816772811808,4.562909316350111
1.9438493490390576,-8.873225497379249,-3.82204249563208,4.5047320069886725
1.9518487290762554,-8.895041988389787,-3.8584033139829788,4.446554697627234
1.9598481091134532,-8.916858479400327,-3.894764132333878,4.388377388265796
1.9678474891506508,-8.938674970410865,-3.931124950684776,4.330200078904358
1.9758468691878486,-8.960491461421405,-3.967485769035675,4.27202276954292
1.9838462492250464,-8.982307952431945,-4.003846587386574,4.213845460181481
1.9918456292622442,-9.004124443442484,-4.0402074057374735,4.155668150820043
1.999845009299442,-9.025940934453024,-4.076568224088373,4.097490841458605
2.00784438933664,-9.047757425463562,-4.112929042439271,4.039313532097166
2.0158437693738374,-9.069573916474102,-4.149289860790169,3.981136222735729
2.0238431494110354,-9.091390407484642,-4.1856506791410695,3.922958913374289
2.031842529448233,-9.179696218226907,-4.1,3.098481091134536
2.039841909485431,-9.122557789389779,-4.1,2.812788946948897
2.0478412895226286,-9.804948761897816,-3.503299174598543,1.8917520635036429
2.055840669559826,-9.852003938587213,-3.5346692923914746,1.8133267690213133
2.063840049597024,-9.899059115276613,-3.566039410184408,1.7349014745389792
2.0718394296342217,-9.94611429196601,-3.5974095279773404,1.6564761800566496
2.0798388096714198,-9.993169468655411,-3.628779645770274,1.5780508855743156
2.0878381897086173,-10.040224645344809,-3.6601497635632056,1.499625591091986
2.0958375697458154,-10.087279822034208,-3.691519881356139,1.421200296609652
2.103836949783013,-10.59184748915065,-4.063949163050216,0.8081525108493504
2.1118363298202105,-10.80304981701098,-4.406099634021959,0.29390036597804187
2.1198357098574085,-10.811651300921945,-4.42330260184389,0.2766973981561106
2.127835089894606,-10.82025278483291,-4.44050556966582,0.25949443033418035
2.135834469931804,-10.828854268743877,-4.457708537487751,0.2422914625122491
2.1438338499690017,-10.837455752654842,-4.474911505309681,0.22508849469031883
2.1518332300061997,-10.846057236565807,-4.492114473131612,0.20788552686838757
2.1598326100433973,-10.854658720476772,-4.509317440953542,0.1906825590464573
2.167831990080595,-10.863260204387737,-4.526520408775473,0.17347959122452702
2.175831370117793,-10.871861688298702,-4.543723376597404,0.1562766234025958
2.1838307501549905,-10.880463172209668,-4.560926344419334,0.1390736555806655
2.1918301301921885,-10.889064656120633,-4.578129312241265,0.12187068775873428
2.199829510229386,-10.897666140031598,-4.595332280063196,0.10466771993680399
2.207828890266584,-10.199171109733415,-4.0966844389336625,-0.1
2.2158282703037817,-10.191171729696217,-4.064686918784872,-0.1
2.2238276503409793,-10.18317234965902,-4.032689398636082,-0.1
2.2318270303781773,-10.175172969621823,-4.00069187848729,-0.1
2.239826410415375,-10.167173589584625,-3.9686943583385,-0.1
2.247825790452573,-10.159174209547427,-3.936696838189708,-0.1
2.2558251704897705,-10.151174829510229,-3.9046993180409175,-0.1
2.263824550526968,-10.14317544947303,-3.872701797892127,-0.1
2.271823930564166,-10.135176069435833,-3.840704277743335,-0.1
2.2798233106013637,-10.127176689398636,-3.8087067575945452,-0.1
2.2878226906385617,-10.119177309361438,-3.776709237445753,-0.1
2.2958220706757593,-10.11117792932424,-3.744711717296963,-0.1
2.3038214507129573,-10.103178549287042,-3.7127141971481707,-0.1
2.311820830750155,-10.039739615623063,-3.5493490390576588,-0.06986980781153168
2.3198202107873525,-9.939747365158095,-3.2993684128952343,-0.019873682579046856
2.3278195908245505,-9.20902045877247,-2.9819590824550612,-0.37293862368259156
2.335818970861748,-9.178867646319599,-3.0,-0.3894338231597998
2.343818350898946,-9.157247700273118,-3.0,-0.37862385013655925
2.3518177309361437,-9.135627754226638,-3.0,-0.3678138771133193
2.3598171109733417,-9.114007808180157,-3.0,-0.35700390409007876
2.3678164910105393,-9.092387862133677,-3.0,-0.3461939310668388
2.375815871047737,-9.070767916087197,-3.0,-0.3353839580435989
2.383815251084935,-9.049147970040716,-3.0,-0.3245739850203584
2.3918146311221324,-9.027528023994236,-3.0,-0.31376401199711845
2.3998140111593305,-9.005908077947756,-3.0,-0.3029540389738779
2.407813391196528,-9.037321760694379,-2.2813391196528103,-0.4186608803471898
2.415812771233726,-9.0,-2.3,-0.41736171385272475
2.4238121512709236,-9.0,-2.3,-0.43513811393538593
2.431811531308121,-9.0,-2.3,-0.45291451401804717
2.4398109113453192,-9.0,-2.3,-0.4706909141007094
2.447810291382517,-9.0,-2.3,-0.48846731418337064
2.455809671419715,-9.0,-2.3,-0.5062437142660328
2.4638090514569124,-9.0,-2.3,-0.524020114348694
2.4718084314941104,-9.0,-2.3,-0.5417965144313562
2.479807811531308,-9.0,-2.3,-0.5595729145140175
2.4878071915685056,-9.0,-2.3,-0.5773493145966787
2.4958065716057036,-9.0,-2.3,-0.595125714679341
2.503805951642901,-8.61293655713992,-1.4064682785699596,-0.5935317214300403
2.5118053316800992,-8.586111567999797,-1.3,-0.6277768640004053
2.519804711717297,-8.56978630261776,-1.3,-0.660427394764477
2.527804091754495,-8.553461037235724,-1.3,-0.6930779255285504
2.5358034717916924,-8.53713577185369,-1.3,-0.7257284562926221
2.54380285182889,-8.520810506471653,-1.3,-0.7583789870566937
2.551802231866088,-8.504485241089617,-1.3,-0.7910295178207672
2.5598016119032856,-8.48815997570758,-1.3,-0.8236800485848389
2.5678009919404836,-8.471834710325544,-1.3,-0.8563305793489123
2.575800371977681,-8.455509444943509,-1.3,-0.888981110112984
2.583799752014879,-8.439184179561472,-1.3,-0.9216316408770575
2.591799132052077,-8.422858914179436,-1.3,-0.9542821716411292
2.5997985120892744,-8.4065336487974,-1.3,-0.9869327024052008
2.6077978921264724,-8.059578425294456,-0.8606323620583172,-0.7606323620583171
2.61579727216367,-8.944109679506186,-0.5,-0.7189041483597938
2.623796652200868,-9.004974527615301,-0.5,-0.7449890832637003
2.6317960322380656,-9.065839375724414,-0.5,-0.7710740181676055
2.6397954122752636,-9.126704223833528,-0.5,-0.797158953071512
2.647794792312461,-9.18756907194264,-0.5,-0.8232438879754171
2.6557941723496588,-9.248433920051752,-0.5,-0.8493288228793223
2.6637935523868568,-9.309298768160867,-0.5,-0.8754137577832288
2.6717929324240544,-9.370163616269979,-0.5,-0.901498692687134
2.6797923124612524,-9.431028464379095,-0.5,-0.9275836275910405
2.68779169249845,-9.491893312488207,-0.5,-0.9536685624949457
2.6957910725356475,-9.552758160597318,-0.5,-0.9797534973988509
2.7037904525728456,-9.6,-0.41047737135772994,-1.3580905145690803
2.711789832610043,-9.7,0.11263277536680988,-2.01263277536681
2.719789212647241,-9.7,0.13929737549080334,-2.0392973754908033
2.7277885926844387,-9.7,0.1659619756147953,-2.0659619756147953
2.7357879727216368,-9.7,0.19262657573878877,-2.0926265757387887
2.7437873527588343,-9.7,0.21929117586278074,-2.119291175862781
2.751786732796032,-9.7,0.2459557759867727,-2.1459557759867725
2.75978611283323,-9.7,0.27262037611076617,-2.172620376110766
2.7677854928704275,-9.7,0.29928497623475814,-2.199284976234758
2.7757848729076255,-9.7,0.3259495763587516,-2.2259495763587513
2.783784252944823,-9.7,0.3526141764827436,-2.2526141764827434
2.791783632982021,-9.7,0.37927877660673703,-2.279278776606737
2.7997830130192187,-9.343397396156226,0.4,-2.2108493490390564
2.8077823930564163,-9.290673988132134,-0.2,-1.2093260118678657
2.8157817730936143,-9.815239939536212,0.4923800302318942,-1.7923800302318942
2.823781153130812,-9.833216074451263,0.4833919627743688,-1.7833919627743688
2.83178053316801,-9.851192209366314,0.47440389531684296,-1.774403895316843
2.8397799132052075,-9.869168344281364,0.46541582785931757,-1.7654158278593175
2.8477792932424055,-9.887144479196417,0.4564277604017917,-1.7564277604017917
2.855778673279603,-9.905120614111468,0.44743969294426633,-1.7474396929442664
2.8637780533168007,-9.923096749026518,0.438451625486741,-1.738451625486741
2.8717774333539987,-9.94107288394157,0.4294635580292151,-1.729463558029215
2.8797768133911963,-9.959049018856621,0.42047549057168976,-1.7204754905716897
2.8877761934283943,-9.977025153771672,0.41148742311416386,-1.711487423114164
2.895775573465592,-9.995001288686723,0.4024993556566385,-1.7024993556566383
2.90377495350279,-9.579284385794002,0.5585687715880038,-2.260357807102999
2.9117743335399875,-10.10201628811362,0.806048864340866,-2.3959674237727557
2.919773713577185,-10.111106492701346,0.8333194781040395,-2.377787014597307
2.927773093614383,-10.120196697289071,0.8605900918672146,-2.359606605421857
2.9357724736515807,-10.129286901876796,0.8878607056303881,-2.341426196246408
2.9437718536887787,-10.138377106464521,0.9151313193935632,-2.3232457870709577
2.9517712337259763,-10.147467311052244,0.9424019331567368,-2.305065377895509
2.9597706137631743,-10.15655751563997,0.9696725469199118,-2.286884968720059
2.967769993800372,-10.165647720227694,0.9969431606830854,-2.26870455954461
2.9757693738375695,-10.17473792481542,1.024213774446259,-2.250524150369161
2.9837687538747675,-10.183828129403144,1.051484388209434,-2.232343741193711
2.991768133911965,-10.19291833399087,1.0787550019726075,-2.214163332018262
2.999767513949163,-10.111624302541847,1.0116243025418474,-1.8464972101673895
3.0077668939863607,-10.21537163325756,1.0076014328029173,-2.723141833712202
3.0157662740235587,-10.259812633464215,1.3186884342495029,-2.5009368326789265
3.0237656540607563,-10.30302231866088,1.5989925604463735,-2.301007439553626
3.031765034097954,-10.334598818807713,1.5884670603974294,-2.3115329396025706
3.039764414135152,-10.366175318954546,1.5779415603484848,-2.3220584396515154
3.0477637941723494,-10.397751819101378,1.5674160602995404,-2.3325839397004593
3.0557631742095475,-10.429328319248214,1.5568905602505958,-2.343109439749404
3.063762554246745,-10.460904819395045,1.5463650602016514,-2.3536349397983485
3.071761934283943,-10.49248131954188,1.5358395601527068,-2.3641604398472933
3.0797613143211406,-10.524057819688712,1.5253140601037625,-2.374685939896237
3.087760694358338,-10.555634319835544,1.5147885600548183,-2.3852114399451816
3.0957600743955362,-10.58721081998238,1.5042630600058735,-2.3957369399941264
3.103759454432734,-10.47468485224221,1.2240545567266297,-2.92531514775779
3.111758834469932,-10.930998140111594,1.0154990700557969,-4.105393676379419
3.1197582145071294,-11.020878814686847,1.0604394073434238,-4.410987969935282
3.127757594544327,-11.1107594892621,1.1053797446310507,-4.716582263491144
3.135756974581525,-11.20064016383736,1.15032008191868,-5.0221765570470245
3.1437563546187226,-11.290520838412615,1.195260419206307,-5.327770850602887
3.1517557346559206,-11.380401512987874,1.2402007564939364,-5.633365144158767
3.159755114693118,-11.470282187563127,1.2851410937815633,-5.9389594377146295
3.1677544947303162,-11.560162862138386,1.3300814310691926,-6.244553731270509
3.175753874767514,-11.650043536713639,1.3750217683568193,-6.550148024826372
3.1837532548047114,-11.739924211288892,1.4199621056444462,-6.855742318382235
3.1917526348419094,-11.829804885864151,1.4649024429320756,-7.161336611938115
3.199752014879107,-11.023992560446581,1.2371977681339743,-3.9835709857416672
3.207751394916305,-10.111833956629269,1.7733735975841458,-1.1147924457865859
3.2157507749535026,-10.14623989227313,1.6959602423854596,-1.1577998653414114
3.2237501549907006,-10.180645827916992,1.618546887186769,-1.2008072848962397
3.231749535027898,-10.215051763560853,1.5411335319880828,-1.2438147044510652
3.2397489150650958,-10.249457699204713,1.4637201767893964,-1.286822124005891
3.247748295102294,-10.283863634848576,1.3863068215907057,-1.329829543560719
3.2557476751394914,-10.318269570492436,1.3088934663920195,-1.3728369631155448
3.2637470551766894,-10.352675506136299,1.2314801111933291,-1.4158443826703728
3.271746435213887,-10.38708144178016,1.1540667559946427,-1.4588518022251986
3.279745815251085,-10.421487377424022,1.076653400795952,-1.5018592217800266
3.2877451952882826,-10.455893313067882,0.9992400455972659,-1.5448666413348524
3.29574457532548,-10.490299248711743,0.9218266903985796,-1.587874060889678
3.303743955362678,-9.72802231866084,0.6072535647860148,-0.9512089274643358
3.3117433353998758,-9.583524818298136,0.33295036340372725,-0.9823759085093181
3.3197427154370738,-9.566504860772183,0.3669902784556336,-1.067475696139084
3.3277420954742714,-9.549484903246231,0.4010301935075381,-1.152575483768845
3.3357414755114694,-9.532464945720278,0.43507010855944445,-1.2376752713986112
3.343740855548667,-9.515444988194325,0.4691100236113489,-1.3227750590283724
3.3517402355858645,-9.498425030668374,0.5031499386632534,-1.4078748466581334
3.3597396156230626,-9.48140507314242,0.5371898537151598,-1.4929746342878993
3.36773899566026,-9.464385115616468,0.5712297687670642,-1.5780744219176608
3.375738375697458,-9.447365158090514,0.6052696838189706,-1.6631742095474267
3.3837377557346557,-9.430345200564563,0.639309598870875,-1.7482739971771877
3.3917371357718538,-9.41332524303861,0.6733495139227814,-1.8333737848069536
3.3997365158090513,-8.965871047737151,-0.3419094854308402,-1.9
3.407735895846249,-9.312712500407866,-0.07358958462490728,-1.8518354161908237
3.415735275883447,-9.565324501582538,-0.8735275883447041,-1.5571214148203723
3.4237346559206445,-9.802825599694787,0.11036053221421702,-0.2971744003052135
3.4317340359578425,-9.833592445991703,0.22317230196957397,-0.266407554008298
3.43973341599504,-9.864359292288617,0.3359840717249246,-0.23564070771138418
3.447732796032238,-9.895126138585532,0.4487958414802816,-0.20487386141446864
3.4557321760694357,-9.925892984882445,0.5616076112356323,-0.17410701511755483
3.4637315561066333,-9.956659831179358,0.6744193809909829,-0.143340168820641
3.4717309361438313,-9.987426677476275,0.7872311507463399,-0.11257332252372548
3.479730316181029,-10.018193523773189,0.9000429205016905,-0.08180647622681164
3.487729696218227,-10.048960370070104,1.0128546902570474,-0.05103962992989611
3.4957290762554245,-10.079727216367017,1.1256664600123982,-0.020272783632982294
3.503728456292622,-10.482114073155513,0.49008059516456437,-0.8821140731555127
3.51172783632982,-10.295857959633533,0.3248522421988007,0.4041420403664668
3.5197272163670177,-10.286969759592203,0.37818144244678464,0.41303024040779746
3.5277265964042157,-10.278081559550872,0.4315106426947716,0.42191844044912863
3.5357259764414133,-10.269193359509542,0.4848398429427555,0.43080664049045925
3.5437253564786113,-10.26030515946821,0.5381690431907424,0.4396948405317904
3.551724736515809,-10.251416959426878,0.5914982434387264,0.4485830405731211
3.5597241165530065,-10.242528759385548,0.6448274436867103,0.4574712406144517
3.5677234965902045,-10.233640559344217,0.6981566439346972,0.4663594406557829
3.575722876627402,-10.224752359302887,0.7514858441826813,0.47524764069711356
3.5837222566646,-10.215864159261555,0.8048150444306681,0.4841358407384447
3.5917216367017977,-10.206975959220225,0.858144244678652,0.49302404077977535
3.5997210167389957,-9.855796652200873,0.2976441413515274,-0.18840669559825451
3.6077203967761933,-10.0,-1.3696714197147868,0.24644761314319114
3.615719776813391,-10.0,-1.5697987558948725,0.33204720076346317
3.623719156850589,-10.0,-1.5338464860647691,0.25115459364573034
3.6317185368877865,-10.0,-1.4978942162346676,0.17026198652800195
3.6397179169249845,-10.0,-1.461941946404564,0.08936937941026912
3.647717296962182,-10.0,-1.4259896765744626,0.008476772292540735
3.65571667699938,-10.0,-1.390037406744359,-0.0724158348251921
3.6637160570365777,-10.0,-1.3540851369142577,-0.15330844194292048
3.6717154370737752,-10.0,-1.3181328670841561,-0.23420104906064887
3.6797148171109733,-10.0,-1.2821805972540525,-0.3150936561783817
3.687714197148171,-10.0,-1.246228327423951,-0.3959862632961101
3.695713577185369,-10.0,-1.2102760575938476,-0.4768788704138429
3.7037129572225664,-10.1,0.6881463112212285,0.21685058896459475
3.7117123372597645,-9.506512872385551,0.5055633504095052,-0.5576663294939161
3.719711717296962,-9.52054687245081,0.30207034946325073,-0.46644532906973313
3.7277110973341596,-9.534580872516068,0.09857734851699629,-0.3752243286455501
3.7357104773713576,-9.548614872581329,-0.10491565242926937,-0.28400332822136204
3.743709857408555,-9.562648872646587,-0.3084086533755238,-0.19278232779717908
3.7517092374457532,-9.576682872711848,-0.5119016543217895,-0.101561327372991
3.759708617482951,-9.590716872777106,-0.7153946552680438,-0.010340326948808043
3.767707997520149,-9.604750872842367,-0.9188876562143097,0.08088067347538008
3.7757073775573464,-9.618784872907625,-1.122380657160564,0.172101673899563
3.783706757594544,-9.632818872972884,-1.3258736581068185,0.263322674323746
3.791706137631742,-9.646852873038144,-1.529366659053084,0.35454367474793413
3.7997055176689396,-9.660886873103403,-1.7328596599993382,0.44576467517211704
3.8077048977061376,-9.674920873168661,-1.9363526609456043,0.5369856755963051
3.815704277743335,-9.688954873233921,-2.1398456618918584,0.6282066760204882
3.8237036577805332,-9.955548667080002,-2.811097334160005,0.35926844389332985
3.831703037817731,-9.719889533900695,-2.8299723834751735,0.01988953390069531
3.8397024178549284,-9.697254164750115,-3.2752874827510405,0.3835249885006938
3.8477017978921264,-9.684351938883667,-3.1591674499530042,0.30611163330200303
3.855701177929324,-9.67144971301722,-3.0430474171549746,0.22869827810331655
3.863700557966522,-9.65854748715077,-2.9269273843569388,0.1512849229046258
3.8716999380037196,-9.645645261284322,-2.8108073515589087,0.07387156770593933
3.8796993180409176,-9.632743035417874,-2.694687318760873,-0.0035417874927514137
3.887698698078115,-9.619840809551427,-2.5785672859628432,-0.08095514269143789
3.8956980781153128,-9.606938583684979,-2.4624472531648136,-0.1583684978901243
3.903697458152511,-9.495381277123373,-1.2184748915065056,-2.0163980161190365
3.9116968381897084,-10.15957842529446,-0.9111593304402318,2.7393676379416916
3.9196962182269064,-10.190837835444158,-0.8274864936675231,2.790837835444159
3.927695598264104,-10.181314763971304,-0.8560557080860859,2.7813147639713045
3.9356949783013015,-10.17179169249845,-0.8846249225046486,2.7717916924984505
3.9436943583384996,-10.162268621025595,-0.913194136923213,2.7622686210255956
3.951693738375697,-10.15274554955274,-0.9417633513417758,2.7527455495527415
3.959693118412895,-10.143222478079887,-0.9703325657603401,2.7432224780798866
3.9676924984500928,-10.133699406607033,-0.9989017801789029,2.7336994066070326
3.9756918784872908,-10.124176335134177,-1.0274709945974672,2.7241763351341777
3.9836912585244884,-10.114653263661323,-1.05604020901603,2.7146532636613236
3.991690638561686,-10.105130192188469,-1.0846094234345927,2.705130192188469
3.999690018598884,-9.599124302541847,-2.330122442653441,0.9318738375697458
4.0076893986360815,-9.40289182649041,-1.646269223846566,0.6028918264904104
4.01568877867328,-9.411493310401376,-1.783892966422016,0.611493310401376
4.023688158710478,-9.420094794312343,-1.9215167089974658,0.6200947943123416
4.031687538747675,-9.428696278223306,-2.0591404515729006,0.6286962782233062
4.039686918784873,-9.437297762134271,-2.1967641941483502,0.6372977621342719
4.047686298822071,-9.445899246045238,-2.3343879367238003,0.6458992460452375
4.055685678859268,-9.454500729956202,-2.472011679299235,0.6545007299562021
4.063685058896466,-9.463102213867169,-2.6096354218746844,0.6631022138671677
4.071684438933664,-9.471703697778134,-2.747259164450135,0.6717036977781333
4.079683818970862,-9.480305181689099,-2.8848829070255846,0.680305181689099
4.087683199008059,-9.488906665600064,-3.022506649601019,0.6889066656000636
4.095682579045257,-9.49750814951103,-3.1601303921764687,0.6975081495110292
4.103681959082455,-9.472783632982063,-2.7865468071917054,1.3091754494730947
4.111681339119652,-9.608171637361332,-3.191828362638668,1.5
4.11968071915685,-9.616681616124309,-3.1833183838756915,1.5
4.127680099194048,-9.625191594887285,-3.174808405112715,1.5
4.135679479231246,-9.633701573650262,-3.1662984263497385,1.5
4.1436788592684435,-9.642211552413237,-3.157788447586763,1.5
4.1516782393056415,-9.650721531176213,-3.149278468823786,1.5
4.1596776193428395,-9.65923150993919,-3.1407684900608093,1.5
4.167676999380037,-9.667741488702166,-3.1322585112978336,1.5
4.175676379417235,-9.676251467465143,-3.123748532534857,1.5
4.183675759454433,-9.68476144622812,-3.1152385537718805,1.5
4.191675139491631,-9.693271424991096,-3.106728575008904,1.5
4.199674519528828,-9.281370117793086,-2.5976441413517044,1.1650960942344697
4.207673899566026,-9.254813568328753,-2.2259321583562293,1.1548135683287541
4.215673279603224,-9.578879933870656,-2.446207894193048,1.088448026451738
4.223672659640421,-9.332913825170532,-2.5998202107873714,1.4003595784252574
4.231672039677619,-9.119466831990078,-2.506488943996693,1.5935110560033074
4.239671419714817,-9.15279758214507,-2.5175991940483566,1.5824008059516435
4.247670799752015,-9.186128332300061,-2.5287094441000204,1.5712905558999795
4.255670179789212,-9.21945908245505,-2.5398196941516833,1.5601803058483168
4.26366955982641,-9.252789832610041,-2.550929944203347,1.549070055796653
4.271668939863608,-9.286120582765033,-2.5620401942550113,1.537959805744989
4.279668319900805,-9.319451332920021,-2.5731504443066737,1.5268495556933264
4.2876676999380035,-9.352782083075013,-2.5842606943583375,1.5157393056416624
4.2956670799752015,-9.386112833230005,-2.5953709444100017,1.5046290555899984
4.3036664600123995,-9.133261004339872,-2.8666460012399635,2.066584004959854
4.311665840049597,-8.932585244885304,-3.1470489770613796,1.8837073775573474
4.319665220086795,-9.003690845215955,-3.0315023765240747,1.848154577392023
4.327664600123993,-9.074796445546603,-2.91595577598677,1.8126017772266982
4.33566398016119,-9.145902045877245,-2.8004091754494773,1.7770489770613775
4.343663360198388,-9.217007646207893,-2.6848625749121724,1.741496176896053
4.351662740235586,-9.288113246538543,-2.5693159743748675,1.7059433767307284
4.359662120272784,-9.359218846869192,-2.4537693738375626,1.6703905765654037
4.367661500309981,-9.430324447199833,-2.3382227733002705,1.6348377764000832
4.375660880347179,-9.501430047530482,-2.2226761727629656,1.5992849762347585
4.383660260384377,-9.572535647861132,-2.10712957222566,1.563732176069434
4.391659640421574,-9.643641248191773,-1.9915829716883684,1.5281793759041133
4.399659020458772,-9.312895226286424,-1.9,1.887104773713576
4.40765840049597,-9.302479851208915,-3.2975201487910857,2.3670799752014857
4.415657780533168,-9.193570703939582,-2.7935707039395816,2.3128585921208367
4.423657160570365,-9.184480499351857,-2.7844804993518575,2.3310390012962845
4.431656540607563,-9.175390294764131,-2.7753902947641325,2.3492194104717345
4.4396559206447614,-9.166300090176406,-2.7663000901764074,2.3673998196471846
4.447655300681959,-9.157209885588683,-2.7572098855886837,2.3855802288226324
4.455654680719157,-9.148119681000958,-2.7481196810009587,2.4037606379980825
4.463654060756355,-9.139029476413233,-2.7390294764132337,2.4219410471735325
4.471653440793553,-9.129939271825508,-2.7299392718255087,2.440121456348983
4.47965282083075,-9.120849067237785,-2.7208490672377845,2.458301865524431
4.487652200867948,-9.11175886265006,-2.7117588626500595,2.476482274699881
4.495651580905146,-9.102668658062335,-2.7026686580623345,2.494662683875331
4.503650960942343,-8.952355858648495,-3.0650960942343364,2.5650960942343364
4.511650340979541,-8.924678519288843,-3.058869134518595,2.6329046923851243
4.519649721016739,-8.95048297102174,-3.0158617149637674,2.667310628028986
4.527649101053936,-8.976287422754634,-2.9728542954089443,2.7017165636728446
4.535648481091134,-9.00209187448753,-2.9298468758541167,2.7361224993167066
4.543647861128332,-9.027896326220427,-2.886839456299289,2.770528434960569
4.55164724116553,-9.053700777953322,-2.843832036744461,2.804934370604431
4.559646621202727,-9.079505229686216,-2.8008246171896385,2.8393403062482894
4.567646001239925,-9.105309681419113,-2.757817197634811,2.8737462418921513
4.575645381277123,-9.13111413315201,-2.714809778079983,2.9081521775360137
4.5836447613143205,-9.156918584884904,-2.6718023585251602,2.9425581131798717
4.5916441413515185,-9.1827230366178,-2.6287949389703327,2.976964048823734
4.599643521388717,-9.16475304815045,-2.6176234759247747,2.9118826203761263
4.607642901425915,-9.058094647654475,-2.670952676172763,2.6452366191361865
4.615642281463112,-9.121409382103716,-2.760704691051858,2.803523455259291
4.62364166150031,-8.806480242764382,-2.678399190785397,2.5043201618429207
4.631641041537508,-8.838056742911215,-2.5731441902959498,2.52537116194081
4.639640421574705,-8.869633243058047,-2.4678891898065145,2.5464221620386973
4.647639801611903,-8.90120974320488,-2.3626341893170677,2.5674731621365865
4.655639181649101,-8.932786243351714,-2.2573791888276205,2.588524162234476
4.663638561686299,-8.964362743498548,-2.1521241883381736,2.6095751623323653
4.671637941723496,-8.99593924364538,-2.0468691878487384,2.6306261624302523
4.679637321760694,-9.027515743792213,-1.9416141873592914,2.651677162528142
4.687636701797892,-9.059092243939046,-1.8363591868698443,2.672728162626031
4.695636081835089,-9.090668744085876,-1.731104186380409,2.6937791627239185
4.703635461872287,-9.193924364538125,-1.8878487290762511,3.0756974581525025
4.711634841909485,-9.088023445865973,-2.9029941385335065,3.205988277067013
4.719634221946683,-9.051662627515073,-2.9120843431212315,3.224168686242463
4.7276336019838805,-9.015301809164178,-2.9211745477089552,3.2423490954179113
4.7356329820210785,-8.978940990813278,-2.9302647522966803,3.2605295045933613
4.7436323620582765,-8.942580172462378,-2.9393549568844053,3.278709913768811
4.751631742095474,-8.906219354111482,-2.9484451614721294,3.296890322944259
4.759631122132672,-8.869858535760581,-2.9575353660598545,3.3150707321197093
4.76763050216987,-8.833497717409681,-2.9666255706475795,3.3332511412951593
4.775629882207068,-8.797136899058781,-2.9757157752353045,3.3514315504706094
4.783629262244265,-8.760776080707885,-2.9848059798230286,3.369611959646057
4.791628642281463,-8.724415262356985,-2.9938961844107537,3.3877923688215072
4.799628022318661,-8.837197768133938,-2.3859888406696914,3.2256044637321235
4.807627402355858,-8.888423183970668,-3.3,3.215435754705778
4.815626782393056,-8.862893247681736,-3.3,3.2494756697576848
4.823626162430254,-8.837363311392807,-3.3,3.2835155848095914
4.831625542467452,-8.811833375103877,-3.3,3.317555499861498
4.839624922504649,-8.786303438814949,-3.3,3.351595414913401
4.847624302541847,-8.76077350252602,-3.3,3.3856353299653077
4.855623682579045,-8.73524356623709,-3.3,3.4196752450172143
4.863623062616242,-8.709713629948162,-3.3,3.4537151600691174
4.8716224426534405,-8.684183693659232,-3.3,3.487755075121024
4.8796218226906385,-8.658653757370303,-3.3,3.5217949901729306
4.8876212027278365,-8.633123821081371,-3.3,3.5558349052248373
4.895620582765034,-8.607593884792445,-3.3,3.5898748202767403
4.903619962802232,-8.713588125888917,-3.0135881258889166,3.6864118741110836
4.91161934283943,-8.737115714233617,-3.0371157142336167,3.6628842857663835
4.919618722876627,-8.760643302578314,-3.0606433025783146,3.6393566974216855
4.927618102913825,-8.784170890923015,-3.0841708909230148,3.6158291090769854
4.935617482951023,-8.74183371219949,-3.1581662878005097,3.629083143900255
4.943616862988221,-8.519156850588955,-3.380843149411045,3.8616862988220904
4.951616243025418,-8.489845009299442,-3.328915065096098,3.950774953502787
4.959615623062616,-8.479179169249845,-3.2542541847489166,4.004104153750774
4.967615003099814,-8.468513329200247,-3.1795933044017355,4.057433353998761
4.975614383137011,-8.457847489150652,-3.1049324240545624,4.110762554246741
4.983613763174209,-8.447181649101054,-3.030271543707381,4.164091754494728
4.991613143211407,-8.436515809051457,-2.9556106633601997,4.217420954742715
4.999612523248605,-8.42584996900186,-2.880949783013018,4.270750154990702
5.007611903285802,-8.415184128952264,-2.8062889026658455,4.324079355238682
5.015611283323,-8.404518288902667,-2.731628022318664,4.377408555486669
5.0236106633601985,-8.4,-2.2389336639801845,4.4
5.031610043397396,-8.7,-1.7120152492342935,3.6
5.039609423434594,-8.7,-1.7717121151835324,3.6
5.047608803471792,-8.7,-1.8314089811327712,3.6
5.05560818350899,-8.7,-1.8911058470820101,3.6
5.063607563546187,-8.7,-1.9508027130312424,3.6
5.071606943583385,-8.7,-2.010499578980481,3.6
5.079606323620583,-8.7,-2.07019644492972,3.6
5.08760570365778,-8.7,-2.1298933108789524,3.6
5.095605083694978,-8.7,-2.189590176828191,3.6
5.103604463732176,-8.5,-2.4534821244058627,3.8732589377970683
5.111603843769374,-8.491901474675563,-2.608098525324437,3.812147787986655
5.119603223806571,-8.473925339760514,-2.6260746602394867,3.8391119903592297
5.127602603843769,-8.455949204845462,-2.6440507951545382,3.866076192731807
5.135601983880967,-8.437973069930411,-2.66202693006959,3.8930403951043844
5.143601363918164,-8.41999693501536,-2.6800030649846396,3.920004597476959
5.151600743955362,-8.40202080010031,-2.697979199899691,3.9469687998495364
5.15960012399256,-8.384044665185257,-2.7159553348147427,3.9739330022221138
5.167599504029758,-8.366068530270207,-2.7339314697297943,4.000897204594692
5.175598884066956,-8.348092395355156,-2.751907604644844,4.027861406967266
5.183598264104154,-8.330116260440105,-2.7698837395598956,4.054825609339844
5.191597644141352,-8.312140125525053,-2.787859874474947,4.0817898117124205
5.199597024178549,-8.429851208927449,-3.419404835709793,4.2492560446372405
5.207596404215747,-8.5,-4.265406075635424,4.6
5.215595784252945,-8.4,-4.714990418756694,5.62248562813504
5.223595164290143,-8.4,-4.733170827932144,5.649756241898215
5.23159454432734,-8.4,-4.751351237107592,5.677026855661387
5.239593924364538,-8.4,-4.769531646283042,5.704297469424563
5.247593304401736,-8.4,-4.787712055458492,5.731568083187738
5.255592684438933,-8.4,-4.80589246463394,5.758838696950909
5.263592064476131,-8.4,-4.82407287380939,5.786109310714084
5.271591444513329,-8.4,-4.84225328298484,5.8133799244772595
5.279590824550527,-8.4,-4.86043369216029,5.840650538240435
5.287590204587724,-8.4,-4.878614101335738,5.867921152003607
5.295589584624922,-8.4,-4.896794510511188,5.895191765766782
5.30358896466212,-8.9,-4.68675862781566,4.8
5.3115883446993175,-8.9,-4.620097127505685,4.8
5.3195877247365155,-8.9,-4.553435627195701,4.8
5.3275871047737136,-8.908941435344868,-4.461998899784315,4.80670607650865
5.335586484810911,-8.954008365131893,-4.270464448189455,4.840506273848919
5.343585864848109,-8.999075294918924,-4.0789299965945744,4.874306471189192
5.351585244885307,-9.044142224705954,-3.887395544999694,4.908106668529466
5.359584624922505,-9.089209154492986,-3.6958610934048135,4.941906865869739
5.367584004959702,-9.134276084280012,-3.5043266418099543,4.975707063210008
5.3755833849969,-9.179343014067042,-3.312792190215074,5.009507260550281
5.383582765034098,-9.224409943854074,-3.121257738620193,5.0433074578905535
5.391582145071295,-9.269476873641098,-2.9297232870253334,5.077107655230823
5.399581525108493,-9.022008679479459,-1.5652200867945114,5.667389956602745
5.407580905145691,-7.096149564359472,-6.961384316940985,4.446205227686338
5.415580285182889,-7.087548080448506,-6.651730896146223,4.549423034617925
5.423579665220086,-7.078946596537541,-6.342077475351495,4.652640841549502
5.431579045257284,-7.070345112626575,-6.032424054556733,4.755858648481089
5.439578425294482,-7.06174362871561,-5.722770633761971,4.859076455412676
5.4475778053316795,-7.053142144804646,-5.413117212967243,4.962294262344252
5.4555771853688775,-7.04454066089368,-5.10346379217248,5.065512069275839
5.4635765654060755,-7.035939176982715,-4.7938103713777185,5.168729876207427
5.4715759454432735,-7.027337693071749,-4.484156950582956,5.271947683139015
5.479575325480471,-7.018736209160784,-4.174503529788228,5.37516549007059
5.487574705517669,-7.010134725249818,-3.864850108993466,5.4783832970021775
5.495574085554867,-7.001533241338853,-3.555196688198704,5.581601103933765
5.503573465592064,-6.342653440793638,-5.036019838809542,5.160663360198409
5.511572845629262,-4.374595302059655,-6.310161879176138,4.874595302059655
5.51957222566646,-4.330154301853,-6.3279382792588,4.830154301853
5.527571605703658,-4.285713301646345,-6.345714679341462,4.785713301646345
5.535570985740855,-4.241272301439694,-6.363491079424122,4.741272301439694
5.543570365778053,-4.196831301233039,-6.381267479506785,4.696831301233039
5.551569745815251,-4.152390301026383,-6.399043879589446,4.652390301026384
5.559569125852448,-4.107949300819733,-6.416820279672107,4.607949300819733
5.567568505889646,-4.063508300613077,-6.434596679754769,4.563508300613078
5.575567885926844,-4.019067300406422,-6.4523730798374315,4.519067300406422
5.583567265964042,-3.9746263001997666,-6.470149479920093,4.474626300199767
5.591566646001239,-3.9301852999931164,-6.487925880002753,4.430185299993116
5.5995660260384374,-3.990566232692713,-6.052831163463564,4.309433767307287
5.6075654060756355,-4.184810911345299,-6.241351518908832,4.213081215127065
5.615564786112833,-4.385080031561745,-6.5104801893704645,4.589519810629536
5.623564166150031,-4.366899622386295,-6.401397734317764,4.6986022656822355
5.631563546187229,-4.3487192132108445,-6.292315279265064,4.807684720734936
5.639562926224427,-4.3305388040353945,-6.1832328242123635,4.916767175787636
5.647562306261624,-4.312358394859946,-6.074150369159676,5.025849630840325
5.655561686298822,-4.294177985684496,-5.965067914106975,5.134932085893025
5.66356106633602,-4.275997576509046,-5.855985459054275,5.244014540945725
5.671560446373217,-4.257817167333598,-5.746903004001587,5.353096995998413
5.679559826410415,-4.239636758158148,-5.637820548948887,5.462179451051114
5.687559206447613,-4.221456348982698,-5.528738093896187,5.571261906103814
5.695558586484811,-4.203275939807248,-5.419655638843487,5.680344361156513
5.703557966522008,-3.5740338912998637,-3.825966108700136,5.648067782599727
5.711557346559206,-3.4407108906799015,-3.9592891093200984,5.381421781359803
5.719556726596404,-3.4,-3.9397463381112834,5.340169107925811
5.727556106633601,-3.4,-3.853006072647699,5.3979959515682
5.735555486670799,-3.4,-3.7662658071841055,5.455822795210596
5.743554866707997,-3.4,-3.679525541720512,5.513649638852992
5.751554246745195,-3.4,-3.592785276256918,5.571476482495388
5.759553626782393,-3.4,-3.5060450107933336,5.629303326137777
5.767553006819591,-3.4,-3.41930474532974,5.687130169780174
5.775552386856789,-3.4,-3.3325644798661465,5.744957013422569
5.783551766893986,-3.4,-3.245824214402562,5.802783857064959
5.791551146931184,-3.4,-3.1590839489389686,5.860610700707355
5.799550526968382,-3.4,-2.772075104065186,5.9
5.80754990700558,-4.692467451952826,-2.819962802231801,5.71732796032208
5.815549287042777,-5.322799132052065,-3.0608404924276305,8.686531308121484
5.823548667079975,-5.472787507749528,-2.6465868833584474,9.036504184748898
5.831548047117173,-5.62277588344699,-2.2323332742892648,9.386477061376311
5.83954742715437,-5.772764259144436,-1.8180796652201276,9.736449938003686
5.847546807191568,-5.922752634841899,-1.4038260561509448,10.0864228146311
5.855546187228766,-6.072741010539362,-0.9895724470817617,10.436395691258513
5.863545567265964,-6.222729386236825,-0.5753188380125791,10.786368567885926
5.871544947303161,-6.372717761934271,-0.16106522894344177,11.136341444513299
5.879544327340359,-6.522706137631734,0.25318838012574085,11.486314321140712
5.887543707377557,-6.672694513329196,0.6674419891949239,11.836287197768126
5.8955430874147545,-6.822682889026643,1.0816955982640608,12.1862600743955
5.9035424674519525,-6.972671264724106,1.4959492073332439,12.536232951022914
5.911541847489151,-7.122659640421568,1.910202816402427,12.886205827650327
5.919541227526349,-7.272648016119031,2.324456425471609,13.23617870427774
5.927540607563546,-4.333502789832732,-0.853044017358151,11.213453192809117
5.935539987600744,-4.175326154343784,-2.2654566160812974,7.160521846950055
5.943539367637942,-4.131851262837273,-2.204591767972182,7.090962020539637
5.951538747675139,-4.088376371330767,-2.1437269198630733,7.021402194129227
5.959538127712337,-4.044901479824255,-2.0828620717539574,6.951842367718809
5.967537507749535,-4.001426588317744,-2.021997223644842,6.882282541308391
5.975536887786733,-3.957951696811233,-1.9611323755357264,6.812722714897974
5.98353626782393,-3.914476805304727,-1.9002675274266174,6.743162888487563
5.991535647861128,-3.871001913798216,-1.839402679317502,6.673603062077145
5.999535027898326,-3.827527022291705,-1.7785378312083862,6.604043235666728
6.007534407935523,-3.784052130785198,-1.7176729830992774,6.5344834092563175
6.015533787972721,-3.740577239278687,-1.656808134990162,6.464923582845899
6.023533168009919,-3.7533168009919473,-1.946559206447656,6.293366398016106
6.031532548047117,-5.412557690982993,-5.581394227457483,6.609533650203232
6.0395319280843145,-5.694893573052286,-6.292340359578429,7.415319280843143
6.0475313081215125,-5.668228972928293,-6.2523434593924385,7.495313081215124
6.0555306881587105,-5.641564372804299,-6.2123465592064475,7.575306881587104
6.063530068195908,-5.6148997726803085,-6.172349659020462,7.655300681959076
6.071529448233106,-5.588235172556314,-6.132352758834472,7.7352944823310565
6.079528828270304,-5.561570572432321,-6.092355858648482,7.815288282703038
6.087528208307502,-5.534905972308327,-6.052358958462491,7.895282083075018
6.095527588344699,-5.508241372184337,-6.012362058276505,7.97527588344699
6.103526968381897,-4.1,-2.904391403182476,7.695608596817524
6.111526348419095,-4.1,-2.971052903492457,7.6289470965075425
6.119525728456292,-4.400520523224052,-2.700520523224052,8.301561569672156
6.12752510849349,-4.408440701478703,-2.7084407014787035,8.325322104436111
6.135524488530688,-4.416360879733355,-2.716360879733355,8.349082639200065
6.143523868567886,-4.424281057988007,-2.7242810579880063,8.37284317396402
6.151523248605083,-4.4322012362426575,-2.732201236242657,8.396603708727971
6.159522628642281,-4.440121414497309,-2.7401214144973083,8.420364243491926
6.167522008679479,-4.44804159275196,-2.74804159275196,8.44412477825588
6.175521388716676,-4.455961771006611,-2.7559617710066107,8.467885313019831
6.1835207687538745,-4.463881949261262,-2.763881949261262,8.491645847783786
6.1915201487910725,-4.471802127515914,-2.7718021275159135,8.515406382547742
6.19951952882827,-4.479722305770564,-2.779722305770564,8.539166917311693
6.207518908865468,-4.487642484025216,-2.7876424840252154,8.562927452075646
6.215518288902666,-4.495562662279867,-2.7955626622798673,8.586687986839602
6.223517668939864,-4.675883446993172,-2.7241165530068283,8.448233106013657
6.231517048977061,-4.691072535647861,-2.817854928704277,7.973217606943584
6.239516429014259,-4.680114480802385,-2.8397710383952304,7.940343442407154
6.247515809051457,-4.669156425956908,-2.8616871480861836,7.9074692778707245
6.255515189088654,-4.658198371111433,-2.8836032577771347,7.874595113334298
6.263514569125852,-4.647240316265956,-2.905519367468088,7.841720948797867
6.27151394916305,-4.6362822614204795,-2.9274354771590416,7.808846784261438
6.279513329200248,-4.625324206575002,-2.949351586849995,7.775972619725008
6.287512709237445,-4.614366151729527,-2.971267696540946,7.743098455188582
6.295512089274643,-4.60340809688405,-2.993183806231899,7.710224290652151
6.303511469311841,-4.548853068815863,-3.9,7.874426534407932
6.311510849349038,-4.411851288922663,-3.9,7.882223066616006
6.319510229386236,-4.429054256744594,-3.9,7.8564186148831086
6.327509609423434,-4.4462572245665255,-3.9,7.830614163150212
6.3355089894606325,-4.463460192388457,-3.9,7.804809711417315
6.34350836949783,-4.480663160210386,-3.9,7.779005259684421
6.351507749535028,-4.497866128032317,-3.9,7.753200807951524
6.359507129572226,-4.5150690958542485,-3.9,7.727396356218627
6.367506509609423,-4.532272063676178,-3.9,7.701591904485733
6.375505889646621,-4.549475031498109,-3.9,7.675787452752836
6.383505269683819,-4.56667799932004,-3.9,7.649983001019939
6.391504649721017,-4.583880967141972,-3.9,7.624178549287042
6.399504029758214,-4.549597024178621,-3.8495970241786215,7.549597024178621
6.407503409795412,-4.6,-3.5,7.707454063394494
6.41550278983261,-4.6,-3.5,7.724474020920447
6.423502169869807,-4.6,-3.5,7.741493978446399
6.431501549907005,-4.6,-3.5,7.758513935972352
6.439500929944203,-4.6,-3.5,7.775533893498305
6.447500309981401,-4.6,-3.5,7.792553851024258
6.455499690018598,-4.6,-3.5,7.809573808550209
6.463499070055796,-4.6,-3.5,7.826593766076162
6.471498450092994,-4.6,-3.5,7.8436137236021155
6.4794978301301915,-4.6,-3.5,7.860633681128067
6.48749721016739,-4.6,-3.5,7.87765363865402
6.495496590204588,-4.6,-3.5,7.894673596179974
6.503495970241786,-4.5,-3.4,7.937466418681549
6.511495350278983,-4.5,-3.4247675139491336,8.0
6.519494730316181,-4.5,-3.6,7.996703084607376
6.527494110353379,-4.5,-3.6,7.989156499666624
6.535493490390576,-4.5,-3.6,7.981609914725872
6.543492870427774,-4.5,-3.6,7.974063329785119
6.551492250464972,-4.5,-3.6,7.966516744844366
6.55949163050217,-4.5,-3.6,7.958970159903613
6.567491010539367,-4.5,-3.6,7.9514235749628615
6.575490390576565,-4.5,-3.6,7.943876990022108
6.583489770613763,-4.5,-3.6,7.936330405081356
6.59148915065096,-4.5,-3.6,7.928783820140604
6.599488530688158,-4.5,-3.6,7.921237235199851
6.607487910725356,-4.5,-3.6,7.913690650259098
6.615487290762554,-4.5,-3.6,7.906144065318345
6.6234866707997515,-4.5,-3.6,7.9
6.6314860508369495,-4.6,-3.6,7.7
6.6394854308741476,-4.6,-3.611341561930527,7.7
6.647484810911345,-4.6,-3.623461834714159,7.7
6.655484190948543,-4.6,-3.6355821074977923,7.7
6.663483570985741,-4.6,-3.6477023802814252,7.7
6.671482951022939,-4.6,-3.6598226530650586,7.7
6.679482331060136,-4.6,-3.6719429258486906,7.7
6.687481711097334,-4.6,-3.684063198632324,7.7
6.695481091134532,-4.6,-3.696183471415957,7.7
6.703480471171729,-4.6,-3.791341186195488,7.7
6.711479851208927,-4.599435469165968,-3.7,7.700564530834032
6.719479231246125,-4.590024433828088,-3.7,7.709975566171912
6.727478611283323,-4.580613398490208,-3.7,7.719386601509791
6.73547799132052,-4.571202363152329,-3.7,7.728797636847671
6.743477371357718,-4.561791327814449,-3.7,7.738208672185551
6.751476751394916,-4.5523802924765695,-3.7,7.74761970752343
6.7594761314321135,-4.54296925713869,-3.7,7.75703074286131
6.7674755114693115,-4.53355822180081,-3.7,7.76644177819919
6.7754748915065095,-4.524147186462931,-3.7,7.775852813537069
6.7834742715437075,-4.51473615112505,-3.7,7.7852638488749495
6.791473651580905,-4.505325115787171,-3.7,7.794674884212829
6.799473031618103,-4.5,-3.7,7.7
6.807472411655301,-4.5,-3.7,7.7
6.815471791692498,-4.5,-3.7,7.7
6.823471171729696,-4.5,-3.7,7.7
6.831470551766894,-4.5,-3.7,7.7
6.839469931804092,-4.5,-3.7,7.7
6.847469311841289,-4.5,-3.7,7.7
6.855468691878487,-4.5,-3.7,7.7
6.863468071915685,-4.5,-3.7,7.7
6.871467451952882,-4.5,-3.7,7.7
6.87946683199008,-4.5,-3.7,7.7
6.887466212027278,-4.5,-3.7,7.7
6.895465592064476,-4.5,-3.7,7.7
6.903464972101673,-4.5,-3.7,7.7
6.9114643521388714,-4.5,-3.7,7.7
6.9194637321760695,-4.5,-3.7,7.7
6.927463112213267,-4.527315561066334,-3.7273155610663338,7.727315561066334
6.935462492250465,-4.567312461252323,-3.767312461252323,7.767312461252323
6.943461872287663,-4.6,-3.8,7.8
6.951461252324861,-4.5966739833447825,-3.8,7.6
6.959460632362058,-4.585864010321543,-3.8,7.6
6.967460012399256,-4.575054037298303,-3.8,7.6
6.975459392436454,-4.564244064275062,-3.8,7.6
6.983458772473651,-4.553434091251822,-3.8,7.6
6.991458152510849,-4.542624118228582,-3.8,7.6
6.999457532548047,-4.531814145205342,-3.8,7.6
7.007456912585244,-4.521004172182102,-3.8,7.6
7.015456292622442,-4.510194199158861,-3.8,7.6
7.02345567265964,-4.522783632982018,-3.8,7.6
7.031455052696838,-4.579541227526348,-3.879541227526348,7.679541227526348
7.039454432734035,-4.512879727216374,-3.8128797272163744,7.612879727216375
7.047453812771233,-4.507870503379553,-3.8,7.6
7.055453192808431,-4.517625844888331,-3.8,7.6
7.0634525728456286,-4.527381186397108,-3.8,7.6
7.071451952882827,-4.5371365279058855,-3.8,7.6
7.079451332920025,-4.546891869414663,-3.8,7.6
7.087450712957223,-4.556647210923441,-3.8,7.6
7.09545009299442,-4.566402552432218,-3.8,7.6
7.103449473031618,-4.576157893940997,-3.8,7.6
7.111448853068816,-4.585913235449775,-3.8,7.6
7.119448233106013,-4.595668576958552,-3.8,7.6
7.127447613143211,-4.6,-3.844476131432108,7.6
7.135446993180409,-4.52765034097956,-3.82765034097956,7.6
7.143446373217607,-4.5,-3.9,7.7065618954429
7.151445753254804,-4.5,-3.9,7.716199702716632
7.159445133292002,-4.5,-3.9,7.725837509990364
7.1674445133292,-4.5,-3.9,7.735475317264097
7.175443893366397,-4.5,-3.9,7.745113124537828
7.183443273403595,-4.5,-3.9,7.754750931811561
7.191442653440793,-4.5,-3.9,7.764388739085293
7.199442033477991,-4.5,-3.9,7.774026546359026
7.2074414135151885,-4.5,-3.9,7.783664353632757
7.2154407935523865,-4.5,-3.9,7.79330216090649
7.223440173589585,-4.477991320520762,-3.9,7.7
7.231439553626782,-4.5,-3.9036629468898485,7.7
7.23943893366398,-4.5,-3.9703244471998294,7.7
7.247438313701178,-4.5,-4.0,7.7
7.255437693738376,-4.5,-4.0,7.7
7.263437073775573,-4.5,-4.0,7.7
7.271436453812771,-4.5,-4.0,7.7
7.279435833849969,-4.5,-4.0,7.7
7.287435213887166,-4.5,-4.0,7.7
7.295434593924364,-4.5,-4.0,7.7
7.303433973961562,-4.5,-4.0,7.7
7.31143335399876,-4.5,-4.0,7.7
7.319432734035957,-4.5,-4.0,7.7
7.327432114073155,-4.6,-3.9,7.62160570365777
7.335431494110353,-4.6,-3.9066994730316185,7.693300526968382
7.3434308741475505,-4.6,-3.915032160570365,7.684967839429635
7.3514302541847485,-4.6,-3.923364848109113,7.676635151890887
7.3594296342219465,-4.6,-3.931697535647861,7.668302464352139
7.3674290142591445,-4.6,-3.940030223186609,7.659969776813391
7.375428394296342,-4.6,-3.948362910725356,7.651637089274644
7.38342777433354,-4.6,-3.956695598264104,7.643304401735896
7.391427154370738,-4.6,-3.965028285802852,7.634971714197148
7.399426534407935,-4.6,-3.973360973341599,7.626639026658401
7.407425914445133,-4.6,-3.981693660880347,7.618306339119653
7.415425294482331,-4.6,-3.9900263484190948,7.609973651580905
7.423424674519529,-4.6,-3.9983590359578427,7.601640964042157
7.431424054556726,-4.6,-4.0,7.6404009092787675
7.439423434593924,-4.597148900477737,-3.9,7.602851099522263
7.447422814631122,-4.587737865139856,-3.9,7.612262134860143
7.455422194668319,-4.578326829801977,-3.9,7.621673170198022
7.463421574705517,-4.568915794464098,-3.9,7.6310842055359025
7.471420954742715,-4.559504759126217,-3.9,7.640495240873782
7.479420334779913,-4.550093723788337,-3.9,7.649906276211662
7.48741971481711,-4.540682688450459,-3.9,7.659317311549541
7.4954190948543085,-4.5312716531125785,-3.9,7.668728346887422
7.5034184748915065,-4.521860617774698,-3.9,7.678139382225302
7.511417854928704,-4.51244958243682,-3.9,7.68755041756318
7.519417234965902,-4.50303854709894,-3.9,7.696961452901061
7.5274166150031,-4.420830750154979,-3.9208307501549786,7.7
7.535415995040298,-4.5,-3.9904238879995555,7.690423887999556
7.543415375077495,-4.5,-3.978484514809709,7.67848451480971
7.551414755114693,-4.5,-3.966545141619861,7.666545141619862
7.559414135151891,-4.5,-3.9546057684300138,7.654605768430014
7.567413515189088,-4.5,-3.9426663952401673,7.642666395240167
7.575412895226286,-4.5,-3.9307270220503194,7.630727022050319
7.583412275263484,-4.5,-3.9187876488604716,7.618787648860471
7.591411655300682,-4.5,-3.9068482756706238,7.6068482756706235
7.599411035337879,-4.5,-3.9568505889646497,7.6
7.607410415375077,-4.5,-4.1,7.528420128125644
7.615409795412275,-4.5,-4.1,7.595081628435629
7.623409175449472,-4.5,-4.1,7.609378703100598
7.63140855548667,-4.5,-4.1,7.6195045006160385
7.639407935523868,-4.5,-4.1,7.629630298131479
7.6474073155610665,-4.5,-4.1,7.63975609564692
7.655406695598264,-4.5,-4.1,7.649881893162359
7.663406075635462,-4.5,-4.1,7.6600076906778
7.67140545567266,-4.5,-4.1,7.67013348819324
7.679404835709857,-4.5,-4.1,7.680259285708679
7.687404215747055,-4.5,-4.1,7.69038508322412
7.695403595784253,-4.508071915685051,-4.1,7.7
7.703402975821451,-4.6,-4.0,7.629851208927448
7.711402355858648,-4.6,-4.0,7.593673200120813
7.719401735895846,-4.6,-4.0,7.586836123165943
7.727401115933044,-4.6,-4.0,7.579999046211073
7.735400495970241,-4.6,-4.0,7.573161969256204
7.743399876007439,-4.6,-4.0,7.566324892301334
7.751399256044637,-4.6,-4.0,7.559487815346463
7.759398636081835,-4.6,-4.0,7.552650738391593
7.767398016119032,-4.6,-4.0,7.545813661436724
7.77539739615623,-4.6,-4.0,7.538976584481854
7.783396776193428,-4.6,-4.0,7.532139507526984
7.7913961562306255,-4.6,-4.0,7.525302430572115
7.799395536267824,-4.6,-4.0,7.518465353617245
7.807394916305022,-4.6,-4.0,7.511628276662375
7.815394296342219,-4.6,-4.0,7.504791199707505
7.823393676379417,-4.6,-4.1,7.5056239482773766
7.831393056416615,-4.6,-4.1,7.6
7.839392436453813,-4.5,-4.1,7.6
7.84739181649101,-4.5,-4.1,7.6
7.855391196528208,-4.5,-4.1,7.6
7.863390576565406,-4.5,-4.1,7.6
7.871389956602603,-4.5,-4.1,7.6
7.879389336639801,-4.5,-4.1,7.6
7.887388716676999,-4.5,-4.1,7.6
7.895388096714197,-4.5,-4.1,7.6
7.903387476751394,-4.5,-4.1,7.6
7.911386856788592,-4.5,-4.1,7.6
7.91938623682579,-4.5,-4.1,7.6
7.9273856168629875,-4.419280843149388,-4.280719156850612,7.5
7.9353849969001855,-4.438499690018577,-4.038499690018576,7.638499690018577
7.9433843769373835,-4.508487789583199,-4.1,7.7084877895832
7.9513837569745816,-4.517682479281128,-4.1,7.7176824792811285
7.959383137011779,-4.526877168979056,-4.1,7.7268771689790565
7.967382517048977,-4.536071858676984,-4.1,7.7360718586769845
7.975381897086175,-4.545266548374913,-4.1,7.7452665483749135
7.983381277123372,-4.554461238072841,-4.1,7.7544612380728415
7.99138065716057,-4.56365592777077,-4.1,7.76365592777077
7.999380037197768,-4.572850617468699,-4.1,7.772850617468699
8.007379417234965,-4.582045307166626,-4.1,7.7820453071666265
8.015378797272163,-4.591239996864555,-4.1,7.791239996864555
8.023378177309361,-4.6,-4.062182269063872,7.8
8.03137755734656,-4.7,-3.95975063718399,7.5701246814080045
8.039376937383757,-4.7,-4.048632637597298,7.525683681201351
8.047376317420955,-4.699491462944656,-4.3,7.3
8.055375697458151,-4.688681489921418,-4.3,7.3
8.06337507749535,-4.677871516898177,-4.3,7.3
8.071374457532547,-4.6670615438749365,-4.3,7.3
8.079373837569745,-4.656251570851696,-4.3,7.3
8.087373217606943,-4.645441597828455,-4.3,7.3
8.095372597644142,-4.634631624805214,-4.3,7.3
8.10337197768134,-4.623821651781974,-4.3,7.3
8.111371357718536,-4.613011678758736,-4.3,7.3
8.119370737755734,-4.602201705735495,-4.3,7.3
8.127370117792932,-4.531494110353403,-4.268505889646597,7.5
8.13536949783013,-4.5,-4.3,7.508010323728402
8.143368877867328,-4.5,-4.3,7.516705302029704
8.151368257904526,-4.5,-4.3,7.525400280331006
8.159367637941724,-4.5,-4.3,7.534095258632308
8.16736701797892,-4.5,-4.3,7.542790236933608
8.175366398016118,-4.5,-4.3,7.55148521523491
8.183365778053316,-4.5,-4.3,7.560180193536213
8.191365158090514,-4.5,-4.3,7.568875171837515
8.199364538127712,-4.5,-4.3,7.577570150138817
8.20736391816491,-4.5,-4.3,7.586265128440119
8.215363298202108,-4.5,-4.3,7.594960106741421
8.223362678239305,-4.431866088034772,-4.231866088034772,7.6
8.231362058276503,-4.407447303161808,-4.2,7.507447303161808
8.2393614383137,-4.418557553213472,-4.2,7.518557553213472
8.247360818350899,-4.429667803265136,-4.2,7.529667803265136
8.255360198388097,-4.440778053316801,-4.2,7.5407780533168
8.263359578425295,-4.451888303368464,-4.2,7.551888303368464
8.271358958462493,-4.462998553420128,-4.2,7.562998553420128
8.279358338499689,-4.47410880347179,-4.2,7.574108803471789
8.287357718536887,-4.485219053523454,-4.2,7.585219053523454
8.295357098574085,-4.496329303575118,-4.2,7.596329303575118
8.303356478611283,-5.094058689811962,-4.3178239305641135,8.977237032444494
8.311355858648481,-5.2355858648480975,-4.776689398636073,9.964414135151904
8.319355238685679,-5.411878950814352,-4.846544721335415,9.77030262296412
8.327354618722877,-5.426831063033414,-4.779260216349637,9.732922342416465
8.335353998760073,-5.441783175252473,-4.711975711363873,9.695542061868819
8.343353378797271,-5.456735287471535,-4.644691206378095,9.658161781321164
8.35135275883447,-5.471687399690596,-4.577406701392317,9.62078150077351
8.359352138871667,-5.486639511909658,-4.510122196406539,9.583401220225856
8.367351518908865,-5.50159162412872,-4.442837691420761,9.5460209396782
8.375350898946063,-5.516543736347781,-4.375553186434982,9.508640659130547
8.383350278983261,-5.531495848566843,-4.308268681449205,9.471260378582892
8.391349659020458,-5.546447960785902,-4.240984176463441,9.433880098035246
8.399349039057656,-5.561400073004964,-4.173699671477663,9.396499817487591
8.407348419094854,-5.576352185224025,-4.106415166491884,9.359119536939936
8.415347799132052,-5.591304297443087,-4.039130661506106,9.321739256392283
8.42334717916925,-4.721365468072007,-3.832641041537525,9.007121822690669
8.431346559206448,-3.3884480264517576,-3.644620789419297,8.644620789419296
8.439345939243646,-3.121802025211802,-3.751279189915279,8.75127918991528
8.447345319280842,-3.2849659020458857,-4.2,7.1759454432734175
8.45534469931804,-3.2336878248843592,-4.2,7.093900519814976
8.463344079355238,-3.1824097477228332,-4.2,7.011855596356534
8.471343459392436,-3.131131670561307,-4.2,6.929810672898092
8.479342839429634,-3.079853593399781,-4.2,6.84776574943965
8.487342219466832,-3.028575516238255,-4.2,6.765720825981208
8.49534159950403,-2.9772974390767284,-4.2,6.683675902522766
8.503340979541226,-2.9260193619152135,-4.2,6.601630979064343
8.511340359578424,-2.8747412847536875,-4.2,6.519586055605901
8.519339739615623,-2.8234632075921615,-4.2,6.437541132147459
8.52733911965282,-2.5252169869808028,-3.6582610043397326,5.920869497830134
8.535338499690019,-2.825193738375728,-3.5582687538747573,5.970865623062622
8.543337879727217,-3.5662120272782785,-4.150681959082582,6.416893986360861
8.551337259764415,-3.4609351900424494,-4.42437407601698,6.51218703800849
8.55933663980161,-3.5378523057847215,-4.4551409223138885,6.5275704611569445
8.567336019838809,-3.6147694215270105,-4.485907768610804,6.542953884305402
8.575335399876007,-3.6916865372693,-4.51667461490772,6.55833730745386
8.583334779913205,-3.7686036530115894,-4.547441461204635,6.573720730602318
8.591334159950403,-3.8455207687538784,-4.578208307501551,6.5891041537507755
8.599333539987601,-4.133323000619952,-3.533353998760096,7.133323000619952
8.607332920024799,-5.207406700897093,-4.192593299102907,7.303703350448546
8.615332300061995,-5.2210808548068295,-4.178919145193171,7.3105404274034145
8.623331680099193,-5.23475500871657,-4.16524499128343,7.3173775043582845
8.631331060136391,-5.24842916262631,-4.15157083737369,7.3242145813131545
8.63933044017359,-5.2621033165360505,-4.13789668346395,7.331051658268025
8.647329820210787,-5.2757774704457905,-4.12422252955421,7.337888735222895
8.655329200247985,-5.2894516243555305,-4.11054837564447,7.344725812177765
8.663328580285183,-5.3031257782652705,-4.09687422173473,7.3515628891326354
8.67132796032238,-5.316799932175008,-4.0832000678249925,7.358399966087504
8.679327340359578,-5.330474086084748,-4.069525913915252,7.365237043042374
8.687326720396776,-5.344148239994488,-4.055851760005512,7.372074119997244
8.695326100433974,-5.357822393904228,-4.042177606095772,7.378911196952114
8.703325480471172,-5.371496547813968,-4.028503452186032,7.385748273906985
8.71132486050837,-5.385170701723708,-4.014829298276292,7.392585350861855
8.719324240545568,-5.398844855633448,-4.001155144366552,7.399422427816725
8.727323620582764,-6.095352758834471,-5.395352758834472,6.902323620582765
8.735323000619962,-6.079353998760075,-5.379353998760076,6.910323000619963
8.74332238065716,-6.063355238685679,-5.3633552386856795,6.918322380657161
8.751321760694358,-6.047356478611283,-5.3473564786112835,6.926321760694359
8.759321140731556,-6.031357718536887,-5.3313577185368874,6.934321140731557
8.767320520768754,-6.015358958462491,-5.315358958462491,6.942320520768755
8.775319900805952,-5.999360198388095,-5.299360198388095,6.950319900805953
8.783319280843148,-5.983361438313702,-5.283361438313702,6.958319280843149
8.791318660880346,-5.967362678239306,-5.267362678239306,6.966318660880347
8.799318040917544,-5.95136391816491,-5.25136391816491,6.974318040917545
8.807317420954742,-5.935365158090514,-5.235365158090514,6.982317420954743
8.81531680099194,-5.919366398016118,-5.219366398016118,6.990316800991941
8.823316181029139,-5.903367637941722,-5.203367637941722,6.998316181029139
8.831315561066337,-5.578422194668317,-4.921577805331683,6.778422194668317
8.839314941103533,-5.538425294482335,-4.961574705517665,6.738425294482335
8.84731432114073,-5.531432114073088,-4.905703657780736,6.762864228146177
8.855313701177929,-5.2,-4.310041518720995,6.903347172906999
8.863313081215127,-5.2,-4.334282064288262,6.911427354762754
8.871312461252325,-5.2,-4.3585226098555285,6.91950753661851
8.879311841289523,-5.2,-4.382763155422795,6.927587718474266
8.887311221326721,-5.2,-4.407003700990062,6.935667900330021
8.895310601363917,-5.2,-4.431244246557323,6.943748082185775
8.903309981401115,-5.2,-4.45548479212459,6.95182826404153
8.911309361438313,-5.2,-4.479725337691857,6.959908445897286
8.919308741475511,-5.2,-4.503965883259124,6.967988627753042
8.92730812151271,-5.2,-4.52820642882639,6.976068809608797
8.935307501549907,-5.2,-4.552446974393656,6.9841489914645525
8.943306881587105,-5.2,-4.576687519960923,6.9922291733203075
8.951306261624302,-5.16937383756988,-4.661252324860239,7.03062616243012
8.9593056416615,-4.721615390576551,-5.046833346249195,6.778384609423449
8.967305021698698,-4.796609578425283,-5.209320753254779,6.703390421574717
8.975304401735896,-4.871603766274014,-5.371808160260364,6.628396233725986
8.983303781773094,-4.946597954122746,-5.534295567265949,6.553402045877254
8.991303161810292,-5.021592141971477,-5.6967829742715335,6.478407858028523
8.99930254184749,-5.096586329820209,-5.859270381277118,6.403413670179791
9.007301921884686,-5.171580517668923,-6.021757788282667,6.328419482331077
9.015301301921884,-5.246574705517655,-6.184245195288251,6.253425294482345
9.023300681959082,-5.4797272163671265,-5.679727216367127,6.2
9.03130006199628,-5.689354638721679,-6.168063916165037,6.331936083834963
9.039299442033478,-5.6635501869887825,-6.090650560966346,6.409349439033654
9.047298822070676,-5.637745735255885,-6.0132372057676555,6.4867627942323445
9.055298202107872,-5.611941283522994,-5.935823850568982,6.564176149431018
9.06329758214507,-5.586136831790098,-5.858410495370292,6.641589504629708
9.071296962182268,-5.560332380057201,-5.780997140171602,6.719002859828398
9.079296342219466,-5.534527928324303,-5.703583784972911,6.796416215027089
9.087295722256664,-5.508723476591407,-5.62617042977422,6.87382957022578
9.095295102293862,-5.48291902485851,-5.548757074575529,6.951242925424471
9.10329448233106,-5.457114573125613,-5.471343719376839,7.028656280623161
9.111293862368257,-5.431310121392722,-5.393930364178165,7.106069635821835
9.119293242405455,-5.405505669659825,-5.316517008979475,7.183482991020525
9.127292622442653,-5.6067324085554855,-5.4,5.494614073155612
9.13529200247985,-5.648395846249225,-5.4,5.46128332300062
9.143291382517049,-5.690059283942965,-5.4,5.427952572845628
9.151290762554247,-5.731722721636705,-5.4,5.394621822690636
9.159290142591445,-5.773386159330444,-5.4,5.361291072535645
9.167289522628641,-5.815049597024174,-5.4,5.32796032238066
9.175288902665839,-5.856713034717914,-5.4,5.294629572225668
9.183288282703037,-5.898376472411654,-5.4,5.2612988220706765
9.191287662740235,-5.940039910105393,-5.4,5.227968071915685
9.199287042777433,-5.981703347799133,-5.4,5.194637321760693
9.207286422814631,-6.023366785492873,-5.4,5.161306571605701
9.21528580285183,-6.0650302231866124,-5.4,5.127975821450709
9.223285182889025,-6.064949557572024,-5.411683480809326,5.170100884855952
9.231284562926223,-5.846784647466643,-5.484405117511119,5.606430705066713
9.239283942963421,-5.043211407315699,-6.3,5.050619962802473
9.24728332300062,-5.033231518304014,-6.433231518304013,4.755589493898662
9.255282703037818,-5.179561640935686,-6.579561640935686,4.706812786354771
9.263282083075016,-5.325891763567359,-6.7258917635673585,4.6580360788108806
9.271281463112214,-5.472221886199033,-6.872221886199032,4.609259371266989
9.27928084314941,-5.618552008830673,-7.018552008830673,4.560482663723109
9.287280223186608,-5.764882131462346,-7.164882131462345,4.511705956179218
9.295279603223806,-5.911212254094019,-7.311212254094018,4.4629292486353265
9.303278983261004,-6.057542376725692,-7.457542376725692,4.414152541091436
9.311278363298202,-6.203872499357365,-7.603872499357364,4.365375833547545
9.3192777433354,-6.3502026219890375,-7.750202621989038,4.316599126003654
9.327277123372598,-7.413856168629896,-6.419869807811361,3.558431494110314
9.335276503409794,-7.520466858944979,-5.279533141055021,3.3272891452599724
9.343275883446992,-7.546551793848886,-5.253448206151114,3.3620690584651816
9.35127526348419,-7.572636728752793,-5.2273632712472065,3.3968489716703907
9.359274643521388,-7.5987216636567005,-5.201278336343299,3.4316288848756002
9.367274023558586,-7.624806598560607,-5.175193401439393,3.4664087980808094
9.375273403595784,-7.650891533464514,-5.149108466535486,3.501188711286019
9.383272783632982,-7.676976468368421,-5.123023531631579,3.535968624491228
9.391272163670179,-7.703061403272322,-5.096938596727678,3.5707485376964296
9.399271543707377,-7.729146338176229,-5.0708536618237705,3.6055284509016388
9.407270923744575,-7.755231273080136,-5.044768726919864,3.6403083641068483
9.415270303781773,-7.781316207984043,-5.018683792015957,3.6750882773120574
9.42326968381897,-7.8056106633603095,-5.359547427154419,3.7
9.431269063856169,-6.796484877574013,-5.796484877574013,3.392969755148026
9.439268443893367,-6.787883393663047,-5.787883393663047,3.3757667873260946
9.447267823930563,-6.779281909752084,-5.779281909752084,3.3585638195041674
9.455267203967761,-6.770680425841118,-5.770680425841118,3.341360851682236
9.463266584004959,-6.762078941930152,-5.762078941930152,3.324157883860305
9.471265964042157,-6.753477458019187,-5.753477458019187,3.3069549160383738
9.479265344079355,-6.744875974108221,-5.744875974108221,3.2897519482164426
9.487264724116553,-6.736274490197256,-5.736274490197256,3.2725489803945114
9.495264104153751,-6.72767300628629,-5.72767300628629,3.25534601257258
9.503263484190947,-6.719071522375327,-5.719071522375327,3.2381430447506525
9.511262864228145,-6.7104700384643605,-5.7104700384643605,3.2209400769287213
9.519262244265343,-6.701868554553395,-5.701868554553395,3.20373710910679
9.527261624302541,-7.2,-5.8,3.3584314941105804
9.53526100433974,-7.285882847029171,-5.784384936903787,3.045347279163255
9.543260384376937,-7.380499170049792,-5.7671819690818555,2.9851368917864955
9.551259764414135,-7.4751154930704145,-5.749979001259924,2.9249265044097363
9.559259144451332,-7.569731816091015,-5.732776033437997,2.8647161170329905
9.56725852448853,-7.664348139111637,-5.7155730656160655,2.8045057296562312
9.575257904525728,-7.758964462132259,-5.698370097794134,2.7442953422794716
9.583257284562926,-7.8535807851528805,-5.681167129972203,2.6840849549027124
9.591256664600124,-7.948197108173503,-5.663964162150272,2.623874567525953
9.599256044637322,-8.042813431194125,-5.646761194328341,2.5636641801491935
9.60725542467452,-8.137429754214747,-5.6295582265064095,2.5034537927724343
9.615254804711716,-8.232046077235347,-5.612355258684482,2.4432434053956884
9.623254184748914,-8.250836949782943,-5.3,2.6745815251085276
9.631253564786112,-8.22798765407408,-4.706996913518521,1.8
9.63925294482331,-8.296799525361806,-4.724199881340452,1.8
9.647252324860508,-8.365611396649532,-4.741402849162383,1.8
9.655251704897706,-8.434423267937257,-4.758605816984314,1.8
9.663251084934904,-8.503235139224982,-4.775808784806245,1.8
9.6712504649721,-8.57204701051269,-4.793011752628173,1.8
9.679249845009299,-8.640858881800416,-4.810214720450104,1.8
9.687249225046497,-8.70967075308814,-4.827417688272035,1.8
9.695248605083695,-8.778482624375867,-4.844620656093967,1.8
9.703247985120893,-8.847294495663592,-4.861823623915898,1.8
9.71124736515809,-8.916106366951317,-4.879026591737829,1.8
9.719246745195289,-8.984918238239041,-4.89622955955976,1.8
9.727246125232485,-8.845595446091476,-5.268393169137213,1.9386011384771311
9.735245505269683,-8.662275263484124,-5.024550526968251,1.8754494730317495
9.743244885306881,-9.28104258322814,-5.2315956946197675,1.2684043053802327
9.751244265344079,-9.252129161406943,-5.27978473098843,1.22021526901157
9.759243645381277,-9.223215739585745,-5.327973767357093,1.1720262326429074
9.767243025418475,-9.194302317764548,-5.376162803725755,1.1238371962742446
9.775242405455673,-9.16538889594335,-5.424351840094419,1.075648159905582
9.78324178549287,-9.136475474122157,-5.4725408764630705,1.02745912353693
9.791241165530067,-9.107562052300961,-5.520729912831733,0.9792700871682674
9.799240545567265,-9.078648630479764,-5.568918949200396,0.9310810507996046
9.807239925604463,-9.049735208658566,-5.617107985569058,0.882892014430942
9.815239305641661,-9.020821786837368,-5.665297021937721,0.8347029780622792
9.82323868567886,-8.925377144038015,-5.886557139904964,0.6880657160570216
9.831238065716057,-10.42858028518272,-5.580967141971201,-0.023806571605759823
9.839237445753254,-10.248791769123054,-5.086152538712874,-0.11626392304101804
9.847236825790452,-10.30272017386821,-4.96031959430751,-0.13424005795607005
9.85523620582765,-10.356648578613365,-4.8344866499021455,-0.15221619287112206
9.863235585864848,-10.410576983358522,-4.708653705496782,-0.17019232778617407
9.871234965902046,-10.464505388103678,-4.582820761091417,-0.18816846270122609
9.879234345939244,-10.518433792848834,-4.456987816686054,-0.2061445976162781
9.887233725976442,-10.572362197593991,-4.331154872280689,-0.2241207325313301
9.895233106013638,-10.626290602339134,-4.205321927875353,-0.24209686744637812
9.903232486050836,-10.680219007084292,-4.0794889834699894,-0.26007300236143016
9.911231866088034,-10.734147411829447,-3.953656039064625,-0.2780491372764822
9.919231246125232,-10.788075816574603,-3.827823094659261,-0.2960252721915342
9.92723062616243,-10.152668224521923,-3.6810672898087695,0.3810672898087696
9.935230006199628,-9.844999761552765,-3.5579999046211066,0.2579999046211067
9.943229386236826,-9.689684423812619,-3.5103155761873808,0.19484221190630968
9.951228766274022,-9.670173740795066,-3.5298262592049325,0.18508687039753385
9.95922814631122,-9.65066305777751,-3.5493369422224883,0.17533152888875586
9.967227526348418,-9.631152374759955,-3.5688476252400445,0.16557618737997787
9.975226906385616,-9.611641691742399,-3.5883583082576003,0.15582084587119988
9.983226286422815,-9.592131008724843,-3.6078689912751565,0.14606550436242188
9.991225666460013,-9.572620325707287,-3.6273796742927122,0.1363101628536439
9.99922504649721,-9.553109642689732,-3.6468903573102684,0.1265548213448659
10.007224426534407,-9.53359895967218,-3.6664010403278198,0.11679947983609008
10.015223806571605,-9.514088276654624,-3.685911723345376,0.1070441383273121
10.023223186608803,-9.314734449266448,-3.7,0.06294688985328956
10.031222566646,-8.798780739822261,-3.825914445133304,0.5246951849555652
10.039221946683199,-8.916707997520103,-3.7221946683199314,0.7221946683199315
10.047221326720397,-8.774512964516244,-3.816991356989171,0.7405302505379013
10.055220706757595,-8.746279858502604,-3.835813427664931,0.6746530031727418
10.063220086794791,-8.71804675248897,-3.8546354983406865,0.6087757558075969
10.07121946683199,-8.689813646475331,-3.8734575690164466,0.5428985084424374
10.079218846869187,-8.66158054046169,-3.892279639692206,0.4770212610772779
10.087218226906385,-8.633347434448051,-3.911101710367966,0.41114401371211834
10.095217606943583,-8.60511432843441,-3.929923781043726,0.34526676634695885
10.103216986980781,-8.576881222420772,-3.9487458517194858,0.2793895189817993
10.11121636701798,-8.548648116407131,-3.967567922395246,0.21351227161663977
10.119215747055176,-8.520415010393497,-3.9863899930710014,0.14763502425149488
10.127215127092374,-8.632269063855956,-4.478487290762696,-0.9
10.135214507129572,-8.994977332610043,-2.9502266738995613,-0.5452040065096054
10.14321388716677,-8.982478301301922,-3.0752169869807804,-0.6576952882827025
10.151213267203968,-8.9699792699938,-3.2002073000619995,-0.7701865700557995
10.159212647241166,-8.957480238685678,-3.3251976131432186,-0.8826778518288967
10.167212027278364,-8.944981207377557,-3.4501879262244373,-0.9951691336019937
10.17521140731556,-8.932482176069437,-3.575178239305629,-1.1076604153750658
10.183210787352758,-8.919983144761316,-3.7001685523868475,-1.2201516971481627
10.191210167389956,-8.907484113453194,-3.8251588654680666,-1.33264297892126
10.199209547427154,-8.789522628642295,-3.637135771853768,-1.3790452572845893
10.207208927464352,-8.896521547550122,-3.3139138097995127,-1.5104353573496345
10.21520830750155,-8.889910489668141,-3.34035804132744,-1.5302685309955801
10.223207687538748,-8.883299431786158,-3.366802272855367,-1.5501017046415255
10.231207067575944,-8.876688373904178,-3.3932465043832885,-1.5699348782874665
10.239206447613142,-8.870077316022197,-3.419690735911216,-1.589768051933412
10.24720582765034,-8.863466258140214,-3.4461349674391433,-1.6096012255793575
10.255205207687538,-8.856855200258233,-3.4725791989670705,-1.6294343992253029
10.263204587724736,-8.850244142376251,-3.4990234304949976,-1.6492675728712483
10.271203967761934,-8.84363308449427,-3.525467662022925,-1.6691007465171936
10.279203347799132,-8.837022026612287,-3.5519118935508525,-1.6889339201631393
10.287202727836329,-8.830410968730307,-3.5783561250787734,-1.7087670938090802
10.295202107873527,-8.823799910848326,-3.604800356606701,-1.7286002674550256
10.303201487910725,-8.817188852966344,-3.6312445881346282,-1.7484334411009712
10.311200867947923,-8.810577795084361,-3.6576888196625554,-1.7682666147469166
10.31920024798512,-8.80396673720238,-3.6841330511904826,-1.788099788392862
10.327199628022319,-8.45998140111595,-3.420055796652152,-1.4800371977681013
10.335199008059517,-8.5,-3.4799752014879295,-1.4599917338293098
10.343198388096713,-8.503853479634595,-3.6038534796345942,-1.4922930407308115
10.351197768133911,-8.513491286908327,-3.613491286908327,-1.4730174261833464
10.35919714817111,-8.523129094182059,-3.6231290941820595,-1.4537418116358813
10.367196528208307,-8.532766901455792,-3.632766901455792,-1.4344661970884163
10.375195908245505,-8.542404708729524,-3.6424047087295244,-1.4151905825409512
10.383195288282703,-8.552042516003256,-3.6520425160032572,-1.3959149679934861
10.391194668319901,-8.56168032327699,-3.6616803232769897,-1.376639353446021
10.399194048357097,-8.57131813055072,-3.67131813055072,-1.3573637388985602
10.407193428394296,-8.580955937824452,-3.6809559378244527,-1.3380881243510951
10.415192808431494,-8.590593745098184,-3.690593745098185,-1.31881250980363
10.423192188468692,-8.619218846869144,-3.6327340359579936,-1.2423434593925657
10.43119156850589,-9.1,-3.4712647241164474,0.2287352758835528
10.439190948543088,-9.07889449360311,-3.1859296624020734,0.5140703375979266
10.447190328580286,-9.051623879839935,-3.167749253226624,0.5322507467733765
10.455189708617482,-9.024353266076767,-3.1495688440511778,0.5504311559488222
10.46318908865468,-8.997082652313592,-3.131388434875728,0.5686115651242721
10.471188468691878,-8.969812038550417,-3.113208025700278,0.586791974299722
10.479187848729076,-8.942541424787242,-3.095027616524828,0.6049723834751718
10.487187228766274,-8.915270811024067,-3.0768472073493784,0.6231527926506216
10.495186608803472,-8.888000197260894,-3.0586667981739284,0.6413332018260715
10.50318598884067,-8.860729583497719,-3.040486388998479,0.6595136110015214
10.511185368877866,-8.83345896973455,-3.0223059798230327,0.6776940201769671
10.519184748915064,-8.806188355971376,-3.004125570647583,0.6958744293524171
10.527184128952262,-9.263174209547435,-3.2815871047737173,1.3184128952262828
10.53518350898946,-9.115448406428946,-3.215448406428946,1.4077242032144728
10.543182889026658,-9.132651374250877,-3.232651374250877,1.4163256871254386
10.551182269063856,-9.149854342072809,-3.2498543420728083,1.4249271710364042
10.559181649101054,-9.167057309894739,-3.2670573098947395,1.4335286549473698
10.56718102913825,-9.184260277716668,-3.284260277716667,1.4421301388583334
10.575180409175449,-9.201463245538598,-3.3014632455385984,1.450731622769299
10.583179789212647,-9.21866621336053,-3.3186662133605296,1.4593331066802646
10.591179169249845,-9.235869181182462,-3.335869181182461,1.4679345905912304
10.599178549287043,-9.253072149004392,-3.353072149004392,1.476536074502196
10.60717792932424,-9.270275116826324,-3.370275116826323,1.4851375584131616
10.615177309361439,-9.287478084648255,-3.3874780846482544,1.4937390423241272
10.623176689398635,-9.464662120272905,-3.8353378797270943,1.3
10.631176069435833,-9.496584871574374,-4.193169743148746,1.3034151284256268
10.639175449473031,-9.487983387663407,-4.175966775326815,1.3120166123365924
10.647174829510229,-9.479381903752442,-4.158763807504884,1.320618096247558
10.655174209547427,-9.470780419841477,-4.141560839682953,1.3292195801585236
10.663173589584625,-9.462178935930512,-4.124357871861021,1.3378210640694892
10.671172969621821,-9.453577452019546,-4.107154904039094,1.346422547980453
10.67917234965902,-9.444975968108581,-4.089951936217163,1.3550240318914186
10.687171729696217,-9.436374484197616,-4.072748968395231,1.3636255158023842
10.695171109733415,-9.42777300028665,-4.0555460005733,1.3722269997133498
10.703170489770613,-9.419171516375684,-4.038343032751369,1.3808284836243154
10.711169869807811,-9.410570032464719,-4.021140064929438,1.389429967535281
10.71916924984501,-9.401968548553754,-4.003937097107507,1.3980314514462466
10.727168629882206,-8.986310094121674,-4.175793270585551,1.4136899058783265
10.735168009919404,-8.74159950402983,-4.241599504029829,1.4831990080596589
10.743167389956602,-8.38144933526212,-3.4036233381553003,0.9221740028931801
10.7511667699938,-8.251314973733153,-3.1513149737331534,0.8892558814892189
10.759166150030998,-8.188161973439486,-3.0881619734394854,1.0050363820276105
10.767165530068196,-8.125008973145817,-3.025008973145817,1.120816882566002
10.775164910105394,-8.061855972852149,-2.961855972852149,1.2365973831043937
10.78316429014259,-7.998702972558495,-2.8987029725584947,1.3523778836427596
10.791163670179788,-7.935549972264827,-2.8355499722648267,1.4681583841811514
10.799163050216986,-7.872396971971159,-2.7723969719711583,1.583938884719543
10.807162430254184,-7.809243971677491,-2.7092439716774903,1.6997193852579346
10.815161810291382,-7.746090971383822,-2.6460909713838223,1.8154998857963263
10.82316119032858,-8.538654680719384,-3.1,4.012833230006488
10.831160570365778,-9.372839103338011,-2.8054321793323975,5.310864358664795
10.839159950402975,-9.330737103142242,-2.8138525793715514,5.327705158743103
10.847159330440173,-9.288635102946461,-2.8222729794107075,5.344545958821415
10.85515871047737,-9.246533102750682,-2.8306933794498637,5.3613867588997275
10.863158090514569,-9.204431102554903,-2.8391137794890193,5.378227558978039
10.871157470551767,-9.162329102359124,-2.8475341795281754,5.395068359056351
10.879156850588965,-9.120227102163344,-2.855954579567331,5.411909159134662
10.887156230626163,-9.078125101967563,-2.8643749796064872,5.428749959212975
10.895155610663359,-9.036023101771795,-2.872795379645641,5.4455907592912824
10.903154990700557,-8.993921101576014,-2.8812157796847973,5.462431559369595
10.911154370737755,-8.951819101380234,-2.889636179723953,5.479272359447906
10.919153750774953,-8.909717101184455,-2.898056579763109,5.496113159526218
10.927153130812151,-8.97687538747672,-4.2460942343459,5.33078115313082
10.935152510849349,-9.08937355893478,-3.58937355893478,6.10708429404348
10.943151890886547,-9.062409356562203,-3.5624093565622026,6.125060428958531
10.951151270923743,-9.035445154189631,-3.535445154189631,6.143036563873579
10.959150650960941,-9.008480951817054,-3.5084809518170537,6.161012698788631
10.96715003099814,-8.981516749444475,-3.481516749444476,6.1789888337036825
10.975149411035337,-8.954552547071899,-3.4545525470718985,6.196964968618734
10.983148791072535,-8.927588344699322,-3.4275883446993207,6.214941103533786
10.991148171109733,-8.900624142326745,-3.4006241423267434,6.232917238448837
10.999147551146931,-8.873659939954166,-3.373659939954166,6.250893373363889
11.007146931184128,-8.846695737581594,-3.3466957375815944,6.268869508278937
11.015146311221326,-8.819731535209018,-3.319731535209017,6.286845643193988
11.023145691258524,-8.6927154370738,-2.856292622442803,6.507284562926199
11.031145071295722,-7.4932364058156535,-2.6,6.4932364058156535
11.03914445133292,-7.476033437993722,-2.6,6.476033437993722
11.047143831370118,-7.45883047017179,-2.6,6.45883047017179
11.055143211407316,-7.441627502349859,-2.6,6.441627502349859
11.063142591444512,-7.424424534527932,-2.6,6.424424534527932
11.07114197148171,-7.407221566706001,-2.6,6.407221566706001
11.079141351518908,-7.39001859888407,-2.6,6.39001859888407
11.087140731556106,-7.372815631062139,-2.6,6.372815631062139
11.095140111593304,-7.355612663240207,-2.6,6.355612663240207
11.103139491630502,-7.338409695418275,-2.6,6.338409695418275
11.1111388716677,-7.321206727596344,-2.6,6.321206727596344
11.119138251704896,-7.304003759774417,-2.6,6.304003759774417
11.127137631742094,-6.47431099588574,-1.8247703319619135,6.81284450205713
11.135137011779292,-6.13790039264307,-1.586298822070789,6.7725976441415785
11.14313639181649,-5.374778098679933,-1.135310661848095,6.774778098679932
11.151135771853689,-5.326001391136042,-1.203598052409541,6.726001391136042
11.159135151890887,-5.277224683592153,-1.271885442970987,6.6772246835921525
11.167134531928085,-5.228447976048263,-1.3401728335324328,6.628447976048262
11.17513391196528,-5.179671268504384,-1.4084602240938637,6.5796712685043826
11.183133292002479,-5.130894560960494,-1.4767476146553096,6.530894560960493
11.191132672039677,-5.082117853416603,-1.5450350052167554,6.482117853416603
11.199132052076875,-5.033341145872714,-1.6133223957782015,6.433341145872713
11.207131432114073,-4.984564438328824,-1.6816097863396473,6.384564438328823
11.215130812151271,-4.935787730784934,-1.7498971769010931,6.335787730784933
11.223130192188469,-5.121884686919028,-0.882827030378542,6.778115313080972
11.231129572225665,-4.390611283323004,-0.9125182889026618,7.212518288902662
11.239128952262863,-4.36661314321141,-0.944515809051454,7.244515809051454
11.247128332300061,-4.342615003099816,-0.9765133292002464,7.276513329200246
11.25512771233726,-4.318616862988221,-1.0085108493490385,7.308510849349038
11.263127092374457,-4.294618722876627,-1.0405083694978308,7.34050836949783
11.271126472411655,-4.270620582765033,-1.0725058896466229,7.3725058896466225
11.279125852448853,-4.246622442653439,-1.1045034097954152,7.404503409795415
11.28712523248605,-4.22262430254185,-1.1365009299442002,7.4365009299442
11.295124612523248,-4.198626162430256,-1.1684984500929925,7.4684984500929925
11.303123992560446,-4.174628022318661,-1.2004959702417846,7.500495970241785
11.311123372597644,-4.150629882207067,-1.2324934903905769,7.532493490390577
11.319122752634842,-4.126631742095473,-1.264491010539369,7.564491010539369
11.32712213267204,-4.102633601983879,-1.2964885306881613,7.596488530688161
11.335121512709238,-3.3012890950680895,-0.5012890950680898,8.2
11.343120892746434,-3.3104837847660162,-0.5104837847660165,8.2
11.351120272783632,-3.319678474463945,-0.5196784744639453,8.2
11.35911965282083,-3.328873164161874,-0.5288731641618741,8.2
11.367119032858028,-3.3380678538598025,-0.5380678538598029,8.2
11.375118412895226,-3.3472625435577315,-0.5472625435577316,8.2
11.383117792932424,-3.3564572332556604,-0.5564572332556604,8.2
11.391117172969622,-3.3656519229535893,-0.5656519229535892,8.2
11.399116553006818,-3.374846612651516,-0.5748466126515159,8.2
11.407115933044016,-3.384041302349445,-0.5840413023494447,8.2
11.415115313081214,-3.3932359920473734,-0.5932359920473735,8.2
11.423114693118412,-3.2885306881587546,-0.5770613763175093,8.211469311841245
11.43111407315561,-2.70669693151744,0.2066969315174401,8.703348465758719
11.439113453192808,-2.7238998993393713,0.22389989933937132,8.711949949669686
11.447112833230007,-2.7411028671613025,0.24110286716130255,8.72055143358065
11.455112213267203,-2.75830583498323,0.25830583498322995,8.729152917491614
11.4631115933044,-2.7755088028051613,0.2755088028051612,8.737754401402581
11.471110973341599,-2.7927117706270925,0.2927117706270924,8.746355885313546
11.479110353378797,-2.8099147384490237,0.3099147384490237,8.754957369224512
11.487109733415995,-2.827117706270955,0.32711770627095493,8.763558853135478
11.495109113453193,-2.844320674092886,0.34432067409288614,8.772160337046444
11.50310849349039,-2.8615236419148173,0.3615236419148174,8.780761820957409
11.511107873527587,-2.8787266097367445,0.3787266097367448,8.789363304868372
11.519107253564785,-2.8959295775586757,0.3959295775586761,8.797964788779339
11.527106633601983,-2.788970298145767,0.3444851490728836,8.911029701854233
11.535106013639181,-3.2318040917543347,0.6106013639181116,9.089398636081889
11.54310539367638,-3.844347753768932,1.4,8.449808718793943
11.551104773713577,-3.600464216049477,1.4,8.527851450864167
11.559104153750775,-3.356580678330022,1.4,8.605894182934392
11.567103533787972,-3.112697140610621,1.4,8.683936915004601
11.57510291382517,-2.868813602891166,1.4,8.761979647074826
11.583102293862368,-2.624930065171711,1.4,8.840022379145053
11.591101673899566,-2.3810465274522565,1.4,8.918065111215277
11.599101053936764,-2.1371629897328015,1.4,8.996107843285504
11.607100433973962,-1.893279452013346,1.4,9.074150575355729
11.61509981401116,-1.6493959142938914,1.4,9.152193307425954
11.623099194048356,-3.230564166150427,0.6,8.519838809671306
11.631098574085554,-3.46947870361822,0.5348814815791768,9.008720370394794
11.639097954122752,-3.4099088522773835,0.6029613116829902,9.025740327920747
11.64709733415995,-3.350339000936547,0.6710411417868036,9.0427602854467
11.655096714197148,-3.29076914959571,0.739120971890617,9.059780242972653
11.663096094234346,-3.2311992982548734,0.8072008019944303,9.076800200498607
11.671095474271544,-3.1716294469140367,0.8752806320982438,9.093820158024561
11.67909485430874,-3.1120595955732133,0.943360462202042,9.110840115550511
11.687094234345938,-3.0524897442323766,1.0114402923058554,9.127860073076464
11.695093614383136,-2.99291989289154,1.0795201224096687,9.144880030602417
11.703092994420334,-2.9333500415507032,1.1475999525134823,9.16189998812837
11.711092374457532,-2.8737801902098665,1.2156797826172956,9.178919945654323
11.71909175449473,-2.8142103388690294,1.2837596127211088,9.195939903180276
11.727091134531928,-2.0,0.6997663217130048,9.599415804282511
11.735090514569125,-2.0,0.6792550908483989,9.548137727120997
11.743089894606323,-2.0,0.6587438599837885,9.49685964995947
11.75108927464352,-2.0,0.638232629119178,9.445581572797945
11.759088654680719,-2.0,0.6177213982545675,9.394303495636418
11.767088034717917,-2.0,0.597210167389957,9.343025418474893
11.775087414755115,-2.0,0.5766989365253465,9.291747341313366
11.783086794792313,-2.0,0.556187705660736,9.24046926415184
11.791086174829509,-2.0,0.5356764747961302,9.189191186990325
11.799085554866707,-2.0,0.5151652439315197,9.1379131098288
11.807084934903905,-1.2084934903904707,0.9943376730730196,9.691506509609528
11.815084314941103,-1.9942102362747152,1.0961401575164769,9.796140157516477
11.823083694978301,-1.9719897361713872,1.0813264907809248,9.781326490780925
11.8310830750155,-1.949769236068059,1.0665128240453727,9.766512824045373
11.839082455052697,-1.927548735964731,1.0516991573098207,9.75169915730982
11.847081835089893,-1.9053282358614076,1.036885490574272,9.736885490574272
11.855081215127091,-1.8831077357580797,1.0220718238387199,9.72207182383872
11.86308059516429,-1.8608872356547514,1.0072581571031678,9.707258157103167
11.871079975201487,-1.8386667355514235,0.9924444903676157,9.692444490367615
11.879079355238686,-1.8164462354480952,0.9776308236320637,9.677630823632065
11.887078735275884,-1.7942257353447673,0.9628171568965116,9.662817156896512
11.895078115313082,-1.772005235241439,0.9480034901609595,9.64800349016096
11.903077495350278,-1.749784735138116,0.9331898234254107,9.633189823425411
11.911076875387476,-1.7275642350347877,0.9183761566898586,9.618376156689859
11.919076255424674,-1.7053437349314597,0.9035624899543065,9.603562489954307
11.927075635461872,-1.104544938571289,1.001514979523763,9.596970040952474
11.93507501549907,-1.1383451359115626,1.012781711970521,9.574436576058957
11.943074395536268,-1.172145333251836,1.0240484444172786,9.551903111165442
11.951073775573466,-1.2059455305921094,1.0353151768640365,9.529369646271928
11.959073155610662,-1.2397457279323754,1.0465819093107918,9.506836181378416
11.96707253564786,-1.2735459252726489,1.0578486417575497,9.484302716484901
11.975071915685058,-1.3073461226129224,1.0691153742043076,9.461769251591384
11.983071295722256,-1.3411463199531957,1.0803821066510653,9.43923578669787
11.991070675759454,-1.3749465172934692,1.0916488390978232,9.416702321804355
11.999070055796652,-1.7929944203348205,1.00350278983259,9.296497210167411
12.00706943583385,-1.6976747911979218,1.0976747911979219,9.790699164791688
12.015068815871047,-1.6886867237403977,1.0886867237403979,9.754746894961592
12.023068195908245,-1.6796986562828717,1.0796986562828719,9.718794625131487
12.031067575945443,-1.6707105888253457,1.0707105888253459,9.682842355301384
12.03906695598264,-1.6617225213678197,1.0617225213678199,9.646890085471279
12.047066336019839,-1.6527344539102937,1.0527344539102939,9.610937815641176
12.055065716057037,-1.6437463864527677,1.0437463864527678,9.57498554581107
12.063065096094235,-1.634758318995242,1.0347583189952418,9.539033275980968
12.071064476131431,-1.625770251537718,1.0257702515377178,9.503081006150872
12.079063856168629,-1.616782184080192,1.0167821840801918,9.467128736320767
12.087063236205827,-1.607794116622666,1.0077941166226658,9.431176466490664
12.095062616243025,-1.6265654060756376,1.0,9.360151890886543
12.103061996280223,-1.6938003719776669,1.1592994420334999,9.843397396156332
12.111061376317421,-1.53980857777747,0.2454955174599657,9.794313060317505
12.119060756354619,-1.6027250499801509,0.31740005712017233,9.785324992859978
12.127060136391815,-1.6656415221828176,0.38930459678036294,9.776336925402456
12.135059516429013,-1.7285579943854985,0.46120913644056954,9.76734885794493
12.143058896466211,-1.7914744665881792,0.5331136761007762,9.758360790487403
12.15105827650341,-1.8543909387908601,0.6050182157609828,9.749372723029877
12.159057656540607,-1.9173074109935409,0.6769227554211894,9.74038465557235
12.167057036577805,-1.9802238831962216,0.7488272950813961,9.731396588114825
12.175056416615003,-2.0431403553989025,0.8207318347416026,9.7224085206573
12.1830557966522,-2.106056827601569,0.8926363744017933,9.713420453199776
12.191055176689398,-2.16897329980425,0.9645409140619998,9.70443238574225
12.199054556726596,-0.8672659640424218,0.8727216367020182,9.710911345319191
12.207053936763794,-0.3333256854982416,0.43332568549824163,9.850011471752637
12.215053316800992,-0.371118032130673,0.47111803213067305,9.79332295180399
12.22305269683819,-0.40891037876310443,0.5089103787631044,9.736634431855343
12.231052076875388,-0.4467027253955358,0.5467027253955359,9.679945911906696
12.239051456912584,-0.48449507202795883,0.5844950720279588,9.623257391958061
12.247050836949782,-0.5222874186603903,0.6222874186603903,9.566568872009414
12.25505021698698,-0.5600797652928217,0.6600797652928216,9.509880352060767
12.263049597024178,-0.597872111925253,0.6978721119252531,9.45319183211212
12.271048977061376,-0.6356644585576845,0.7356644585576845,9.396503312163473
12.279048357098574,-0.6734568051901159,0.7734568051901158,9.339814792214826
12.287047737135772,-0.7112491518225472,0.8112491518225473,9.283126272266179
12.295047117172968,-0.7490414984549703,0.8490414984549702,9.226437752317544
12.303046497210167,-0.7868338450874017,0.8868338450874016,9.169749232368897
12.311045877247365,-0.8246261917198332,0.9246261917198331,9.11306071242025
12.319045257284563,-0.8624185383522645,0.9624185383522644,9.056372192471603
12.32704463732176,-0.9092708283656699,0.9965663598645668,8.999656635986456
12.335044017358959,-2.570680528399118,0.3812294339262525,8.938122943392626
12.343043397396155,-0.7825790452565744,0.26955982641028625,9.565220086794856
12.351042777433353,-2.560705630389459,0.1,8.906549061601757
12.359042157470551,-2.498372798930773,0.1,8.916937866844872
12.367041537507749,-2.436039967472087,0.1,8.927326672087986
12.375040917544947,-2.373707136013401,0.1,8.9377154773311
12.383040297582145,-2.311374304554715,0.1,8.948104282574214
12.391039677619343,-2.249041473096029,0.1,8.95849308781733
12.39903905765654,-2.186708641637357,0.1,8.968881893060441
12.407038437693737,-2.124375810178671,0.1,8.979270698303555
12.415037817730935,-2.062042978719985,0.1,8.989659503546669
12.423037197768133,-1.9665220086800401,0.10371977681332888,9.022318660879973
12.431036577805331,-1.6036577805332128,0.1963422194667873,9.403657780533212
12.43903595784253,-1.7231954654149308,0.1,9.515463643609953
12.447035337879727,-1.7495670479551442,0.1,9.533044698636763
12.455034717916924,-1.775938630495352,0.1,9.550625753663567
12.463034097954122,-1.8023102130355653,0.1,9.568206808690377
12.47103347799132,-1.8286817955757788,0.1,9.585787863717185
12.479032858028518,-1.8550533781159924,0.1,9.603368918743994
12.487032238065716,-1.8814249606562057,0.1,9.620949973770804
12.495031618102914,-1.9077965431964192,0.1,9.638531028797612
12.503030998140112,-1.9341681257366328,0.1,9.656112083824421
12.511030378177308,-1.9605397082768403,0.1,9.673693138851226
12.519029758214506,-1.9869112908170536,0.1,9.691274193878035
12.527029138251704,-1.8456292622444135,0.1514569125851955,9.648543087414804
12.535028518288902,-2.01324949074484,0.18675050925515999,9.4
12.5430278983261,-2.030830545771649,0.169169454228351,9.4
12.551027278363298,-2.048411600798458,0.15158839920154205,9.4
12.559026658400496,-2.065992655825267,0.13400734417473306,9.4
12.567026038437692,-2.083573710852072,0.11642628914792798,9.4
12.57502541847489,-2.101154765878881,0.09884523412111901,9.4
12.583024798512088,-2.11873582090569,0.08126417909431002,9.4
12.591024178549286,-2.136316875932499,0.06368312406750104,9.4
12.599023558586484,-2.153897930959308,0.046102069040692084,9.4
12.607022938623683,-2.171478985986117,0.0285210140138831,9.4
12.61502231866088,-2.189060041012926,0.010939958987074117,9.4
12.623021698698077,-1.7007232899359148,0.09981917751602132,9.599457532548064
12.631021078735275,-1.9673692911758387,0.03315767720604032,9.399473031618122
12.639020458772473,-2.1065909160204477,-0.006590916020447604,9.3
12.64701983880967,-2.119704653786346,-0.019704653786346015,9.3
12.655019218846869,-2.1328183915522447,-0.032818391552244426,9.3
12.663018598884067,-2.145932129318143,-0.045932129318142834,9.3
12.671017978921265,-2.1590458670840413,-0.05904586708404125,9.3
12.679017358958461,-2.172159604849937,-0.07215960484993675,9.3
12.68701673899566,-2.1852733426158353,-0.08527334261583516,9.3
12.695016119032857,-2.1983870803817336,-0.09838708038173356,9.3
12.703015499070055,-2.150774953502769,-0.12538747675138456,9.474612523248615
12.711014879107253,-2.1953851964284454,-0.19538519642844537,9.504614803571554
12.719014259144451,-2.186190506730517,-0.1861905067305166,9.513809493269484
12.72701363918165,-2.176995817032588,-0.17699581703258782,9.523004182967412
12.735013019218846,-2.1678011273346613,-0.16780112733466107,9.532198872665338
12.743012399256044,-2.1586064376367324,-0.15860643763673227,9.541393562363268
12.751011779293242,-2.1494117479388035,-0.14941174793880346,9.550588252061196
12.75901115933044,-2.1402170582408746,-0.1402170582408747,9.559782941759124
12.767010539367638,-2.131022368542946,-0.1310223685429459,9.568977631457054
12.775009919404836,-2.121827678845017,-0.1218276788450171,9.578172321154982
12.783009299442034,-2.1126329891470883,-0.11263298914708832,9.587367010852912
12.79100867947923,-2.1034382994491616,-0.10343829944916157,9.596561700550838
12.799008059516428,-2.000041119981778,0.29995888001822213,9.200041119981778
12.807007439553626,-2.0408542834368695,0.2591457165631305,9.24085428343687
12.815006819590824,-2.081667446891961,0.21833255310803884,9.28166744689196
12.823006199628022,-2.122480610347053,0.17751938965294722,9.322480610347052
12.83100557966522,-2.1632937738021445,0.13670622619785558,9.363293773802143
12.839004959702418,-2.204106937257236,0.09589306274276393,9.404106937257236
12.847004339739614,-2.2449201007123185,0.055079899287681366,9.444920100712318
12.855003719776812,-2.28573326416741,0.014266735832589694,9.48573326416741
12.86300309981401,-2.326546427622502,-0.026546427622501922,9.5265464276225
12.871002479851208,-2.3673595910775935,-0.06735959107759354,9.567359591077594
12.879001859888406,-2.408172754532685,-0.10817275453268521,9.608172754532685
12.887001239925604,-2.448985917987777,-0.14898591798777683,9.648985917987776
12.895000619962802,-2.4897990814428685,-0.1897990814428685,9.689799081442867
12.903,-2.1,-0.1,9.3
