accel_time_list,vertical_Accel_x,vertical_Accel_y,vertical_Accel_z
0.0,-0.056,-9.089,-3.189
0.007996519721577725,0.20776305104408352,-9.520831279002321,-3.0829537050464038
0.01599303944315545,0.17777610208816708,-9.477683391337974,-3.1175219934261404
0.023989559164733176,0.1477891531322506,-9.434535503673628,-3.1520902818058776
0.0319860788863109,0.11780220417633412,-9.39138761600928,-3.1866585701856147
0.03998259860788862,0.08781525522041767,-9.348239728344934,-3.221226858565352
0.04797911832946635,0.05782830626450117,-9.30509184068059,-3.255795146945089
0.05597563805104408,0.027841357308584697,-9.261943953016242,-3.2903634353248257
0.0639721577726218,-0.0021455916473317738,-9.218796065351896,-3.324931723704563
0.07196867749419952,-0.03213254060324819,-9.175648177687549,-3.3595000120843
0.07996519721577725,-0.06211948955916466,-9.132500290023202,-3.394068300464037
0.08796171693735498,-0.09210643851508118,-9.089352402358855,-3.4286365888437738
0.0959582366589327,-0.1220933874709976,-9.046204514694509,-3.463204877223511
0.10395475638051042,0.029764501160093278,-9.202219837587005,-3.1067441995359633
0.11195127610208816,-0.07801823002983083,-9.204890619821015,-2.9180364600596618
0.11994779582366588,-0.09204168333466678,-9.108770941675335,-2.973714830519775
0.1279443155452436,-0.09093871509720777,-9.101601648131851,-3.0033111448915912
0.13594083526682132,-0.08983574685974878,-9.094432354588367,-3.0329074592634075
0.14393735498839905,-0.08873277862228979,-9.087263061044885,-3.062503773635224
0.15193387470997677,-0.0876298103848308,-9.0800937675014,-3.0921000880070406
0.1599303944315545,-0.0865268421473718,-9.072924473957917,-3.121696402378857
0.16792691415313224,-0.0854238739099128,-9.065755180414433,-3.1512927167506732
0.17592343387470996,-0.0843209056724538,-9.05858588687095,-3.1808890311224896
0.18391995359628768,-0.08321793743499481,-9.051416593327467,-3.2104853454943063
0.1919164733178654,-0.0821149691975358,-9.044247299783983,-3.2400816598661226
0.19991299303944313,-0.08101200096007681,-9.0370780062405,-3.269677974237939
0.20790951276102085,-0.16954358634404854,-8.760912827311902,-3.092135896586012
0.21590603248259857,-0.1966690255220422,-8.459199187935035,-3.233886504253673
0.22390255220417632,-0.07165676720804337,-8.374169528228926,-3.385376127868007
0.23189907192575404,0.053355491105955,-8.289139868522815,-3.5368657514823405
0.23989559164733176,0.17836774941995343,-8.204110208816706,-3.688355375096674
0.24789211136890948,0.30338000773395185,-8.119080549110596,-3.8398449987110075
0.2558886310904872,0.42839226604795017,-8.034050889404487,-3.991334622325341
0.26388515081206493,0.5534045243619485,-7.949021229698376,-4.142824245939675
0.27188167053364265,0.6784167826759471,-7.863991569992267,-4.294313869554008
0.27987819025522037,0.8034290409899454,-7.7789619102861565,-4.4458034931683414
0.2878747099767981,0.9284412993039439,-7.693932250580048,-4.597293116782675
0.2958712296983758,1.0534535576179422,-7.608902590873937,-4.748782740397009
0.30386774941995354,1.2606269855434578,-8.436985008031412,-4.185183473139387
0.31186426914153126,1.4599248616812406,-8.326263965732645,-4.555483847938601
0.319860788863109,1.5131203829639714,-8.276987839027122,-4.7114097394458225
0.32785730858468676,1.409809024721978,-8.293532362589007,-4.637694695575646
0.3358538283062645,1.3064976664799854,-8.310076886150892,-4.56397965170547
0.3438503480278422,1.2031863082379928,-8.326621409712777,-4.490264607835294
0.3518468677494199,1.0998749499960003,-8.343165933274662,-4.416549563965117
0.35984338747099764,0.9965635917540077,-8.359710456836547,-4.342834520094941
0.36783990719257537,0.893252233512015,-8.376254980398432,-4.269119476224765
0.3758364269141531,0.7899408752700224,-8.392799503960317,-4.1954044323545885
0.3838329466357308,0.6866295170280299,-8.409344027522202,-4.121689388484413
0.39182946635730853,0.5833181587860372,-8.425888551084087,-4.047974344614237
0.39982598607888625,0.48000680054404454,-8.44243307464597,-3.97425930074406
0.407822505800464,0.5851562258314129,-8.486305491105963,-3.816674787316325
0.4158190255220417,-0.21207764887857689,-8.003296983758702,-3.4030515081206496
0.4238155452436194,-0.22042956947666917,-7.945988592420727,-3.37426403712297
0.43181206496519714,-0.22878149007476145,-7.888680201082754,-3.3454765661252903
0.43980858468677486,-0.23713341067285376,-7.83137180974478,-3.3166890951276105
0.44780510440835264,-0.24548533127094607,-7.774063418406806,-3.2879016241299306
0.45580162412993036,-0.2538372518690384,-7.7167550270688325,-3.2591141531322507
0.4637981438515081,-0.26218917246713064,-7.659446635730859,-3.230326682134571
0.4717946635730858,-0.27054109306522295,-7.6021382443928855,-3.201539211136891
0.4797911832946635,-0.2788930136633152,-7.544829853054912,-3.172751740139211
0.48778770301624125,-0.2872449342614075,-7.487521461716938,-3.1439642691415317
0.49578422273781897,-0.2955968548594998,-7.430213070378964,-3.115176798143852
0.5037807424593966,-0.08561020881671658,-6.924059164733185,-2.8665910672853863
0.5117772621809744,-0.7879494798293545,-6.433510316094105,-3.486253049921413
0.5197737819025522,-0.7376487912581394,-6.431016777686301,-3.508436943342564
0.5277703016241299,-0.687348102686925,-6.428523239278497,-3.530620836763715
0.5357668213457076,-0.63704741411571,-6.426029700870693,-3.5528047301848664
0.5437633410672853,-0.5867467255444956,-6.423536162462889,-3.5749886236060173
0.5517598607888631,-0.5364460369732806,-6.421042624055086,-3.5971725170271682
0.5597563805104407,-0.4861453484020662,-6.418549085647282,-3.6193564104483196
0.5677529002320185,-0.43584465983085113,-6.416055547239478,-3.6415403038694705
0.5757494199535962,-0.3855439712596368,-6.413562008831674,-3.6637241972906214
0.583745939675174,-0.33524328268842174,-6.41106847042387,-3.6859080907117727
0.5917424593967516,-0.28494259411720735,-6.408574932016067,-3.7080919841329236
0.5997389791183294,-0.2346419055459923,-6.406081393608263,-3.730275877554075
0.6077354988399071,-2.329044083526651,-6.496136890951286,-5.781607888631048
0.6157320185614849,-3.2385900961964604,-6.056976068197817,-7.214419145441746
0.6237285382830625,-3.1348150368883454,-5.815283505826537,-7.407773195338771
0.6317250580046403,-3.0310399775802295,-5.573590943455254,-7.601127245235797
0.639721577726218,-2.927264918272115,-5.331898381083973,-7.7944812951328215
0.6477180974477957,-2.8234898589639985,-5.09020581871269,-7.987835345029849
0.6557146171693735,-2.7197147996558826,-4.848513256341406,-8.181189394926875
0.6637111368909512,-2.615939740347768,-4.606820693970127,-8.3745434448239
0.671707656612529,-2.5121646810396516,-4.365128131598842,-8.567897494720926
0.6797041763341066,-2.408389621731537,-4.123435569227563,-8.76125154461795
0.6877006960556844,-2.304614562423421,-3.881743006856279,-8.954605594514977
0.6956972157772621,-2.200839503115306,-3.640050444484999,-9.147959644412001
0.7036937354988398,-2.7889048723897902,-1.556727378190256,-9.657921113689094
0.7116902552204175,-3.1656298014952267,-1.2026592549626232,-9.886266176849702
0.7196867749419953,-3.2886295436968433,-0.4291624129930683,-9.883473317865443
0.727683294663573,-2.3305038267996547,1.2350942236417846,-9.126862205080302
0.7356798143851507,-2.031517069937026,1.4448730527013571,-9.064759363606232
0.7436763341067284,-1.7325303130744019,1.6546518817609268,-9.002656522132161
0.7516728538283062,-1.4335435562117733,1.8644307108204994,-8.94055368065809
0.7596693735498838,-1.1345567993491488,2.0742095398800693,-8.87845083918402
0.7676658932714616,-0.8355700424865202,2.283988368939642,-8.816347997709947
0.7756624129930394,-0.5365832856238919,2.4937671979992144,-8.754245156235877
0.7836589327146171,-0.23759652876126713,2.703546027058784,-8.692142314761806
0.7916554524361948,0.06139022810136119,2.913324856118357,-8.630039473287734
0.7996519721577725,0.460200696055654,3.287900232018517,-8.687095127610181
0.8076484918793503,0.15605867107666277,5.718713605173517,-8.22415827861974
0.815645011600928,0.30186755195734494,6.013223725132047,-7.996938021424699
0.8236415313225057,0.4476764328380291,6.307733845090581,-7.769717764229653
0.8316380510440834,0.5934853137187113,6.602243965049112,-7.542497507034611
0.8396345707656612,0.7392941945993955,6.896754085007647,-7.315277249839566
0.8476310904872388,0.8851030754800776,7.191264204966178,-7.088056992644523
0.8556276102088166,1.0309119563607618,7.485774324924712,-6.860836735449478
0.8636241299303943,1.1767208372414442,7.780284444883243,-6.633616478254436
0.8716206496519721,1.3225297181221283,8.074794564841778,-6.40639622105939
0.8796171693735497,1.4683385990028102,8.369304684800309,-6.179175963864349
0.8876136890951275,1.6141474798834943,8.663814804758843,-5.951955706669303
0.8956102088167053,1.7599563607641788,8.958324924717378,-5.724735449474258
0.9036067285382829,1.7169002320185764,9.536435469837587,-5.605991444315544
0.9116032482598607,0.9540119173170207,9.49633843071082,-5.6702049145749855
0.9195997679814384,1.0337045059059253,9.540591897806369,-5.553619291816075
0.9275962877030162,1.1133970944948313,9.58484536490192,-5.437033669057163
0.9355928074245938,1.1930896830837359,9.629098831997469,-5.320448046298252
0.9435893271461716,1.2727822716726418,9.673352299093018,-5.20386242353934
0.9515858468677493,1.3524748602615466,9.717605766188568,-5.087276800780429
0.959582366589327,1.4321674488504523,9.761859233284117,-4.970691178021516
0.9675788863109047,1.5118600374393572,9.806112700379666,-4.854105555262605
0.9755754060324825,1.591552626028263,9.850366167475215,-4.737519932503693
0.9835719257540602,1.6712452146171677,9.894619634570764,-4.620934309744782
0.9915684454756379,1.7509378032060736,9.938873101666315,-4.504348686985869
0.9995649651972156,1.7043799303944616,9.975197795823668,-4.34939037122971
1.0075614849187933,1.1036250678777657,10.155272547761268,-3.6172783482253124
1.0155580046403712,1.2707012884434992,10.197637088413881,-3.3677699190403345
1.0235545243619488,1.4377775090092282,10.240001629066494,-3.1182614898553633
1.0315510440835265,1.6048537295749572,10.282366169719108,-2.868753060670392
1.0395475638051044,1.7719299501406907,10.324730710371723,-2.6192446314854143
1.047544083526682,1.9390061707064197,10.367095251024336,-2.3697362023004436
1.0555406032482597,2.1060823912721487,10.40945979167695,-2.120227773115473
1.0635371229698374,2.2731586118378777,10.451824332329563,-1.8707193439305017
1.0715336426914153,2.440234832403611,10.494188872982178,-1.6212109147455238
1.079530162412993,2.60731105296934,10.536553413634792,-1.3717024855605526
1.0875266821345706,2.774387273535069,10.578917954287405,-1.122194056375582
1.0955232018561483,2.941463494100798,10.621282494940019,-0.8726856271906107
1.1035197215777262,2.8801322505800515,10.776011858726472,-0.614893787058524
1.1115162412993038,2.20193696829082,11.159088553750951,-0.18173743232791223
1.1195127610208815,1.7934385423775059,11.453583704108093,-0.3653343523952481
1.1275092807424592,1.8433932714617147,11.454430394431554,-0.4310939675173986
1.135505800464037,1.893348000545925,11.455277084755016,-0.4968535826395508
1.1435023201856147,1.9433027296301337,11.456123775078476,-0.5626131977617013
1.1514988399071924,1.9932574587143423,11.456970465401938,-0.6283728128838517
1.1594953596287703,2.0432121877985523,11.4578171557254,-0.694132428006004
1.167491879350348,2.0931669168827614,11.45866384604886,-0.7598920431281546
1.1754883990719256,2.14312164596697,11.45951053637232,-0.8256516582503051
1.1834849187935033,2.1930763750511786,11.460357226695782,-0.8914112733724555
1.1914814385150811,2.243031104135389,11.461203917019244,-0.9571708884946077
1.1994779582366588,2.2061183294663897,11.403211136890974,-1.1248677494199126
1.2074744779582365,1.245234200040349,10.04314387672753,-2.5338380031272085
1.2154709976798141,1.316594446686167,10.02871537375164,-2.4636946181781525
1.223467517401392,1.3879546933319873,10.01428687077575,-2.3935512332290942
1.2314640371229697,1.4593149399778054,9.99985836779986,-2.3234078482800378
1.2394605568445474,1.5306751866236237,9.985429864823969,-2.2532644633309813
1.247457076566125,1.6020354332694418,9.97100136184808,-2.183121078381925
1.255453596287703,1.673395679915262,9.956572858872189,-2.1129776934328666
1.2634501160092806,1.7447559265610801,9.942144355896298,-2.0428343084838105
1.2714466357308583,1.8161161732068982,9.927715852920407,-1.972690923534754
1.279443155452436,1.8874764198527165,9.913287349944518,-1.9025475385856976
1.2874396751740138,1.9588366664985366,9.898858846968627,-1.8324041536366393
1.2954361948955915,2.030196913144355,9.884430343992737,-1.762260768687583
1.3034327146171691,1.55456805877803,9.820049110595507,-1.202042343387478
1.311429234338747,1.7637011600928072,10.085098762567672,-0.9769651198762567
1.3194257540603247,1.8351367362722344,10.108466370198505,-0.9966010183036863
1.3274222737819024,1.9065723124516614,10.131833977829336,-1.0162369167311158
1.33541879350348,1.9780078886310886,10.15520158546017,-1.0358728151585455
1.343415313225058,2.0494434648105173,10.178569193091002,-1.0555087135859755
1.3514118329466356,2.1208790409899447,10.201936800721835,-1.0751446120134052
1.3594083526682132,2.1923146171693717,10.225304408352667,-1.0947805104408348
1.367404872389791,2.2637501933487987,10.2486720159835,-1.1144164088682644
1.3754013921113688,2.335185769528228,10.272039623614333,-1.1340523072956945
1.3833979118329465,2.406621345707655,10.295407231245164,-1.1536882057231241
1.3913944315545241,2.478056921887082,10.318774838875997,-1.1733241041505535
1.3993909512761018,2.6556618329465493,10.375403712296956,-1.2944292343386665
1.4073874709976797,3.162773201856157,9.643721577726213,-2.7242476798143977
1.4153839907192574,2.520398016110954,9.962284027216558,-1.9287023253995155
1.423380510440835,2.3709799004145085,9.977558278370134,-1.9000406423525125
1.431377030162413,2.2215617847180593,9.99283252952371,-1.8713789593055086
1.4393735498839906,2.0721436690216137,10.008106780677286,-1.8427172762585056
1.4473700696055682,1.9227255533251686,10.02338103183086,-1.8140555932115026
1.455366589327146,1.7733074376287234,10.038655282984436,-1.7853939101644996
1.4633631090487238,1.6238893219322739,10.053929534138012,-1.7567322271174957
1.4713596287703015,1.4744712062358285,10.069203785291586,-1.7280705440704927
1.4793561484918791,1.3250530905393834,10.084478036445162,-1.6994088610234896
1.4873526682134568,1.175634974842938,10.099752287598738,-1.6707471779764866
1.4953491879350347,1.0262168591464886,10.115026538752312,-1.6420854949294827
1.5033457076566124,0.5800742459396546,9.530053364269154,-1.504183294663507
1.51134222737819,0.89858902185859,9.338359262425204,-2.4578730614238617
1.5193387470997677,0.9234203199413838,9.355362388570033,-2.4352302845280263
1.5273352668213456,0.9482516180241783,9.372365514714861,-2.41258750763219
1.5353317865429232,0.9730829161069722,9.38936864085969,-2.389944730736354
1.543328306264501,0.997914214189766,9.406371767004517,-2.3673019538405184
1.5513248259860788,1.0227455122725604,9.423374893149347,-2.344659176944682
1.5593213457076565,1.0475768103553542,9.440378019294174,-2.3220164000488466
1.5673178654292341,1.072408108438148,9.457381145439003,-2.2993736231530106
1.5753143851508118,1.0972394065209419,9.474384271583832,-2.276730846257175
1.5833109048723897,1.1220707046037364,9.49138739772866,-2.2540880693613388
1.5913074245939673,1.1469020026865302,9.508390523873489,-2.2314452924655033
1.599303944315545,1.171733300769324,9.525393650018316,-2.2088025155696673
1.6073004640371227,1.0323990719257545,9.21515630399368,-2.31784369600632
1.6152969837587006,1.0164060324825988,9.25046008787086,-2.282539912129141
1.6232935034802782,1.0004129930394434,9.285763871748037,-2.247236128251963
1.631290023201856,0.9844199535962882,9.321067655625214,-2.211932344374785
1.6392865429234336,0.9684269141531329,9.356371439502393,-2.176628560497607
1.6472830626450115,0.9524338747099771,9.391675223379572,-2.141324776620428
1.6552795823665891,0.9364408352668218,9.42697900725675,-2.1060209927432503
1.6632761020881668,0.9204477958236664,9.462282791133926,-2.070717208866072
1.6712726218097447,0.9044547563805108,9.497586575011105,-2.035413424988893
1.6792691415313223,0.8884617169373554,9.532890358888285,-2.0001096411117154
1.6872656612529,0.8724686774942001,9.568194142765462,-1.9648058572345375
1.6952621809744777,0.8564756380510448,9.603497926642639,-1.9295020733573596
1.7032587006960556,0.9851513921113639,9.468726218097446,-2.0312737819025544
1.7112552204176332,1.0488031129156996,9.491325309358082,-2.0126650618716164
1.719251740139211,1.069527426527455,9.494990380897137,-2.0133980761794277
1.7272482598607886,1.0902517401392104,9.498655452436195,-2.014131090487239
1.7352447795823664,1.1109760537509663,9.50232052397525,-2.01486410479505
1.7432412993039441,1.131700367362722,9.505985595514307,-2.0155971191028614
1.7512378190255218,1.1524246809744774,9.509650667053364,-2.0163301334106727
1.7592343387470994,1.1731489945862328,9.51331573859242,-2.0170631477184844
1.7672308584686773,1.1938733081979886,9.516980810131477,-2.0177961620262956
1.775227378190255,1.214597621809744,9.520645881670532,-2.018529176334107
1.7832238979118327,1.2353219354214995,9.52431095320959,-2.019262190641918
1.7912204176334106,1.2560462490332556,9.527976024748646,-2.0199952049497294
1.7992169373549882,1.276770562645011,9.531641096287702,-2.0207282192575406
1.8072134570765659,1.2974948762567664,9.535306167826759,-2.021461233565352
1.8152099767981436,1.3182191898685218,9.538971239365814,-2.022194247873163
1.8232064965197214,1.338943503480278,9.542636310904872,-2.0229272621809744
1.831203016241299,2.0106367459396743,9.47411557424594,-1.963953886310904
1.8391995359628768,2.056505671564835,9.44912645011601,-2.0037143593709708
1.8471960556844544,2.102374597189996,9.424137325986079,-2.0434748324310377
1.8551925754060323,2.1482435228151577,9.399148201856148,-2.0832353054911055
1.86318909512761,2.1941124484403187,9.374159077726219,-2.122995778551172
1.8711856148491877,2.2399813740654793,9.349169953596288,-2.162756251611239
1.8791821345707653,2.2858502996906402,9.324180829466359,-2.2025167246713053
1.8871786542923432,2.331719225315802,9.299191705336428,-2.242277197731373
1.8951751740139209,2.3775881509409627,9.274202581206497,-2.28203767079144
1.9031716937354985,2.2902436194895754,9.364122969837542,-2.296211136891006
1.9111682134570762,2.282356003480271,9.695175464037128,-1.808619199535964
1.919164733178654,2.4927493329466364,9.520273868909515,-2.0896972737818955
1.9271612529002318,2.469659382250581,9.447405582946638,-2.3249948665893183
1.9351577726218094,2.4465694315545257,9.374537296983762,-2.5602924593967407
1.9431542923433873,2.4234794808584694,9.301669011020882,-2.79559005220417
1.951150812064965,2.4003895301624136,9.228800725058006,-3.0308876450115925
1.9591473317865427,2.3772995794663583,9.15593243909513,-3.2661852378190153
1.9671438515081203,2.3542096287703025,9.083064153132254,-3.501482830626438
1.9751403712296982,2.3311196780742467,9.010195867169376,-3.736780423433867
1.9831368909512759,2.308029727378191,8.9373275812065,-3.97207801624129
1.9911334106728535,2.2849397766821355,8.864459295243623,-4.207375609048713
1.9991299303944312,2.372391077622842,8.944052744021503,-4.419096482966161
2.007126450116009,2.396459810250165,8.947298855987688,-4.425034492660402
2.0151229698375865,2.420528542877488,8.950544967953872,-4.430972502354643
2.0231194895591647,2.444597275504812,8.953791079920057,-4.436910512048884
2.0311160092807423,2.4686660081321348,8.957037191886242,-4.442848521743125
2.03911252900232,2.492734740759458,8.960283303852426,-4.448786531437366
2.0471090487238977,2.516803473386781,8.963529415818613,-4.454724541131607
2.0551055684454753,2.540872206014104,8.966775527784797,-4.460662550825847
2.063102088167053,2.5649409386414264,8.970021639750982,-4.466600560520089
2.0710986078886306,2.5890096712687494,8.973267751717167,-4.472538570214329
2.0790951276102088,2.6130784038960737,8.976513863683351,-4.478476579908571
2.0870916473317864,2.6371471365233967,8.979759975649536,-4.484414589602811
2.095088167053364,2.6612158691507197,8.983006087615722,-4.4903525992970525
2.1030846867749418,2.5647563805105196,8.710688708430045,-4.6424143464810035
2.1110812064965194,1.5068911059551422,8.20184996133024,-5.301595591647331
2.119077726218097,1.5333684712554772,8.20895797886053,-5.307726256767207
2.1270742459396748,1.559845836555812,8.216065996390821,-5.3138569218870835
2.1350707656612524,1.586323201856147,8.223174013921113,-5.31998758700696
2.1430672853828305,1.6128005671564836,8.230282031451404,-5.326118252126837
2.151063805104408,1.6392779324568185,8.237390048981695,-5.332248917246713
2.159060324825986,1.6657552977571535,8.244498066511987,-5.338379582366589
2.1670568445475635,1.6922326630574884,8.251606084042278,-5.344510247486466
2.175053364269141,1.7187100283578234,8.25871410157257,-5.350640912606342
2.183049883990719,1.7451873936581586,8.265822119102861,-5.356771577726217
2.1910464037122965,1.7716647589584935,8.272930136633152,-5.3629022428460935
2.1990429234338746,1.793450116009272,8.279635150812064,-5.3735284222737905
2.2070394431554523,1.5698311149102449,8.047319941384785,-5.63231249236781
2.21503596287703,1.5825413725729631,8.048161680302846,-5.6252418854560995
2.2230324825986076,1.5952516302356814,8.049003419220906,-5.618171278544389
2.2310290023201853,1.6079618878983997,8.049845158138968,-5.611100671632678
2.239025522041763,1.6206721455611177,8.050686897057028,-5.604030064720967
2.2470220417633406,1.633382403223836,8.051528635975089,-5.596959457809256
2.2550185614849183,1.6460926608865543,8.05237037489315,-5.589888850897546
2.2630150812064964,1.6588029185492732,8.053212113811211,-5.582818243985835
2.271011600928074,1.6715131762119915,8.054053852729272,-5.575747637074124
2.2790081206496517,1.6842234338747095,8.054895591647332,-5.568677030162413
2.2870046403712294,1.6969336915374278,8.055737330565393,-5.561606423250702
2.295001160092807,1.709643949200146,8.056579069483453,-5.5545358163389915
2.3029976798143847,1.5580208816705368,7.928821345707704,-5.07571229698379
2.3109941995359624,1.483401770667972,7.79,-4.951900305287582
2.3189907192575405,1.4084028330687501,7.79,-4.915200488460129
2.326987238979118,1.3334038954695324,7.79,-4.878500671632678
2.334983758700696,1.2584049578703147,7.79,-4.841800854805227
2.3429802784222735,1.183406020271097,7.79,-4.805101037977776
2.350976798143851,1.1084070826718793,7.79,-4.768401221150325
2.358973317865429,1.0334081450726615,7.79,-4.731701404322874
2.3669698375870065,0.9584092074734437,7.79,-4.6950015874954225
2.374966357308584,0.883410269874226,7.79,-4.658301770667971
2.3829628770301623,0.8084113322750041,7.79,-4.621601953840519
2.39095939675174,0.7334123946757863,7.79,-4.584902137013067
2.3989559164733176,0.6584134570765685,7.79,-4.548202320185616
2.4069524361948953,0.44475207849961274,8.509532543020105,-4.774933258410672
2.414948955916473,0.45841279969064125,8.553096916086618,-4.807169228538282
2.4229454756380506,0.47207352088166976,8.596661289153129,-4.839405198665892
2.4309419953596283,0.4857342420726982,8.64022566221964,-4.871641168793501
2.4389385150812064,0.4993949632637275,8.683790035286155,-4.903877138921113
2.446935034802784,0.513055684454756,8.727354408352667,-4.936113109048724
2.4549315545243617,0.5267164056457845,8.770918781419178,-4.968349079176333
2.4629280742459394,0.540377126836813,8.81448315448569,-5.000585049303943
2.470924593967517,0.5540378480278415,8.858047527552202,-5.032821019431553
2.4789211136890947,0.5676985692188701,8.901611900618713,-5.065056989559163
2.4869176334106724,0.5813592904098985,8.945176273685224,-5.097292959686773
2.49491415313225,0.595020011600927,8.988740646751737,-5.1295289298143825
2.502910672853828,0.7188451276102081,7.792266241299306,-5.0835516241299326
2.510907192575406,0.8365799280268943,7.606836711018514,-4.858838770775133
2.5189037122969835,0.8789288436952495,7.614751633600076,-4.811186041005731
2.526900232018561,0.9212777593636048,7.6226665561816365,-4.763533311236329
2.534896751740139,0.96362667503196,7.630581478763198,-4.715880581466927
2.5428932714617165,1.0059755907003152,7.63849640134476,-4.668227851697526
2.550889791183294,1.0483245063686706,7.646411323926322,-4.620575121928124
2.558886310904872,1.0906734220370258,7.654326246507884,-4.5729223921587225
2.56688283062645,1.1330223377053834,7.662241169089445,-4.525269662389318
2.5748793503480276,1.1753712533737386,7.670156091671007,-4.477616932619917
2.5828758700696053,1.2177201690420938,7.678071014252569,-4.429964202850515
2.590872389791183,1.260069084710449,7.68598593683413,-4.3823114730811135
2.5988689095127606,1.3024180003788044,7.693900859415692,-4.334658743311711
2.6068654292343383,1.2824350348027849,7.659044083526674,-4.415407192575397
2.614861948955916,1.2269434718413972,7.755258067918165,-4.555663889474791
2.622858468677494,1.0248496097869708,7.687651128453915,-4.601462138789283
2.6308549883990717,1.0108981747873158,7.679645197215777,-4.618419582366589
2.6388515081206494,1.0282772776488778,7.681564361948956,-4.630574292343387
2.646848027842227,1.0456563805104402,7.683483526682134,-4.642729002320185
2.6548445475638047,1.0630354833720022,7.685402691415313,-4.654883712296983
2.6628410672853824,1.0804145862335646,7.6873218561484915,-4.667038422273781
2.67083758700696,1.0977936890951268,7.689241020881671,-4.679193132250579
2.6788341067285377,1.115172791956689,7.691160185614849,-4.691347842227378
2.686830626450116,1.132551894818252,7.693079350348028,-4.703502552204177
2.6948271461716935,1.1499309976798142,7.694998515081206,-4.715657262180975
2.702823665893271,0.8394164733178535,8.01330394431552,-4.781580046403733
2.710820185614849,0.8883995970203926,8.104174062767127,-4.723204542679203
2.7188167053364265,0.898247942361704,8.11141301746245,-4.7375141042862365
2.726813225058004,0.9080962877030155,8.118651972157773,-4.751823665893271
2.734809744779582,0.9179446330443269,8.125890926853096,-4.766133227500305
2.74280626450116,0.927792978385639,8.133129881548419,-4.780442789107339
2.7508027842227376,0.9376413237269504,8.140368836243741,-4.794752350714373
2.7587993039443153,0.9474896690682619,8.147607790939064,-4.809061912321407
2.766795823665893,0.9573380144095733,8.154846745634387,-4.82337147392844
2.7747923433874706,0.9671863597508848,8.16208570032971,-4.837681035535474
2.7827888631090483,0.9770347050921964,8.169324655025033,-4.851990597142508
2.790785382830626,0.9868830504335078,8.176563609720356,-4.866300158749541
2.7987819025522036,0.9967313957748193,8.183802564415679,-4.880609720356575
2.8067784222737817,0.5376736475760168,8.090789656856758,-5.361628892416657
2.8147749419953594,0.47917279277079083,8.093062351935524,-5.40085392599829
2.822771461716937,0.42067193796556485,8.095335047014288,-5.440078959579924
2.8307679814385147,0.36217108316033886,8.097607742093052,-5.479303993161557
2.8387645011600924,0.3036702283551129,8.099880437171816,-5.518529026743191
2.84676102088167,0.24516937354988694,8.10215313225058,-5.557754060324824
2.8547575406032477,0.18666851874466095,8.104425827329344,-5.596979093906458
2.862754060324826,0.12816766393943174,8.10669852240811,-5.636204127488093
2.8707505800464035,0.06966680913420575,8.108971217486873,-5.675429161069727
2.878747099767981,0.011165954328979821,8.111243912565637,-5.71465419465136
2.886743619489559,-0.04733490047624611,8.113516607644401,-5.753879228232994
2.8947401392111365,-0.10583575528147215,8.115789302723165,-5.793104261814627
2.902736658932714,-0.4097761020881271,8.779456247928309,-5.918626450115994
2.910733178654292,-1.366579305918946,9.95016488127561,-6.595691094436498
2.9187296983758695,-1.2631349656908777,9.93247045465765,-6.432783272449039
2.9267262180974476,-1.1596906254628039,9.914776028039691,-6.26987545046157
2.9347227378190253,-1.0562462852347356,9.897081601421732,-6.106967628474111
2.942719257540603,-0.9528019450066674,9.879387174803773,-5.944059806486652
2.9507157772621806,-0.8493576047785992,9.861692748185813,-5.781151984499192
2.9587122969837583,-0.7459132645505311,9.843998321567854,-5.618244162511733
2.966708816705336,-0.6424689243224628,9.826303894949895,-5.455336340524274
2.9747053364269136,-0.5390245840943947,9.808609468331936,-5.2924285185368145
2.9827018561484917,-0.43558024386632066,9.790915041713976,-5.129520696549346
2.9906983758700694,-0.3321359036382525,9.773220615096017,-4.9666128745618865
2.998694895591647,-0.22869156341018426,9.755526188478058,-4.803705052574427
3.0066914153132247,-0.23226682134570684,9.572459396751725,-4.59703712296985
3.0146879350348024,-0.22585846867750495,9.680045243619581,-4.236245359628794
3.02268445475638,-0.21554297934195882,9.072533111564601,-4.133154278366366
3.0306809744779577,-0.2628476923937013,8.859035669359589,-4.13932026947698
3.0386774941995354,-0.31015240544544376,8.645538227154574,-4.145486260587593
3.0466740139211135,-0.35745711849718886,8.432040784949551,-4.151652251698208
3.054670533642691,-0.40476183154893136,8.218543342744537,-4.157818242808822
3.062667053364269,-0.45206654460067386,8.005045900539525,-4.163984233919436
3.0706635730858465,-0.4993712576524163,7.791548458334512,-4.17015022503005
3.078660092807424,-0.5466759707041589,7.5780510161295,-4.176316216140664
3.086656612529002,-0.5939806837559013,7.3645535739244865,-4.182482207251279
3.0946531322505795,-0.6412853968076437,7.151056131719473,-4.188648198361893
3.1026496519721576,0.1403030162412311,6.778064501160115,-3.9533127610209022
3.1106461716937353,0.18423574105708546,9.02949857219346,-4.4558368476071495
3.118642691415313,0.21516733382626507,9.185123148313396,-4.452321893883378
3.1266392111368906,0.24609892659544472,9.340747724433331,-4.448806940159608
3.1346357308584682,0.27703051936462436,9.496372300553267,-4.445291986435838
3.142632250580046,0.307962112133804,9.651996876673202,-4.441777032712068
3.1506287703016236,0.33889370490298365,9.807621452793136,-4.438262078988297
3.1586252900232012,0.3698252976721632,9.96324602891307,-4.4347471252645265
3.1666218097447794,0.4007568904413446,10.118870605033015,-4.431232171540756
3.174618329466357,0.4316884832105242,10.27449518115295,-4.427717217816986
3.1826148491879347,0.4626200759797039,10.430119757272886,-4.424202264093215
3.1906113689095124,0.4935516687488835,10.585744333392821,-4.420687310369445
3.19860788863109,0.5244832615180631,10.741368909512756,-4.417172356645675
3.2066044083526677,1.2964232112306375,9.17137092502754,-3.0673860179521575
3.2146009280742454,1.276229979610492,9.14794677634817,-2.9027707937847302
3.2225974477958235,1.2560367479903451,9.124522627668801,-2.7381555696172932
3.230593967517401,1.2358435163701993,9.101098478989432,-2.573540345449866
3.238590487238979,1.2156502847500537,9.077674330310062,-2.4089251212824383
3.2465870069605565,1.195457053129908,9.054250181630692,-2.244309897115011
3.254583526682134,1.1752638215097624,9.030826032951325,-2.0796946729475834
3.262580046403712,1.1550705898896168,9.007401884271955,-1.9150794487801557
3.2705765661252895,1.1348773582694711,8.983977735592585,-1.7504642246127282
3.278573085846867,1.1146841266493253,8.960553586913218,-1.5858490004453007
3.2865696055684452,1.0944908950291785,8.937129438233846,-1.421233776277864
3.294566125290023,1.0742976634090329,8.913705289554478,-1.2566185521104365
3.3025626450116006,1.0541044317888872,8.890281140875109,-1.0920033279430088
3.3105591647331782,1.2093027842227209,8.967838747099767,-2.0977267981438414
3.318555684454756,1.3741912656238275,8.980714667065838,-2.058074557792585
3.3265522041763336,1.4549303195868537,8.993784247686051,-1.939846443629474
3.3345487238979112,1.5356693735498796,9.006853828306264,-1.8216183294663635
3.3425452436194893,1.6164084275129103,9.019923408926477,-1.703390215303246
3.350541763341067,1.6971474814759364,9.03299298954669,-1.5851621011401353
3.3585382830626447,1.7778865354389626,9.046062570166903,-1.4669339869770248
3.3665348027842223,1.8586255894019887,9.059132150787116,-1.3487058728139143
3.3745313225058,1.939364643365015,9.072201731407329,-1.2304777586508036
3.3825278422273777,2.020103697328041,9.085271312027542,-1.1122496444876928
3.3905243619489553,2.100842751291067,9.098340892647755,-0.9940215303245821
3.398520881670533,2.181581805254093,9.111410473267968,-0.8757934161614715
3.406517401392111,2.2395394431554525,9.156520881670533,-0.7104524361948981
3.414513921113689,2.2002232211910293,9.338441705336423,-0.34394528228925536
3.4225104408352665,2.545108931246145,9.149600252577168,-0.819990190607653
3.430506960556844,2.550979793826544,9.163366413110516,-0.8464090722194475
3.438503480278422,2.556850656406943,9.177132573643865,-0.872827953831242
3.4464999999999995,2.5627215189873414,9.190898734177214,-0.8992468354430365
3.454496519721577,2.5685923815677403,9.204664894710563,-0.925665717054831
3.4624930394431552,2.574463244148139,9.218431055243913,-0.9520845986666271
3.470489559164733,2.580334106728538,9.232197215777262,-0.9785034802784216
3.4784860788863106,2.5862049693089366,9.24596337631061,-1.004922361890216
3.4864825986078882,2.5920758318893355,9.25972953684396,-1.0313412435020106
3.494479118329466,2.5979466944697345,9.273495697377308,-1.0577601251138051
3.5024756380510436,2.675645011600945,9.452435034802757,-0.9833329466357613
3.5104721577726212,2.8709537428257415,9.916012382464277,-1.0041511539870533
3.518468677494199,2.8781926975210643,9.975944193430207,-1.042366100867014
3.526465197215777,2.8854316522163876,10.03587600439614,-1.0805810477469766
3.5344617169373547,2.8926706069117105,10.095807815362068,-1.1187959946269372
3.5424582366589323,2.8999095616070334,10.155739626327998,-1.1570109415068979
3.55045475638051,2.9071485163023563,10.215671437293928,-1.1952258883868583
3.5584512761020877,2.9143874709976796,10.275603248259857,-1.233440835266819
3.5664477958236653,2.9216264256930025,10.335535059225787,-1.2716557821467795
3.574444315545243,2.9288653803883253,10.395466870191715,-1.30987072902674
3.582440835266821,2.9361043350836487,10.455398681157648,-1.3480856759067028
3.5904373549883988,2.9433432897789715,10.515330492123578,-1.3863006227866632
3.5984338747099764,2.9505822444742944,10.575262303089506,-1.4245155696666238
3.606430394431554,2.7632074245939737,11.473281902552078,-1.516639443155492
3.6144269141531318,3.0298857499808842,14.137850054817584,-0.9407978888860493
3.6224234338747094,2.9221524183473213,13.937234071033387,-1.0524855434588536
3.630419953596287,2.814419086713759,13.736618087249193,-1.164173198031658
3.6384164733178648,2.7066857550801964,13.536002103464998,-1.2758608526044624
3.646412993039443,2.5989524234466277,13.335386119680791,-1.3875485071772728
3.6544095127610206,2.491219091813065,13.134770135896595,-1.4992361617500771
3.662406032482598,2.3834857601795023,12.9341541521124,-1.6109238163228814
3.670402552204176,2.27575242854594,12.733538168328206,-1.7226114708956857
3.6783990719257535,2.168019096912377,12.53292218454401,-1.83429912546849
3.686395591647331,2.0602857652788145,12.332306200759815,-1.9459867800412944
3.694392111368909,1.9525524336452518,12.131690216975619,-2.057674434614099
3.7023886310904865,1.6178062645010873,11.705889791183447,-1.305492459396806
3.7103851508120647,1.5564276800396482,10.547178474083758,-1.2581882053476838
3.7183816705336423,1.5080603811411732,10.40192130516073,-1.3921105016556594
3.72637819025522,1.4596930822426986,10.256664136237703,-1.5260327979636352
3.7343747099767977,1.4113257833442239,10.111406967314675,-1.659955094271611
3.7423712296983753,1.3629584844457492,9.966149798391648,-1.7938773905795868
3.750367749419953,1.3145911855472745,9.82089262946862,-1.9277996868875626
3.7583642691415307,1.2662238866487998,9.675635460545593,-2.0617219831955382
3.7663607888631088,1.2178565877503222,9.530378291622556,-2.1956442795035214
3.7743573085846864,1.1694892888518476,9.385121122699529,-2.3295665758114974
3.782353828306264,1.1211219899533729,9.239863953776501,-2.4634888721194734
3.7903503480278418,1.072754691054898,9.094606784853474,-2.597411168427449
3.7983468677494194,1.0243873921564233,8.949349615930446,-2.7313334647354246
3.806343387470997,0.9760200932579486,8.804092447007418,-2.8652557610434
3.8143399071925748,2.1479284342747733,11.30887110968877,-2.4932542603408314
3.8223364269141524,1.8371671333707025,11.361813585086802,-2.452995919673578
3.8303329466357305,1.5264058324666143,11.414756060484837,-2.412737579006323
3.838329466357308,1.2156445315625435,11.467698535882867,-2.3724792383390696
3.846325986078886,0.9048832306584724,11.5206410112809,-2.3322208976718164
3.8543225058004635,0.5941219297544016,11.573583486678931,-2.291962557004563
3.862319025522041,0.28336062885033053,11.626525962076963,-2.25170421633731
3.870315545243619,-0.027400672053740305,11.679468437474993,-2.211445875670057
3.8783120649651965,-0.33816197295781114,11.732410912873025,-2.1711875350028036
3.8863085846867746,-0.6489232738618993,11.78535338827106,-2.1309291943355477
3.8943051044083523,-0.9596845747659706,11.83829586366909,-2.0906708536682945
3.90230162412993,-1.2450139211137163,11.222948955916634,-2.1058979118330425
3.9102981438515076,-1.0758233344381898,10.099776599270845,-2.0086355651309074
3.9182946635730853,-1.0508533851247437,9.976363904168517,-2.023656273625486
3.926291183294663,-1.0331532234938359,9.914278565656044,-2.013413540498971
3.9342877030162406,-1.015453061862928,9.85219322714357,-2.003170807372456
3.9422842227378183,-0.9977529002320201,9.790107888631097,-1.9929280742459405
3.9502807424593964,-0.9800527386011113,9.728022550118618,-1.9826853411194247
3.958277262180974,-0.9623525769702035,9.665937211606145,-1.9724426079929096
3.9662737819025518,-0.9446524153392956,9.60385187309367,-1.9621998748663945
3.9742703016241294,-0.9269522537083876,9.541766534581198,-1.951957141739879
3.982266821345707,-0.9092520920774798,9.479681196068723,-1.941714408613364
3.9902633410672848,-0.891551930446572,9.41759585755625,-1.9314716754868488
3.9982598607888624,-0.8738517688156641,9.355510519043776,-1.9212289423603335
4.0062563805104405,-0.6147018561485003,8.643395011600944,-1.6589744779582376
4.014252900232018,-0.24266009280742393,8.026373549883994,-1.508665893271457
4.022249419953596,-0.25142223675766373,7.985710396406182,-1.570085970281876
4.030245939675173,-0.26018438070790256,7.945047242928375,-1.631506047292288
4.038242459396751,-0.2689465246581424,7.904384089450563,-1.692926124302707
4.046238979118329,-0.2777086686083822,7.863720935972751,-1.7543462013131257
4.0542354988399065,-0.28647081255862106,7.823057782494943,-1.8157662783235378
4.062232018561485,-0.2952329565088609,7.782394629017131,-1.8771863553339567
4.070228538283062,-0.3039951004590997,7.741731475539324,-1.9386064323443688
4.07822505800464,-0.31275724440933955,7.701068322061512,-2.0000265093547878
4.086221577726217,-0.3215193883595784,7.660405168583704,-2.0614465863652
4.094218097447795,-0.3302815323098182,7.619742015105892,-2.1228666633756186
4.102214617169373,-0.33904367626005805,7.579078861628081,-2.1842867403860375
4.110211136890951,0.29731995614594986,7.6136406516916955,-2.6857362637362607
4.118207656612529,0.20039510721297582,7.611268057928151,-2.723609890109889
4.126204176334106,0.10347025828001255,7.608895464164606,-2.761483516483513
4.134200696055684,0.006545409347038511,7.606522870401061,-2.799357142857141
4.142197215777261,-0.09037943958592476,7.604150276637515,-2.837230769230765
4.150193735498839,-0.1873042885188988,7.601777682873971,-2.875104395604393
4.1581902552204175,-0.2842291374518728,7.599405089110426,-2.912978021978021
4.166186774941995,-0.38115398638483605,7.59703249534688,-2.950851648351645
4.174183294663573,-0.4780788353178101,7.594659901583335,-2.9887252747252733
4.18217981438515,-0.5750036842507733,7.592287307819791,-3.026598901098897
4.190176334106728,-0.6719285331837475,7.5899147140562455,-3.064472527472525
4.198172853828305,-0.7688533821167107,7.5875421202927,-3.102346153846149
4.2061693735498835,-0.5117482598608013,7.592573085846852,-3.452421113689082
4.214165893271461,-0.21118979118330022,8.078822621809742,-3.5045169373549867
4.222162412993039,-0.16356607373034607,8.093838308842484,-3.5208653776746575
4.230158932714617,-0.11594235627739191,8.108853995875226,-3.537213817994328
4.238155452436194,-0.06831863882444303,8.123869682907964,-3.553562258313997
4.246151972157772,-0.020694921371488872,8.138885369940706,-3.569910698633668
4.2541484918793495,0.026928796081459982,8.153901056973446,-3.586259138953337
4.262145011600928,0.07455251353441417,8.168916744006186,-3.602607579273008
4.270141531322505,0.12217623098736302,8.183932431038926,-3.618956019592677
4.278138051044083,0.16979994844031715,8.198948118071668,-3.635304459912348
4.286134570765661,0.21742366589327133,8.213963805104408,-3.6516529002320186
4.294131090487238,0.26504738334622024,8.228979492137148,-3.6680013405516876
4.302127610208816,0.22907965970611677,8.509497293116755,-3.7934725444702133
4.310124129930394,-1.58007429329042,11.396645106302412,-5.392395520621225
4.318120649651972,-1.4599633031867159,11.188409204981317,-5.5085898480041555
4.326117169373549,-1.339852313083025,10.980173303660244,-5.624784175387074
4.334113689095127,-1.219741322979321,10.771937402339148,-5.740978502770004
4.342110208816705,-1.0996303328756172,10.563701501018054,-5.857172830152936
4.350106728538282,-0.9795193427719264,10.35546559969698,-5.973367157535854
4.3581032482598605,-0.8594083526682225,10.147229698375885,-6.089561484918785
4.366099767981438,-0.7392973625645317,9.938993797054813,-6.205755812301703
4.374096287703016,-0.6191863724608277,9.730757895733717,-6.321950139684634
4.382092807424593,-0.499075382357137,9.522521994412646,-6.438144467067552
4.390089327146171,-0.3789643922534329,9.31428609309155,-6.554338794450484
4.398085846867749,-0.2588534021497291,9.106050191770453,-6.670533121833414
4.4060823665893265,-0.16311774941994783,8.723056264501304,-6.433301624130171
4.414078886310905,-0.29184921235804245,8.804322627915486,-3.2797982659665434
4.422075406032482,-0.26802800097692286,8.997080840151401,-3.216667847111986
4.43007192575406,-0.24420678959580064,9.189839052387338,-3.153537428257422
4.438068445475637,-0.22038557821468108,9.382597264623252,-3.0904070094028646
4.446064965197215,-0.19656436683355882,9.575355476859189,-3.0272765905483006
4.4540614849187925,-0.17274315545243926,9.768113689095102,-2.9641461716937436
4.462058004640371,-0.14892194407131704,9.96087190133104,-2.901015752839179
4.470054524361949,-0.12510073269019484,10.153630113566976,-2.837885333984615
4.478051044083526,-0.10127952130907525,10.34638832580289,-2.7747549151300577
4.486047563805104,-0.07745830992795302,10.539146538038827,-2.7116244962754936
4.494044083526681,-0.05363709854683346,10.73190475027474,-2.6484940774209367
4.502040603248259,-0.029815887165711263,10.924662962510677,-2.585363658566372
4.510037122969837,-0.16106573859248238,10.29025676720814,-3.990710750193366
4.518033642691415,0.23075870069604695,9.677746713070382,-3.880779195668989
4.526030162412993,0.41109400752060027,9.617543030109077,-3.8282962903698965
4.53402668213457,0.5914293143451336,9.557339347147778,-3.7758133850708098
4.542023201856148,0.7717646211696869,9.497135664186471,-3.723330479771717
4.550019721577725,0.9520999279942202,9.436931981225172,-3.67084757447263
4.5580162412993035,1.1324352348187736,9.376728298263865,-3.618364669173537
4.566012761020881,1.3127705416433069,9.316524615302566,-3.5658817638744504
4.574009280742459,1.49310584846786,9.25632093234126,-3.513398858575358
4.582005800464037,1.6734411552924136,9.196117249379954,-3.460915953276265
4.590002320185614,1.8537764621169468,9.135913566418655,-3.4084330479771783
4.597998839907192,2.0341117689415,9.075709883457348,-3.3559501426780853
4.6059953596287695,1.971030162413145,9.31065893271442,-2.6908863109052983
4.613991879350348,2.123926416970503,9.305034139874046,-2.069818694066959
4.621988399071925,2.0773532801305477,9.314700262614414,-1.967006297646681
4.629984918793503,2.0307801432905874,9.324366385354784,-1.864193901226391
4.637981438515081,1.9842070064506272,9.334032508095152,-1.7613815048061015
4.645977958236658,1.937633869610672,9.34369863083552,-1.658569108385823
4.653974477958236,1.8910607327707116,9.35336475357589,-1.5557567119655333
4.661970997679814,1.8444875959307565,9.363030876316259,-1.4529443155452548
4.669967517401392,1.7979144590907963,9.372696999056627,-1.3501319191249652
4.677964037122969,1.7513413222508412,9.382363121796995,-1.2473195227046867
4.685960556844547,1.7047681854108807,9.392029244537365,-1.144507126284397
4.693957076566124,1.6581950485709256,9.401695367277734,-1.0416947298641186
4.701953596287702,1.665002320185602,9.435373549883982,-1.1984315545242894
4.7099501160092805,1.6451068942658276,9.617140039774602,-0.7287838912827347
4.717946635730858,1.641733049755092,9.597014307811293,-0.7568727764887831
4.725943155452436,1.638445591647332,9.57489060324826,-0.7859267981438504
4.733939675174013,1.6351581335395724,9.55276689868523,-0.8149808197989142
4.741936194895591,1.6318706754318126,9.530643194122197,-0.8440348414539814
4.749932714617168,1.628583217324053,9.508519489559166,-0.8730888631090454
4.7579292343387465,1.625295759216293,9.486395784996134,-0.9021428847641126
4.765925754060325,1.6220083011085333,9.464272080433101,-0.9311969064191797
4.773922273781902,1.6187208430007738,9.44214837587007,-0.9602509280742437
4.78191879350348,1.6154333848930138,9.420024671307038,-0.9893049497293109
4.789915313225057,1.6121459267852543,9.397900966744007,-1.0183589713843748
4.797911832946635,1.6088584686774945,9.375777262180975,-1.047412993039442
4.8059083526682125,1.7415050270688601,9.341574439288433,-1.616201662799676
4.813904872389791,1.709918123227628,9.528607579273,-1.5690963650425505
4.821901392111369,1.796191686001543,9.617635498839904,-1.4208941995359694
4.829897911832946,1.8824652487754485,9.706663418406796,-1.2726920340294046
4.837894431554524,1.9687388115493636,9.7956913379737,-1.1244898685228233
4.845890951276101,2.0550123743232693,9.884719257540594,-0.9762877030162586
4.853887470997679,2.141285937097184,9.973747177107496,-0.8280855375096774
4.861883990719257,2.2275594998710897,10.06277509667439,-0.6798833720031126
4.869880510440835,2.313833062645005,10.151803016241292,-0.5316812064965313
4.877877030162413,2.40010662541892,10.240830935808196,-0.3834790409899502
4.88587354988399,2.4863801881928254,10.32985885537509,-0.23527687548338538
4.893870069605568,2.5726537509667406,10.418886774941992,-0.08707470997680411
4.901866589327145,2.768892691415314,10.830456496519728,-0.24780220417632248
4.9098631090487235,2.7586749162155195,10.73316550657386,-0.40284583655581097
4.917859628770301,2.7484571410157264,10.635874516628004,-0.5578894689352821
4.925856148491879,2.7478260419869733,10.590775612892406,-0.5959426103485865
4.933852668213456,2.748789478098007,10.554357727895344,-0.6145369272915311
4.941849187935034,2.7497529142090404,10.517939842898276,-0.6331312442344778
4.949845707656612,2.750716350320074,10.48152195790121,-0.6517255611774244
4.9578422273781895,2.751679786431107,10.445104072904147,-0.670319878120369
4.965838747099768,2.7526432225421407,10.408686187907081,-0.6889141950633156
4.973835266821345,2.753606658653174,10.372268302910019,-0.7075085120062603
4.981831786542923,2.7545700947642078,10.335850417912953,-0.7261028289492069
4.9898283062645,2.755533530875241,10.29943253291589,-0.7446971458921515
4.997824825986078,2.7564969669862744,10.263014647918823,-0.7632914628350982
5.005821345707656,3.1329280742459265,12.488603248259832,-0.27295359628770816
5.013817865429234,2.9739296725960522,12.514257205465327,-0.7751289249806499
5.021814385150812,2.8111560711523733,12.498086465583913,-0.8865470997679716
5.029810904872389,2.648382469708712,12.481915725702503,-0.9979652745552812
5.037807424593967,2.485608868265033,12.46574498582109,-1.109383449342603
5.045803944315544,2.3228352668213716,12.449574245939678,-1.2208016241299124
5.053800464037122,2.1600616653776927,12.433403506058264,-1.3322197989172344
5.0617969837587005,1.9972880639340136,12.41723276617685,-1.4436379737045562
5.069793503480278,1.8345144624903524,12.401062026295438,-1.5550561484918655
5.077790023201856,1.6717408610466733,12.384891286414026,-1.6664743232791874
5.085786542923433,1.5089672596030124,12.368720546532614,-1.777892498066497
5.093783062645011,1.3461936581593332,12.3525498066512,-1.8893106728538187
5.101779582366588,1.288990139211116,11.415356728538676,-1.9102302784222958
5.1097761020881665,0.41284454756422734,9.596641531322494,-1.6172401392112015
5.117772621809744,0.29116747521620073,9.573502425648602,-1.5381723265134053
5.125769141531322,0.2820805209871347,9.546241562961404,-1.474563646909943
5.1337656612529,0.2729935667580687,9.518980700274206,-1.4109549673064807
5.141762180974477,0.26390661252900366,9.491719837587011,-1.3473462877030258
5.149758700696055,0.25481965829993763,9.464458974899813,-1.2837376080995635
5.1577552204176325,0.2457327040708726,9.437198112212618,-1.2201289284961083
5.165751740139211,0.23664574984180659,9.40993724952542,-1.1565202488926463
5.173748259860788,0.22755879561274156,9.382676386838225,-1.092911569289191
5.181744779582366,0.21847184138367554,9.355415524151027,-1.029302889685729
5.189741299303944,0.2093848871546095,9.328154661463829,-0.9656942100822667
5.197737819025521,0.20029793292554451,9.300893798776634,-0.9020855304788116
5.205734338747099,0.5389524591670298,12.14363423766971,0.21720247639613743
5.213730858468677,0.5493241827663032,12.085204222278383,0.1214025866623905
5.221727378190255,0.5596959063655778,12.02677420688705,0.02560269692863293
5.229723897911832,0.5700676299648513,11.968344191495722,-0.07019719280511402
5.23772041763341,0.5804393535641258,11.90991417610439,-0.1659970825388716
5.245716937354988,0.5908110771634004,11.851484160713056,-0.2617969722726291
5.253713457076565,0.6011828007626738,11.79305414532173,-0.3575968620063761
5.2617099767981435,0.6115545243619483,11.734624129930397,-0.4533967517401337
5.269706496519721,0.6219262479612219,11.67619411453907,-0.5491966414738806
5.277703016241299,0.6322979715604964,11.617764099147738,-0.6449965312076382
5.285699535962876,0.6426696951597698,11.559334083756411,-0.7407964209413851
5.293696055684454,0.6530414187590444,11.500904068365077,-0.8365963106751426
5.301692575406032,0.6634131423583189,11.442474052973745,-0.9323962004089004
5.3096890951276094,0.32499187935038565,10.242479118329594,-1.5502761020881053
5.317685614849188,0.35902204176333696,9.896523201856164,-2.052219837586977
5.325682134570765,0.393942789107363,9.572192239589704,-2.3009761875686756
5.333678654292343,0.1875063194529376,9.48791313041886,-2.4247118085236217
5.34167517401392,-0.018930150201464935,9.403634021248026,-2.548447429478554
5.349671693735498,-0.22536661985589035,9.319354912077182,-2.6721830504335
5.3576682134570754,-0.4318030895102928,9.23507580290635,-2.7959186713884323
5.365664733178654,-0.6382395591647182,9.150796693735506,-2.9196542923433784
5.373661252900232,-0.8446760288191436,9.066517584564663,-3.0433899132983244
5.381657772621809,-1.0511124984735463,8.982238475393828,-3.1671255342532567
5.389654292343387,-1.2575489681279715,8.897959366222985,-3.290861155208203
5.397650812064964,-1.463985437782374,8.81368025705215,-3.414596776163135
5.405647331786542,-0.8661067285383138,8.138970997679813,-3.874454756380555
5.4136438515081196,-0.8319746343752425,8.26821588154019,-3.9807056101566745
5.421640371229698,-0.8474285826012137,8.235870408509088,-4.007750019552124
5.429636890951276,-0.8628825308271848,8.203524935477986,-4.034794428947573
5.437633410672853,-0.8783364790531542,8.171179462446887,-4.06183883834302
5.445629930394431,-0.8937904272791253,8.138833989415785,-4.088883247738469
5.453626450116008,-0.9092443755050947,8.106488516384685,-4.115927657133915
5.461622969837586,-0.9246983237310658,8.074143043353583,-4.1429720665293654
5.469619489559164,-0.9401522719570352,8.041797570322485,-4.170016475924812
5.477616009280742,-0.9556062201830063,8.009452097291382,-4.197060885320261
5.48561252900232,-0.9710601684089775,7.97710662426028,-4.22410529471571
5.493609048723897,-0.9865141166349468,7.944761151229181,-4.251149704111157
5.501605568445475,-0.77596171693737,7.489824825986109,-4.017215777262198
5.509602088167052,-0.795951240589031,7.1609392016667455,-3.9706830697476256
5.5175986078886305,-0.9140223021923324,7.162571144467067,-3.9214799943179153
5.525595127610208,-1.0320933637956207,7.164203087267389,-3.8722769188882107
5.533591647331786,-1.150164425398922,7.165835030067711,-3.8230738434585003
5.541588167053364,-1.2682354870022237,7.167466972868033,-3.77387076802879
5.549584686774941,-1.386306548605512,7.169098915668355,-3.7246676925990854
5.557581206496519,-1.5043776102088133,7.170730858468677,-3.675464617169375
5.5655777262180965,-1.6224486718121018,7.172362801268999,-3.62626154173967
5.573574245939675,-1.7405197334154032,7.173994744069321,-3.5770584663099596
5.581570765661252,-1.8585907950186915,7.175626686869643,-3.527855390880255
5.58956728538283,-1.976661856621993,7.177258629669965,-3.4786523154505447
5.597563805104407,-2.094732918225281,7.178890572470287,-3.4294492400208396
5.605560324825985,-2.209991105955135,7.115991879350363,-3.4412324052590764
5.613556844547563,-1.627819390495072,7.352664172684375,-3.5529696290309962
5.621553364269141,-1.374805912562922,7.383661917672511,-3.558180844130451
5.629549883990719,-1.121792434630744,7.414659662660651,-3.5633920592299066
5.637546403712296,-0.8687789566985938,7.445657407648787,-3.5686032743293614
5.645542923433874,-0.6157654787664157,7.476655152636927,-3.5738144894288166
5.653539443155451,-0.36275200083426573,7.507652897625063,-3.5790257045282714
5.661535962877029,-0.10973852290208752,7.538650642613203,-3.584236919627727
5.6695324825986075,0.14327495503009047,7.569648387601343,-3.5894481347271823
5.677529002320185,0.3962884329622407,7.600646132589479,-3.594659349826637
5.685525522041763,0.6493019108944187,7.631643877577618,-3.5998705649260927
5.69352204176334,0.9023153888265687,7.662641622565754,-3.6050817800255475
5.701518561484918,0.4835891162203253,9.138603670111483,-4.355214511706233
5.709515081206495,-0.5246310904875588,11.889744779582978,-6.55797679814278
5.7175116009280735,0.09408619759348552,9.723162453461402,-6.620276250472133
5.725508120649652,0.03327545459450801,9.582665461609023,-6.574249770679329
5.733504640371229,-0.02753528840446276,9.442168469756663,-6.5282232908865305
5.741501160092807,-0.08834603140344024,9.301671477904284,-6.4821968110937265
5.749497679814384,-0.14915677440241104,9.161174486051921,-6.436170331300928
5.757494199535962,-0.20996751740138853,9.020677494199544,-6.390143851508124
5.7654907192575395,-0.2707782604003593,8.880180502347182,-6.344117371715324
5.773487238979118,-0.3315890033993368,8.739683510494803,-6.29809089192252
5.781483758700696,-0.3923997463983143,8.599186518642426,-6.252064412129716
5.789480278422273,-0.45321048939728503,8.458689526790064,-6.206037932336917
5.797476798143851,-0.5140212323962625,8.318192534937687,-6.160011452544113
5.805473317865428,-0.69788002395031,9.5881224459247,-6.582053513958535
5.813469837587006,-0.6113800364244221,9.657769553177156,-6.599852219145274
5.821466357308584,-0.5248800488985437,9.727416660429602,-6.617650924332009
5.829462877030162,-0.4383800613726557,9.797063767682056,-6.635449629518748
5.837459396751739,-0.3518800738467774,9.866710874934503,-6.653248334705484
5.845455916473317,-0.2653800863208894,9.936357982186959,-6.671047039892223
5.853452436194895,-0.17888009879500144,10.006005089439412,-6.688845745078961
5.861448955916472,-0.09238011126912304,10.075652196691859,-6.706644450265697
5.8694454756380505,-0.0058801237432350995,10.145299303944313,-6.724443155452436
5.877441995359628,0.0806198637826433,10.21494641119676,-6.742241860639172
5.885438515081206,0.16711985130853124,10.284593518449215,-6.760040565825911
5.893435034802783,0.25361983883440953,10.354240625701662,-6.777839271012647
5.901431554524361,0.8185910672852579,9.277886890951546,-7.184344547563709
5.909428074245939,0.8328017987675477,8.196854464486188,-5.486103310630452
5.9174245939675165,0.9570487987425916,8.239932490083072,-5.3562673452586065
5.925421113689095,1.0812957987176495,8.28301051567996,-5.226431379886747
5.933417633410672,1.2055427986926934,8.326088541276844,-5.096595414514901
5.94141415313225,1.3297897986677512,8.369166566873732,-4.9667594491430425
5.949410672853827,1.4540367986427951,8.412244592470616,-4.836923483771197
5.957407192575405,1.578283798617853,8.455322618067504,-4.707087518399337
5.965403712296983,1.7025307985929108,8.498400643664393,-4.5772515530274775
5.973400232018561,1.8267777985679547,8.541478669261277,-4.447415587655632
5.981396751740139,1.9510247985430125,8.584556694858165,-4.317579622283772
5.989393271461716,2.0752717985180564,8.627634720455049,-4.187743656911927
5.997389791183294,2.199518798493114,8.670712746051937,-4.057907691540068
6.005386310904871,2.071330046403241,10.003649071925782,-1.300465197216485
6.013382830626449,2.2972138811965213,9.94386178679241,-0.8156262754783946
6.0213793503480275,2.2617024549060725,9.896054636628998,-0.7112415986827405
6.029375870069605,2.2261910286156272,9.84824748646559,-0.606856921887098
6.037372389791183,2.1906796023251784,9.800440336302177,-0.502472245091444
6.04536890951276,2.155168176034733,9.75263318613877,-0.3980875682958015
6.053365429234338,2.119656749744284,9.704826035975355,-0.2937028915001474
6.061361948955915,2.084145323453839,9.657018885811947,-0.18931821470450494
6.0693584686774935,2.04863389716339,9.609211735648534,-0.08493353790885083
6.077354988399071,2.013122470872945,9.561404585485127,0.01945113888679162
6.085351508120649,1.977611044582496,9.513597435321714,0.12383581568244562
6.093348027842227,1.942099618292047,9.4657902851583,0.22822049247809983
6.101344547563804,2.001843314965156,9.42950891821346,0.0785353103249335
6.109341067285382,2.291217372389764,9.421012616009282,-0.6836329756379795
6.1173375870069595,2.699127610208787,9.421200116009352,-1.2406554524362763
6.125334106728538,2.7349581248427595,9.242948368881564,-1.2664894753025913
6.133330626450115,2.7172309003997452,9.165873479998892,-1.469100089452915
6.141327146171693,2.6995036759567284,9.08879859111621,-1.671710703603261
6.149323665893271,2.681776451513712,9.01172370223353,-1.874321317753607
6.157320185614848,2.6640492270706977,8.934648813350858,-2.0769319319039306
6.165316705336426,2.646322002627681,8.857573924468179,-2.2795425460542766
6.173313225058004,2.6285947781846666,8.780499035585507,-2.4821531602046
6.181309744779582,2.61086755374165,8.703424146702826,-2.6847637743549466
6.189306264501159,2.5931403292986355,8.626349257820154,-2.88737438850527
6.197302784222737,2.575413104855619,8.549274368937473,-3.089985002655616
6.205299303944315,2.72347563805103,8.834479118329364,-2.9043410672854075
6.213295823665892,2.9321911043605042,9.626940380797478,-3.020269643839545
6.2212923433874705,3.0064680555887713,9.589101179228361,-3.0448362714377954
6.229288863109048,3.0807450068170303,9.551261977659248,-3.069402899036043
6.237285382830626,3.1550219580452974,9.513422776090131,-3.0939695266342935
6.245281902552203,3.229298909273556,9.475583574521018,-3.118536154232541
6.253278422273781,3.303575860501823,9.4377443729519,-3.143102781830792
6.261274941995358,3.377852811730082,9.399905171382787,-3.1676694094290396
6.2692714617169365,3.452129762958349,9.36206596981367,-3.19223603702729
6.277267981438515,3.526406714186616,9.324226768244554,-3.2168026646255403
6.285264501160092,3.6006836654148753,9.28638756667544,-3.241369292223788
6.29326102088167,3.6749606166431423,9.248548365106323,-3.2659359198220383
6.301257540603247,3.7492375678714014,9.21070916353721,-3.290502547420286
6.309254060324825,3.9747592807424836,9.415827146171678,-3.1932529002321743
6.3172505800464025,3.867024988665806,9.287203936314913,-3.0562332186574475
6.325247099767981,3.6172945969011185,9.246394111528927,-3.300264941195263
6.333243619489559,3.367564205136431,9.205584286742942,-3.5442966637330784
6.341240139211136,3.117833813371772,9.164774461956963,-3.7883283862708668
6.349236658932714,2.868103421607085,9.123964637170976,-4.032360108808682
6.357233178654291,2.6183730298424255,9.083154812384997,-4.276391831346471
6.365229698375869,2.3686426380777377,9.042344987599012,-4.520423553884286
6.373226218097447,2.1189122463130783,9.001535162813031,-4.7644552764220744
6.381222737819025,1.8691818545483914,8.960725338027046,-5.00848699895989
6.389219257540603,1.619451462783704,8.919915513241062,-5.252518721497705
6.39721577726218,1.3697210710190446,8.87910568845508,-5.496550444035494
6.405212296983758,1.4988068445475846,9.120338167053355,-4.858924013921142
6.413208816705335,1.2014898113588486,8.997040098860097,-4.91090439322101
6.4212053364269135,0.928043604357929,8.836240517502278,-5.045019935942694
6.429201856148491,0.6545973973570399,8.675440936144476,-5.179135478664364
6.437198375870069,0.38115119035612044,8.514641354786656,-5.313251021386048
6.445194895591647,0.10770498335520107,8.353841773428837,-5.447366564107732
6.453191415313224,-0.1657412236456881,8.193042192071035,-5.581482106829402
6.461187935034802,-0.4391874306466075,8.032242610713215,-5.715597649551086
6.4691844547563795,-0.7126336376474969,7.871443029355413,-5.849713192272755
6.477180974477958,-0.9860798446484162,7.710643447997594,-5.9838287349944395
6.485177494199535,-1.2595260516493054,7.549843866639792,-6.117944277716109
6.493174013921113,-1.5329722586502248,7.389044285281972,-6.252059820437793
6.50117053364269,-2.718215777261957,5.334286542924745,-9.382453016240538
6.509167053364268,-2.906656038719653,2.9295678217698673,-9.998767432577408
6.517163573085846,-2.946294700995433,2.516156350572582,-9.933075593144228
6.525160092807424,-2.985933363271208,2.1027448793753423,-9.867383753711056
6.533156612529002,-3.0255720255469876,1.6893334081780567,-9.801691914277876
6.541153132250579,-3.0652106878227627,1.2759219369808168,-9.736000074844705
6.549149651972157,-3.1048493500985423,0.8625104657835312,-9.670308235411525
6.557146171693734,-3.144488012374318,0.44909899458629177,-9.604616395978354
6.565142691415312,-3.1841266746500976,0.035687523389005715,-9.538924556545174
6.5731392111368905,-3.223765336925877,-0.3777239478082799,-9.473232717111996
6.581135730858468,-3.2634039992016524,-0.7911354190055193,-9.407540877678823
6.589132250580046,-3.303042661477432,-1.204546890202805,-9.341849038245645
6.597128770301623,-3.342681323753207,-1.6179583614000443,-9.276157198812472
6.605125290023201,-2.6360226628231307,1.7648469614942877,-7.156645972485879
6.613121809744778,-2.5646193958143,1.8620975649769034,-7.17788925215027
6.6211183294663565,-2.4932161288054613,1.9593481684595297,-7.199132531814665
6.629114849187935,-2.4218128617966226,2.0565987719421566,-7.220375811479059
6.637111368909512,-2.350409594787792,2.1538493754247723,-7.241619091143451
6.64510788863109,-2.279006327778953,2.2510999789073987,-7.262862370807845
6.653104408352667,-2.2076030607701225,2.3483505823900144,-7.284105650472237
6.661100928074245,-2.1361997937612838,2.4456011858726407,-7.305348930136631
6.6690974477958225,-2.0647965267524526,2.5428517893552565,-7.326592209801023
6.677093967517401,-1.993393259743614,2.640102392837883,-7.347835489465417
6.685090487238979,-1.9219899927347752,2.7373529963205097,-7.369078769129812
6.693087006960556,-1.8505867257259445,2.834603599803125,-7.390322048794204
6.701083526682134,-1.7791834587171058,2.9318542032857517,-7.4115653284585985
6.709080046403711,-2.6930939675170666,0.983306844546441,-6.893491299304153
6.717076566125289,-3.051223253415822,1.7848576952823003,-6.7053529260118605
6.725073085846867,-3.143005529775703,1.6411868909512959,-6.687671732405262
6.733069605568445,-3.234787806135594,1.4975160866202757,-6.669990538798661
6.741066125290022,-3.3265700824954747,1.3538452822892713,-6.652309345192062
6.7490626450116,-3.418352358855366,1.210174477958251,-6.634628151585462
6.757059164733178,-3.510134635215257,1.0665036736272309,-6.616946957978862
6.765055684454755,-3.601916911575138,0.9228328692962265,-6.599265764372263
6.7730522041763335,-3.693699187935029,0.7791620649652062,-6.581584570765663
6.781048723897911,-3.78548146429491,0.635491260634202,-6.563903377159064
6.789045243619489,-3.877263740654801,0.4918204563031816,-6.546222183552463
6.797041763341066,-3.969046017014682,0.3481496519721774,-6.528540989945865
6.805038283062644,-3.4245590197215945,-1.4437243329466314,-4.903336136891158
6.813034802784222,-2.6999601791399312,0.4350057195273466,-2.079647169913126
6.8210313225057995,-2.506462998435253,0.25731561269090275,-2.1001033831543703
6.829027842227378,-2.3129658177305537,0.07962550585443906,-2.1205595963956165
6.837024361948955,-2.1194686370258755,-0.09806460098200481,-2.141015809636861
6.845020881670533,-1.925971456321176,-0.2757547078184685,-2.1614720228781072
6.85301740139211,-1.732474275616498,-0.45344481465491243,-2.1819282361193517
6.861013921113688,-1.5389770949117985,-0.6311349214913762,-2.202384449360598
6.869010440835266,-1.3454799142070988,-0.8088250283278398,-2.2228406626018447
6.877006960556844,-1.1519827335024209,-0.9865151351642836,-2.2432968758430887
6.885003480278422,-0.9584855527977212,-1.1642052420007474,-2.2637530890843354
6.892999999999999,-0.7649883720930433,-1.3418953488371912,-2.2842093023255794
6.900996519721577,0.11194365263496779,-2.35168395757374,0.5111136890945754
6.908993039443154,2.3980464552718646,-3.3254155710235036,8.994812219644166
6.916989559164732,2.9701530162412153,-3.103290023201889,9.363718329466304
6.9249860788863105,3.542259577210565,-2.8811644753802748,9.73262443928844
6.932982598607888,4.114366138179852,-2.6590389275586848,10.101530549110537
6.940979118329466,4.686472699149203,-2.4369133797370703,10.470436658932675
6.948975638051043,5.2585792601184895,-2.2147878319154803,10.83934276875477
6.956972157772621,5.83068582108784,-1.992662284093866,11.208248878576908
6.964968677494198,6.402792382057127,-1.770536736272276,11.577154988399005
6.9729651972157765,6.974898943026478,-1.5484111884506615,11.946061098221143
6.980961716937354,7.547005503995765,-1.3262856406290715,12.314967208043239
6.988958236658932,8.119112064965115,-1.104160092807457,12.683873317865377
6.99695475638051,8.691218625934464,-0.8820345449858427,13.052779427687515
7.004951276102087,-0.19798027841893795,-2.905588167054946,9.731970997679076
7.012947795823665,-0.19506303170921557,-2.803745939675175,9.290995746326406
7.0209443155452425,-0.019053613751488896,-2.7833677119976077,8.809054960956079
7.028940835266821,0.15695580420625732,-2.7629894843200375,8.327114175585699
7.036937354988398,0.33296522216398394,-2.7426112566424696,7.845173390215374
7.044933874709976,0.5089746401217302,-2.7222330289649,7.363232604844994
7.052930394431554,0.6849840580794765,-2.70185480128733,6.8812918194746135
7.060926914153131,0.860993476037203,-2.681476573609762,6.399351034104288
7.068923433874709,1.0370028939949494,-2.661098345932192,5.917410248733908
7.076919953596287,1.2130123119526761,-2.6407201182546243,5.435469463363582
7.084916473317865,1.389021729910422,-2.620341890577054,4.953528677993202
7.092912993039442,1.5650311478681487,-2.5999636628994867,4.471587892622876
7.10090951276102,0.861061871617435,-8.884075792732066,-3.659139211135747
7.108906032482598,-1.232603073622147,2.128980490482349,-18.476557393408413
7.116902552204175,-1.9892630042660133,1.2650124242198977,-20.7890133223557
7.1248990719257534,-2.745922934909964,0.4010443579573506,-23.101469251303246
7.132895591647331,-3.5025828655538302,-0.4629237083051003,-25.413925180250537
7.140892111368909,-4.25924279619778,-1.3268917745676476,-27.72638110919808
7.148888631090486,-5.015902726841647,-2.1908598408300985,-30.03883703814537
7.156885150812064,-5.772562657485597,-3.054827907092646,-32.35129296709292
7.164881670533642,-6.529222588129548,-3.918795973355193,-34.66374889604046
7.172878190255219,-7.285882518773414,-4.782764039617644,-36.97620482498775
7.1808747099767976,-8.042542449417365,-5.64673210588019,-39.2886607539353
7.188871229698375,-8.799202380061232,-6.510700172142641,-41.601116682882584
7.196867749419953,-9.555862310705182,-7.374668238405189,-43.91357261183013
7.20486426914153,-29.833352320187018,-8.304768329462988,-48.63922726218484
7.212860788863108,-22.165489559165607,-26.687967517399294,-27.558002320188013
7.220857308584685,-23.13267027432763,-22.333086269961257,-25.03957647058862
7.2288538283062636,-24.252841572266814,-17.575345189027495,-22.850035294117927
7.236850348027842,-25.373012870205997,-12.817604108093729,-20.660494117647232
7.244846867749419,-26.493184168145056,-8.059863027160493,-18.47095294117678
7.252843387470997,-27.61335546608424,-3.3021219462267304,-16.281411764706085
7.260839907192574,-28.7335267640233,1.455619134706506,-14.091870588235635
7.268836426914152,-29.853698061962483,6.213360215640268,-11.90232941176494
7.2768329466357295,-30.973869359901542,10.971101296573504,-9.71278823529449
7.284829466357308,-32.09404065784073,15.728842377507267,-7.523247058823795
7.292825986078886,-33.21421195577991,20.486583458441036,-5.333705882353101
7.300822505800463,-14.710560034812385,1.3024776682082901,3.829210846848227
7.308819025522041,18.398411446248872,12.3268600154682,15.574759474091382
7.316815545243618,19.778026058428512,9.767887720480463,14.527301374647793
7.324812064965196,21.15764067060831,7.208915425492438,13.479843275204088
7.332808584686774,22.537255282787946,4.649943130504699,12.4323851757605
7.340805104408352,23.916869894967743,2.090970835516675,11.384927076316796
7.34880162412993,25.296484507147536,-0.4680014594713491,10.33746897687309
7.356798143851507,26.676099119327176,-3.026973754459089,9.290010877429502
7.364794663573085,28.05571373150697,-5.585946049447113,8.242552777985797
7.372791183294662,29.43532834368661,-8.144918344434853,7.1950946785422065
7.3807877030162405,30.814942955866407,-10.703890639422877,6.147636579098503
7.388784222737818,32.194557568046044,-13.262862934410617,5.100178479654913
7.396780742459396,33.574172180225844,-15.82183522939864,4.052720380211209
7.404777262180973,11.372002900232177,-7.863721577728189,7.648916473315209
7.412773781902551,29.748454820830467,-4.6289270430523874,-13.800234660995432
7.420770301624129,27.62520113431322,-4.305512245424117,-11.845796390822612
7.4287668213457065,25.501947447796205,-3.982097447795882,-9.891358120650006
7.436763341067285,23.378693761278956,-3.6586826501676115,-7.936919850477184
7.444759860788862,21.255440074761943,-3.335267852539377,-5.982481580304579
7.45275638051044,19.132186388244698,-3.011853054911106,-4.028043310131757
7.460752900232017,17.00893270172768,-2.688438257282871,-2.073605039959153
7.468749419953595,14.885679015210432,-2.3650234596546005,-0.11916676978633056
7.476745939675173,12.762425328693183,-2.04160866202633,1.835271500386492
7.484742459396751,10.639171642176173,-1.7181938643980947,3.789709770559094
7.492738979118329,8.51591795565892,-1.394779066769824,5.7441480407319165
7.500735498839906,3.753136890946201,1.1859257540634518,-0.14684918793578716
7.508732018561484,10.501704484869443,1.43272671175396,1.5344924347139268
7.516728538283061,10.215616231426207,1.464372513205308,1.520115713086836
7.524725058004639,9.92952797798294,1.4960183146566595,1.5057389914597432
7.5327215777262175,9.643439724539672,1.5276641161080111,1.4913622698326507
7.540718097447795,9.357351471096438,1.5593099175593592,1.4769855482055598
7.548714617169373,9.07126321765317,1.5909557190107109,1.4626088265784674
7.55671113689095,8.785174964209935,1.6226015204620587,1.4482321049513764
7.564707656612528,8.499086710766669,1.6542473219134104,1.433855383324284
7.572704176334105,8.212998457323433,1.6858931233647585,1.419478661697193
7.5807006960556835,7.9269102038801655,1.7175389248161101,1.4051019400701006
7.588697215777262,7.640821950436899,1.7491847262674616,1.3907252184430081
7.596693735498839,7.354733696993664,1.7808305277188097,1.3763484968159172
7.604690255220417,8.283647331786606,-2.9239249806651992,2.7504394818251408
7.612686774941994,7.260092807424759,-1.6178267594743023,3.9352571539054546
7.620683294663572,9.920626491547914,-3.968887098110721,4.147914788421171
7.6286798143851495,9.735278588001353,-3.805815213788556,4.126019555850186
7.636676334106728,9.549930684454775,-3.6427433294663736,4.104124323279198
7.644672853828305,9.364582780908217,-3.479671445144209,4.082229090708212
7.652669373549883,9.179234877361637,-3.316599560822026,4.060333858137225
7.660665893271461,8.993886973815059,-3.1535276764998432,4.038438625566237
7.668662412993038,8.8085390702685,-2.990455792177678,4.016543392995252
7.676658932714616,8.62319116672192,-2.8273839078554954,3.994648160424264
7.684655452436194,8.437843263175361,-2.6643120235333306,3.9727529278532785
7.692651972157772,8.252495359628782,-2.5012401392111476,3.950857695282291
7.700648491879349,8.067147456082223,-2.3381682548889833,3.928962462711305
7.708645011600927,12.303969837587024,1.6173535962876933,5.3454125290022665
7.716641531322505,12.19201856148493,1.6837247099767918,5.710053828306228
7.724638051044082,12.08006728538285,1.7500958236658828,6.07469512761015
7.7326345707656605,11.968116009280756,1.816466937354981,6.439336426914113
7.740631090487238,11.856164733178675,1.882838051044072,6.803977726218035
7.748627610208816,11.744213457076581,1.9492091647331706,7.1686190255219975
7.756624129930393,11.632262180974498,2.0155802784222616,7.533260324825919
7.764620649651971,11.520310904872405,2.08195139211136,7.897901624129881
7.772617169373549,11.408359628770311,2.1483225058004587,8.262542923433845
7.7806136890951265,11.29640835266823,2.2146936194895495,8.627184222737766
7.788610208816705,11.184457076566137,2.2810647331786478,8.99182552204173
7.796606728538282,11.072505800464056,2.347435846867739,9.35646682134565
7.80460324825986,7.453076566126139,3.388,6.044051044084093
7.812599767981437,5.940196249033271,3.7091087264759173,4.672421242588291
7.820596287703015,5.839706651198772,3.5615285125032363,4.706184325857176
7.828592807424593,5.739217053364274,3.413948298530556,4.739947409126062
7.836589327146171,5.638727455529787,3.2663680845578913,4.773710492394943
7.844585846867749,5.538237857695288,3.118787870585211,4.8074735756638285
7.852582366589326,5.4377482598608005,2.9712076566125467,4.8412366589327105
7.860578886310904,5.3372586620263025,2.8236274426398658,4.874999742201596
7.868575406032481,5.236769064191815,2.6760472286672017,4.908762825470478
7.876571925754059,5.136279466357316,2.528467014694521,4.942525908739364
7.884568445475637,5.035789868522829,2.3808868007218567,4.976288992008245
7.892564965197215,4.935300270688331,2.233306586749176,5.01005207527713
7.900561484918793,3.804307037896711,1.1780595514312504,4.790356535189803
7.90855800464037,4.09284485609912,0.5283786715702985,3.7683636150466664
7.916554524361948,4.138186824307643,0.6957101002122569,3.6549661598459897
7.924551044083525,4.18352879251616,0.8630415288541967,3.541568704645326
7.9325475638051035,4.228870760724683,1.030372957496155,3.4281712494446492
7.940544083526681,4.2742127289332,1.197704386138095,3.3147737942439854
7.948540603248259,4.319554697141722,1.3650358147800534,3.201376339043309
7.956537122969837,4.364896665350245,1.5323672434220117,3.0879788838426325
7.964533642691414,4.4102386335587624,1.6996986720639515,2.9745814286419687
7.972530162412992,4.455580601767285,1.86703010070591,2.8611839734412925
7.9805266821345695,4.500922569975803,2.0343615293478496,2.7477865182406283
7.988523201856148,4.546264538184325,2.2016929579898084,2.6343890630399516
7.996519721577725,4.591606506392843,2.369024386631748,2.5209916078392878
8.004516241299303,-0.339496519721179,3.5267801177941847,7.8065320364083295
8.012512761020881,-2.4787401392124417,2.091501160093329,12.47874013921244
8.02050928074246,-0.9484060051863168,1.615224184523001,11.740767640234747
8.028505800464036,-0.18318610618277265,1.453600409444554,11.819321686911406
8.036502320185614,0.5820337928209416,1.291976634366071,11.897875733588085
8.044498839907192,1.3472536918246554,1.130352859287588,11.976429780264764
8.05249535962877,2.11247359082837,0.9687290842091051,12.054983826941442
8.060491879350346,2.8776934898319135,0.8071053091306579,12.133537873618103
8.068488399071924,3.6429133888356278,0.6454815340521749,12.212091920294782
8.076484918793502,4.408133287839342,0.4838577589736919,12.29064596697146
8.08448143851508,5.173353186843056,0.32223398389520885,12.369200013648138
8.092477958236659,5.9385730858467705,0.16061020881672583,12.447754060324817
8.100474477958235,9.726437354985665,0.12240951276095932,15.131820185612645
8.108470997679813,11.734872389794345,2.81767672080313,19.17207656612668
8.116467517401391,-0.5243380726272345,6.25209147196896,8.754351548589067
8.12446403712297,-0.30657238439542206,5.953337775859304,8.277070900555808
8.132460556844547,-0.08880669616360959,5.6545840797496485,7.799790252522548
8.140457076566124,0.12895899206815453,5.355830383640059,7.322509604489396
8.148453596287702,0.34672468029996695,5.057076687530404,6.845228956456136
8.15645011600928,0.5644903685317794,4.758322991420748,6.367948308422877
8.164446635730858,0.7822560567635918,4.459569295311093,5.890667660389617
8.172443155452434,1.000021744995356,4.160815599201504,5.4133870123564645
8.180439675174012,1.2177874332271683,3.8620619030918477,4.936106364323205
8.18843619489559,1.4355531214589812,3.5633082069821924,4.458825716289946
8.196432714617169,1.6533188096907936,3.2645545108725367,3.981545068256686
8.204429234338747,0.5326380510444024,2.5613677494199028,3.8097204176335215
8.212425754060323,5.318395695925313,4.373928491357957,6.647488764044874
8.220422273781901,5.466376235042605,4.390101227873509,7.073460674157252
8.22841879350348,5.614356774159899,4.40627396438906,7.49943258426963
8.236415313225057,5.762337313277192,4.422446700904611,7.925404494382008
8.244411832946634,5.910317852394452,4.438619437420159,8.35137640449429
8.252408352668212,6.058298391511745,4.45479217393571,8.77734831460667
8.26040487238979,6.206278930629038,4.4709649104512605,9.203320224719047
8.268401392111368,6.3542594697463315,4.487137646966812,9.629292134831426
8.276397911832946,6.502240008863625,4.503310383482363,10.055264044943803
8.284394431554523,6.650220547980885,4.51948311999791,10.481235955056086
8.2923909512761,6.798201087098178,4.535655856513462,10.907207865168465
8.300387470997679,6.732558170368183,4.640821345708172,13.4370954590668
8.308383990719257,5.654520997679835,2.6043934648105322,7.537944354215013
8.316380510440835,5.484195127610222,2.491109435421509,7.462510518174793
8.324377030162411,5.313869257540645,2.377825406032511,7.387076682134589
8.33237354988399,5.1435433874710315,2.2645413766434874,7.31164284609437
8.340370069605568,4.973217517401418,2.1512573472544636,7.236209010054149
8.348366589327146,4.802891647331803,2.0379733178654407,7.160775174013929
8.356363109048722,4.6325657772622275,1.9246892884764422,7.085341337973725
8.3643596287703,4.462239907192613,1.8114052590874188,7.009907501933505
8.372356148491878,4.291914037122999,1.6981212296983954,6.934473665893284
8.380352668213456,4.121588167053385,1.5848372003093718,6.859039829853064
8.388349187935034,3.9512622969837707,1.4715531709203484,6.783605993812844
8.39634570765661,3.7809364269141947,1.3582691415313501,6.7081721577726405
8.404342227378189,2.9354927494201326,1.1737043213457454,6.3179097302785046
8.412338747099767,2.0298868909514125,0.9827874129930682,5.89959179234345
8.420335266821345,2.043756728538275,0.8716415313225144,6.717358004640294
8.428331786542921,3.7311709421260706,4.500217149766266,8.998752818535326
8.4363283062645,3.7454745759942454,4.809603624064508,9.063062857422947
8.444324825986078,3.7597782098624206,5.118990098362749,9.127372896310568
8.452321345707656,3.7740818437305954,5.428376572660991,9.19168293519819
8.460317865429234,3.7883854775987706,5.737763046959232,9.25599297408581
8.46831438515081,3.8026891114669423,6.047149521257405,9.320303012973419
8.476310904872388,3.816992745335117,6.356535995555647,9.38461305186104
8.484307424593966,3.8312963792032924,6.665922469853888,9.44892309074866
8.492303944315545,3.845600013071467,6.97530894415213,9.513233129636282
8.500300464037123,3.283098027842263,6.856751160092855,8.528816705336517
8.508296983758699,2.566873920126373,5.247467887643772,6.219233055240154
8.516293503480277,2.5852489016142544,5.281835908574809,6.2810784790442735
8.524290023201855,2.6036238831021357,5.316203929505847,6.342923902848392
8.532286542923433,2.6219988645900174,5.350571950436884,6.404769326652512
8.54028306264501,2.6403738460778947,5.384939971367914,6.466614750456618
8.548279582366588,2.658748827565776,5.419307992298951,6.528460174260736
8.556276102088166,2.6771238090536573,5.453676013229988,6.590305598064856
8.564272621809744,2.6954987905415386,5.488044034161026,6.652151021868975
8.572269141531322,2.7138737720294204,5.5224120550920635,6.713996445673095
8.580265661252898,2.7322487535172977,5.556780076023093,6.7758418694772
8.588262180974477,2.750623735005179,5.5911480969541305,6.83768729328132
8.596258700696055,2.7689987164930603,5.625516117885168,6.899532717085439
8.604255220417633,3.275668503480289,6.048297273782047,8.014349767981484
8.612251740139211,3.233473449694157,5.361325445581105,7.826616642058637
8.620248259860787,3.2420151866694775,5.172771145328025,7.840428812486814
8.628244779582365,3.2505569236447993,4.984216845074903,7.854240982914995
8.636241299303943,3.2590986606201215,4.795662544821781,7.868053153343175
8.644237819025522,3.267640397595444,4.607108244568659,7.881865323771356
8.652234338747098,3.2761821345707642,4.41855394431558,7.895677494199533
8.660230858468676,3.284723871546086,4.229999644062457,7.9094896646277135
8.668227378190254,3.2932656085214083,4.041445343809335,7.923301835055894
8.676223897911832,3.3018073454967305,3.8528910435562134,7.937114005484075
8.68422041763341,3.3103490824720527,3.6643367433030916,7.950926175912255
8.692216937354987,3.3188908194473727,3.4757824430500115,7.964738346340432
8.700213457076565,3.1767165506574147,3.0759311678268157,7.9055174013921246
8.708209976798143,2.9599389973669754,2.5615969003362933,8.378455342944287
8.716206496519721,2.995698714773583,2.5843285799942626,8.395796110430405
8.724203016241297,3.0314584321801825,2.6070602596522265,8.413136877916521
8.732199535962875,3.06721814958679,2.629791939310196,8.43047764540264
8.740196055684454,3.1029778669933976,2.6525236189681647,8.447818412888758
8.748192575406032,3.138737584400005,2.675255298626134,8.465159180374878
8.75618909512761,3.1744973018066127,2.6979869782841033,8.482499947860996
8.764185614849186,3.2102570192132127,2.7207186579420672,8.49984071534711
8.772182134570764,3.2460167366198203,2.743450337600036,8.517181482833228
8.780178654292342,3.281776454026428,2.7661820172580054,8.534522250319348
8.78817517401392,3.3175361714330354,2.7889136969159747,8.551863017805466
8.796171693735499,3.353295888839643,2.8116453765739435,8.569203785291585
8.804168213457075,3.4372839907192336,3.1595078886309884,9.027615197215642
8.812164733178653,3.2098186084100218,3.634901900466644,8.730640918689227
8.820161252900231,3.201013451862666,3.6301399280481763,8.71321030266691
8.82815777262181,3.192208295315311,3.6253779556297085,8.695779686644595
8.836154292343386,3.183403138767957,3.6206159832112417,8.678349070622282
8.844150812064964,3.174597982220601,3.615854010792774,8.660918454599965
8.852147331786542,3.1657928256732455,3.611092038374306,8.64348783857765
8.86014385150812,3.1569876691258902,3.6063300659558384,8.626057222555334
8.868140371229698,3.1481825125785345,3.6015680935373706,8.608626606533017
8.876136890951274,3.1393773560311806,3.5968061211189037,8.591195990510705
8.884133410672852,3.1305721994838254,3.592044148700436,8.573765374488389
8.89212993039443,3.1217670429364697,3.587282176281968,8.556334758466074
8.900126450116009,3.112961886389114,3.5825202038635,8.538904142443757
8.908122969837585,3.309155607115279,3.3683810775972876,8.794830729569483
8.916119489559163,3.139362838360437,3.492149432843491,8.772262773910807
8.924116009280741,2.9695700696055947,3.6159177880896944,8.74969481825213
8.93211252900232,2.799777300850753,3.739686143335898,8.727126862593455
8.940109048723897,2.6299845320959108,3.8634544985821018,8.704558906934778
8.948105568445474,2.460191763341106,3.987222853828278,8.681990951276108
8.956102088167052,2.2903989945862637,4.110991209074482,8.659422995617431
8.96409860788863,2.1206062258314216,4.234759564320685,8.636855039958755
8.972095127610208,1.9508134570765796,4.358527919566889,8.614287084300079
8.980091647331786,1.7810206883217374,4.482296274813092,8.591719128641403
8.988088167053363,1.611227919566933,4.606064630059269,8.569151172982732
8.99608468677494,1.4414351508120908,4.729832985305472,8.546583217324056
9.004081206496519,1.6641888631090516,4.633136573452192,8.632248846012944
9.012077726218097,1.6433979118329485,4.634146660153865,8.626693369153742
9.020074245939673,1.6226069605568503,4.635156746855538,8.621137892294541
9.028070765661251,1.6018160092807472,4.63616683355721,8.615582415435341
9.03606728538283,1.5810250580046443,4.6371769202588835,8.610026938576139
9.044063805104408,1.5602341067285415,4.638187006960557,8.604471461716937
9.052060324825986,1.5394431554524384,4.639197093662229,8.598915984857737
9.060056844547562,1.5186522041763402,4.640207180363903,8.593360507998536
9.06805336426914,1.497861252900237,4.641217267065575,8.587805031139334
9.076049883990718,1.4770703016241342,4.6422273537672485,8.582249554280134
9.084046403712296,1.4562793503480311,4.643237440468921,8.576694077420932
9.092042923433874,1.4354883990719283,4.644247527170594,8.57113860056173
9.10003944315545,1.3244953596288545,4.548068445475468,8.536293503480167
9.108035962877029,1.1968503480278405,4.575292770790084,8.500707229209915
9.116032482598607,1.2080454756380499,4.572515032360483,8.503484967639515
9.124029002320185,1.219240603248259,4.569737293930883,8.506262706069117
9.132025522041761,1.230435730858466,4.566959555501283,8.509040444498718
9.14002204176334,1.2416308584686753,4.564181817071682,8.511818182928318
9.148018561484918,1.2528259860788844,4.561404078642081,8.514595921357918
9.156015081206496,1.2640211136890938,4.558626340212481,8.51737365978752
9.164011600928074,1.275216241299303,4.55584860178288,8.52015139821712
9.17200812064965,1.2864113689095098,4.5530708633532795,8.52292913664672
9.180004640371228,1.2976064965197192,4.550293124923678,8.52570687507632
9.188001160092806,1.3088016241299283,4.547515386494078,8.528484613505922
9.195997679814385,1.3199967517401376,4.544737648064477,8.531262351935522
9.20399419953596,1.3310116009280795,4.692435034802981,8.667382830626623
9.211990719257539,1.3309103209155608,4.688681873875755,8.66399575067129
9.219987238979117,1.330730623843166,4.682033082197139,8.657975898746058
9.227983758700695,1.330550926770771,4.675384290518523,8.651956046820825
9.235980278422273,1.3303712296983758,4.668735498839908,8.645936194895592
9.24397679814385,1.3301915326259808,4.662086707161294,8.639916342970361
9.251973317865428,1.330011835553586,4.655437915482679,8.633896491045128
9.259969837587006,1.3298321384811909,4.648789123804063,8.627876639119895
9.267966357308584,1.3296524414087958,4.6421403321254475,8.62185678719466
9.275962877030162,1.3294727443364007,4.635491540446832,8.615836935269428
9.283959396751738,1.3292930472640059,4.628842748768219,8.609817083344197
9.291955916473317,1.3291133501916108,4.6221939570896025,8.603797231418964
9.299952436194895,1.2539215003866904,4.618096867749406,8.648873936581584
9.307948955916473,1.2954008120649647,4.591537122969835,8.708671113689094
9.315945475638049,1.2851032976255117,4.5190251147751415,8.7
9.323941995359627,1.2886762106925997,4.507540751345215,8.7
9.331938515081205,1.2922491237596878,4.4960563879152895,8.7
9.339935034802783,1.2958220368267757,4.484572024485364,8.7
9.347931554524362,1.2993949498938637,4.4730876610554375,8.7
9.355928074245938,1.3029678629609511,4.461603297625515,8.7
9.363924593967516,1.3065407760280392,4.450118934195589,8.7
9.371921113689094,1.3101136890951273,4.438634570765663,8.7
9.379917633410672,1.3136866021622151,4.427150207335737,8.7
9.387914153132249,1.3172595152293025,4.415665843905813,8.7
9.395910672853827,1.3208324282963906,4.404181480475888,8.7
9.403907192575405,1.28226914153138,4.381299303944333,8.579343387471164
9.411903712296983,1.3148839907192524,4.26144431554526,8.567
9.419900232018561,1.414072505800464,4.424682714617169,8.669392691415313
9.427896751740137,1.4142724187935034,4.432079495359627,8.675989820185613
9.435893271461715,1.4144723317865429,4.439476276102087,8.682586948955915
9.443889791183294,1.4146722447795823,4.446873056844547,8.689184077726217
9.451886310904872,1.4148721577726218,4.454269837587006,8.69578120649652
9.45988283062645,1.4150720707656612,4.461666618329466,8.702378335266822
9.467879350348026,1.4152719837587007,4.469063399071924,8.708975464037122
9.475875870069604,1.4154718967517401,4.476460179814384,8.715572592807424
9.483872389791182,1.4156718097447796,4.483856960556844,8.722169721577727
9.49186890951276,1.415871722737819,4.491253741299304,8.728766850348029
9.499865429234337,1.2822691415313268,4.539525522041918,8.709016241299443
9.507861948955915,1.3216291569992187,4.467351508120648,8.617903712296986
9.515858468677493,1.3701413766434574,4.481745243619487,8.600311368909516
9.523854988399071,1.3623692102775637,4.4865578327747695,8.609697516542063
9.53185150812065,1.3535829108303976,4.491197788662599,8.619569763111912
9.539848027842226,1.3447966113832335,4.495837744550427,8.62944200968176
9.547844547563804,1.3360103119360673,4.500477700438257,8.639314256251609
9.555841067285382,1.3272240124889012,4.505117656326086,8.64918650282146
9.56383758700696,1.3184377130417353,4.509757612213916,8.659058749391308
9.571834106728536,1.309651413594571,4.514397568101743,8.668930995961155
9.579830626450114,1.3008651141474048,4.519037523989573,8.678803242531005
9.587827146171692,1.2920788147002389,4.523677479877402,8.688675489100854
9.59582366589327,1.2832925152530728,4.528317435765231,8.698547735670704
9.603820185614849,1.306748002062389,4.494467904098992,8.73856084042279
9.611816705336425,1.2833443366378392,4.524678917949802,8.7
9.619813225058003,1.287160857414047,4.512411529740564,8.7
9.627809744779581,1.2909773781902547,4.500144141531324,8.7
9.63580626450116,1.2947938989664625,4.487876753322085,8.7
9.643802784222737,1.2986104197426702,4.475609365112845,8.7
9.651799303944314,1.3024269405188773,4.463341976903609,8.7
9.659795823665892,1.306243461295085,4.45107458869437,8.7
9.66779234338747,1.3100599820712928,4.4388072004851304,8.7
9.675788863109048,1.3138765028475006,4.426539812275891,8.7
9.683785382830624,1.3176930236237074,4.414272424066655,8.7
9.691781902552203,1.3215095443999152,4.402005035857416,8.7
9.69977842227378,1.3833851508121289,4.206600928074317,8.640533642691437
9.707774941995359,1.3650754988399072,4.261793457076565,8.70252921113689
9.715771461716937,1.3652354292343387,4.267710881670533,8.707886879350347
9.723767981438513,1.3653953596287702,4.2736283062644995,8.713244547563804
9.731764501160091,1.3655552900232018,4.279545730858468,8.71860221577726
9.73976102088167,1.3657152204176333,4.285463155452435,8.723959883990718
9.747757540603248,1.365875150812065,4.291380580046403,8.729317552204176
9.755754060324826,1.3660350812064965,4.297298004640371,8.734675220417632
9.763750580046402,1.366195011600928,4.303215429234338,8.740032888631088
9.77174709976798,1.3663549419953596,4.309132853828305,8.745390556844546
9.779743619489558,1.366514872389791,4.315050278422273,8.750748225058004
9.787740139211136,1.3666748027842228,4.320967703016241,8.75610589327146
9.795736658932713,1.3668347331786543,4.326885127610208,8.761463561484916
9.80373317865429,1.3669946635730859,4.332802552204175,8.766821229698374
9.811729698375869,1.3697380857135226,4.407605795130278,8.832161266234634
9.819726218097447,1.3778265194548889,4.40328583620023,8.822969864255809
9.827722737819025,1.3859149531962554,4.398965877270182,8.813778462276982
9.835719257540601,1.39400338693762,4.394645918340135,8.804587060298159
9.84371577726218,1.4020918206789863,4.390325959410087,8.795395658319334
9.851712296983758,1.4101802544203528,4.386006000480039,8.78620425634051
9.859708816705336,1.418268688161719,4.381686041549991,8.777012854361683
9.867705336426912,1.4263571219030837,4.377366082619944,8.76782145238286
9.87570185614849,1.4344455556444502,4.373046123689896,8.758630050404035
9.883698375870068,1.4425339893858165,4.368726164759848,8.749438648425208
9.891694895591646,1.450622423127183,4.3644062058298,8.740247246446383
9.899691415313224,1.3030812064965938,4.251058004640424,8.733
9.9076879350348,1.3667834493426136,4.325433488012354,8.7592996906419
9.915684454756379,1.3689158546017008,4.404865583913361,8.830202165506558
9.923680974477957,1.3729364994199529,4.395038355568448,8.833
9.931677494199535,1.3770347157772616,4.381544228538285,8.833
9.939674013921113,1.3811329321345702,4.368050101508122,8.833
9.94767053364269,1.3852311484918782,4.354555974477962,8.833
9.955667053364268,1.389329364849187,4.341061847447799,8.833
9.963663573085846,1.3934275812064958,4.327567720417636,8.833
9.971660092807424,1.3975257975638045,4.314073593387473,8.833
9.979656612529,1.4016240139211122,4.300579466357313,8.833
9.987653132250578,1.4057222302784211,4.28708533932715,8.833
9.995649651972156,1.4098204466357298,4.273591212296987,8.833
10.003646171693735,1.365054560241108,4.261018728920994,8.701827768077115
10.011642691415313,1.3652194369363981,4.267119166646734,8.70735113736934
10.019639211136889,1.3653843136316883,4.273219604372472,8.712874506661562
10.027635730858467,1.3655491903269787,4.279320042098212,8.718397875953785
10.035632250580045,1.365714067022269,4.285420479823952,8.72392124524601
10.043628770301623,1.3658789437175591,4.2915209175496924,8.729444614538235
10.0516252900232,1.3660438204128496,4.297621355275431,8.734967983830456
10.059621809744778,1.3662086971081397,4.303721793001171,8.74049135312268
10.067618329466356,1.36637357380343,4.309822230726911,8.746014722414905
10.075614849187934,1.3665384504987204,4.31592266845265,8.751538091707129
10.083611368909512,1.3667033271940106,4.32202310617839,8.757061460999353
10.091607888631088,1.3668682038893007,4.3281235439041295,8.762584830291576
10.099604408352667,1.369,4.408,8.833
10.107600928074245,1.365,4.259,8.7
10.115597447795823,1.365,4.259,8.7
10.123593967517401,1.365,4.259,8.7
10.131590487238977,1.365,4.259,8.7
10.139587006960555,1.365,4.259,8.7
10.147583526682133,1.365,4.259,8.7
10.155580046403712,1.365,4.259,8.7
10.163576566125288,1.365,4.259,8.7
10.171573085846866,1.365,4.259,8.7
10.179569605568444,1.365,4.259,8.7
10.187566125290022,1.365,4.259,8.7
10.1955626450116,1.365,4.259,8.7
10.203559164733177,1.4111183294663532,4.31437819025507,8.870464037122833
10.211555684454755,1.3713810076234665,4.395179189719796,8.828970602483365
10.219552204176333,1.3748080875041429,4.376725682670001,8.823170928839144
10.227548723897911,1.378235167384819,4.358272175620205,8.81737125519492
10.235545243619487,1.3816622472654947,4.339818668570413,8.811571581550702
10.243541763341065,1.3850893271461708,4.321365161520618,8.80577190790648
10.251538283062644,1.3885164070268472,4.302911654470823,8.799972234262258
10.259534802784222,1.3919434869075236,4.284458147421027,8.794172560618037
10.2675313225058,1.3953705667881997,4.266004640371232,8.788372886973816
10.275527842227376,1.3987976466688752,4.247551133321441,8.782573213329595
10.283524361948954,1.4022247265495515,4.2290976262716455,8.776773539685374
10.291520881670532,1.405651806430228,4.2106441192218504,8.770973866041151
10.29951740139211,1.3863503480278507,4.228712296983747,8.73326682134572
10.307513921113689,1.4087027842227375,4.224354408352663,8.790191879350344
10.315510440835265,1.41,4.273,8.833
10.323506960556843,1.41,4.273,8.833
10.331503480278421,1.41,4.273,8.833
10.3395,1.41,4.273,8.833
10.347496519721576,1.41,4.273,8.833
10.355493039443154,1.41,4.273,8.833
10.363489559164732,1.41,4.273,8.833
10.37148607888631,1.41,4.273,8.833
10.379482598607888,1.41,4.273,8.833
10.387479118329464,1.41,4.273,8.833
10.395475638051042,1.41,4.273,8.833
10.40347215777262,1.41,4.273,8.833
10.411468677494199,1.41,4.273,8.833
10.419465197215777,1.41,4.273,8.833
10.427461716937353,1.41,4.273,8.833
10.435458236658931,1.41,4.273,8.833
10.44345475638051,1.41,4.273,8.833
10.451451276102087,1.41,4.273,8.833
10.459447795823664,1.41,4.273,8.833
10.467444315545242,1.41,4.273,8.833
10.47544083526682,1.41,4.273,8.833
10.483437354988398,1.41,4.273,8.833
10.491433874709976,1.41,4.273,8.833
10.499430394431553,1.391493039443253,4.298823665893135,8.804593967517551
10.50742691415313,1.4056578581023333,4.205711930638659,8.767
10.515423433874709,1.4022067285382838,4.217075406032481,8.767
10.523419953596287,1.3987555989742342,4.228438881426302,8.767
10.531416473317863,1.3953044694101855,4.239802356820121,8.767
10.539412993039441,1.391853339846136,4.251165832213943,8.767
10.54740951276102,1.3884022102820863,4.262529307607765,8.767
10.555406032482598,1.3849510807180367,4.273892783001586,8.767
10.563402552204176,1.3814999511539874,4.285256258395408,8.767
10.571399071925752,1.3780488215899385,4.296619733789227,8.767
10.57939559164733,1.3745976920258889,4.307983209183049,8.767
10.587392111368908,1.3711465624618395,4.31934668457687,8.767
10.595388631090486,1.36769543289779,4.330710159970692,8.767
10.603385150812064,1.4080294712938737,4.199105173520264,8.767972552697831
10.61138167053364,1.408199610011354,4.205485375425777,8.773587130374683
10.619378190255219,1.4083697487288345,4.211865577331292,8.779201708051536
10.627374709976797,1.4085398874463146,4.218245779236806,8.78481628572839
10.635371229698375,1.408710026163795,4.224625981142321,8.790430863405241
10.643367749419951,1.4088801648812754,4.231006183047834,8.796045441082093
10.65136426914153,1.4090503035987558,4.237386384953348,8.801660018758946
10.659360788863108,1.4092204423162362,4.243766586858863,8.807274596435798
10.667357308584686,1.4093905810337166,4.250146788764377,8.812889174112652
10.675353828306264,1.409560719751197,4.256526990669891,8.818503751789505
10.68335034802784,1.4097308584686774,4.262907192575405,8.824118329466357
10.691346867749418,1.4099009971861578,4.269287394480918,8.829732907143208
10.699343387470996,1.4085373549883984,4.218016473317842,8.784867053364247
10.707339907192575,1.4117359628770296,4.337164617169359,8.89122076566124
10.715336426914151,1.4103696829079664,4.286678267594763,8.845384377416881
10.723332946635729,1.409843630947266,4.267136160522473,8.827839821259778
10.731329466357307,1.4096461860158689,4.259731975595086,8.821324138523677
10.739325986078885,1.4094487410844718,4.2523277906676995,8.814808455787576
10.747322505800463,1.409251296153075,4.244923605740312,8.808292773051475
10.75531902552204,1.409053851221678,4.2375194208129265,8.801777090315376
10.763315545243618,1.4088564062902809,4.230115235885539,8.795261407579275
10.771312064965196,1.408658961358884,4.222711050958153,8.788745724843174
10.779308584686774,1.408461516427487,4.215306866030765,8.782230042107074
10.787305104408352,1.40826407149609,4.207902681103378,8.775714359370973
10.795301624129928,1.408066626564693,4.200498496175992,8.769198676634872
10.803298143851507,1.41,4.273,8.833
10.811294663573085,1.4098956971103143,4.269114717359208,8.82953192891795
10.819291183294663,1.4095322189411517,4.255575155557899,8.817446279793293
10.827287703016239,1.409168740771989,4.242035593756594,8.805360630668638
10.835284222737817,1.4088052626028265,4.228496031955285,8.79327498154398
10.843280742459395,1.4084417844336639,4.214956470153977,8.781189332419322
10.851277262180973,1.408078306264501,4.20141690835267,8.769103683294665
10.859273781902552,1.4077148280953384,4.187877346551361,8.757018034170006
10.867270301624128,1.4073513499261758,4.174337784750056,8.744932385045352
10.875266821345706,1.4069878717570132,4.160798222948747,8.732846735920694
10.883263341067284,1.4066243935878506,4.147258661147439,8.720761086796037
10.891259860788862,1.406260915418688,4.133719099346131,8.708675437671378
10.89925638051044,1.4067521268368133,4.151828692962093,8.725196249033246
10.907252900232017,1.408175123575107,4.273449409865831,8.832550590134169
10.915249419953595,1.396528018763243,4.276317726722485,8.829682273277516
10.923245939675173,1.3848809139513791,4.279186043579138,8.826813956420862
10.931242459396751,1.373233809139515,4.282054360435791,8.82394563956421
10.939238979118327,1.361586704327654,4.284922677292443,8.821077322707557
10.947235498839905,1.34993959951579,4.287790994149097,8.818209005850903
10.955232018561484,1.338292494703926,4.29065931100575,8.815340688994251
10.963228538283062,1.326645389892062,4.293527627862402,8.812472372137599
10.97122505800464,1.3149982850801982,4.296395944719055,8.809604055280944
10.979221577726216,1.3033511802683369,4.299264261575708,8.806735738424292
10.987218097447794,1.2917040754564728,4.302132578432361,8.80386742156764
10.995214617169372,1.280056970644609,4.305000895289014,8.800999104710986
11.00321113689095,1.41,4.273,8.833
11.011207656612527,1.41,4.273,8.833
11.019204176334105,1.41,4.273,8.833
11.027200696055683,1.41,4.273,8.833
11.035197215777261,1.41,4.273,8.833
11.04319373549884,1.41,4.273,8.833
11.051190255220416,1.41,4.273,8.833
11.059186774941994,1.41,4.273,8.833
11.067183294663572,1.41,4.273,8.833
11.07517981438515,1.41,4.273,8.833
11.083176334106728,1.41,4.273,8.833
11.091172853828304,1.41,4.273,8.833
11.099169373549882,1.4041531322505907,4.271180974477962,8.815719257540636
11.10716589327146,1.3651658932714612,4.2651380510440635,8.705557424593948
11.115162412993039,1.3695225427125077,4.3294801729592916,8.77087180974478
11.123158932714615,1.3734299330310051,4.324028000421853,8.77686919953596
11.131155452436193,1.3773373233495037,4.3185758278844135,8.782866589327146
11.139151972157771,1.381244713668002,4.313123655346974,8.788863979118329
11.14714849187935,1.3851521039865002,4.307671482809535,8.794861368909512
11.155145011600927,1.3890594943049985,4.302219310272095,8.800858758700695
11.163141531322504,1.3929668846234962,4.296767137734657,8.806856148491878
11.171138051044082,1.3968742749419945,4.291314965197217,8.812853538283061
11.17913457076566,1.4007816652604927,4.285862792659778,8.818850928074244
11.187131090487238,1.404689055578991,4.280410620122337,8.824848317865428
11.195127610208814,1.4085964458974887,4.2749584475849,8.83084570765661
11.203124129930393,1.389168793503432,4.2247140371230385,8.737658352668138
11.21112064965197,1.40486078886311,4.20833642691415,8.767
11.219117169373549,1.4013354414589734,4.219944278122893,8.767
11.227113689095127,1.3978100940548368,4.231552129331635,8.767
11.235110208816703,1.394284746650701,4.2431599805403755,8.767
11.243106728538281,1.3907593992465643,4.254767831749118,8.767
11.25110324825986,1.3872340518424278,4.26637568295786,8.767
11.259099767981438,1.3837087044382912,4.277983534166602,8.767
11.267096287703016,1.3801833570341546,4.289591385375345,8.767
11.275092807424592,1.376658009630019,4.301199236584084,8.767
11.28308932714617,1.3731326622258822,4.312807087792827,8.767
11.291085846867748,1.3696073148217456,4.324414939001569,8.767
11.299082366589326,1.41,4.273,8.833
11.307078886310903,1.4125127121748677,4.277704652582731,8.84369239223348
11.31507540603248,1.4164688850897538,4.285111955061667,8.860527170594697
11.323071925754059,1.4204250580046398,4.292519257540602,8.877361948955913
11.331068445475637,1.4243812309195256,4.2999265600195375,8.89419672731713
11.339064965197215,1.4283374038344117,4.3073338624984725,8.911031505678348
11.347061484918791,1.4322935767492968,4.314741164977407,8.927866284039562
11.35505800464037,1.4362497496641828,4.322148467456342,8.944701062400778
11.363054524361948,1.4402059225790689,4.329555769935277,8.961535840761995
11.371051044083526,1.444162095493955,4.336963072414213,8.978370619123211
11.379047563805102,1.44811826840884,4.344370374893147,8.995205397484424
11.38704408352668,1.4520744413237259,4.351777677372082,9.012040175845641
11.395040603248258,1.456030614238612,4.359184979851018,9.02887495420686
11.403037122969836,1.6841563316644235,4.077884698986471,9.147860275979966
11.411033642691415,1.7200985834656217,3.869385968982799,9.206192783001582
11.41903016241299,1.7560408352668118,3.6608872389791736,9.264525290023187
11.427026682134569,1.79198308706801,3.4523885089755018,9.322857797044803
11.435023201856147,1.8279253388692083,3.2438897789718295,9.38119030406642
11.443019721577725,1.8638675906704065,3.0353910489681573,9.439522811088036
11.451016241299303,1.8998098424716048,2.826892318964485,9.497855318109654
11.45901276102088,1.9357520942727948,2.61839358896086,9.556187825131257
11.467009280742458,1.971694346073993,2.4098948589571876,9.614520332152875
11.475005800464036,2.0076365978751913,2.2013961289535153,9.67285283917449
11.483002320185614,2.0435788496763894,1.9928973989498435,9.731185346196108
11.49099883990719,2.07952110147758,1.7843986689462175,9.789517853217712
11.498995359628768,1.9777807424594915,1.1982819025524685,9.493342227378475
11.506991879350347,2.07700071026088,0.7950327193522385,9.088031050239127
11.514988399071925,2.257167195416434,0.8231021355177778,9.037359226289128
11.522984918793503,2.4373336805719887,0.8511715516833172,8.986687402339127
11.530981438515079,2.617500165727503,0.8792409678488501,8.93601557838914
11.538977958236657,2.797666650883057,0.9073103840143895,8.88534375443914
11.546974477958235,2.977833136038612,0.9353798001799287,8.83467193048914
11.554970997679813,3.1579996211941666,0.963449216345468,8.78400010653914
11.562967517401392,3.3381661063497203,0.9915186325110072,8.733328282589142
11.570964037122968,3.518332591505235,1.0195880486765403,8.682656458639153
11.578960556844546,3.6984990766607897,1.0476574648420796,8.631984634689154
11.586957076566124,3.878665561816344,1.0757268810076188,8.581312810739155
11.594953596287702,4.058832046971898,1.103796297173158,8.530640986789155
11.602950116009279,4.19232714617122,0.9533874709978986,8.617051044082634
11.610946635730857,4.256615093417988,0.915042373916236,8.688436439125645
11.618943155452435,4.309560471364016,0.8818778605446386,8.738183209183042
11.626939675174013,4.362505849310043,0.8487133471730411,8.787929979240438
11.634936194895591,4.415451227256071,0.8155488338014437,8.837676749297835
11.642932714617167,4.468396605202086,0.7823843204298537,8.887423519355218
11.650929234338745,4.521341983148114,0.7492198070582563,8.937170289412615
11.658925754060323,4.574287361094141,0.7160552936866589,8.986917059470011
11.666922273781902,4.627232739040168,0.6828907803150615,9.036663829527408
11.674918793503478,4.680178116986184,0.6497262669434715,9.086410599584793
11.682915313225056,4.733123494932212,0.616561753571874,9.13615736964219
11.690911832946634,4.786068872878238,0.5833972402002767,9.185904139699586
11.698908352668212,4.988328306264317,0.5026780742460006,9.23817517401391
11.70690487238979,4.872689238644242,-0.09323333413064763,8.71496615399335
11.714901392111367,4.978540077020571,-0.10395031932451268,8.716944674336833
11.722897911832945,5.084390915396924,-0.1146673045183801,8.718923194680317
11.730894431554523,5.190241753773275,-0.12538428971224752,8.7209017150238
11.738890951276101,5.296092592149628,-0.13610127490611496,8.722880235367283
11.74688747099768,5.40194343052598,-0.1468182600999824,8.724858755710766
11.754883990719255,5.507794268902309,-0.15753524529384744,8.72683727605425
11.762880510440834,5.613645107278661,-0.16825223048771487,8.728815796397733
11.770877030162412,5.719495945655013,-0.17896921568158228,8.730794316741216
11.77887354988399,5.825346784031365,-0.18968620087544968,8.732772837084697
11.786870069605566,5.931197622407693,-0.20040318606931473,8.73475135742818
11.794866589327144,6.037048460784046,-0.21112017126318217,8.736729877771664
11.802863109048722,5.8693341067286395,-0.6201345707655247,8.374890951276427
11.8108596287703,6.555920457984461,-0.9677662286896029,7.967746671038036
11.818856148491879,6.63971007767578,-0.8851065520024209,7.852144809845657
11.826852668213455,6.723499697367079,-0.8024468753152574,7.736542948653304
11.834849187935033,6.807289317058396,-0.7197871986280754,7.620941087460926
11.842845707656611,6.8910789367497145,-0.6371275219408934,7.505339226268547
11.85084222737819,6.974868556441033,-0.5544678452537115,7.389737365076169
11.858838747099766,7.058658176132332,-0.47180816856654784,7.274135503883816
11.866835266821344,7.14244779582365,-0.38914849187936595,7.158533642691437
11.874831786542922,7.2262374155149685,-0.30648881519218396,7.042931781499059
11.8828283062645,7.310027035206287,-0.22382913850500197,6.92732992030668
11.890824825986078,7.393816654897604,-0.14116946181782009,6.8117280591143015
11.898821345707654,7.990554524360552,-0.3955382830617647,6.988078886310154
11.906817865429232,9.620310746122819,-2.1886669678837536,6.477442789107462
11.91481438515081,9.723592111368886,-2.164929930394437,6.048997679814482
11.922810904872389,9.826873476614955,-2.1411928929051207,5.620552570521502
11.930807424593967,9.930154841861022,-2.1174558554158045,5.192107461228522
11.938803944315543,10.033436207107068,-2.093718817926493,4.763662351935638
11.946800464037121,10.136717572353135,-2.069981780437177,4.335217242642658
11.9547969837587,10.239998937599204,-2.0462447429478603,3.9067721333496785
11.962793503480277,10.34328030284527,-2.022507705458544,3.478327024056699
11.970790023201854,10.446561668091316,-1.998770667969233,3.0498819147638145
11.978786542923432,10.549843033337384,-1.9750336304799165,2.621436805470835
11.98678306264501,10.653124398583453,-1.9512965929906,2.192991696177855
11.994779582366588,10.75640576382952,-1.9275595555012837,1.764546586884875
12.002776102088166,10.476210121809789,-2.4845651102087376,1.200956641531377
12.010772621809743,10.156925534253304,-3.9753619489558765,1.1883147392844722
12.01876914153132,10.034789217242674,-4.103306264501128,0.9777116619856441
12.026765661252899,9.912652900232041,-4.231250580046379,0.767108584686816
12.034762180974477,9.790516583221411,-4.35919489559163,0.5565055073879878
12.042758700696055,9.668380266210779,-4.487139211136881,0.34590243008915966
12.050755220417631,9.546243949200175,-4.615083526682104,0.1352993527903783
12.05875174013921,9.424107632189545,-4.743027842227356,-0.0753037245084498
12.066748259860788,9.301971315178912,-4.870972157772607,-0.2859068018072779
12.074744779582366,9.179834998168282,-4.998916473317858,-0.496509879106106
12.082741299303942,9.057698681157678,-5.126860788863081,-0.7071129564048872
12.09073781902552,8.935562364147046,-5.254805104408332,-0.9177160337037156
12.098734338747098,8.813426047136415,-5.3827494199535835,-1.1283191110025437
12.106730858468676,7.4552482598611896,-6.151095127610087,-1.2640696055683651
12.114727378190254,5.911035871633768,-6.409591256289262,-0.9163365702963991
12.12272389791183,5.997649860528145,-6.474641596496242,-1.0326904246721442
12.130720417633409,6.08426384942254,-6.539691936703236,-1.149044279047915
12.138716937354987,6.170877838316937,-6.604742276910231,-1.265398133423686
12.146713457076565,6.257491827211333,-6.669792617117225,-1.3817519877994568
12.154709976798141,6.34410581610571,-6.734842957324205,-1.4981058421752018
12.16270649651972,6.4307198050001055,-6.7998932975312005,-1.6144596965509725
12.170703016241298,6.517333793894502,-6.864943637738195,-1.7308135509267433
12.178699535962876,6.603947782788898,-6.929993977945189,-1.8471674053025142
12.186696055684454,6.690561771683295,-6.995044318152184,-1.9635212596782852
12.19469257540603,6.777175760577672,-7.060094658359164,-2.07987511405403
12.202689095127608,4.5936083526680624,-7.075301160092778,-1.272619025522147
12.210685614849186,5.262117401392008,-7.206444083526661,-0.8040229698376599
12.218682134570765,5.206929247087042,-7.276170112949688,-0.7728203513423868
12.226678654292343,5.009388847811137,-7.333815354019526,-0.8276536294332075
12.234675174013919,4.811848448535276,-7.39146059508935,-0.882486907524016
12.242671693735497,4.61430804925937,-7.4491058361591875,-0.9373201856148368
12.250668213457075,4.416767649983465,-7.5067510772290245,-0.9921534637056574
12.258664733178653,4.21922725070756,-7.564396318298861,-1.046986741796478
12.26666125290023,4.021686851431698,-7.622041559368686,-1.1018200198872865
12.274657772621808,3.8241464521557935,-7.679686800438523,-1.1566532979781072
12.282654292343386,3.626606052879888,-7.737332041508361,-1.211486576068928
12.290650812064964,3.429065653603983,-7.7949772825781976,-1.2663198541597485
12.298647331786542,3.2315252543280777,-7.8526225236480345,-1.3211531322505694
12.306643851508118,2.803720127610453,-8.264158352668133,0.10256931554550024
12.314640371229697,2.199371651550346,-8.448073613161775,-0.3721212824299036
12.322636890951275,2.0587056000844024,-8.467156217042813,-0.24308653237716477
12.330633410672853,1.9180395486184587,-8.486238820923852,-0.11405178232442592
12.33862993039443,1.7773734971525466,-8.505321424804887,0.01498296772828428
12.346626450116007,1.636707445686603,-8.524404028685925,0.14401771778102318
12.354622969837585,1.4960413942206594,-8.543486632566964,0.27305246783376197
12.362619489559163,1.355375342754716,-8.562569236448004,0.40208721788650087
12.370616009280742,1.2147092912887725,-8.581651840329043,0.5311219679392396
12.378612529002318,1.07404323982286,-8.600734444210078,0.6601567179919499
12.386609048723896,0.9333771883569166,-8.619817048091116,0.7891914680446888
12.394605568445474,0.7927111368909732,-8.638899651972155,0.9182262180974277
12.402602088167052,1.302368445475406,-8.670299767981291,1.1356498839906455
12.41059860788863,1.0672309873678782,-8.778197215777261,1.1306277391080137
12.418595127610207,1.0679417891209073,-8.794190255220414,1.2648804202113677
12.426591647331785,1.0686525908739364,-8.81018329466357,1.3991331013147517
12.434588167053363,1.0693633926269657,-8.826176334106727,1.5333857824181354
12.442584686774941,1.0700741943799947,-8.842169373549883,1.6676384635215191
12.450581206496517,1.0707849961330238,-8.858162412993035,1.801891144624873
12.458577726218095,1.0714957978860529,-8.874155452436192,1.9361438257282568
12.466574245939674,1.0722065996390822,-8.890148491879348,2.070396506831641
12.474570765661252,1.0729174013921112,-8.906141531322504,2.2046491879350247
12.48256728538283,1.0736282031451405,-8.92213457076566,2.3389018690384082
12.490563805104406,1.0743390048981694,-8.938127610208813,2.4731545501417624
12.498560324825984,1.2859622969832416,-9.097843967517045,2.398804524362437
12.506556844547562,0.7845867871535019,-8.857658273293442,2.942205592868477
12.51455336426914,0.7679203565758972,-8.863634619611673,2.96964628159726
12.522549883990717,0.7512539259982961,-8.869610965929905,2.9970869703260377
12.530546403712295,0.7345874954206912,-8.875587312248136,3.0245276590548213
12.538542923433873,0.7179210648430865,-8.881563658566368,3.051968347783605
12.546539443155451,0.7012546342654817,-8.8875400048846,3.0794090365123887
12.55453596287703,0.6845882036878769,-8.893516351202832,3.1068497252411724
12.562532482598606,0.6679217731102758,-8.899492697521064,3.13429041396995
12.570529002320184,0.651255342532671,-8.905469043839295,3.1617311026987336
12.578525522041762,0.6345889119550663,-8.911445390157526,3.1891717914275173
12.58652204176334,0.6179224813774614,-8.91742173647576,3.2166124801563005
12.594518561484918,0.6012560507998567,-8.923398082793991,3.244053168885084
12.602515081206494,1.3999425109564252,-9.21691518432584,2.3997968548595616
12.610511600928072,-0.9109118329430896,-9.22914037122977,4.608538283058975
12.61850812064965,-1.4290914364058847,-9.305377241088355,5.1746772832736285
12.626504640371229,-1.1778371519722064,-9.402698520881652,4.946412993039488
12.634501160092805,-0.9265828675385841,-9.500019800674929,4.718148702805397
12.642497679814383,-0.675328583104906,-9.597341080468226,4.489884412571256
12.650494199535961,-0.4240742986712278,-9.694662360261525,4.261620122337115
12.65849071925754,-0.17282001423754956,-9.791983640054823,4.033355832102974
12.666487238979117,0.07843427019612847,-9.88930491984812,3.8050915418688334
12.674483758700694,0.3296885546297508,-9.986626199641398,3.5768272516347435
12.682480278422272,0.5809428390634293,-10.083947479434695,3.3485629614006025
12.69047679814385,0.8321971234971071,-10.181268759227994,3.1202986711664615
12.698473317865428,1.0834514079307853,-10.278590039021292,2.8920343809323206
12.706469837587006,-0.19846792091193471,-8.635437922425096,2.9472971602945623
12.714466357308583,-0.17239231312418593,-8.710970266316941,2.969374508221523
12.72246287703016,-0.14631670533643137,-8.786502610208803,2.991451856148488
12.730459396751739,-0.12024109754867682,-8.862034954100666,3.013529204075454
12.738455916473317,-0.09416548976092225,-8.937567297992528,3.0356065520024194
12.746452436194893,-0.06808988197317348,-9.013099641884374,3.05768389992938
12.754448955916471,-0.04201427418541892,-9.088631985776237,3.0797612478563456
12.76244547563805,-0.015938666397664336,-9.164164329668099,3.101838595783311
12.770441995359628,0.01013694139009022,-9.239696673559962,3.1239159437102764
12.778438515081206,0.03621254917784478,-9.315229017451824,3.145993291637242
12.786435034802782,0.06228815696559353,-9.39076136134367,3.1680706395642027
12.79443155452436,0.08836376475334812,-9.46629370523553,3.190147987491168
12.802428074245938,-0.3571925754062428,-8.757308584686871,2.8289042923447956
12.810424593967516,-0.3312614482842761,-8.776641714495042,2.4989100012211374
12.818421113689093,-0.36493100500670317,-8.825799267309787,2.5558957259738455
12.82641763341067,-0.3986005617291377,-8.874956820124542,2.6128814507265656
12.834414153132249,-0.43227011845157226,-8.924114372939295,2.669867175479286
12.842410672853827,-0.4659396751740068,-8.97327192575405,2.7268529002320068
12.850407192575405,-0.4996092318964414,-9.022429478568805,2.7838386249847273
12.858403712296981,-0.5332787886188685,-9.071587031383547,2.840824349737435
12.86640023201856,-0.566948345341303,-9.120744584198302,2.8978100744901556
12.874396751740138,-0.6006179020637376,-9.169902137013057,2.954795799242876
12.882393271461716,-0.6342874587861721,-9.21905968982781,3.0117815239955963
12.890389791183294,-0.6679570155086068,-9.268217242642566,3.068767248748317
12.89838631090487,-0.7193155452435191,-9.425098607888058,3.2106925754055773
12.906382830626448,0.07656612528969758,-9.938327146171432,3.768081206497997
12.914379350348026,0.17113133270442402,-10.037432357665537,3.069657453915021
12.922375870069605,0.13984824456286546,-10.036817240763877,2.9197446775962037
12.93037238979118,0.10856515642131385,-10.036202123862218,2.7698319012774197
12.938368909512759,0.07728206827975528,-10.035587006960558,2.6199191249586025
12.946365429234337,0.04599898013819673,-10.034971890058898,2.470006348639785
12.954361948955915,0.01471589199663817,-10.034356773157239,2.3200935723209684
12.962358468677493,-0.016567196144920388,-10.033741656255577,2.170180796002151
12.97035498839907,-0.047850284286472006,-10.033126539353917,2.020268019683367
12.978351508120648,-0.07913337242803054,-10.032511422452258,1.87035524336455
12.986348027842226,-0.11041646056958909,-10.031896305550598,1.7204424670457328
12.994344547563804,-0.14169954871114765,-10.031281188648938,1.5705296907269157
13.00234106728538,-0.26279025522037425,-9.921605104408398,1.5948988399071549
13.010337587006958,0.3419228538284743,-10.273088747099868,1.4864385150814363
13.018334106728537,0.1544661397912001,-10.181369344547571,1.4258153277262144
13.026330626450115,0.019774760730868923,-10.12289479408353,1.4550526029582345
13.034327146171693,-0.11491661832946226,-10.064420243619491,1.4842898781902543
13.042323665893269,-0.24960799738976347,-10.005945693155464,1.5135271534222678
13.050320185614847,-0.3842993764500947,-9.947471142691423,1.5427644286542876
13.058316705336425,-0.5189907555104258,-9.888996592227384,1.5720017038863077
13.066313225058003,-0.6536821345707571,-9.830522041763345,1.6012389791183277
13.074309744779582,-0.7883735136310883,-9.772047491299304,1.6304762543503475
13.082306264501158,-0.9230648926913896,-9.713572940835277,1.659713529582361
13.090302784222736,-1.0577562717517206,-9.655098390371238,1.6889508048143809
13.098299303944314,-1.1924476508120518,-9.596623839907197,1.718188080046401
13.106295823665892,-1.327139029872383,-9.538149289443158,1.7474253552784207
13.114292343387469,-0.23728414539836326,-9.86989311678269,1.3422204949730674
13.122288863109047,-0.01711330239757458,-9.821380897138448,0.878688901778913
13.130285382830625,0.20305754060321413,-9.772868677494207,0.41515730858475863
13.138281902552203,0.4232283836040027,-9.724356457849966,-0.048374284609395746
