accel_time_list,vertical_Accel_x,vertical_Accel_y,vertical_Accel_z
0.0,3.306,-4.924,8.5
0.007998803827751196,1.09027173046252,-4.027156499202552,8.067086323763956
0.015997607655502392,2.787990638651966,-4.413768254628666,8.334969835656334
0.02399641148325359,2.6739207405866448,-4.413304555856043,8.338911275223632
0.031995215311004785,2.5598508425213233,-4.412840857083419,8.342852714790931
0.039994019138755985,2.445780944456002,-4.412377158310797,8.346794154358228
0.04799282296650718,2.3317110463906805,-4.411913459538173,8.350735593925526
0.05599162679425837,2.217641148325359,-4.41144976076555,8.354677033492823
0.06399043062200957,2.1035712502600377,-4.410986061992927,8.35861847306012
0.07198923444976077,1.989501352194716,-4.410522363220304,8.36255991262742
0.07998803827751197,1.8754314541293946,-4.41005866444768,8.366501352194717
0.08798684210526315,2.809271052631579,-5.4523710526315785,7.834076315789474
0.09598564593301435,2.7429143056824903,-5.44704655663674,7.75158416214182
0.10398444976076555,2.627875329283372,-5.352229275307779,7.82051767378098
0.11198325358851674,2.5128363528842534,-5.257411993978819,7.889451185420139
0.11998205741626794,2.3977973764851352,-5.162594712649858,7.958384697059298
0.12798086124401914,2.282758400086017,-5.067777431320897,8.027318208698457
0.13597966507177034,2.1677194236868984,-4.972960149991936,8.096251720337616
0.14397846889952154,2.05268044728778,-4.878142868662975,8.165185231976777
0.15197727272727274,1.9376414708886616,-4.783325587334014,8.234118743615936
0.15997607655502394,1.8226024944895434,-4.688508306005053,8.303052255255094
0.1679748803827751,1.7075635180904252,-4.593691024676093,8.371985766894253
0.1759736842105263,1.592524541691307,-4.498873743347132,8.440919278533412
0.1839724880382775,0.7504976076555026,-4.296,9.015751196172248
0.1919712918660287,0.7166523465336455,-4.273951745902474,9.002060673928534
0.1999700956937799,0.6771688893413417,-4.2518273948895455,8.991083592079812
0.2079688995215311,0.637685432149038,-4.229703043876616,8.98010651023109
0.2159677033492823,0.5982019749567342,-4.207578692863687,8.969129428382368
0.22396650717703348,0.5587185177644305,-4.185454341850758,8.958152346533646
0.23196531100478468,0.5192350605721268,-4.16332999083783,8.947175264684923
0.23996411483253588,0.4797516033798229,-4.141205639824901,8.9361981828362
0.24796291866028708,0.44026814618751914,-4.119081288811972,8.925221100987478
0.2559617224880383,0.40078468899521535,-4.0969569377990425,8.914244019138756
0.2639605263157895,0.36130123180291157,-4.074832586786114,8.903266937290034
0.2719593301435407,0.3218177746106078,-4.052708235773185,8.892289855441312
0.2799581339712919,0.31060227272727275,-4.067330143540669,8.855607057416268
0.2879569377990431,0.5533785687996214,-4.358369052000631,8.607746621799253
0.2959557416267943,0.5565429307534572,-4.3530951154109045,8.613987446763762
0.3039545454545455,0.5597072927072928,-4.347821178821179,8.620228271728271
0.3119533492822967,0.5628716546611284,-4.342547242231452,8.62646909669278
0.3199521531100479,0.566036016614964,-4.337273305641727,8.63270992165729
0.327950956937799,0.5692003785687997,-4.331999369052001,8.638950746621799
0.3359497607655502,0.5723647405226353,-4.326725432462275,8.645191571586308
0.3439485645933014,0.5755291024764709,-4.321451495872549,8.651432396550819
0.3519473684210526,0.5786934644303066,-4.316177559282822,8.657673221515328
0.3599461722488038,0.5818578263841422,-4.310903622693097,8.663914046479837
0.367944976076555,0.5850221883379778,-4.30562968610337,8.670154871444346
0.3759437799043062,0.5881865502918134,-4.300355749513645,8.676395696408855
0.3839425837320574,0.7364344497607656,-4.2840474943339215,8.873863208259884
0.3919413875598086,0.7316351674641148,-4.275964492571141,8.881188428607404
0.3999401913875598,0.7268358851674641,-4.267881490808361,8.888513648954923
0.407938995215311,0.7220366028708134,-4.259798489045581,8.895838869302443
0.4159377990430622,0.7172373205741627,-4.251715487282801,8.903164089649962
0.4239366028708134,0.712438038277512,-4.2436324855200205,8.910489309997482
0.4319354066985646,0.7076387559808612,-4.23554948375724,8.917814530345002
0.4399342105263158,0.7028394736842105,-4.22746648199446,8.925139750692521
0.44793301435406696,0.6980401913875598,-4.21938348023168,8.93246497104004
0.45593181818181816,0.6932409090909091,-4.2113004784689,8.93979019138756
0.46393062200956936,0.6884416267942585,-4.2032174767061194,8.94711541173508
0.47192942583732056,0.6836423444976077,-4.195134474943339,8.9544406320826
0.47992822966507176,0.5720191387559804,-4.144650717703349,8.841413875598086
0.48792703349282296,0.690106874842609,-4.1007245152354574,8.754230130949384
0.49592583732057416,0.7130087131704861,-4.090536565096953,8.75785064215563
0.5039246411483254,0.7359105514983633,-4.080348614958449,8.761471153361875
0.5119234449760766,0.7588123898262403,-4.070160664819944,8.76509166456812
0.5199222488038278,0.7817142281541175,-4.05997271468144,8.768712175774365
0.527921052631579,0.8046160664819946,-4.049784764542936,8.77233268698061
0.5359198564593302,0.8275179048098718,-4.039596814404432,8.775953198186855
0.5439186602870814,0.8504197431377488,-4.029408864265928,8.7795737093931
0.5519174641148326,0.8733215814656259,-4.019220914127424,8.783194220599345
0.5599162679425838,0.8962234197935031,-4.00903296398892,8.78681473180559
0.567915071770335,0.9191252581213802,-3.9988450138504157,8.790435243011835
0.5759138755980862,0.9420270964492573,-3.9886570637119116,8.794055754218082
0.5839126794258374,0.8227956395205445,-4.093235226656144,8.947473092290238
0.5919114832535886,0.8122405169437181,-4.09529677403443,8.942855226162877
0.5999102870813398,0.8016853943668918,-4.097358321412717,8.938237360035515
0.607909090909091,0.7911302717900655,-4.099419868791003,8.933619493908154
0.6159078947368422,0.7805751492132391,-4.101481416169289,8.929001627780792
0.6239066985645934,0.7700200266364129,-4.103542963547576,8.92438376165343
0.6319055023923446,0.7594649040595866,-4.105604510925862,8.91976589552607
0.6399043062200958,0.7489097814827602,-4.107666058304148,8.915148029398708
0.6479031100478468,0.738354658905934,-4.109727605682435,8.910530163271346
0.655901913875598,0.7277995363291078,-4.111789153060721,8.905912297143985
0.6639007177033492,0.7172444137522814,-4.1138507004390075,8.901294431016623
0.6718995215311004,0.7066892911754551,-4.1159122478172945,8.896676564889262
0.6798983253588516,0.6961341685986288,-4.117973795195581,8.8920586987619
0.6878971291866028,0.5970717703349283,-4.112744019138756,8.937444976076554
0.695895933014354,0.588,-4.153,8.976
0.7038947368421052,0.588,-4.153,8.976
0.7118935406698564,0.588,-4.153,8.976
0.7198923444976076,0.588,-4.153,8.976
0.7278911483253588,0.588,-4.153,8.976
0.73588995215311,0.588,-4.153,8.976
0.7438887559808612,0.588,-4.153,8.976
0.7518875598086124,0.588,-4.153,8.976
0.7598863636363636,0.588,-4.153,8.976
0.7678851674641148,0.588,-4.153,8.976
0.775883971291866,0.588,-4.153,8.976
0.7838827751196172,0.4,-4.0,8.8
0.7918815789473684,0.4,-4.0,8.8
0.7998803827751196,0.4,-4.0,8.8
0.8078791866028708,0.4,-4.0,8.8
0.815877990430622,0.4,-4.0,8.8
0.8238767942583732,0.4,-4.0,8.8
0.8318755980861244,0.4,-4.0,8.8
0.8398744019138756,0.4,-4.0,8.8
0.8478732057416268,0.4,-4.0,8.8
0.855872009569378,0.4,-4.0,8.8
0.8638708133971292,0.4,-4.0,8.8
0.8718696172248804,0.4,-4.0,8.8
0.8798684210526316,0.4370526315789495,-3.9927631578947365,8.81592105263158
0.8878672248803828,0.5294158692185009,-3.895176967038809,8.650840676501861
0.8958660287081339,0.5445247208931419,-3.9012501329080274,8.658765417331207
0.9038648325358851,0.559633572567783,-3.907323298777246,8.666690158160552
0.9118636363636363,0.5747424242424242,-3.9133964646464645,8.6746148989899
0.9198624401913875,0.5898512759170653,-3.919469630515683,8.682539639819245
0.9278612440191387,0.6049601275917065,-3.9255427963849017,8.69046438064859
0.9358600478468899,0.6200689792663476,-3.9316159622541202,8.698389121477938
0.9438588516746411,0.6351778309409888,-3.9376891281233384,8.706313862307283
0.9518576555023923,0.6502866826156299,-3.943762293992557,8.71423860313663
0.9598564593301435,0.6653955342902711,-3.9498354598617755,8.722163343965976
0.9678552631578947,0.6805043859649123,-3.955908625730994,8.730088084795321
0.9758540669856459,0.6956132376395534,-3.9619817916002127,8.738012825624669
0.9838528708133971,0.7107220893141946,-3.9680549574694313,8.745937566454014
0.9918516746411483,0.7258309409888357,-3.97412812333865,8.753862307283361
0.9998504784688995,0.8350967902711324,-3.936299043062201,8.67141856060606
1.0078492822966507,0.8311926122123491,-3.9203014354066985,8.673227813852813
1.015848086124402,0.8272884341535657,-3.904303827751196,8.675037067099566
1.0238468899521531,0.8233842560947824,-3.8883062200956937,8.67684632034632
1.0318456937799043,0.8194800780359991,-3.8723086124401913,8.678655573593073
1.0398444976076555,0.8155758999772158,-3.856311004784689,8.680464826839826
1.0478433014354067,0.8116717219184325,-3.8403133971291865,8.682274080086579
1.055842105263158,0.8077675438596491,-3.824315789473684,8.684083333333334
1.0638409090909091,0.8038633658008658,-3.8083181818181817,8.685892586580087
1.0718397129186603,0.7999591877420825,-3.7923205741626793,8.68770183982684
1.0798385167464115,0.7960550096832992,-3.776322966507177,8.689511093073593
1.0878373205741627,0.9831502392344501,-3.8881425837320562,8.781036363636364
1.095836124401914,0.7153373205741682,-4.1130017942583725,8.88962380382775
1.1038349282296651,0.8688404046809237,-4.129799590707327,8.886430593186141
1.1118337320574163,1.0452959445437244,-4.141845982014181,8.880744696489305
1.1198325358851675,1.221751484406525,-4.153892373321035,8.875058799792471
1.1278313397129187,1.3982070242693259,-4.16593876462789,8.869372903095636
1.13583014354067,1.5746625641321264,-4.177985155934744,8.8636870063988
1.1438289473684211,1.751118103994927,-4.190031547241598,8.858001109701966
1.1518277511961723,1.9275736438577278,-4.202077938548452,8.85231521300513
1.1598265550239235,2.1040291837205283,-4.214124329855307,8.846629316308295
1.1678253588516747,2.2804847235833288,-4.226170721162161,8.84094341961146
1.175824162679426,2.4569402634461297,-4.238217112469015,8.835257522914626
1.183822966507177,2.7845464114832605,-4.178372248803826,8.897627751196174
1.1918217703349283,2.6507466349440034,-4.358576108102424,8.992952797202797
1.1998205741626795,2.627101819233398,-4.3578729165571275,8.981262237762238
1.2078193779904307,2.603457003522793,-4.35716972501183,8.969571678321678
1.215818181818182,2.5798121878121876,-4.356466533466533,8.957881118881119
1.223816985645933,2.5561673721015823,-4.355763341921237,8.94619055944056
1.2318157894736843,2.5325225563909775,-4.35506015037594,8.9345
1.2398145933014355,2.508877740680372,-4.354356958830643,8.92280944055944
1.2478133971291867,2.485232924969767,-4.353653767285346,8.911118881118881
1.255812200956938,2.4615881092591616,-4.352950575740049,8.899428321678322
1.263811004784689,2.4379432935485563,-4.352247384194753,8.887737762237762
1.2718098086124403,2.414298477837951,-4.351544192649456,8.876047202797203
1.2798086124401915,2.233224880382767,-4.301263157894734,8.655392344497596
1.2878074162679425,2.214027814025422,-4.300836994345367,8.310877386303224
1.2958062200956937,2.061000193320768,-4.262297303175293,8.32897568991349
1.3038050239234449,1.9079725726161134,-4.22375761200522,8.347073993523754
1.311803827751196,1.754944951911459,-4.185217920835146,8.36517229713402
1.3198026315789473,1.601917331206805,-4.1466782296650715,8.383270600744286
1.3278014354066985,1.4488897105021503,-4.108138538494997,8.40136890435455
1.3358002392344497,1.2958620897974962,-4.069598847324924,8.419467207964816
1.3437990430622009,1.1428344690928418,-4.03105915615485,8.43756551157508
1.351797846889952,0.9898068483881874,-3.9925194649847757,8.455663815185346
1.3597966507177033,0.8367792276835331,-3.953979773814702,8.47376211879561
1.3677954545454545,0.6837516069788787,-3.915440082644628,8.491860422405876
1.3757942583732057,0.5307239862742246,-3.876900391474554,8.509958726016142
1.3837930622009569,-0.2254336124402076,-3.935756578947371,8.414623205741623
1.391791866028708,0.4418874826362083,-3.717082703092041,8.022366774708033
1.3997906698564593,0.5652238771415333,-3.6738203555075373,7.997940320008232
1.4077894736842105,0.6885602716468583,-3.6305580079230335,7.973513865308433
1.4157882775119617,0.8118966661521834,-3.5872956603385298,7.949087410608634
1.4237870813397129,0.9352330606575083,-3.544033312754026,7.924660955908834
1.431785885167464,1.0585694551628333,-3.5007709651695222,7.9002345012090345
1.4397846889952153,1.1819058496681583,-3.4575086175850185,7.875808046509236
1.4477834928229665,1.3052422441734834,-3.4142462700005147,7.851381591809436
1.4557822966507177,1.4285786386788084,-3.370983922416011,7.826955137109636
1.4637811004784689,1.5519150331841334,-3.327721574831507,7.802528682409837
1.47177990430622,1.6752514276894583,-3.2844592272470035,7.778102227710038
1.4797787081339713,1.7985878221947833,-3.2411968796624997,7.753675773010238
1.4877775119617225,1.5188985645933015,-3.4639923444976075,8.222761722488038
1.4957763157894737,-0.33235102843315184,-3.096935874168179,6.896479280096794
1.5037751196172249,-0.333362371445856,-3.105394379365341,6.880573612715174
1.511773923444976,-0.3343737144585602,-3.1138528845625033,6.8646679453335535
1.5197727272727273,-0.3353850574712644,-3.1223113897596653,6.848762277951933
1.5277715311004785,-0.33639640048396857,-3.1307698949568277,6.832856610570313
1.5357703349282297,-0.33740774349667274,-3.1392284001539896,6.816950943188693
1.5437691387559809,-0.3384190865093769,-3.147686905351152,6.8010452758070725
1.551767942583732,-0.3394304295220811,-3.156145410548314,6.785139608425452
1.5597667464114833,-0.34044177253478525,-3.1646039157454764,6.769233941043832
1.5677655502392345,-0.3414531155474894,-3.173062420942639,6.753328273662212
1.5757643540669857,-0.3424644585601936,-3.1815209261398008,6.7374226062805915
1.5837631578947369,0.7921710526315192,-3.6104736842105134,6.156381578947445
1.591761961722488,-0.16104932669067076,-3.616918598628721,7.528310425196073
1.5997607655502393,0.012780348246437867,-3.9054527696936843,7.482544073398115
1.6077595693779905,0.18661002318354647,-4.193986940758648,7.436777721600158
1.6157583732057417,0.36043969812065507,-4.482521111823611,7.391011369802199
1.6237571770334929,0.5342693730577637,-4.771055282888574,7.345245018004242
1.631755980861244,0.7080990479948723,-5.059589453953538,7.299478666206284
1.6397547846889953,0.8819287229319808,-5.348123625018501,7.253712314408325
1.6477535885167465,1.0557583978690894,-5.6366577960834645,7.207945962610368
1.6557523923444977,1.229588072806198,-5.925191967148428,7.16217961081241
1.6637511961722489,1.4034177477433067,-6.213726138213391,7.116413259014451
1.67175,1.5772474226804154,-6.502260309278355,7.070646907216494
1.6797488038277513,1.751077097617524,-6.790794480343318,7.024880555418536
1.6877476076555025,2.121406459330161,-9.365892583732066,5.318226076555014
1.6957464114832537,2.4551519936204147,-9.157307070707065,6.41743482190325
1.7037452153110049,2.4692832137161087,-8.708129797979792,6.853725132908035
1.711744019138756,2.4834144338118023,-8.25895252525252,7.290015443912819
1.7197428229665073,2.4975456539074963,-7.809775252525246,7.726305754917604
1.7277416267942585,2.51167687400319,-7.360597979797974,8.162596065922388
1.7357404306220097,2.525808094098884,-6.911420707070701,8.598886376927172
1.7437392344497609,2.5399393141945774,-6.462243434343429,9.035176687931957
1.751738038277512,2.5540705342902714,-6.013066161616156,9.47146699893674
1.7597368421052633,2.568201754385965,-5.563888888888883,9.907757309941527
1.7677356459330145,2.582332974481659,-5.114711616161611,10.34404762094631
1.7757344497607657,2.5964641945773526,-4.665534343434339,10.780337931951095
1.7837332535885169,1.4375334928229662,-2.72546770334928,8.36229366028693
1.7917320574162678,1.4159918378834788,-2.7347402195327892,7.392383900928793
1.799730861244019,1.3934069800168873,-2.765323881227132,7.378582043343653
1.8077296650717702,1.3708221221502956,-2.7959075429214746,7.364780185758514
1.8157284688995214,1.348237264283704,-2.8264912046158175,7.350978328173374
1.8237272727272726,1.3256524064171125,-2.8570748663101604,7.337176470588235
1.8317260765550238,1.3030675485505208,-2.8876585280045033,7.323374613003096
1.839724880382775,1.2804826906839293,-2.918242189698846,7.309572755417957
1.8477236842105262,1.2578978328173376,-2.9488258513931886,7.295770897832817
1.8557224880382774,1.235312974950746,-2.9794095130875315,7.281969040247678
1.8637212918660286,1.2127281170841544,-3.0099931747818744,7.2681671826625385
1.8717200956937798,1.190143259217563,-3.0405768364762173,7.2543653250774
1.879718899521531,1.1675584013509712,-3.07116049817056,7.24056346749226
1.8877177033492822,0.8523827751196456,-4.029143540669767,6.7715406698565035
1.8957165071770334,-2.1447409466178815,-10.085135976639458,2.8997022821090166
1.9037153110047846,-2.1398789286049347,-9.878813889670699,3.0884583685148708
1.9117141148325358,-2.135016910591988,-9.672491802701941,3.277214454920725
1.919712918660287,-2.130154892579041,-9.466169715733182,3.465970541326579
1.9277117224880382,-2.125292874566094,-9.259847628764422,3.6547266277324333
1.9357105263157894,-2.1204308565531473,-9.053525541795665,3.8434827141382875
1.9437093301435406,-2.1155688385402005,-8.847203454826905,4.032238800544142
1.9517081339712918,-2.1107068205272537,-8.640881367858148,4.220994886949995
1.959706937799043,-2.105844802514307,-8.434559280889388,4.40975097335585
1.9677057416267942,-2.1009827845013604,-8.22823719392063,4.598507059761705
1.9757045454545454,-2.0961207664884136,-8.021915106951871,4.787263146167558
1.9837033492822966,-2.0912587484754668,-7.815593019983113,4.976019232573412
1.9917021531100478,-2.08639673046252,-7.609270933014354,5.164775318979267
1.999700956937799,-4.30229156698564,-4.744457535885172,6.679282595693778
2.0076997607655502,-4.882479920255179,-4.1032871770334935,6.92306052631579
2.0156985645933014,-4.4839261881977635,-4.1308030622009575,6.9054631578947365
2.0236973684210526,-4.085372456140348,-4.1583189473684214,6.887865789473684
2.031696172248804,-3.686818724082933,-4.185834832535885,6.870268421052632
2.039694976076555,-3.288264992025517,-4.213350717703349,6.852671052631579
2.0476937799043062,-2.8897112599681014,-4.240866602870814,6.835073684210527
2.0556925837320574,-2.491157527910686,-4.268382488038278,6.817476315789474
2.0636913875598086,-2.0926037958532704,-4.295898373205742,6.799878947368422
2.07169019138756,-1.694050063795855,-4.323414258373206,6.7822815789473685
2.079688995215311,-1.2954963317384398,-4.35093014354067,6.764684210526316
2.0876877990430622,-6.0727990430621945,-7.273045454545444,5.717899122807024
2.0956866028708134,-7.897626228327418,-10.061417708494108,3.9015600401296524
2.1036854066985646,-7.718900267530999,-10.411644904048977,3.3842180506250985
2.111684210526316,-7.5401743067345794,-10.761872099603847,2.8668760611205455
2.119683014354067,-7.36144834593816,-11.112099295158718,2.3495340716159916
2.1276818181818182,-7.182722385141741,-11.462326490713586,1.8321920821114381
2.1356806220095694,-7.003996424345321,-11.812553686268457,1.3148500926068842
2.1436794258373206,-6.825270463548902,-12.162780881823327,0.7975081031023308
2.151678229665072,-6.646544502752483,-12.513008077378196,0.2801661135977773
2.159677033492823,-6.467818541956063,-12.863235272933066,-0.23717587590677613
2.1676758373205742,-6.289092581159644,-13.213462468487936,-0.75451786541133
2.1756746411483254,-6.110366620363225,-13.563689664042805,-1.271859854915884
2.1836734449760766,-5.931640659566805,-13.913916859597675,-1.789201844420437
2.191672248803828,-3.2704173700338677,-14.81454048169453,0.22468966722218064
2.199671052631579,-3.1815317859254866,-14.692760940272025,-0.4990672678888354
2.2076698564593302,-3.092646201817105,-14.570981398849522,-1.2228242029998513
2.2156686602870814,-3.003760617708724,-14.449201857427017,-1.9465811381108673
2.2236674641148326,-2.9148750336003424,-14.327422316004514,-2.6703380732218833
2.231666267942584,-2.825989449491961,-14.205642774582008,-3.3940950083328993
2.239665071770335,-2.7371038653835797,-14.083863233159505,-4.117851943443915
2.2476638755980862,-2.648218281275198,-13.962083691737,-4.841608878554931
2.2556626794258374,-2.559332697166817,-13.840304150314497,-5.565365813665947
2.2636614832535886,-2.4704471130584356,-13.718524608891991,-6.289122748776963
2.27166028708134,-2.381561528950054,-13.596745067469488,-7.012879683887979
2.279659090909091,-2.3659090909091036,-13.155454545454482,-7.611090909090897
2.2876578947368422,-1.1825778841041903,-10.991741095162139,-5.657824295587458
2.2956566985645934,-0.9258082016335513,-10.755008820260008,-5.7842700328645344
2.3036555023923446,-0.6690385191629122,-10.518276545357876,-5.9107157701416115
2.311654306220096,-0.4122688366922733,-10.281544270455745,-6.037161507418689
2.319653110047847,-0.1554991542216344,-10.044811995553614,-6.163607244695765
2.327651913875598,0.10127052824900473,-9.808079720651484,-6.290052981972842
2.3356507177033494,0.35804021071964365,-9.571347445749353,-6.416498719249919
2.3436495215311006,0.6148098931902826,-9.334615170847222,-6.542944456526996
2.351648325358852,0.8715795756609215,-9.09788289594509,-6.669390193804072
2.359647129186603,1.1283492581315604,-8.86115062104296,-6.795835931081149
2.367645933014354,1.3851189406021993,-8.624418346140828,-6.922281668358226
2.3756447368421054,1.6418886230728387,-8.387686071238697,-7.048727405635303
2.3836435406698566,2.1714545454546474,-7.638757177033308,-7.252843301435437
2.391642344497608,2.968170500552076,-4.870681174089064,-7.1332065697460445
2.399641148325359,2.8675262106314707,-4.738217466743778,-7.15562080025238
2.40763995215311,2.766881920710865,-4.6057537593984925,-7.178035030758716
2.4156387559808614,2.6662376307902593,-4.473290052053207,-7.200449261265051
2.4236375598086126,2.565593340869654,-4.340826344707921,-7.222863491771387
2.431636363636364,2.4649490509490484,-4.208362637362634,-7.245277722277723
2.439635167464115,2.3643047610284427,-4.075898930017348,-7.267691952784059
2.447633971291866,2.2636604711078374,-3.943435222672062,-7.290106183290394
2.4556327751196174,2.163016181187232,-3.8109715153267762,-7.31252041379673
2.4636315789473686,2.0623718912666265,-3.67850780798149,-7.334934644303066
2.47163038277512,1.9617276013460208,-3.5460441006362036,-7.357348874809402
2.479629186602871,1.9551985645933259,-3.2862081339712526,-7.56455382775125
2.487627990430622,3.6896397846889943,-2.3085384688995236,-9.276803660287085
2.4956267942583734,3.6690028708133964,-2.384687081339715,-9.360151196172252
2.5036255980861246,3.6483659569377984,-2.4608356937799063,-9.443498732057419
2.511624401913876,3.6277290430622005,-2.5369843062200976,-9.526846267942586
2.519623205741627,3.607092129186602,-2.613132918660289,-9.610193803827753
2.527622009569378,3.586455215311004,-2.6892815311004803,-9.69354133971292
2.5356208133971294,3.565818301435406,-2.7654301435406716,-9.77688887559809
2.5436196172248806,3.5451813875598077,-2.841578755980863,-9.860236411483257
2.551618421052632,3.5245444736842098,-2.9177273684210543,-9.943583947368424
2.559617224880383,3.503907559808612,-2.9938759808612456,-10.026931483253591
2.5676160287081338,3.4832706459330147,-3.070024593301433,-10.110279019138755
2.575614832535885,3.4626337320574168,-3.1461732057416243,-10.193626555023922
2.583613636363636,3.441996818181819,-3.2223218181818156,-10.27697409090909
2.5916124401913874,3.7069009569377984,-5.212214832535883,-12.653379425837326
2.5996112440191386,3.7460950956937786,-5.401786483253582,-12.228642942583747
2.6076100478468898,3.770371706923387,-5.7148517899348485,-12.319308410676195
2.615608851674641,3.7938862627543664,-6.034225716262169,-12.436302963048362
2.623607655502392,3.817400818585346,-6.353599642589488,-12.553297515420532
2.6316064593301434,3.8409153744163254,-6.672973568916809,-12.6702920677927
2.6396052631578946,3.864429930247305,-6.992347495244129,-12.787286620164869
2.6476040669856458,3.8879444860782844,-7.311721421571448,-12.904281172537036
2.655602870813397,3.911459041909264,-7.631095347898769,-13.021275724909206
2.663601674641148,3.9349735977402434,-7.950469274226089,-13.138270277281373
2.6716004784688994,3.9584881535712224,-8.269843200553408,-13.255264829653543
2.6795992822966506,3.9820027094022024,-8.589217126880728,-13.37225938202571
2.6875980861244018,3.827703349282383,-8.48432535885182,-8.322813397129302
2.695596889952153,3.4496639150323434,-8.201900967453597,-7.990945830485307
2.703595693779904,3.2513638992586427,-8.24180708764919,-7.909815105946687
2.7115944976076554,3.053063883484942,-8.281713207844785,-7.828684381408068
2.7195933014354066,2.8547638677112412,-8.321619328040379,-7.7475536568694485
2.7275921052631578,2.6564638519375405,-8.361525448235973,-7.666422932330828
2.735590909090909,2.4581638361638403,-8.401431568431567,-7.585292207792209
2.74358971291866,2.259863820390139,-8.441337688627161,-7.50416148325359
2.7515885167464114,2.061563804616439,-8.481243808822756,-7.42303075871497
2.7595873205741626,1.8632637888427381,-8.52114992901835,-7.3419000341763505
2.7675861244019138,1.6649637730690374,-8.561056049213944,-7.260769309637731
2.775584928229665,1.4666637572953367,-8.600962169409538,-7.179638585099111
2.783583732057416,-0.2979425837320599,-11.53440191387558,-6.446736842105206
2.7915825358851674,-0.5480063711911378,-11.336140405439437,-5.560686464366656
2.7995813397129186,-0.7832554016620517,-11.326794434651221,-5.2829174767061176
2.8075801435406698,-1.0185044321329655,-11.317448463863007,-5.005148489045578
2.815578947368421,-1.253753462603879,-11.308102493074793,-4.72737950138504
2.823577751196172,-1.489002493074793,-11.298756522286578,-4.449610513724502
2.8315765550239234,-1.7242515235457065,-11.289410551498364,-4.171841526063964
2.8395753588516746,-1.9595005540166204,-11.28006458071015,-3.894072538403425
2.8475741626794258,-2.194749584487534,-11.270718609921934,-3.6163035507428867
2.855572966507177,-2.429998614958448,-11.26137263913372,-3.338534563082348
2.863571770334928,-2.665247645429362,-11.252026668345506,-3.0607655754218097
2.8715705741626794,-2.9004966759002757,-11.24268069755729,-2.7829965877612715
2.8795693779904306,-2.7642775119617267,-10.959844497607659,-2.64513875598086
2.8875681818181818,-1.8662693779904311,-8.644957177033492,-2.330877272727273
2.895566985645933,-1.9991337194661298,-8.60226882397381,-2.2812846889952154
2.903565789473684,-2.1319980609418283,-8.559580470914128,-2.231692105263158
2.9115645933014354,-2.264862402417527,-8.516892117854445,-2.1820995215311005
2.9195633971291866,-2.3977267438932257,-8.474203764794762,-2.132506937799043
2.9275622009569378,-2.530591085368924,-8.431515411735079,-2.082914354066986
2.935561004784689,-2.6634554268446227,-8.388827058675396,-2.0333217703349287
2.94355980861244,-2.7963197683203216,-8.346138705615715,-1.9837291866028712
2.9515586124401914,-2.9291841097960196,-8.303450352556032,-1.9341366028708138
2.9595574162679426,-3.0620484512717185,-8.26076199949635,-1.8845440191387566
2.9675562200956938,-3.194912792747417,-8.218073646436666,-1.8349514354066991
2.975555023923445,-3.3277771342231155,-8.175385293376983,-1.785358851674642
2.983553827751196,-3.3850622009569373,-7.304696305156831,-2.4616652046783623
2.9915526315789474,-3.303605263157889,-7.176526315789471,-2.1809210526315863
2.9995514354066986,-3.3730394324368915,-7.113024652147611,-2.1781204421712586
3.0075502392344498,-3.400621514601551,-7.02301512401694,-2.2343878897871634
3.015549043062201,-3.42820359676621,-6.933005595886268,-2.2906553374030683
3.023547846889952,-3.4557856789308694,-6.842996067755597,-2.3469227850189736
3.0315466507177034,-3.4833677610955283,-6.752986539624926,-2.4031902326348784
3.0395454545454546,-3.5109498432601876,-6.662977011494254,-2.4594576802507833
3.0475442583732057,-3.538531925424847,-6.572967483363583,-2.515725127866688
3.055543062200957,-3.566114007589506,-6.482957955232911,-2.571992575482593
3.063541866028708,-3.5936960897541654,-6.39294842710224,-2.628260023098498
3.0715406698564593,-3.6212781719188247,-6.3029388989715684,-2.6845274707144027
3.0795394736842105,-3.819092105263126,-6.476868421052584,-2.6857500000000094
3.0875382775119617,-4.129786211396256,-7.209602870813389,-2.5967703349282303
3.095537081339713,-4.196544530230535,-7.461498477598956,-2.576464019682471
3.103535885167464,-4.181637668551544,-7.490585036972597,-2.5772820791648545
3.1115346889952153,-4.166730806872554,-7.519671596346237,-2.5781001386472377
3.1195334928229665,-4.151823945193563,-7.548758155719878,-2.5789181981296214
3.1275322966507177,-4.136917083514572,-7.577844715093519,-2.579736257612005
3.135531100478469,-4.1220102218355805,-7.6069312744671596,-2.5805543170943888
3.14352990430622,-4.10710336015659,-7.636017833840801,-2.5813723765767724
3.1515287081339713,-4.092196498477599,-7.665104393214441,-2.582190436059156
3.1595275119617225,-4.077289636798608,-7.694190952588082,-2.5830084955415398
3.1675263157894737,-4.062382775119617,-7.723277511961723,-2.5838265550239234
3.175525119617225,-4.047475913440627,-7.752364071335363,-2.584644614506307
3.183523923444976,-6.032204545454523,-9.156513157894723,-3.881159090909067
3.1915227272727273,-4.345145144628096,-8.908666064049585,-4.511960227272726
3.1995215311004785,-4.104272074815134,-8.849129512831665,-4.45396889952153
3.2075203349282297,-3.8633990050021714,-8.789592961613744,-4.3959775717703335
3.215519138755981,-3.622525935189209,-8.730056410395823,-4.337986244019137
3.223517942583732,-3.3816528653762474,-8.670519859177903,-4.279994916267942
3.2315167464114833,-3.1407797955632852,-8.610983307959982,-4.2220035885167455
3.2395155502392345,-2.8999067257503235,-8.551446756742061,-4.164012260765549
3.2475143540669857,-2.6590336559373613,-8.49191020552414,-4.106020933014353
3.255513157894737,-2.418160586124399,-8.43237365430622,-4.048029605263157
3.263511961722488,-2.1772875163114374,-8.3728371030883,-3.9900382775119607
3.2715107655502393,-1.9364144464984752,-8.313300551870379,-3.932046949760765
3.2795095693779905,-1.1029553429026993,-7.557515151515139,-3.4738939393939314
3.2875083732057417,-2.8883372048155582,-9.25423240469208,-5.344985298657201
3.295507177033493,-2.784180737768174,-9.481381231671554,-5.325805371199259
3.303505980861244,-2.68002427072079,-9.708530058651025,-5.306625443741318
3.3115047846889953,-2.5758678036734066,-9.935678885630498,-5.287445516283377
3.3195035885167465,-2.4717113366260226,-10.162827712609971,-5.268265588825436
3.3275023923444977,-2.3675548695786386,-10.389976539589442,-5.249085661367495
3.335501196172249,-2.2633984025312546,-10.617125366568915,-5.229905733909554
3.3435,-2.1592419354838706,-10.844274193548387,-5.210725806451613
3.3514988038277513,-2.055085468436487,-11.07142302052786,-5.191545878993672
3.3594976076555025,-1.950929001389103,-11.298571847507333,-5.172365951535731
3.3674964114832537,-1.846772534341719,-11.525720674486804,-5.15318602407779
3.375495215311005,-1.7426160672943352,-11.752869501466277,-5.134006096619848
3.383494019138756,-2.674630382775113,-12.218805023923428,-7.47831758373208
3.3914928229665073,-2.421799043062165,-10.910971291865653,-7.661239234449615
3.3994916267942585,-2.079117614331805,-9.67536352509179,-7.383774215533552
3.4074904306220097,-1.811250695448975,-9.372525091799258,-7.482829169912098
3.415489234449761,-1.5433837765661451,-9.069686658506726,-7.581884124290645
3.423488038277512,-1.2755168576833151,-8.766848225214192,-7.680939078669191
3.4314868421052633,-1.0076499388004851,-8.46400979192166,-7.779994033047737
3.4394856459330145,-0.7397830199176552,-8.161171358629126,-7.879048987426284
3.4474844497607657,-0.4719161010348254,-7.858332925336594,-7.9781039418048305
3.455483253588517,-0.2040491821519952,-7.555494492044062,-8.077158896183377
3.463482057416268,0.06381773673083435,-7.252656058751528,-8.176213850561924
3.4714808612440193,0.33168465561366434,-6.949817625458996,-8.27526880494047
3.4794796650717705,1.218315390749673,-6.419890749601246,-7.866230861243967
3.4874784688995217,1.6333980861244253,-5.183831578947315,-8.89130334928233
3.495477272727273,1.66940808080808,-4.862388383838378,-9.059246969696973
3.503476076555024,1.6431009037745872,-4.667039819245076,-9.14830031897927
3.5114748803827753,1.6167937267410943,-4.471691254651774,-9.237353668261566
3.5194736842105265,1.5904865497076013,-4.276342690058473,-9.326407017543863
3.5274724880382777,1.5641793726741084,-4.080994125465171,-9.41546036682616
3.535471291866029,1.5378721956406156,-3.885645560871869,-9.504513716108457
3.54347009569378,1.5115650186071228,-3.690296996278567,-9.593567065390753
3.5514688995215313,1.48525784157363,-3.4949484316852653,-9.68262041467305
3.5594677033492825,1.4589506645401369,-3.2995998670919637,-9.771673763955347
3.5674665071770337,1.432643487506644,-3.1042513024986618,-9.860727113237644
3.575465311004785,1.4063363104731512,-2.90890273790536,-9.949780462519941
3.5834641148325357,2.3218995215309044,-4.647277511961428,-12.150320574162189
3.591462918660287,2.620703422517333,-5.117801606288449,-12.952687359632847
3.599461722488038,2.6032366468118355,-5.114373547505127,-12.96950117176057
3.6074605263157893,2.5857698711063377,-5.110945488721805,-12.986314983888292
3.6154593301435405,2.5683030954008403,-5.107517429938483,-13.003128796016014
3.6234581339712917,2.5508363196953425,-5.104089371155161,-13.019942608143735
3.631456937799043,2.533369543989845,-5.100661312371839,-13.036756420271457
3.639455741626794,2.515902768284348,-5.0972332535885165,-13.05357023239918
3.6474545454545453,2.49843599257885,-5.093805194805195,-13.070384044526902
3.6554533492822965,2.4809692168733526,-5.090377136021873,-13.087197856654624
3.6634521531100477,2.463502441167855,-5.086949077238551,-13.104011668782345
3.671450956937799,2.4460356654623574,-5.083521018455229,-13.120825480910067
3.67944976076555,2.42856888975686,-5.080092959671907,-13.13763929303779
3.6874485645933013,3.760898923445009,-5.477779904306235,-9.139629784689042
3.6954473684210525,2.372843879361325,-5.00189739798935,-7.163458308693084
3.7034461722488037,2.359003252513306,-5.189105357238853,-7.064776436750715
3.711444976076555,2.345162625665287,-5.376313316488356,-6.966094564808346
3.719443779904306,2.331321998817268,-5.563521275737859,-6.867412692865978
3.7274425837320573,2.317481371969249,-5.750729234987362,-6.768730820923609
3.7354413875598085,2.30364074512123,-5.937937194236865,-6.67004894898124
3.7434401913875597,2.2898001182732113,-6.125145153486368,-6.571367077038871
3.751438995215311,2.2759594914251924,-6.31235311273587,-6.472685205096502
3.759437799043062,2.2621188645771735,-6.499561071985374,-6.374003333154133
3.7674366028708133,2.2482782377291546,-6.686769031234876,-6.275321461211764
3.7754354066985645,2.2344376108811357,-6.87397699048438,-6.176639589269396
3.7834342105263157,1.9908947368421115,-9.678615953947297,-7.63703042763154
3.791433014354067,1.638947368421059,-13.718511812200884,-9.833202003588477
3.799431818181818,0.4884741477272797,-10.458109943181817,-7.8373607954545506
3.8074306220095693,0.11682972488038984,-10.509002332535884,-7.582398923444981
3.8154294258373205,-0.2548146979664999,-10.55989472188995,-7.327437051435412
3.8234282296650717,-0.6264591208133897,-10.610787111244019,-7.072475179425842
3.831427033492823,-0.9981035436602795,-10.661679500598085,-6.817513307416274
3.839425837320574,-1.3697479665071692,-10.712571889952152,-6.562551435406704
3.8474246411483253,-1.741392389354059,-10.76346427930622,-6.307589563397135
3.8554234449760765,-2.113036812200949,-10.814356668660286,-6.052627691387565
3.8634222488038277,-2.4846812350478387,-10.865249058014353,-5.797665819377997
3.871421052631579,-2.8563256578947285,-10.91614144736842,-5.542703947368427
3.87941985645933,-2.625649222488108,-10.864289473684224,-4.7015188397130006
3.8874186602870813,-0.7772393904722326,-8.361871905554397,-1.4556404462242574
3.8954174641148325,-1.0326794518410696,-8.262234631786976,-1.513979548054921
3.9034162679425837,-1.2881195132099066,-8.162597358019553,-1.5723186498855846
3.911415071770335,-1.5435595745787434,-8.062960084252131,-1.6306577517162482
3.919413875598086,-1.7989996359475804,-7.9633228104847085,-1.6889968535469118
3.9274126794258373,-2.0544396973164174,-7.863685536717286,-1.7473359553775754
3.9354114832535885,-2.3098797586852546,-7.7640482629498635,-1.805675057208239
3.9434102870813397,-2.5653198200540914,-7.664410989182441,-1.8640141590389026
3.951409090909091,-2.820759881422928,-7.5647737154150185,-1.9223532608695661
3.959407894736842,-3.0761999427917655,-7.465136441647596,-1.9806923627002297
3.9674066985645933,-3.3316400041606027,-7.365499167880174,-2.0390314645308933
3.9754055023923445,-3.587080065529439,-7.265861894112751,-2.097370566361557
3.9834043062200957,-3.6858325358851634,-5.980191387559809,-5.069806220095697
3.991403110047847,-3.7323336811564696,-5.878270449455361,-5.094743013845058
3.999401913875598,-3.7478207268655197,-5.769435661203299,-5.150649546981573
4.00740071770335,-3.7633077725745707,-5.660600872951232,-5.206556080118093
4.0153995215311005,-3.77879481828362,-5.551766084699177,-5.262462613254606
4.023398325358852,-3.794281863992671,-5.44293129644711,-5.318369146391126
4.031397129186603,-3.80976890970172,-5.334096508195055,-5.3742756795276385
4.0393959330143545,-3.8252559554107712,-5.225261719942988,-5.430182212664158
4.047394736842105,-3.8407430011198205,-5.116426931690932,-5.486088745800671
4.055393540669857,-3.8562300468288715,-5.007592143438865,-5.54199527893719
4.063392344497608,-3.8717170925379207,-4.8987573551868095,-5.597901812073703
4.071391148325359,-3.8872041382469718,-4.7899225669347425,-5.653808345210223
4.07938995215311,-4.013049441786257,-4.464634768740087,-5.320079744816676
4.087388755980862,-2.7597298686755463,-4.079065916726053,-4.595862262038078
4.0953875598086125,-2.6552348569683346,-4.095744273643491,-4.63330347144457
4.103386363636363,-2.5507398452611234,-4.112422630560928,-4.6707446808510635
4.111385167464115,-2.4462448335538998,-4.129100987478368,-4.70818589025756
4.119383971291866,-2.341749821846688,-4.145779344395805,-4.745627099664053
4.127382775119617,-2.237254810139465,-4.162457701313245,-4.78306830907055
4.135381578947368,-2.1327597984322533,-4.179136058230682,-4.820509518477042
4.14338038277512,-2.02826478672503,-4.1958144151481225,-4.857950727883539
4.15137918660287,-1.9237697750178184,-4.21249277206556,-4.895391937290032
4.159377990430622,-1.8192747633105952,-4.229171128982999,-4.932833146696529
4.167376794258373,-1.7147797516033836,-4.245849485900437,-4.970274356103022
4.1753755980861245,-1.6102847398961604,-4.262527842817876,-5.0077155655095185
4.183374401913875,-0.9330260983036551,-4.713586776859473,-5.547668551544112
4.191373205741627,0.24585263157895365,-5.8575234449760805,-6.288210526315795
4.199372009569378,0.4570210526315781,-5.975905741626794,-6.464184210526315
4.207370813397129,0.5896878145777731,-5.972944727521281,-6.5512147206860165
4.21536961722488,0.7022943515814333,-5.938975781395638,-6.615516793015597
4.223368421052632,0.8149008885851058,-5.905006835269991,-6.679818865345185
4.231367224880382,0.9275074255887659,-5.871037889144349,-6.744120937674766
4.239366028708134,1.0401139625924385,-5.837068943018702,-6.808423010004353
4.247364832535885,1.1527204995960985,-5.803099996893059,-6.872725082333934
4.2553636363636365,1.265327036599771,-5.769131050767412,-6.9370271546635225
4.263362440191387,1.377933573603431,-5.73516210464177,-7.001329226993103
4.271361244019139,1.4905401106071037,-5.701193158516123,-7.065631299322691
4.27936004784689,1.4606889952153084,-5.0646052631578815,-8.345763157894764
4.287358851674641,1.1700278637770956,-3.104500743838193,-10.354068634152224
4.295357655502392,1.3201230650154776,-2.7961098870170122,-10.318510926380121
4.303356459330144,1.4702182662538763,-2.487719030195797,-10.282953218608016
4.311355263157894,1.6203134674922586,-2.179328173374616,-10.247395510835913
4.319354066985646,1.7704086687306573,-1.8709373165534007,-10.211837803063807
4.327352870813397,1.9205038699690393,-1.5625464597322198,-10.176280095291705
4.3353516746411485,2.070599071207438,-1.2541556029110046,-10.140722387519599
4.343350478468899,2.22069427244582,-0.9457647460898233,-10.105164679747498
4.351349282296651,2.370789473684219,-0.6373738892686083,-10.069606971975391
4.359348086124402,2.520884674922601,-0.32898303244742744,-10.034049264203288
4.367346889952153,2.6709798761609997,-0.02059217562621196,-9.998491556431183
4.375345693779904,2.8210750773993816,0.2877986811949689,-9.96293384865908
4.383344497607656,2.9711702786377803,0.5961895380161844,-9.927376140886974
4.391343301435406,3.121265479876163,0.9045803948373656,-9.891818433114873
4.399342105263158,3.2713606811145617,1.2129712516585807,-9.856260725342766
4.407340909090909,3.3855795454545468,1.1874176136363586,-9.180181818181799
4.4153397129186605,3.9512053735737953,1.7047276407802765,-7.742960986382037
4.423338516746411,3.964372635259477,1.774747938903202,-7.706904839896945
4.431337320574163,3.9775398969451605,1.844768237026135,-7.670848693411849
4.439336124401914,3.9907071586308427,1.9147885351490603,-7.634792546926758
4.447334928229665,4.003874420316526,1.9848088332719935,-7.598736400441663
4.455333732057416,4.017041682002208,2.054829131394919,-7.562680253956571
4.463332535885168,4.030208943687891,2.124849429517852,-7.526624107471475
4.471331339712918,4.043376205373574,2.1948697276407776,-7.490567960986383
4.47933014354067,4.072754784689002,2.2713265550239274,-7.398472488038254
4.487328947368421,3.2276019736842096,2.0196195175438607,-5.116856359649127
4.4953277511961724,3.345584330143542,1.9029702950558203,-4.568271730462514
4.503326555023923,3.4009162537024364,1.912065817953972,-4.2974288989519325
4.511325358851675,3.424817441330599,1.9842455001139216,-4.165924755069491
4.519324162679426,3.4487186289587592,2.0564251822738635,-4.034420611187064
4.527322966507177,3.472619816586922,2.128604864433813,-3.902916467304623
4.535321770334928,3.496521004215082,2.2007845465937548,-3.7714123234221963
4.54332057416268,3.5204221918432452,2.2729642287537044,-3.639908179539755
4.55131937799043,3.5443233794714053,2.345143910913646,-3.5084040356573283
4.559318181818182,3.568224567099568,2.4173235930735957,-3.376899891774887
4.567316985645933,3.592125754727728,2.4895032752335373,-3.24539574789246
4.5753157894736844,3.616026942355891,2.561682957393487,-3.113891604010019
4.583314593301435,3.4968522727272293,2.9860711722486064,-2.288525119617443
4.591313397129187,3.6739820054087775,3.9579001976284602,-1.2598917464114836
4.599312200956938,3.6346835344289583,4.000850296442687,-1.269890251196172
4.607311004784689,3.595385063449135,4.043800395256919,-1.2798887559808616
4.61530980861244,3.556086592469316,4.086750494071146,-1.2898872607655503
4.623308612440192,3.5167881214894923,4.129700592885378,-1.2998857655502398
4.631307416267942,3.477489650509673,4.172650691699605,-1.3098842703349283
4.639306220095694,3.43819117952985,4.215600790513837,-1.3198827751196178
4.647305023923445,3.3988927085500307,4.258550889328064,-1.3298812799043063
4.655303827751196,3.3595942375702075,4.301500988142296,-1.339879784688996
4.663302631578947,3.3202957665903883,4.344451086956523,-1.3498782894736845
4.671301435406699,3.2809972956105646,4.387401185770755,-1.359876794258374
4.67930023923445,3.2637344497607663,3.930349282296619,-0.696863636363593
4.687299043062201,2.570013955342903,3.315315041866029,-1.4955811403508756
4.695297846889952,2.5926772328548635,3.2418260316985683,-1.7228804824561283
4.703296650717704,2.6153405103668264,3.1683370215310998,-1.9501798245614061
4.711295454545454,2.638003787878787,3.094848011363639,-2.1774791666666586
4.719294258373206,2.6606670653907503,3.02135900119617,-2.4047785087719364
4.727293062200957,2.683330342902711,2.9478699910287096,-2.632077850877189
4.735291866028708,2.705993620414674,2.8743809808612406,-2.8593771929824667
4.743290669856459,2.728656897926635,2.80089197069378,-3.0866765350877197
4.751289473684211,2.751320175438598,2.7274029605263115,-3.3139758771929975
4.759288277511962,2.7739834529505587,2.6539139503588505,-3.5412752192982495
4.767287081339713,2.7966467304625215,2.580424940191382,-3.7685745614035273
4.775285885167464,2.819310007974482,2.5069359300239213,-3.9958739035087802
4.783284688995216,-0.2926172248803899,1.2562224880382757,-8.559636363636361
4.791283492822966,2.8839084249987925,2.023517954915415,-10.148032740590933
4.799282296650718,1.9621493612193257,1.6486461796477951,-10.178626103684705
4.807281100478469,1.040390297439961,1.2737744043802166,-10.209219466778473
4.81527990430622,0.11863123366049377,0.8989026291125966,-10.239812829872246
4.823278708133971,-0.8031278301188709,0.524030853845018,-10.270406192966014
4.831277511961723,-1.7248868938983386,0.14915907857739796,-10.300999556059786
4.839276315789474,-2.6466459576777033,-0.2257126966901808,-10.331592919153554
4.847275119617225,-3.56840502145717,-0.6005844719578008,-10.362186282247325
4.855273923444976,-4.490164085236534,-0.9754562472253792,-10.392779645341093
4.863272727272728,-5.411923149016001,-1.3503280224929992,-10.423373008434865
4.871271531100478,-6.333682212795367,-1.725199797760578,-10.453966371528635
4.87927033492823,-7.2554412765748335,-2.1000715730281976,-10.484559734622406
4.887269138755981,-18.287827452153145,-22.746133074162206,-29.011521830143273
4.895267942583732,-1.5655422940168928,6.2378576445283365,-36.954757473333
4.903266746411483,1.2846736754311743,6.33083456608577,-34.74033633290908
4.911265550239235,4.134889644879559,6.4238114876432135,-32.52591519248492
4.919264354066986,6.985105614327626,6.516788409200647,-30.311494052061008
4.927263157894737,9.835321583776011,6.60976533075809,-28.097072911636843
4.935261961722488,12.68553755322408,6.702742252315523,-25.882651771212927
4.94326076555024,15.535753522672461,6.795719173872967,-23.66823063078877
4.95125956937799,18.38596949212053,6.8886960954304,-21.45380949036485
4.959258373205742,21.236185461568915,6.981673016987843,-19.23938834994069
4.967257177033493,24.08640143101698,7.074649938545276,-17.024967209516774
4.975255980861244,26.936617400465366,7.16762686010272,-14.810546069092613
4.983254784688995,29.78683336991343,7.260603781660153,-12.596124928668697
4.991253588516747,32.637049339361816,7.353580703217596,-10.381703788244536
4.999252392344498,30.40464354067024,13.79477930621957,-0.03092045454615544
5.007251196172249,-3.5418769745033876,-12.203851740184746,-15.542813790391289
5.01525,-1.7115753424657454,-10.846027397260269,-15.442664383561644
5.023248803827752,0.11872628957210019,-9.48820305433564,-15.342514976731985
5.031247607655502,1.9490279216097424,-8.130378711411163,-15.24236556990234
5.039246411483254,3.779329553647588,-6.772554368486536,-15.142216163072684
5.047245215311005,5.609631185685231,-5.414730025562059,-15.042066756243038
5.055244019138756,7.439932817723076,-4.0569056826374315,-14.94191734941338
5.063242822966507,9.270234449760718,-2.6990813397129543,-14.841767942583735
5.071241626794259,11.100536081798564,-1.341256996788326,-14.741618535754078
5.07924043062201,3.2407776614830657,0.16196531100509648,-23.671900269138465
5.087239234449761,-2.3269521531109536,8.425564593299981,-15.078382775118138
5.095238038277512,-8.06519564370755,-1.2790996995660542,-5.256195184711241
5.103236842105264,-7.495048347613162,-1.5856585067319764,-5.0615266217870065
5.111235645933014,-6.924901051518837,-1.8922173138978646,-4.866858058862794
5.119234449760766,-6.354753755424449,-2.198776121063787,-4.67218949593856
5.127233253588517,-5.784606459330124,-2.5053349282296757,-4.477520933014347
5.1352320574162675,-5.214459163235799,-2.8118937353955635,-4.282852370090135
5.143230861244019,-4.64431186714141,-3.118452542561486,-4.088183807165901
5.15122966507177,-4.074164571047086,-3.4250113497273746,-3.893515244241688
5.159228468899522,-3.504017274952697,-3.731570156893297,-3.698846681317454
5.167227272727272,-2.9338699788583718,-4.038128964059185,-3.5041781183932414
5.175226076555024,-2.363722682763984,-4.344687771225107,-3.3095095554690075
5.183224880382775,12.781917065391152,-10.752763955343069,-4.418838915470613
5.191223684210526,-0.2600707803992487,-6.7430931639443825,0.3966618269812713
5.199222488038277,0.6313821151624934,-8.105280261782951,1.2785529340592654
5.207221291866029,1.5228350107243345,-9.467467359621672,2.160444041137357
5.2152200956937795,2.4142879062860763,-10.829654457460244,3.042335148215351
5.223218899521531,3.305740801847917,-12.191841555298964,3.9242262552934433
5.231217703349282,4.197193697409659,-13.554028653137532,4.806117362371437
5.239216507177034,5.0886465929715,-14.916215750976253,5.688008469449529
5.247215311004784,5.980099488533242,-16.27840284881482,6.569899576527523
5.255214114832536,6.871552384095083,-17.64058994665354,7.451790683605616
5.263212918660287,7.763005279656825,-19.002777044492113,8.33368179068361
5.271211722488038,8.654458175218666,-20.364964142330834,9.215572897761701
5.279210526315789,15.797157894737929,-10.590578947368975,12.260736842105766
5.287209330143541,0.6007066985646137,-3.5224275119617063,4.995147368421071
5.2952081339712915,-0.3708813397128654,-4.300444497607613,4.127010526315837
5.303206937799043,-0.8280022278708149,-4.502682640550239,3.9096541267942593
5.311205741626794,-1.0092751196172163,-4.396198564593306,4.0412344497607595
5.319204545454546,-1.1905480113636377,-4.289714488636363,4.172814772727273
5.327203349282296,-1.3718209031100392,-4.183230412679431,4.304395095693773
5.335202153110048,-1.5530937948564607,-4.076746336722487,4.435975418660288
5.343200956937799,-1.734366686602862,-3.9702622607655558,4.567555741626787
5.35119976076555,-1.9156395783492834,-3.863778184808612,4.6991360645933025
5.359198564593301,-2.0969124700956847,-3.75729410885168,4.830716387559802
5.367197368421053,-2.278185361842106,-3.6508100328947366,4.962296710526316
5.3751961722488035,-2.4594582535885077,-3.5443259569378047,5.0938770334928165
5.383194976076555,10.647034090908644,-6.250197368420831,3.8860017942584757
5.391193779904306,5.56128586075579,-3.6815277804901916,4.9086158090030345
5.399192583732058,5.361642246850887,-3.4699675812908826,4.59960079582071
5.407191387559808,5.1619986329460055,-3.2584073820915966,4.29058578263842
5.41519019138756,4.962355019041102,-3.0468471828922876,3.9815707694560962
5.423188995215311,4.76271140513622,-2.835286983693002,3.6725557562738063
5.431187799043062,4.563067791231317,-2.623726784493693,3.363540743091482
5.439186602870813,4.3634241773264355,-2.4121665852944076,3.0545257299091926
5.447185406698565,4.163780563421532,-2.2006063860950986,2.7455107167268684
5.4551842105263155,3.96413694951665,-1.989046186895813,2.4364957035445785
5.463183014354067,3.7644933356117467,-1.777485987696504,2.1274806903622543
5.471181818181818,3.5648497217068655,-1.5659257884972182,1.8184656771799643
5.47918062200957,3.3652061078019617,-1.3543655892979092,1.5094506639976402
5.48717942583732,2.240254784689327,-1.3662464114831867,-0.25187081339660855
5.495178229665072,14.859321461645312,-10.051017865411326,2.9344990739311494
5.503177033492823,15.110208674178097,-10.253052168544514,3.7111571230127556
5.511175837320574,15.361095886710908,-10.455086471677726,4.4878151720944475
5.519174641148325,15.611983099243693,-10.657120774810915,5.264473221176054
5.527173444976077,15.862870311776504,-10.859155077944125,6.041131270257746
5.5351722488038275,16.11375752430929,-11.061189381077314,6.817789319339352
5.543171052631579,16.364644736842102,-11.263223684210525,7.594447368421044
5.55116985645933,16.615531949374887,-11.465257987343714,8.371105417502651
5.559168660287082,16.866419161907697,-11.667292290476924,9.147763466584342
5.567167464114832,17.11730637444048,-11.869326593610113,9.924421515665948
5.575166267942584,17.368193586973295,-12.071360896743323,10.70107956474764
5.583165071770335,17.61908079950608,-12.273395199876513,11.477737613829245
5.591163875598086,9.269232655502444,-9.402660287081371,1.9325986842105531
5.599162679425837,10.696502223473122,-10.066928679988749,2.6898549957782154
5.607161483253589,10.68417465522094,-9.785182578103003,2.6896667886293275
5.6151602870813395,10.671847086968759,-9.503436476217287,2.689478581480439
5.623159090909091,10.659519518716577,-9.22169037433154,2.689290374331551
5.631157894736842,10.647191950464396,-8.939944272445826,2.6891021671826625
5.639156698564594,10.634864382212214,-8.65819817056008,2.688913960033774
5.647155502392344,10.622536813960034,-8.376452068674364,2.6887257528848862
5.655154306220096,10.610209245707852,-8.094705966788618,2.688537545735998
5.663153110047847,10.597881677455671,-7.812959864902903,2.6883493385871096
5.671151913875598,10.585554109203489,-7.531213763017156,2.688161131438221
5.679150717703349,9.047422248803795,-5.051854066985598,2.3266746411483177
5.687149521531101,6.201255023923374,-3.1755050239234355,0.6763292663476304
5.6951483253588515,4.303691387559838,-3.0225191387557113,-0.8926148325357423
5.703147129186603,4.216360313662947,-4.21352604997342,-1.5459989367357803
5.711145933014354,4.27017942583732,-4.244138755980861,-1.59023923444976
5.719144736842106,4.323998538011698,-4.274751461988306,-1.6344795321637446
5.727143540669856,4.377817650186071,-4.305364167995747,-1.6787198298777244
5.735142344497608,4.43163676236045,-4.335976874003192,-1.722960127591709
5.743141148325359,4.485455874534822,-4.366589580010633,-1.7672004253056888
5.75113995215311,4.539274986709201,-4.397202286018078,-1.8114407230196736
5.759138755980861,4.593094098883574,-4.427814992025519,-1.8556810207336532
5.767137559808613,4.646913211057952,-4.458427698032963,-1.899921318447638
5.7751363636363635,4.700732323232325,-4.489040404040405,-1.9441616161616178
5.783135167464115,4.901396616541406,-4.712867224880426,-2.552539473684191
5.791133971291866,7.713352153110045,-8.025023923444975,-4.187607655502392
5.7991327751196176,8.302241866028739,-8.417854066985667,-4.2835933014354115
5.807131578947368,8.891131578947368,-8.810684210526317,-4.379578947368421
5.81513038277512,9.480021291866063,-9.203514354067009,-4.475564593301441
5.823129186602871,10.068911004784692,-9.596344497607657,-4.57155023923445
5.831127990430622,10.657800717703385,-9.98917464114835,-4.66753588516747
5.839126794258373,11.246690430622014,-10.382004784688998,-4.763521531100479
5.847125598086125,11.83558014354071,-10.77483492822969,-4.859507177033499
5.8551244019138755,12.424469856459337,-11.16766507177034,-4.955492822966509
5.863123205741627,13.013359569378032,-11.560495215311033,-5.0514784688995285
5.871122009569378,13.602249282296661,-11.953325358851682,-5.1474641148325375
5.8791208133971296,15.117987354749543,-17.699337491454866,-5.058649521530287
5.88711961722488,5.5120622009570175,-8.961138755980842,0.5817129186603762
5.895118421052632,4.376327192982445,-9.416411111111127,-0.3785011695906346
5.903117224880383,4.191288197767144,-9.666329292929296,-0.23523370547580974
5.911116028708134,4.006249202551823,-9.916247474747491,-0.09196624136096898
5.919114832535885,3.8212102073365215,-10.16616565656566,0.05130122275385596
5.927113636363637,3.6361712121211998,-10.416083838383855,0.19456868686869666
5.9351124401913875,3.451132216905899,-10.666002020202024,0.3378361509835216
5.943111244019139,3.2660932216905767,-10.91592020202022,0.4811036150983623
5.95111004784689,3.081054226475276,-11.16583838383839,0.6243710792131871
5.9591088516746415,2.896015231259954,-11.415756565656585,0.767638543328028
5.967107655502392,2.7109762360446528,-11.665674747474753,0.910906007442853
5.975106459330144,2.5259372408293315,-11.915592929292949,1.0541734715576936
5.983105263157895,0.4646842105269065,-9.566421052631265,1.1932105263156354
5.991104066985646,2.4827550676544816,-8.554243234552656,0.778235041415861
5.999102870813397,2.6333562020888,-8.539879791120029,0.8640716674383906
6.007101674641149,2.7839573365231343,-8.5255163476874,0.9499082934609298
6.0151004784688995,2.9345584709574526,-8.511152904254772,1.0357449194834594
6.023099282296651,3.0851596053917874,-8.496789460822143,1.1215815455059985
6.031098086124402,3.2357607398261052,-8.482426017389516,1.2074181715285282
6.0390968899521535,3.38636187426044,-8.468062573956885,1.2932547975510673
6.047095693779904,3.536963008694758,-8.453699130524258,1.379091423573597
6.055094497607656,3.6875641431290926,-8.43933568709163,1.464928049596136
6.063093301435407,3.8381652775634105,-8.424972243659,1.550764675618666
6.071092105263158,3.9887664119977453,-8.410608800226372,1.636601301641205
6.079090909090909,4.421082251082248,-7.61760606060606,1.9512121212121099
6.087089712918661,4.340332421963993,-7.582944577352469,1.6179286283891232
6.0950885167464115,4.259582592845747,-7.548283094098882,1.2846451355661737
6.103087320574163,4.550560523208843,-7.9029154290685435,1.0535030603367914
6.111086124401914,4.472234574038401,-7.967736904244082,1.0401024669110792
6.1190849282296655,4.39390862486795,-8.032558379419628,1.0267018734853655
6.127083732057416,4.315582675697508,-8.097379854595166,1.013301280059653
6.135082535885168,4.237256726527057,-8.162201329770712,0.9999006866339394
6.143081339712919,4.1589307773566135,-8.22702280494625,0.9865000932082271
6.1510801435406695,4.080604828186171,-8.29184428012179,0.9730994997825148
6.159078947368421,4.00227887901572,-8.356665755297335,0.959698906356801
6.167077751196172,3.923952929845278,-8.421487230472874,0.9462983129310887
6.1750765550239235,3.8456269806748264,-8.486308705648419,0.9328977195053748
6.183075358851674,4.429107854864458,-8.89197567783091,0.9173684210526891
6.191074162679426,3.9941618366681166,-8.755306111352763,0.02464960308829926
6.199072966507177,4.0140679507394506,-8.729491789908657,0.004016325032624033
6.207071770334928,4.033974064810788,-8.70367746846455,-0.016616953023053486
6.215070574162679,4.053880178882122,-8.677863147020446,-0.03725023107872871
6.223069377990431,4.073786292953458,-8.652048825576339,-0.057883509134406236
6.2310681818181815,4.093692407024792,-8.626234504132233,-0.07851678719008146
6.239066985645933,4.113598521096129,-8.600420182688126,-0.09915006524575898
6.247065789473684,4.133504635167463,-8.57460586124402,-0.1197833433014342
6.2550645933014355,4.1534107492388,-8.548791539799913,-0.14041662135711172
6.263063397129186,4.173316863310133,-8.522977218355809,-0.16104989941278694
6.271062200956938,4.19322297738147,-8.4971628969117,-0.18168317746846446
6.279061004784689,4.658715311004639,-8.692107655502376,0.04403468899515901
6.28705980861244,5.6487179605906235,-8.418571307300509,0.775450583937852
6.295058612440191,5.572170268045482,-8.4043798811545,0.8184549055924261
6.303057416267943,5.495622575500332,-8.390188455008488,0.8614592272470047
6.3110562200956934,5.41907488295519,-8.375997028862479,0.9044635489015788
6.319055023923445,5.34252719041004,-8.361805602716467,0.9474678705561574
6.327053827751196,5.265979497864898,-8.347614176570458,0.9904721922107315
6.3350526315789475,5.189431805319748,-8.333422750424448,1.0334765138653101
6.343051435406698,5.112884112774607,-8.319231324278439,1.076480835519884
6.35105023923445,5.036336420229456,-8.305039898132428,1.1194851571744628
6.359049043062201,4.959788727684314,-8.290848471986418,1.1624894788290367
6.367047846889952,4.883241035139164,-8.276657045840407,1.2054938004836155
6.375046650717703,4.806693342594023,-8.262465619694398,1.2484981221381894
6.383045454545455,4.559818181818192,-7.730922077922041,2.581623376623411
6.3910442583732054,4.669911792608481,-7.300651037370072,3.0097010188087747
6.399043062200957,4.657086124401913,-7.288997607655502,3.064727272727273
6.407041866028708,4.644260456195348,-7.277344177940934,3.119753526645766
6.4150406698564595,4.6314347879887805,-7.265690748226365,3.1747797805642644
6.42303947368421,4.618609119782215,-7.254037318511797,3.2298060344827566
6.431038277511962,4.605783451575647,-7.242383888797228,3.284832288401255
6.439037081339713,4.592957783369082,-7.23073045908266,3.3398585423197478
6.447035885167464,4.580132115162514,-7.219077029368091,3.3948847962382462
6.455034688995215,4.567306446955948,-7.207423599653523,3.4499110501567385
6.463033492822967,4.55448077874938,-7.195770169938954,3.504937304075237
6.471032296650717,4.5416551105428145,-7.184116740224386,3.5599635579937297
6.479031100478469,4.528829442336248,-7.172463310509817,3.614989811912228
6.48702990430622,4.516003774129682,-7.160809880795249,3.670016065830721
6.4950287081339715,4.503178105923114,-7.149156451080679,3.7250423197492193
6.503027511961722,4.713942583732076,-7.161091507177035,3.8289994019138804
6.511026315789474,5.770671052631599,-7.4426763157894795,3.6508342105263103
6.519025119617225,5.854489061509193,-7.354369228108604,2.169484737995045
6.527023923444976,5.868270133164236,-7.391375742203262,2.1358512134663057
6.535022727272727,5.882051204819276,-7.428382256297917,2.10221768893757
6.543021531100479,5.8958322764743185,-7.465388770392575,2.068584164408831
6.551020334928229,5.909613348129359,-7.50239528448723,2.034950639880096
6.559019138755981,5.923394419784401,-7.539401798581888,2.0013171153513567
6.567017942583732,5.937175491439442,-7.576408312676543,1.9676835908226211
6.5750167464114835,5.950956563094484,-7.613414826771201,1.934050066293882
6.583015550239234,5.9647376347495245,-7.650421340865856,1.9004165417651466
6.591014354066986,5.978518706404566,-7.687427854960514,1.8667830172364075
6.599013157894737,5.992299778059607,-7.724434369055169,1.8331494927076721
6.607011961722488,4.97812918660279,-7.562920255183458,2.054444178628504
6.615010765550239,8.116357341752298,-6.584124970585926,2.5031399521531092
6.623009569377991,7.699763903051201,-6.798781394619197,2.6071244019138806
6.631008373205741,7.283170464350149,-7.013437818652442,2.7111088516746404
6.639007177033493,6.86657702564905,-7.228094242685712,2.815093301435412
6.647005980861244,6.449983586947998,-7.4427506667189585,2.9190777511961716
6.6550047846889955,6.0333901482469,-7.657407090752228,3.0230622009569434
6.663003588516746,5.616796709545847,-7.872063514785474,3.1270466507177033
6.671002392344498,5.200203270844749,-8.086719938818744,3.2310311004784746
6.679001196172249,6.790854828186168,-6.335572966507176,-2.3326906263592875
6.687,6.765727272727271,-6.452000000000004,-2.2902727272727255
6.694998803827751,6.740599717268378,-6.568427033492821,-2.2478548281861688
6.702997607655503,6.7154721618094815,-6.68485406698565,-2.2054369290996068
6.710996411483253,6.690344606350587,-6.801281100478466,-2.16301903001305
6.718995215311005,6.665217050891691,-6.917708133971296,-2.1206011309264885
6.726994019138756,6.640089495432797,-7.034135167464112,-2.0781832318399314
6.7349928229665075,6.614961939973901,-7.150562200956941,-2.03576533275337
6.742991626794258,6.589834384515007,-7.266989234449757,-1.9933474336668127
6.75099043062201,6.56470682905611,-7.383416267942587,-1.950929534580251
6.758989234449761,6.539579273597217,-7.499843301435403,-1.9085116354936942
6.766988038277512,6.51445171813832,-7.616270334928232,-1.8660937364071324
6.774986842105263,6.489324162679426,-7.732697368421048,-1.8236758373205755
6.782985645933015,5.377306220095616,-10.394205741626761,-3.0206889952152918
6.790984449760765,4.248958940379547,-12.019460754798128,-2.3776290118810826
6.798983253588517,4.119809714531467,-12.065656093758403,-2.4124103274017554
6.806982057416268,3.9906604886834023,-12.111851432718671,-2.4471916429224243
6.8149808612440195,3.861511262835323,-12.158046771678944,-2.4819729584430967
6.82297966507177,3.732362036987258,-12.204242110639212,-2.5167542739637656
6.830978468899522,3.6032128111391786,-12.250437449599486,-2.5515355894844385
6.838977272727273,3.4740635852911135,-12.296632788559755,-2.586316905005107
6.846976076555024,3.3449143594430346,-12.342828127520027,-2.62109822052578
6.854974880382775,3.215765133594969,-12.389023466480296,-2.6558795360464487
6.862973684210527,3.08661590774689,-12.43521880544057,-2.690660851567121
6.870972488038277,2.957466681898825,-12.481414144400837,-2.72544216708779
6.878971291866029,2.8492881446039355,-12.42109356725143,-2.767979266347691
6.88697009569378,2.892837187666137,-11.590106725146162,-2.86663118022329
6.8949688995215315,3.413966806220148,-11.797179724880404,-3.2425343899521906
6.902967703349282,5.845973517654883,-12.785529707467743,-2.6647814941554095
6.910966507177034,5.325848767488303,-12.594773423778074,-2.5903622433529105
6.918965311004785,4.805724017321779,-12.404017140088424,-2.51594299255042
6.926964114832536,4.285599267155199,-12.213260856398753,-2.441523741747921
6.934962918660287,3.765474516988676,-12.022504572709103,-2.3671044909454304
6.942961722488039,3.2453497668220956,-11.831748289019433,-2.292685240142932
6.950960526315789,2.725225016655573,-11.640992005329784,-2.2182659893404413
6.958959330143541,2.205100266488992,-11.450235721640112,-2.1438467385379423
6.966958133971292,1.684975516322469,-11.259479437950464,-2.0694274877354517
6.9749569377990435,1.1648507661558885,-11.068723154260793,-1.9950082369329527
6.982955741626794,1.2268468899521103,-6.258660287081312,-7.843411483253586
6.990954545454546,-1.434432551319649,-4.608158357771264,-7.716900293255133
6.998953349282297,-1.4510322194783145,-4.663547924062355,-7.736338246643
7.006952153110048,-1.4676318876369818,-4.7189374903534524,-7.75577620003087
7.014950956937799,-1.4842315557956474,-4.774327056644544,-7.775214153418737
7.022949760765551,-1.500831223954315,-4.829716622935641,-7.794652106806607
7.030948564593301,-1.5174308921129804,-4.8851061892267325,-7.8140900601944745
7.038947368421053,-1.5340305602716477,-4.94049575551783,-7.833528013582344
7.046946172248804,-1.5506302284303133,-4.995885321808921,-7.852965966970212
7.0549449760765555,-1.5672298965889808,-5.051274888100019,-7.872403920358082
7.062943779904306,-1.5838295647476464,-5.10666445439111,-7.891841873745949
7.070942583732058,-1.6004292329063137,-5.162054020682207,-7.911279827133818
7.078941387559809,-1.205793959330179,-5.634502691387523,-6.917449162679514
7.08694019138756,3.151931220096097,-7.2899150717705545,-7.234756578947476
7.094938995215311,3.974826329080277,-7.5424216507177055,-7.56222303296119
7.102937799043063,3.9262113769271645,-7.290459330143528,-7.674295162147799
7.110936602870813,3.877596424774057,-7.038497009569379,-7.786367291334397
7.118935406698565,3.828981472620944,-6.786534688995202,-7.898439420521006
7.126934210526316,3.7803665204678363,-6.534572368421053,-8.010511549707603
7.1349330143540675,3.7317515683147238,-6.282610047846875,-8.122583678894213
7.142931818181818,3.683136616161616,-6.030647727272726,-8.23465580808081
7.15093062200957,3.634521664008503,-5.778685406698549,-8.346727937267419
7.158929425837321,3.585906711855396,-5.5267230861244,-8.458800066454016
7.166928229665071,3.5372917597022884,-5.27476076555025,-8.570872195640613
7.174927033492823,3.4886768075491754,-5.022798444976074,-8.682944324827222
7.182925837320574,4.550796650717869,-4.412723385167596,-7.986317882775106
7.190924641148325,3.018593871703581,-3.1932920468454498,-8.109613038277512
7.198923444976076,2.7988127851341025,-3.040105652609338,-8.097614832535887
7.206922248803828,2.579031698564599,-2.8869192583732097,-8.085616626794259
7.214921052631579,2.3592506119951207,-2.733732864137098,-8.073618421052632
7.22291985645933,2.1394695254256173,-2.5805464699009697,-8.061620215311006
7.230918660287081,1.9196884388561388,-2.4273600756648586,-8.04962200956938
7.238917464114833,1.6999073522866357,-2.27417368142873,-8.037623803827751
7.246916267942583,1.480126265717157,-2.1209872871926185,-8.025625598086126
7.254915071770335,1.2603451791476539,-1.96780089295649,-8.013627392344498
7.262913875598086,1.0405640925781752,-1.8146144987203787,-8.001629186602871
7.270912679425837,0.8207830060086723,-1.6614281044842503,-7.989630980861244
7.278911483253588,0.505340510366842,-0.8807719298246229,-7.494811802232899
7.28691028708134,0.6513397129186947,1.5415879186603116,-6.921075657894713
7.294909090909091,0.6054969696969719,1.5166848484848496,-6.917666666666666
7.302907894736842,0.5402622807017528,1.4779350877192972,-6.9274429824561405
7.310906698564593,0.47502759170654096,1.4391853269537491,-6.937219298245614
7.318905502392345,0.4097929027113219,1.4004355661881966,-6.946995614035088
7.326904306220095,0.34455821371611006,1.3616858054226484,-6.956771929824561
7.334903110047847,0.279323524720891,1.322936044657096,-6.966548245614035
7.342901913875598,0.21408883572567922,1.2841862838915479,-6.9763245614035085
7.350900717703349,0.14885414673046016,1.2454365231259954,-6.986100877192983
7.3588995215311,0.08361945773524837,1.2066867623604471,-6.995877192982456
7.366898325358852,0.018384768740029256,1.1679370015948947,-7.00565350877193
7.374897129186603,-0.04684992025518253,1.1291872408293466,-7.015429824561403
7.382895933014354,1.373282296650666,0.05269338118023614,-7.65483652312597
7.390894736842105,2.088760233918117,-0.3355380116958967,-7.529140350877203
7.398893540669857,2.1764605120756424,-0.4065830912508533,-7.435174997151971
7.406892344497607,2.1472267885623153,-0.3788729494190026,-7.438126936659831
7.414891148325359,2.117993065048985,-0.3511628075871489,-7.441078876167692
7.42288995215311,2.0887593415356585,-0.32345266575529824,-7.444030815675553
7.430888755980861,2.0595256180223283,-0.2957425239234445,-7.446982755183413
7.438887559808612,2.030291894509001,-0.26803238209159386,-7.449934694691273
7.446886363636364,2.001058170995671,-0.2403222402597401,-7.452886634199134
7.454885167464115,1.9718244474823439,-0.21261209842788947,-7.455838573706995
7.462883971291866,1.9425907239690137,-0.18490195659603573,-7.458790513214856
7.470882775119617,1.9133570004556866,-0.1571918147641851,-7.461742452722716
7.478881578947369,2.03494078947369,-0.8030197368421322,-8.170532894736871
7.486880382775119,3.1792702063075584,-0.1112481350002578,-9.19105160261357
7.494879186602871,3.1633586072953643,-0.09249825075886148,-9.27172771003756
7.502877990430622,3.1474470082831716,-0.07374836651746722,-9.352403817461541
7.510876794258373,3.1315354092709775,-0.054998482276070904,-9.433079924885531
7.518875598086124,3.115623810258785,-0.03624859803467664,-9.51375603230951
7.526874401913876,3.099712211246591,-0.017498713793280316,-9.5944321397335
7.534873205741627,3.083800612234399,0.0012511704481139307,-9.675108247157482
7.542872009569378,3.0678890132222048,0.020001054689510273,-9.75578435458147
7.550870813397129,3.051977414210012,0.038750938930904505,-9.836460462005451
7.558869617224881,3.036065815197818,0.05750082317230085,-9.917136569429442
7.566868421052631,3.0201542161856256,0.07625070741369508,-9.997812676853421
7.574867224880383,3.0042426171734316,0.09500059165509142,-10.078488784277411
7.582866028708134,3.217114832535887,-1.3801961722488,-10.253789473684195
7.590864832535885,3.1918878358483624,-1.4281889952153104,-10.450067813765179
7.598863636363636,3.2616130952380873,-1.4377359307359316,-10.458735389610396
7.606862440191388,3.392545895989975,-1.4225001139211666,-10.346466464456595
7.6148612440191386,3.5234786967418477,-1.407264297106403,-10.234197539302809
7.62286004784689,3.6544114974937356,-1.392028480291638,-10.121928614149008
7.630858851674641,3.7853442982456085,-1.3767926634768746,-10.00965968899522
7.638857655502393,3.9162770989974964,-1.3615568466621095,-9.89739076384142
7.646856459330143,4.047209899749369,-1.346321029847346,-9.785121838687632
7.654855263157895,4.178142700501257,-1.331085213032581,-9.672852913533832
7.662854066985646,4.30907550125313,-1.3158493962178175,-9.560583988380044
7.670852870813397,4.440008302005017,-1.3006135794030524,-9.448315063226243
7.678851674641148,4.365657097288708,-1.4993508771929467,-9.402223285486436
7.6868504784689,-3.1989890550239175,-9.108172464114798,-8.34163460526315
7.6948492822966505,-3.0578101674641163,-8.263338803827759,-8.159501842105266
7.702848086124402,-2.916631279904299,-7.418505143540628,-7.97736907894736
7.710846889952153,-2.775452392344498,-6.57367148325359,-7.795236315789475
7.718845693779905,-2.634273504784681,-5.728837822966458,-7.613103552631569
7.726844497607655,-2.4930946172248794,-4.88400416267942,-7.430970789473683
7.734843301435407,-2.3519157296650626,-4.039170502392289,-7.248838026315777
7.742842105263158,-2.210736842105261,-3.194336842105251,-7.066705263157893
7.750840909090909,-2.069557954545444,-2.349503181818119,-6.884572499999987
7.75883971291866,-1.9283790669856429,-1.5046695215310812,-6.702439736842101
7.766838516746412,-1.7872001794258259,-0.6598358612439501,-6.520306973684195
7.7748373205741625,-1.6460212918660244,0.18499779904308866,-6.33817421052631
7.782836124401914,-1.5048424043062074,1.0298314593302198,-6.156041447368404
7.790834928229665,11.003521531101034,-4.362105263155547,-15.01172248803741
7.798833732057417,-7.637854936929056,-7.140787135711109,-7.693526723575467
7.806832535885167,-7.159381035232693,-6.365993910395797,-7.697707916485428
7.814831339712919,-6.680907133536277,-5.5912006850804,-7.701889109395389
7.82283014354067,-6.2024332318399145,-4.816407459765089,-7.70607030230535
7.830828947368421,-5.723959330143498,-4.041614234449692,-7.710251495215311
7.838827751196172,-5.245485428447136,-3.2668210091343806,-7.714432688125272
7.846826555023924,-4.76701152675072,-2.4920277838189833,-7.718613881035233
7.8548253588516745,-4.2885376250543565,-1.7172345585036721,-7.722795073945194
7.862824162679426,-3.81006372335794,-0.9424413331882748,-7.7269762668551545
7.870822966507177,-3.331589821661577,-0.1676481078729637,-7.731157459765115
7.878821770334929,-2.8531159199651617,0.6071451174424336,-7.735338652675076
7.886820574162679,4.936627751196338,2.827339712918719,-9.307967464114823
7.894819377990431,1.191688288386251,1.5116146422357544,-9.53943051326664
7.902818181818182,1.0967933884297534,1.5045247933884298,-9.544520661157025
7.910816985645933,1.0018984884732454,1.4974349445411044,-9.549610809047413
7.918815789473684,0.9070035885167478,1.49034509569378,-9.554700956937799
7.926814593301436,0.8121086885602398,1.4832552468464546,-9.559791104828188
7.9348133971291865,0.7172137886037422,1.47616539799913,-9.564881252718573
7.942812200956938,0.6223188886472341,1.4690755491518048,-9.569971400608962
7.950811004784689,0.5274239886907366,1.4619857003044803,-9.575061548499347
7.958809808612441,0.43252908873422846,1.454895851457155,-9.580151696389734
7.966808612440191,0.337634188777731,1.4478060026098305,-9.585241844280121
7.974807416267943,0.24273928882122286,1.4407161537625053,-9.590331992170508
7.982806220095694,2.087241626794115,2.154968899521466,-9.781021531100492
7.990805023923445,2.7668023325358604,2.8780948714114976,-9.224270933014326
7.998803827751196,2.292873205741629,3.1485544258373195,-8.700349282296653
8.006802631578948,2.1970362143891826,3.151554321583774,-8.628240946402704
8.0148014354067,2.1676828058469746,3.107524208770462,-8.635579298538255
8.02280023923445,2.1383293973047732,3.06349409595716,-8.642917650673807
8.030799043062201,2.108975988762565,3.019463983143848,-8.650256002809359
8.038797846889953,2.0796225802203576,2.9754338703305363,-8.65759435494491
8.046796650717704,2.0502691716781496,2.9314037575172245,-8.664932707080462
8.054795454545454,2.0209157631359482,2.8873736447039224,-8.672271059216012
8.062794258373206,1.9915623545937404,2.8433435318906106,-8.679609411351565
8.070793062200957,1.9622089460515326,2.799313419077299,-8.686947763487117
8.078791866028709,1.9328555375093246,2.755283306263987,-8.694286115622669
8.086790669856459,1.9035021289671232,2.711253193450685,-8.701624467758219
8.09478947368421,1.8741487204249154,2.667223080637373,-8.70896281989377
8.102788277511962,1.8447953118827076,2.6231929678240613,-8.716301172029322
8.110787081339714,2.0376483253591093,2.2578791866027323,-9.519586124401991
8.118785885167464,2.763609177903395,2.0633763049151854,-9.611216833405827
8.126784688995215,3.314799478033911,1.997810352327101,-9.629153545019573
8.134783492822967,3.8659897781644275,1.9322443997390162,-9.64709025663332
8.142782296650719,4.417180078294944,1.8666784471509315,-9.665026968247066
8.150781100478468,4.9683703784253375,1.8011124945628612,-9.682963679860807
8.15877990430622,5.5195606785558535,1.7355465419747764,-9.700900391474553
8.166778708133972,6.0707509786863705,1.6699805893866917,-9.7188371030883
8.174777511961723,6.621941278816887,1.604414636798607,-9.736773814702044
8.182776315789473,2.384298245613969,0.8275307017541778,-9.05271929824581
8.190775119617225,2.189173216493741,1.8564724477178625,-8.511
8.198773923444977,2.1262612762754687,1.8924221278425895,-8.511
8.206772727272726,2.06334933605721,1.9283718079673084,-8.511
8.214771531100478,2.000437395838938,1.9643214880920357,-8.511
8.22277033492823,1.9375254556206656,2.0002711682167624,-8.511
8.230769138755981,1.8746135154023933,2.0362208483414896,-8.511
8.238767942583731,1.8117015751841348,2.072170528466209,-8.511
8.246766746411483,1.7487896349658625,2.1081202085909356,-8.511
8.254765550239235,1.6858776947475902,2.144069888715663,-8.511
8.262764354066986,1.622965754529318,2.18001956884039,-8.511
8.270763157894736,1.5600538143110594,2.215969248965109,-8.511
8.278761961722488,1.064744617224331,2.8899300239236028,-8.859959928229276
8.28676076555024,2.4187230799585633,-0.1966755783554503,-9.965963251615449
8.294759569377991,2.188077159275868,-0.39606844078332215,-9.982703016327136
8.30275837320574,1.9574312385932235,-0.5954613032111497,-9.999442781038818
8.310757177033492,1.7267853179105281,-0.7948541656390216,-10.016182545750505
8.318755980861244,1.4961393972278325,-0.9942470280668934,-10.032922310462192
8.326754784688996,1.265493476545137,-1.1936398904947654,-10.049662075173877
8.334753588516746,1.0348475558624928,-1.3930327529225928,-10.066401839885561
8.342752392344497,0.8042016351797974,-1.5924256153504648,-10.083141604597248
8.350751196172249,0.573555714497102,-1.7918184777783366,-10.099881369308934
8.35875,0.34290979381440634,-1.9912113402062084,-10.11662113402062
8.36674880382775,0.11226387313176245,-2.1906042026340358,-10.133360898732304
8.374747607655502,-0.11838204755093296,-2.3899970650619076,-10.15010066344399
8.382746411483254,3.1413014354071427,3.4005199362044314,-9.64911642743227
8.390745215311005,1.089964380648588,1.1962186337054757,-9.490814992025518
8.398744019138755,1.6571854066985454,1.4315293062200418,-9.416004984051076
8.406742822966507,1.7674546308954078,1.738626238892651,-9.19041967133746
8.414741626794259,1.8777238550922704,2.04572317156526,-8.964834358623843
8.42274043062201,1.9879930792891327,2.3528201042378694,-8.739249045910228
8.43073923444976,2.0982623034859706,2.65991703691041,-8.513663733196662
8.438738038277512,2.2085315276828332,2.967013969583019,-8.288078420483046
8.446736842105263,2.318800751879696,3.274110902255628,-8.06249310776943
8.454735645933015,2.429069976076558,3.5812078349282377,-7.836907795055815
8.462734449760765,2.539339200273396,3.8883047676007783,-7.611322482342249
8.470733253588516,2.6496084244702587,4.195401700273387,-7.385737169628634
8.478732057416268,2.5196028708132734,4.764566985645774,-8.609916866028728
8.48673086124402,0.09510071770338915,1.0513399521530633,-9.610895454545545
8.49472966507177,1.532928118393237,-0.4841954489818808,-12.860752976521653
8.502728468899521,1.4834471458773781,-0.09857869700678557,-12.628601646823187
8.510727272727273,1.4339661733615194,0.2870380549683098,-12.396450317124723
8.518726076555025,1.3844852008456605,0.6726548069434052,-12.164298987426257
8.526724880382774,1.3350042283298127,1.058271558918415,-11.932147657727842
8.534723684210526,1.2855232558139538,1.4438883108935099,-11.699996328029377
8.542722488038278,1.236042283298095,1.8295050628686056,-11.467844998330913
8.55072129186603,1.1865613107822361,2.215121814843701,-11.235693668632447
8.55872009569378,1.1370803382663883,2.6007385668187104,-11.003542338934032
8.56671889952153,1.0875993657505294,2.9863553187938057,-10.771391009235568
8.574717703349283,1.0381183932346705,3.371972070768901,-10.539239679537102
8.582716507177034,0.5515630193905814,3.382240493578443,-9.139835394107278
8.590715311004784,0.6025027700830943,3.463070511206232,-9.11567058675397
8.598714114832536,0.6534425207756185,3.543900528834039,-9.091505779400658
8.606712918660287,0.7043822714681427,3.6247305464618464,-9.067340972047344
8.614711722488039,0.7553220221606669,3.7055605640896534,-9.04317616469403
8.622710526315789,0.8062617728531798,3.7863905817174426,-9.019011357340723
8.63070933014354,0.857201523545704,3.8672205993452495,-8.99484654998741
8.638708133971292,0.9081412742382282,3.9480506169730565,-8.970681742634097
8.646706937799044,0.9590810249307524,4.028880634600863,-8.946516935280783
8.654705741626794,1.0100207756232655,4.109710652228653,-8.922352127927477
8.662704545454545,1.0609605263157897,4.19054066985646,-8.898187320574163
8.670703349282297,1.111900277008314,4.271370687484267,-8.874022513220849
8.678702153110049,0.5383738038275571,3.218387559808259,-9.312028110047992
8.686700956937798,0.6006705136968377,1.5617464114832849,-10.813789158210227
8.69469976076555,0.4827980309164527,1.1138133971291893,-10.594569193963933
8.702698564593302,0.36492554813606765,0.6658803827750939,-10.375349229717639
8.710697368421053,0.24705306535568267,0.2179473684209985,-10.156129265471344
8.718696172248803,0.12918058257532378,-0.22998564593299764,-9.9369093012251
8.726694976076555,0.011308099794938742,-0.677918660287093,-9.717689336978806
8.734693779904307,-0.10656438298544624,-1.1258516746411886,-9.498469372732512
8.742692583732058,-0.22443686576583122,-1.5737846889952838,-9.279249408486217
8.750691387559808,-0.3423093485461901,-2.02171770334928,-9.060029444239973
8.75869019138756,-0.4601818313265751,-2.4696507177033755,-8.840809479993679
8.766688995215311,-0.5780543141069601,-2.917583732057471,-8.621589515747385
8.774687799043063,-0.695926796887345,-3.3655167464115667,-8.40236955150109
8.782686602870813,0.16603122639131726,1.1767464114832515,-9.215643414756965
8.790685406698564,0.47419566859732587,1.208741626794258,-9.57937849408209
8.798684210526316,0.5377368421052482,1.2314999999999996,-9.646526315789457
8.806683014354068,0.18843545391589195,1.270705426844625,-9.187265754847646
8.814681818181818,0.2727386363636255,1.3325909090909012,-9.248624999999992
8.82268062200957,0.35704181881137775,1.3944763913371911,-9.30998424515235
8.830679425837321,0.44134500125913007,1.4563618735834813,-9.37134349030471
8.838678229665073,0.5256481837068823,1.5182473558297713,-9.432702735457068
8.846677033492822,0.6099513661546159,1.5801328380760475,-9.494061980609414
8.854675837320574,0.6942545486023681,1.6420183203223377,-9.555421225761773
8.862674641148326,0.7785577310501205,1.7039038025686277,-9.616780470914133
8.870673444976077,0.8628609134978728,1.7657892848149177,-9.678139716066491
8.878672248803827,3.3880717703348293,2.957322009568801,-10.64859808612487
8.886671052631579,1.1885604131295775,1.4948954442558022,-10.008141624221837
8.89466985645933,1.5765454030971868,1.4676307043267993,-10.155302412923804
8.902668660287082,1.9645303930647962,1.4403659643977964,-10.302463201625773
8.910667464114832,2.3525153830323196,1.4131012244687995,-10.449623990327709
8.918666267942584,2.7405003729999287,1.3858364845397966,-10.596784779029678
8.926665071770335,3.128485362967538,1.3585717446107937,-10.743945567731647
8.934663875598087,3.5164703529351478,1.3313070046817908,-10.891106356433616
8.942662679425837,3.904455342902671,1.3040422647527938,-11.038267145135551
8.950661483253588,4.292440332870281,1.276777524823791,-11.18542793383752
8.95866028708134,4.68042532283789,1.249512784894788,-11.332588722539487
8.966659090909092,5.0684103128055,1.222248044965785,-11.479749511241456
8.974657894736842,5.456395302773023,1.1949833050367884,-11.626910299943392
8.982656698564593,3.9323857655504053,1.2020845295055806,-9.843829146730648
8.990655502392345,3.353158262789842,2.1841107839528853,-9.986651085756352
8.998654306220097,3.349993900836006,2.3251885877280665,-9.869218097691776
9.006653110047846,3.346829538882171,2.466266391503216,-9.751785109627228
9.014651913875598,3.3436651769283348,2.6073441952783973,-9.634352121562655
9.02265071770335,3.340500814974499,2.7484219990535785,-9.51691913349808
9.030649521531101,3.3373364530206633,2.8894998028287597,-9.399486145433505
9.038648325358851,3.334172091066828,3.03057760660391,-9.282053157368956
9.046647129186603,3.3310077291129923,3.171655410379091,-9.164620169304383
9.054645933014354,3.3278433671591565,3.312733214154272,-9.047187181239808
9.062644736842106,3.324679005205321,3.4538110179294534,-8.929754193175233
9.070643540669856,3.3215146432514855,3.594888821704603,-8.812321205110685
9.078642344497608,2.9189342105263116,1.1341190191388528,-8.890465311004704
9.08664114832536,1.5399144614783722,0.4048524558148618,-9.316235133287767
9.094639952153111,1.5070214212479238,0.40632162386485704,-9.24253186944634
9.10263875598086,1.4741283810174826,0.4077907919148519,-9.16882860560493
9.110637559808612,1.4412353407870342,0.4092599599648471,-9.095125341763504
9.118636363636364,1.4083423005565858,0.41072912801484235,-9.021422077922077
9.126635167464116,1.3754492603261375,0.41219829606483754,-8.94771881408065
9.134633971291866,1.3425562200956962,0.4136674641148324,-8.874015550239239
9.142632775119617,1.3096631798652478,0.41513663216482766,-8.800312286397814
9.150631578947369,1.2767701396347995,0.41660580021482285,-8.726609022556387
9.15863038277512,1.2438770994043509,0.41807496826481805,-8.65290575871496
9.16662918660287,1.2109840591739098,0.41954413631481297,-8.579202494873549
9.174627990430622,1.1780910189434615,0.42101330436480816,-8.505499231032124
9.182626794258374,1.6062325358853091,0.6389732057416951,-8.433409569377982
9.190625598086125,2.8387200956937186,1.373119617225125,-9.026877990431906
9.198624401913875,2.00442846025248,1.1639088026747837,-9.375122009569372
9.206623205741627,2.0951136940104855,1.3765035164581627,-9.415116028708132
9.214622009569378,2.1857989277684906,1.5890982302415417,-9.45511004784689
9.222620813397128,2.276484161526476,1.8016929440248735,-9.49510406698564
9.23061961722488,2.3671693952844812,2.0142876578082527,-9.5350980861244
9.238618421052632,2.4578546290424867,2.226882371591632,-9.575092105263158
9.246617224880383,2.548539862800492,2.439477085375011,-9.615086124401918
9.254616028708133,2.639225096558477,2.6520717991583425,-9.655080143540667
9.262614832535885,2.7299103303164824,2.8646665129417217,-9.695074162679425
9.270613636363636,2.8205955640744875,3.077261226725101,-9.735068181818185
9.278612440191388,2.033891866028159,2.2205205741620233,-9.716691866028675
9.286611244019138,0.784260128458473,3.168043894320779,-10.070270907010626
9.29461004784689,0.9940548418972188,3.1930836280424364,-9.94750665695861
9.302608851674641,1.2038495553359645,3.2181233617640936,-9.824742406906598
9.310607655502393,1.4136442687747102,3.2431630954857504,-9.701978156854583
9.318606459330143,1.6234389822134094,3.2682028292074023,-9.579213906802597
9.326605263157894,1.833233695652155,3.2932425629290596,-9.456449656750584
9.334604066985646,2.0430284090909008,3.318282296650717,-9.333685406698569
9.342602870813398,2.2528231225296462,3.343322030372374,-9.210921156646556
9.350601674641148,2.4626178359683455,3.3683617640940255,-9.08815690659457
9.3586004784689,2.672412549407091,3.393401497815683,-8.965392656542555
9.36659928229665,2.882207262845837,3.41844123153734,-8.842628406490542
9.374598086124402,3.0920019762845827,3.4434809652589973,-8.719864156438529
9.382596889952152,2.5635237580168995,2.914809719535782,-9.0930663493841
9.390595693779904,2.5571417336862465,2.9390614119922627,-9.05375307950728
9.398594497607656,2.550759709355594,2.9633131044487433,-9.014439809630458
9.406593301435407,2.544377685024941,2.987564796905224,-8.975126539753637
9.414592105263157,2.5379956606942895,3.0118164893616997,-8.935813269876824
9.422590909090909,2.5316136363636366,3.0360681818181803,-8.896500000000003
9.43058971291866,2.525231612032984,3.060319874274661,-8.857186730123182
9.438588516746412,2.518849587702331,3.0845715667311415,-8.81787346024636
9.446587320574162,2.5124675633716795,3.1088232591876173,-8.778560190369546
9.454586124401914,2.5060855390410266,3.133074951644098,-8.739246920492725
9.462584928229665,2.499703514710374,3.1573266441005785,-8.699933650615904
9.470583732057417,2.493321490379721,3.1815783365570596,-8.660620380739083
9.478582535885167,2.9661471291865165,2.9482894736843135,-8.726612440191342
9.486581339712918,2.871198190789475,2.4484292015550215,-9.19982543361244
9.49458014354067,2.7969592927631552,2.596657034988044,-9.221072256279905
9.502578947368422,2.7227203947368355,2.7448848684210665,-9.242319078947371
9.510577751196172,2.648481496710532,2.893112701854056,-9.26356590161483
9.518576555023923,2.574242598684212,3.0413405352870786,-9.284812724282297
9.526575358851675,2.500003700657892,3.189568368720101,-9.306059546949761
9.534574162679426,2.4257648026315723,3.3377962021531236,-9.327306369617228
9.542572966507176,2.351525904605269,3.486024035586113,-9.348553192284687
9.550571770334928,2.2772870065789492,3.6342518690191357,-9.369800014952153
9.55857057416268,2.203048108552629,3.782479702452158,-9.391046837619617
9.566569377990431,2.1288092105263092,3.9307075358851806,-9.412293660287084
9.574568181818181,2.054570312500006,4.07893536931817,-9.433540482954543
9.582566985645933,1.2151052631578443,3.4789425837320973,-9.135119617224854
9.590565789473684,1.085308101714964,3.572955056179775,-8.969615612063869
9.598564593301436,1.1241337562496683,3.5661246169560767,-8.991185420138706
9.606563397129186,1.1629594107843642,3.5592941777323803,-9.012755228213535
9.614562200956938,1.2017850653190685,3.5524637385086826,-9.034325036288372
9.62256100478469,1.240610719853773,3.5456332992849844,-9.055894844363207
9.63055980861244,1.2794363743884773,3.5388028600612866,-9.077464652438042
9.63855861244019,1.3182620289231732,3.5319724208375898,-9.099034460512874
9.646557416267942,1.3570876834578776,3.525141981613892,-9.120604268587709
9.654556220095694,1.395913337992582,3.518311542390194,-9.142174076662545
9.662555023923446,1.4347389925272864,3.511481103166496,-9.16374388473738
9.670553827751196,1.4735646470619823,3.5046506639427992,-9.185313692812212
9.678552631578947,0.7228421052633065,2.9441052631578133,-9.0160526315788
9.686551435406699,1.1884958133971442,3.189456937799012,-9.42667628270387
9.69455023923445,1.3044784688995417,2.949492822966466,-9.52274702229463
9.7025490430622,1.4204611244019132,2.7095287081339725,-9.61881776188537
9.710547846889952,1.5364437799043107,2.4695645933014267,-9.71488850147613
9.718546650717704,1.652426435406708,2.22960047846888,-9.810959241066891
9.726545454545455,1.7684090909091053,1.9896363636363341,-9.907029980657653
9.734544258373205,1.884391746411477,1.7496722488038412,-10.00310072024839
9.742543062200957,2.0003744019138745,1.5097081339712948,-10.099171459839152
9.750541866028708,2.1163570574162716,1.2697440191387486,-10.195242199429913
9.75854066985646,2.2323397129186686,1.0297799043062024,-10.291312939020674
9.76653947368421,2.348322368421041,0.7898157894737095,-10.387383678611412
9.774538277511962,2.464305023923438,0.5498516746411632,-10.483454418202173
9.782537081339713,0.6231895933014446,2.1538411654135357,-10.010790242652082
9.790535885167465,0.7026062884484068,2.1691041890440412,-9.975448589004975
9.798534688995215,0.7820229835953512,2.1843672126745433,-9.940106935357877
9.806533492822966,0.8614396787423133,2.199630236305049,-9.90476528171077
9.814532296650718,0.9408563738892755,2.2148932599355544,-9.869423628063663
9.82253110047847,1.0202730690362376,2.23015628356606,-9.834081974416556
9.83052990430622,1.0996897641831822,2.245419307196562,-9.798740320769458
9.838528708133971,1.1791064593301441,2.2606823308270676,-9.76339866712235
9.846527511961723,1.2585231544771065,2.275945354457573,-9.728057013475246
9.854526315789474,1.3379398496240684,2.2912083780880788,-9.692715359828139
9.862525119617224,1.417356544771013,2.3064714017185812,-9.65737370618104
9.870523923444976,1.4967732399179752,2.321734425349087,-9.622032052533934
9.878522727272728,1.4502499999998788,2.2230909090907955,-9.594750000000007
9.88652153110048,0.9712844784689111,1.8219237129186359,-9.262749894736857
9.89452033492823,1.0264442296650742,1.7059090622009518,-9.330323789473688
9.90251913875598,1.0816039808612494,1.589894411483242,-9.397897684210534
9.910517942583732,1.1367637320574249,1.4738797607655323,-9.46547157894738
9.918516746411484,1.1919234832536,1.3578651100478223,-9.533045473684226
9.926515550239234,1.247083234449763,1.2418504593301383,-9.600619368421055
9.934514354066986,1.3022429856459385,1.1258358086124285,-9.668193263157901
9.942513157894737,1.357402736842114,1.0098211578947187,-9.735767157894747
9.950511961722489,1.4125624880382892,0.8938065071770088,-9.803341052631593
9.958510765550239,1.4677222392344524,0.7777918564593247,-9.870914947368425
9.96650956937799,1.5228819904306277,0.6617772057416149,-9.93848884210527
9.974508373205742,1.5780417416268029,0.5457625550239051,-10.006062736842116
9.982507177033494,1.6332014928229783,0.42974790430619514,-10.073636631578962
9.990505980861244,1.6883612440191413,0.3137332535885111,-10.141210526315792
9.998504784688995,1.7435209952153168,0.19771860287080134,-10.208784421052638
10.006503588516747,1.7986807464114922,0.08170395215309134,-10.276358315789484
10.014502392344498,1.8261291866027438,1.8696196172247994,-9.414906698564588
10.022501196172248,1.3598893128196667,1.5521035101468408,-9.394544320244183
10.0305,1.369129310344828,1.4948706896551693,-9.40268103448276
10.038498803827752,1.3783693078699895,1.437637869163498,-9.410817748721334
10.046497607655503,1.3876093053951508,1.3804050486718267,-9.41895446295991
10.054496411483253,1.3968493029203102,1.3231722281801679,-9.427091177198482
10.062495215311005,1.4060893004454715,1.2659394076884964,-9.435227891437057
10.070494019138756,1.4153292979706331,1.208706587196825,-9.443364605675633
10.078492822966508,1.545234449760981,1.3511435406702048,-9.522459330143668
10.086491626794258,1.0749297532107756,1.0096571896247768,-9.42144430873835
10.09449043062201,1.106840770586753,1.0455255099471155,-9.454534097204734
10.102489234449761,1.1387517879627302,1.0813938302694541,-9.487623885671116
10.110488038277513,1.1706628053387076,1.1172621505917928,-9.520713674137498
10.118486842105263,1.202573822714678,1.1531304709141237,-9.553803462603875
10.126485645933014,1.2344848400906554,1.1889987912364623,-9.586893251070258
10.134484449760766,1.2663958574666327,1.224867111558801,-9.61998303953664
10.142483253588518,1.29830687484261,1.2607354318811397,-9.653072828003024
10.150482057416268,1.3302178922185806,1.2966037522034703,-9.6861626164694
10.15848086124402,1.362128909594558,1.332472072525809,-9.719252404935782
10.16647966507177,1.3940399269705352,1.368340392848148,-9.752342193402166
10.174478468899522,1.4259509443465126,1.4042087131704866,-9.785431981868548
10.182477272727272,1.3525000000000116,1.310931818182313,-9.546863636363634
10.190476076555024,1.3675990934273488,0.8333456308234705,-9.560623898262403
10.198474880382776,1.3960579954671386,0.8497642281541185,-9.571990619491313
10.206473684210527,1.4245168975069287,0.8661828254847664,-9.583357340720223
10.214472488038277,1.452975799546712,0.8826014228154108,-9.594724061949131
10.222471291866029,1.481434701586502,0.8990200201460588,-9.606090783178042
10.23047009569378,1.509893603626292,0.9154386174767067,-9.617457504406952
10.238468899521532,1.5383525056660818,0.9318572148073547,-9.628824225635862
10.246467703349282,1.5668114077058652,0.948275812137999,-9.640190946864768
10.254466507177034,1.595270309745655,0.9646944094686472,-9.651557668093679
10.262465311004785,1.6237292117854452,0.9811130067992951,-9.662924389322589
10.270464114832535,1.6521881138252286,0.9975316041299395,-9.674291110551497
10.278462918660287,1.6843235645932948,1.1747900717701336,-9.678750598086133
10.286461722488038,1.5630636363636372,1.0787703349282294,-9.738496172248803
10.29446052631579,1.4313499999999828,1.126763157894743,-9.683571052631573
10.30245933014354,1.453060833902937,1.1039340396445672,-9.681074162679426
10.310458133971292,1.5113378332194123,1.0642256920710866,-9.691072667464114
10.318456937799043,1.5696148325358876,1.024517344497606,-9.701071172248804
10.326455741626795,1.627891831852363,0.9848089969241252,-9.711069677033494
10.334454545454545,1.6861688311688252,0.9451006493506533,-9.72106818181818
10.342453349282296,1.7444458304853003,0.9053923017771726,-9.73106668660287
10.350452153110048,1.8027228298017757,0.8656839542036918,-9.74106519138756
10.3584509569378,1.860999829118251,0.8259756066302112,-9.751063696172249
10.36644976076555,1.9192768284347133,0.7862672590567392,-9.761062200956937
10.374448564593301,1.9775538277511886,0.7465589114832586,-9.771060705741625
10.382447368421053,1.6823815789471535,1.8719999999997603,-9.423210526315893
10.390446172248804,0.9523019903319689,0.12392751442806388,-10.04180730528289
10.398444976076554,0.9556829280323581,0.1913813446455837,-10.045930400039461
10.406443779904306,0.9590638657327479,0.2588351748631185,-10.050053494796034
10.414442583732058,0.9624448034331379,0.32628900508065334,-10.054176589552608
10.42244138755981,0.9658257411335277,0.39374283529818815,-10.05829968430918
10.430440191387559,0.9692066788339169,0.461196665515708,-10.062422779065752
10.43843899521531,0.9725876165343068,0.5286504957332427,-10.066545873822326
10.446437799043062,0.9759685542346966,0.5961043259507776,-10.070668968578898
10.454436602870814,0.9793494919350866,0.6635581561683124,-10.074792063335472
10.462435406698564,0.9827304296354756,0.7310119863858322,-10.078915158092045
10.470434210526316,0.9861113673358656,0.798465816603367,-10.083038252848617
10.478433014354067,0.9894923050362554,0.8659196468209018,-10.08716134760519
10.486431818181819,1.0802499999998734,1.1790454545451285,-9.877022727272863
10.494430622009569,0.8472657628920655,0.4189512493354429,-10.168731472620957
10.50242942583732,0.9799570308346568,0.5879037612971751,-10.074789965443918
10.510428229665072,1.1126482987772481,0.7568562732589073,-9.980848458266879
10.518427033492824,1.2453395667198395,0.9258087852206395,-9.88690695108984
10.526425837320573,1.3780308346624015,1.0947612971823342,-9.792965443912822
10.534424641148325,1.5107221026049928,1.2637138091440663,-9.699023936735783
10.542423444976077,1.6434133705475842,1.4326663211057986,-9.605082429558744
10.550422248803828,1.7761046384901755,1.6016188330675307,-9.511140922381704
10.558421052631578,1.9087959064327376,1.7705713450292253,-9.417199415204687
10.56641985645933,2.041487174375329,1.9395238569909574,-9.323257908027648
10.574418660287082,2.1741784423179205,2.1084763689526898,-9.229316400850609
10.582417464114833,0.8301356783293451,0.9180664498604453,-8.928882413775916
10.590416267942583,0.9285376295853095,1.0534628688197527,-8.907468949362045
10.598415071770335,1.0269395808412958,1.1888592877790902,-8.886055484948168
10.606413875598086,1.125341532097282,1.324255706738428,-8.86464202053429
10.614412679425838,1.2237434833532683,1.4596521256977657,-8.843228556120415
10.622411483253588,1.3221454346092327,1.595048544657073,-8.821815091706542
10.63041028708134,1.420547385865219,1.7304449636164105,-8.800401627292667
10.638409090909091,1.5189493371212053,1.8658413825757483,-8.77898816287879
10.646407894736843,1.6173512883771917,2.001237801535086,-8.757574698464913
10.654406698564593,1.7157532396331558,2.1366342204943933,-8.73616123405104
10.662405502392344,1.8141551908891422,2.272030639453731,-8.714747769637164
10.670404306220096,1.9125571421451284,2.4074270584130684,-8.693334305223287
10.678403110047848,1.600874401913775,2.060330143540552,-8.997906698564673
10.686401913875597,1.2210387124836772,1.6406372335798025,-9.067184428012201
10.694400717703349,2.1600253189792764,2.4319613611443263,-9.437111468301437
10.7023995215311,2.0707053429027167,2.535362564792657,-9.425613187799044
10.710398325358852,1.9813853668261565,2.6387637684409886,-9.414114907296652
10.718397129186602,1.8920653907496163,2.7421649720892964,-9.402616626794261
10.726395933014354,1.8027454146730566,2.845566175737628,-9.391118346291867
10.734394736842106,1.7134254385964964,2.9489673793859588,-9.379620065789474
10.742393540669857,1.6241054625199367,3.0523685830342897,-9.368121785287082
10.750392344497607,1.5347854864433965,3.1557697866825976,-9.356623504784691
10.758391148325359,1.4454655103668366,3.259170990330929,-9.345125224282299
10.76638995215311,1.3561455342902766,3.36257219397926,-9.333626943779905
10.774388755980862,1.2668255582137167,3.4659733976275913,-9.322128663277512
10.782387559808612,1.1775055821371765,3.569374601275899,-9.310630382775122
10.790386363636363,1.1641590909091342,3.676386363636385,-9.668022727272731
10.798385167464115,1.2135998803827757,3.6826007775119622,-9.61724835526316
10.806383971291867,1.1481810919343785,3.630180045283661,-9.553615014097742
10.814382775119617,1.0827623034859957,3.5777593130553718,-9.48998167293234
10.822381578947368,1.0173435150375982,3.525338580827071,-9.426348331766922
10.83038038277512,0.951924726589201,3.47291784859877,-9.362714990601505
10.838379186602872,0.8865059381408036,3.420497116370469,-9.299081649436088
10.846377990430621,0.8210871496924208,3.3680763841421797,-9.235448308270685
10.854376794258373,0.7556683612440235,3.315655651913879,-9.171814967105268
10.862375598086125,0.6902495727956262,3.263234919685578,-9.108181625939851
10.870374401913876,0.6248307843472288,3.2108141874572773,-9.044548284774434
10.878373205741626,0.559411995898846,3.158393455228988,-8.980914943609031
10.886372009569378,0.4939932074504487,3.1059727230006873,-8.917281602443614
10.89437081339713,0.4285744190020515,3.053551990772386,-8.853648261278197
10.902369617224881,0.3631556305536542,3.0011312585440852,-8.79001492011278
10.910368421052631,1.0249999999998045,3.101368421052556,-8.348736842105236
10.918367224880383,1.1137768098606167,2.583577790201802,-8.598669414395664
10.926366028708134,1.144902589972955,2.457422742874978,-8.689960110255875
10.934364832535886,1.1760283700852934,2.331267695548154,-8.781250806116084
10.942363636363636,1.2071541501976248,2.2051126482213586,-8.872541501976274
10.950362440191387,1.2382799303099632,2.0789576008945345,-8.963832197836485
10.95836124401914,1.2694057104223015,1.9528025535677107,-9.055122893696694
10.96636004784689,1.30053149053464,1.826647506240887,-9.146413589556905
10.97435885167464,1.3316572706469714,1.700492458914091,-9.237704285417095
10.982357655502392,1.3627830507593097,1.5743374115872673,-9.328994981277305
10.990356459330144,1.393908830871648,1.4481823642604434,-9.420285677137516
10.998355263157896,1.4250346109839864,1.3220273169336194,-9.511576372997727
11.006354066985645,1.714961722487839,1.3258038277510429,-9.71628708133958
11.014352870813397,1.747122676288326,1.128712291160094,-9.936797964546228
11.022351674641149,1.6138966977802,1.16752615891443,-9.773543689701132
11.0303504784689,1.4806707192720743,1.2063400266687658,-9.610289414856037
11.03834928229665,1.347444740763978,1.245153894423093,-9.447035140010978
11.046348086124402,1.214218762255852,1.2839677621774288,-9.283780865165882
11.054346889952154,1.0809927837477262,1.3227816299317647,-9.120526590320788
11.062345693779905,0.9477668052396003,1.3615954976861007,-8.957272315475691
11.070344497607655,0.8145408267315041,1.400409365440428,-8.794018040630633
11.078343301435407,0.4513334662413121,1.285181685273767,-8.895883306751761
11.086342105263158,1.374500000000056,1.190500000000006,-10.123473684210545
11.09434090909091,2.0559977272728265,1.6539568181819257,-10.341227272727304
11.10233971291866,2.5580559808612504,2.198853110047854,-10.502980861244021
11.110338516746411,3.0601142344497863,2.7437494019139033,-10.664734449760774
11.118337320574163,3.562172488038322,3.2886456937799524,-10.826488038277526
11.126336124401915,4.064230741626858,3.833541985646002,-10.988241626794277
11.134334928229665,4.566288995215283,4.37843827751193,-11.149995215310994
11.142333732057416,5.068347248803818,4.92333456937798,-11.311748803827747
11.150332535885168,5.570405502392354,5.468230861244029,-11.4735023923445
11.15833133971292,6.072463755980889,6.013127153110078,-11.635255980861253
11.16633014354067,6.574522009569314,6.558023444976007,-11.79700956937797
11.174328947368421,7.076580263157849,7.102919736842056,-11.958763157894722
11.182327751196173,0.9068098086122092,1.0522356459330295,-9.546635167464329
11.190326555023924,0.8416996552209566,1.2361022140914035,-9.59147659255088
11.198325358851674,0.9647400788066379,1.4239956843981547,-9.460986302655039
11.206324162679426,1.0877805023923468,1.6118891547049476,-9.330496012759168
11.214322966507178,1.2108209259780554,1.7997826250117406,-9.200005722863299
11.22232177033493,1.3338613495637641,1.9876760953185335,-9.06951543296743
11.230320574162679,1.4569017731494456,2.1755695656252847,-8.93902514307159
11.23831937799043,1.5799421967351543,2.3634630359320776,-8.80853485317572
11.246318181818182,1.7029826203208631,2.5513565062388706,-8.678044563279851
11.254316985645934,1.8260230439065719,2.7392499765456635,-8.54755427338398
11.262315789473684,1.9490634674922531,2.9271434468524147,-8.41706398348814
11.270314593301435,2.072103891077962,3.1150369171592076,-8.28657369359227
11.278313397129187,2.1951443146636707,3.3029303874660005,-8.156083403696401
11.286312200956937,1.8229832535890194,2.971205143541187,-8.319281698564305
11.294311004784689,3.361531990653167,4.044180928007133,-9.017323022143092
11.30230980861244,3.3459064203850013,3.9238268332035213,-9.054340742183152
11.310308612440192,3.3302808501168353,3.80347273839991,-9.091358462223212
11.318307416267942,3.314655279848673,3.683118643596325,-9.128376182263263
11.326306220095693,3.299029709580507,3.562764548792713,-9.165393902303324
11.334305023923445,3.2834041393123408,3.4424104539891016,-9.202411622343384
11.342303827751197,3.267778569044175,3.32205635918549,-9.239429342383444
11.350302631578947,3.2521529987760127,3.2017022643819053,-9.276447062423495
11.358301435406698,3.2365274285078467,3.081348169578294,-9.313464782463555
11.36630023923445,3.2209018582396807,2.960994074774682,-9.350482502503615
11.374299043062202,3.2052762879715146,2.840639979971071,-9.387500222543673
11.382297846889951,2.7798218326355677,2.7734785187400193,-8.675034651614837
11.390296650717703,2.772239633173845,2.8378022328548553,-8.650788277511966
11.398295454545455,2.764657433712122,2.9021259469696914,-8.626541903409093
11.406294258373206,2.757075234250399,2.9664496610845275,-8.602295529306222
11.414293062200956,2.7494930347886775,3.0307733751993493,-8.578049155203354
11.422291866028708,2.7419108353269546,3.0950970893141854,-8.553802781100481
11.43029066985646,2.7343286358652317,3.159420803429022,-8.52955640699761
11.438289473684211,2.7267464364035088,3.223744517543858,-8.505310032894737
11.446288277511961,2.7191642369417877,3.28806823165868,-8.481063658791872
11.454287081339713,2.7115820374800648,3.352391945773516,-8.456817284688999
11.462285885167464,2.703999838018342,3.416715659888352,-8.432570910586126
11.470284688995216,2.696417638556619,3.481039374003188,-8.408324536483255
11.478283492822966,2.6597922647528094,3.5062582735247334,-8.397850478468895
11.486282296650717,2.550475279106858,3.4336024720893144,-8.421846889952153
11.494281100478469,2.509346650717694,2.589179819870533,-8.873270208274697
11.50227990430622,2.354169856459314,2.606683084717142,-8.873928933295806
11.51027870813397,2.1989930622009677,2.6241863495637476,-8.874587658316916
11.518277511961722,2.0438162679425873,2.6416896144103568,-8.875246383338023
11.526276315789474,1.888639473684207,2.6591928792569663,-8.875905108359133
11.534275119617226,1.7334626794258268,2.6766961441035755,-8.876563833380242
11.542273923444975,1.5782858851674808,2.694199408950181,-8.877222558401352
11.550272727272727,1.4231090909091004,2.71170267379679,-8.877881283422461
11.558271531100479,1.2679322966507203,2.7292059386433993,-8.878540008443569
11.56627033492823,1.11275550239234,2.746709203490009,-8.879198733464678
11.57426913875598,0.9575787081339939,2.764212468336614,-8.879857458485787
11.582267942583732,2.9082515379356053,6.09180041011596,-8.002488038277576
11.590266746411483,0.7456876127539412,0.8714101988391243,-9.846125078437524
11.598265550239235,0.7638488312808857,0.9077981998588142,-9.895101360891053
11.606264354066985,0.7820100498078258,0.9441862008784959,-9.94407764334457
11.614263157894737,0.8001712683347701,0.9805742018981858,-9.9930539257981
11.622261961722488,0.8183324868617146,1.0169622029178758,-10.042030208251628
11.63026076555024,0.8364937053886589,1.0533502039375655,-10.091006490705157
11.63825956937799,0.8546549239155992,1.0897382049572475,-10.139982773158675
11.646258373205741,0.8728161424425435,1.1261262059769375,-10.188959055612202
11.654257177033493,0.8909773609694878,1.1625142069966272,-10.23793533806573
11.662255980861245,0.9091385794964321,1.1989022080163172,-10.286911620519259
11.670254784688995,0.9272997980233724,1.235290209035999,-10.335887902972777
11.678253588516746,0.9454610165503167,1.271678210055689,-10.384864185426306
11.686252392344498,0.963622235077261,1.3080662110753787,-10.433840467879834
11.69425119617225,0.9817834536042054,1.3444542120950687,-10.482816750333363
11.70225,0.9999446721311456,1.3808422131147504,-10.531793032786881
11.710248803827751,1.1010246069719651,1.1133704716336632,-10.459699931647313
11.718247607655503,1.1274192789968445,0.34047442666224714,-10.204443449925751
11.726246411483254,0.7343746081504263,-0.03519353242043466,-10.134109140405865
11.734245215311004,0.34132993730409555,-0.41086149150303297,-10.063774830885997
11.742244019138756,-0.05171473354232248,-0.7865294505857149,-9.99344052136611
11.750242822966507,1.6222378726536513,0.303177824806761,-11.032018292234081
11.758241626794259,2.3258864924549476,1.0180247699669094,-11.071643135811557
11.766240430622009,3.029535112256087,1.732871715126899,-11.111267979389027
11.77423923444976,3.7331837320573835,2.4477186602870473,-11.150892822966505
11.782238038277512,4.43683235185868,3.162565605447196,-11.190517666543983
11.790236842105264,5.140480971659976,3.8774125506073442,-11.23014251012146
11.798235645933014,5.844129591461115,4.592259495767334,-11.26976735369893
11.806234449760765,6.547778211262411,5.307106440927482,-11.309392197276408
11.814233253588517,0.3692171052632311,1.1525442583732555,-8.095005382775293
11.822232057416269,0.7925654168954174,1.5218044552513883,-8.151719428974822
11.830230861244019,0.450977155071017,1.4664684681151514,-8.163520942819044
11.83822966507177,0.10938889324654066,1.411132480978902,-8.175322456663267
11.846228468899522,-0.23219936857793555,1.355796493842653,-8.187123970507491
11.854227272727274,-0.5737876304024119,1.300460506706404,-8.198925484351715
11.862226076555023,-0.9153758922268123,1.245124519570167,-8.210726998195936
11.870224880382775,-1.2569641540512886,1.189788532433918,-8.22252851204016
11.878223684210527,-1.5456662679425368,1.1650179425837635,-8.28607775119623
11.886222488038278,0.003920182688367246,2.202680948238527,-10.14834471509381
11.894221291866028,0.5485467136741329,2.683550679929481,-8.316523671619224
11.90222009569378,0.604454142533365,2.775747418786197,-8.480036061445473
11.910218899521531,0.6603615713925972,2.8679441576429126,-8.643548451271721
11.918217703349283,0.7162690002518294,2.9601408964996283,-8.80706084109797
11.926216507177033,0.7721764291110491,3.052337635356323,-8.970573230924183
11.934215311004785,0.8280838579702813,3.144534374213039,-9.13408562075043
11.942214114832536,0.8839912868295134,3.2367311130697547,-9.297598010576678
11.950212918660288,0.9398987156887456,3.3289278519264704,-9.461110400402927
11.958211722488038,0.9958061445479653,3.4211245907831653,-9.62462279022914
11.96621052631579,1.0517135734071976,3.513321329639881,-9.788135180055388
11.974209330143541,1.1076210022664297,3.605518068496597,-9.951647569881636
11.982208133971293,1.1635284311256617,3.6977148073533126,-10.115159959707885
11.990206937799043,1.3580452551832969,4.022818779904111,-9.9444204545457
11.998205741626794,1.5362056810611082,4.281827932893213,-8.398476591363334
12.006204545454546,1.5053242232451054,4.15850460299193,-8.417005466052936
12.014203349282297,1.4744427654291026,4.035181273090646,-8.435534340742539
12.022202153110047,1.4435613076131064,3.911857943189389,-8.454063215432136
12.030200956937799,1.4126798497971034,3.7885346132881055,-8.472592090121738
12.03819976076555,1.3817983919811005,3.6652112833868213,-8.491120964811339
12.046198564593302,1.3509169341650975,3.5418879534855376,-8.509649839500941
12.054197368421052,1.3200354763491016,3.418564623584281,-8.528178714190538
12.062196172248804,1.2891540185330985,3.2952412936829973,-8.54670758888014
12.070194976076555,1.2582725607170957,3.1719179637817136,-8.565236463569741
12.078193779904307,1.2231660287081285,3.13743301435411,-8.591027751196178
12.086192583732057,1.3666857747515695,3.6318317997791727,-9.018985185866764
12.094191387559809,1.3121005310479013,3.58331158315369,-9.01836989326463
12.10219019138756,1.257515287344233,3.534791366528207,-9.017754600662496
12.110188995215312,1.2029300436405648,3.4862711499027244,-9.017139308060361
12.118187799043062,1.1483447999369087,3.4377509332772522,-9.016524015458227
12.126186602870813,1.0937595562332403,3.389230716651769,-9.015908722856091
12.134185406698565,1.0391743125295723,3.3407105000262862,-9.015293430253957
12.142184210526317,0.984589068825904,3.2921902834008034,-9.014678137651822
12.150183014354067,0.9300038251222478,3.2436700667753313,-9.014062845049688
12.158181818181818,0.8754185814185795,3.1951498501498485,-9.013447552447554
12.16618062200957,0.8208333377149114,3.1466296335243658,-9.012832259845418
12.174179425837321,0.7662480940112432,3.0981094168988825,-9.012216967243283
12.182178229665071,4.346685007975029,2.021117424241846,-13.486015550240197
12.190177033492823,0.36009944950353057,6.12989746360037,-6.585017646756172
12.198175837320575,0.2722846246848808,5.8502833642022996,-6.790836330194986
12.206174641148326,0.184469799866231,5.570669264804228,-6.9966550136337995
12.214173444976076,0.09665497504760073,5.2910551654062195,-7.202473697072568
12.222172248803828,0.008840150228950905,5.011441066008148,-7.408292380511382
12.23017105263158,-0.07897467458969887,4.731826966610077,-7.614111063950196
12.238169856459331,-0.16678949940834864,4.4522128672120065,-7.8199297473890095
12.246168660287081,-0.2546043242269789,4.172598767813997,-8.025748430827777
12.254167464114833,-0.34241914904562865,3.8929846684159264,-8.231567114266591
12.262166267942584,-0.43023397386427853,3.6133705690178552,-8.437385797705405
12.270165071770336,-0.5180487986829283,3.333756469619784,-8.64320448114422
12.278163875598086,-0.6058636235015585,3.054142370221775,-8.849023164582988
12.286162679425837,0.8444928229664446,3.045416267942457,-8.821287081339772
12.294161483253589,0.6418051190735135,2.391071851892121,-9.14098636635494
12.302160287081339,0.7233383808177374,2.2392763701609573,-9.229245894954317
12.31015909090909,0.8048716425619793,2.0874808884297598,-9.317505423553715
12.318157894736842,0.8864049043062212,1.9356854066985625,-9.405764952153111
12.326156698564594,0.9679381660504631,1.7838899249673652,-9.494024480752508
12.334155502392344,1.049471427794687,1.6320944432362015,-9.582284009351886
12.342154306220095,1.131004689538929,1.4802989615050042,-9.670543537951282
12.350153110047847,1.2125379512831709,1.328503479773807,-9.75880306655068
12.358151913875599,1.2940712130274128,1.1767079980426094,-9.847062595150076
12.366150717703349,1.3756044747716367,1.0249125163114459,-9.935322123749453
12.3741495215311,1.4571377365158786,0.8731170345802484,-10.02358165234885
12.382148325358852,0.6678539508524205,0.8327796720397633,-9.333528499094163
12.390147129186603,0.7139053165791849,0.8208979537325206,-9.362029091373627
12.398145933014353,0.7599566823059392,0.8090162354252804,-9.390529683653085
12.406144736842105,0.8060080480327035,0.7971345171180377,-9.41903027593255
12.414143540669857,0.8520594137594679,0.7852527988107949,-9.447530868212015
12.422142344497608,0.8981107794862324,0.7733710805035522,-9.476031460491479
12.430141148325358,0.9441621452129866,0.761489362196312,-9.504532052770937
12.43813995215311,0.990213510939751,0.7496076438890693,-9.533032645050403
12.446138755980861,1.0362648766665155,0.7377259255818266,-9.561533237329867
12.454137559808613,1.0823162423932797,0.7258442072745838,-9.59003382960933
12.462136363636363,1.128367608120034,0.7139624889673437,-9.61853442188879
12.470135167464115,1.1744189738467985,0.7020807706601009,-9.647035014168255
12.478133971291866,1.2204703395735628,0.6901990523528582,-9.675535606447719
12.486132775119618,1.844738516747031,0.9667053827754235,-9.788129904306313
12.494131578947368,5.9737210526316,2.991202631578958,-10.410436842105266
12.50213038277512,0.1850284320942393,-0.7174646209053943,-10.259494939271255
12.510129186602871,0.6130669856459681,-0.32911244019135555,-10.266263157894738
12.518127990430623,1.0411055391976969,0.059239740522683104,-10.273031376518219
12.526126794258372,1.4691440927493307,0.4475919212366356,-10.2797995951417
12.534125598086124,1.8971826463010597,0.8359441019506743,-10.286567813765181
12.542124401913876,2.3252211998527885,1.2242962826647128,-10.293336032388664
12.550123205741627,2.7532597534045173,1.6126484633787515,-10.300104251012145
12.558122009569377,3.181298306956151,2.001000644092704,-10.306872469635627
12.566120813397129,3.60933686050788,2.3893528248067426,-10.313640688259108
12.57411961722488,4.03737541405961,2.7777050055207813,-10.32040890688259
12.582118421052632,0.6359542606516515,-0.22296553884704948,-8.88239160401004
12.590117224880382,0.8001201868307021,0.2779119389382208,-8.99247038049669
12.598116028708134,0.9642861130097891,0.7787894167236025,-9.102549156983363
12.606114832535885,1.096834449760765,1.0456465709728864,-9.18217033492823
12.614113636363637,1.1995390909090968,1.091613030303033,-9.23304272727273
12.622112440191387,1.3022437320574063,1.1375794896331695,-9.28391511961722
12.630111244019139,1.4049483732057384,1.183545948963316,-9.334787511961721
12.63811004784689,1.5076530143540703,1.2295124082934625,-9.385659904306221
12.646108851674642,1.6103576555024026,1.275478867623609,-9.436532296650723
12.654107655502392,1.7130622966507119,1.3214453269537454,-9.487404688995213
12.662106459330143,1.8157669377990437,1.367411786283892,-9.538277081339713
12.670105263157895,1.918471578947376,1.4133782456140385,-9.589149473684213
12.678104066985647,1.9194106858053395,1.39080422647522,-9.588101275917023
12.686102870813396,1.5570311004784694,1.6359916267942585,-9.397179425837322
12.694101674641148,1.587148002795548,1.591707838288261,-9.450406698564596
12.7021004784689,1.574925111553141,1.5271781624643772,-9.482401913875602
12.710099282296651,1.5627022203107341,1.4626484866404934,-9.514397129186609
12.718098086124401,1.5504793290683299,1.398118810816624,-9.546392344497608
12.726096889952153,1.538256437825923,1.3335891349927402,-9.578387559808615
12.734095693779905,1.526033546583516,1.2690594591688567,-9.61038277511962
12.742094497607656,1.513810655341109,1.2045297833449728,-9.642377990430626
12.750093301435406,1.5015877640987048,1.1400001075211033,-9.674373205741626
12.758092105263158,1.4893648728562978,1.0754704316972197,-9.706368421052632
12.76609090909091,1.4771419816138909,1.0109407558733359,-9.738363636363639
12.774089712918661,1.464919090371484,0.9464110800494522,-9.770358851674645
12.782088516746411,1.2828236500341796,0.8849012303485996,-9.835406015037593
12.790087320574163,0.46755023923444816,2.4094928229665133,-9.05718660287082
12.798086124401914,0.48193011128433894,2.3537708187731865,-9.003262082683728
12.806084928229666,0.49630998333422977,2.2980488145798597,-8.949337562496638
12.814083732057416,0.5106898553841174,2.2423268103865452,-8.89541304230956
12.822082535885167,0.5250697274340081,2.1866048061932184,-8.841488522122468
12.830081339712919,0.539449599483899,2.130882801999891,-8.787564001935378
12.83808014354067,0.5538294715337898,2.0751607978065643,-8.733639481748288
12.84607894736842,0.5682093435836775,2.01943879361325,-8.67971496156121
12.854077751196172,0.5825892156335682,1.963716789419923,-8.625790441374118
12.862076555023924,0.596969087683459,1.9079947852265962,-8.571865921187028
12.870075358851675,0.6113489597333499,1.852272781033269,-8.517941400999938
12.878074162679425,1.4751722488037964,0.6819641148325775,-9.906406698564542
12.886072966507177,-1.593546021696081,0.5374074822636621,-8.88634480696255
12.894071770334929,-1.298072966507151,0.8504641148325636,-8.969504784689002
