accel_time_list,vertical_Accel_x,vertical_Accel_y,vertical_Accel_z
0.0,0.896,-3.396,-8.581
0.007999209486166007,0.053601684832514866,-2.6596606938954763,-9.289271601389387
0.015998418972332014,0.0978801373417974,-2.7200991655687305,-9.300664414899988
0.02399762845849802,0.14215858985107996,-2.780537637241985,-9.312057228410588
0.03199683794466403,0.1864370423603625,-2.8409761089152394,-9.323450041921188
0.03999604743083003,0.23071549486964504,-2.9014145805884937,-9.334842855431788
0.04799525691699604,0.2749939473789276,-2.961853052261748,-9.346235668942388
0.05599446640316205,0.31927239988821016,-3.022291523935002,-9.357628482452988
0.06399367588932806,0.3635508523974927,-3.0827299956082563,-9.369021295963588
0.07199288537549406,0.40782930490677516,-3.1431684672815106,-9.380414109474188
0.07999209486166006,0.4521077574160577,-3.203606938954765,-9.391806922984788
0.08799130434782608,0.49638620992534027,-3.264045410628019,-9.403199736495388
0.09599051383399208,0.5406646624346229,-3.3244838823012732,-9.414592550005988
0.10398972332015809,0.5849431149439054,-3.3849223539745275,-9.425985363516588
0.1119889328063241,0.35138423913043476,-3.040175741106719,-9.65981824110672
0.11998814229249011,0.38988043478260864,-3.0486749011857706,-9.59242490118577
0.1279873517786561,0.4283766304347825,-3.057174061264822,-9.525031561264823
0.13598656126482211,0.46687282608695646,-3.0656732213438733,-9.457638221343874
0.14398577075098812,0.5053690217391303,-3.0741723814229247,-9.390244881422925
0.15198498023715412,0.5438652173913042,-3.082671541501976,-9.322851541501976
0.15998418972332012,0.5823614130434781,-3.0911707015810275,-9.255458201581028
0.16798339920948616,0.6208576086956521,-3.099669861660079,-9.188064861660079
0.17598260869565216,0.659353804347826,-3.1081690217391302,-9.12067152173913
0.18398181818181816,0.6978499999999999,-3.1166681818181816,-9.05327818181818
0.19198102766798417,0.4824964426877535,-2.8843936758893376,-8.988715415019763
0.19998023715415017,0.30782563523433076,-2.913521099190664,-9.32135256916996
0.20797944664031617,0.34370780350084684,-2.9570215622059095,-9.340550671936759
0.21597865612648218,0.3795899717673629,-3.000522025221155,-9.359748774703558
0.2239778656126482,0.4154721400338791,-3.044022488236401,-9.378946877470355
0.2319770750988142,0.45135430830039525,-3.0875229512516467,-9.398144980237154
0.23997628458498022,0.48723647656691127,-3.1310234142668922,-9.417343083003953
0.24797549407114622,0.5231186448334274,-3.174523877282138,-9.43654118577075
0.2559747035573122,0.5590008130999435,-3.2180243402973834,-9.455739288537549
0.2639739130434782,0.5948829813664596,-3.2615248033126294,-9.474937391304348
0.27197312252964423,0.6307651496329756,-3.305025266327875,-9.494135494071145
0.27997233201581023,0.6666473178994917,-3.3485257293431205,-9.513333596837944
0.28797154150197624,0.7025294861660079,-3.392026192358366,-9.532531699604743
0.29597075098814224,0.7384116544325239,-3.4355266553736117,-9.551729802371542
0.30396996047430824,0.30271557312253417,-3.4997116205533594,-9.500354466403163
0.31196916996047425,0.40058092885375507,-3.404715480895916,-9.253519268774705
0.31996837944664025,0.37958300395256933,-3.3920500658761528,-9.24851976284585
0.3279675889328063,0.3585850790513834,-3.37938465085639,-9.243520256916996
0.3359667984189723,0.3375871541501977,-3.3667192358366274,-9.238520750988142
0.3439660079051383,0.3165892292490119,-3.354053820816864,-9.233521245059288
0.3519652173913043,0.29559130434782616,-3.3413884057971015,-9.228521739130434
0.3599644268774703,0.2745933794466404,-3.328722990777339,-9.223522233201582
0.3679636363636363,0.2535954545454546,-3.3160575757575756,-9.218522727272727
0.37596284584980233,0.2325975296442689,-3.303392160737813,-9.213523221343873
0.38396205533596833,0.21159960474308315,-3.2907267457180502,-9.20852371541502
0.39196126482213434,0.1906016798418974,-3.278061330698287,-9.203524209486165
0.39996047430830034,0.16960375494071164,-3.2653959156785244,-9.198524703557313
0.40795968379446634,0.4726099604743068,-3.334222608695652,-9.050111304347826
0.41595889328063235,0.6356751254607632,-3.3579160989474617,-9.053083901052537
0.42395810276679835,0.6026896211751124,-3.369869973797575,-9.041130026202424
0.43195731225296435,0.5697041168894615,-3.3818238486476884,-9.029176151352312
0.43995652173913036,0.5367186126038107,-3.3937777234978013,-9.017222276502197
0.4479557312252964,0.5037331083181597,-3.4057315983479146,-9.005268401652085
0.4559549407114624,0.47074760403250887,-3.417685473198028,-8.99331452680197
0.4639541501976284,0.43776209974685804,-3.4296393480481413,-8.981360651951858
0.4719533596837944,0.40477659546120726,-3.4415932228982546,-8.969406777101746
0.47995256916996043,0.3717910911755564,-3.4535470977483675,-8.957452902251632
0.48795177865612643,0.3388055868899056,-3.465500972598481,-8.94549902740152
0.49595098814229244,0.3058200826042548,-3.4774548474485942,-8.933545152551407
0.5039501976284584,0.19187114624503207,-2.859301976284599,-9.115188142292482
0.5119494071146244,-0.00372147001934244,-3.0899493734757377,-9.31077192834917
0.5199486166007905,0.006064796905222419,-3.0912258430745942,-9.266095492389201
0.5279478260869565,0.015851063829787144,-3.0925023126734503,-9.221419056429232
0.5359470355731225,0.025637330754352008,-3.093778782272307,-9.176742620469263
0.5439462450592885,0.03542359767891673,-3.095055251871163,-9.132066184509293
0.5519454545454545,0.04520986460348159,-3.0963317214700194,-9.087389748549324
0.5599446640316205,0.05499613152804632,-3.0976081910688755,-9.042713312589354
0.5679438735177865,0.06478239845261118,-3.098884660667732,-8.998036876629383
0.5759430830039525,0.07456866537717591,-3.100161130266588,-8.953360440669416
0.5839422924901185,0.08435493230174076,-3.1014375998654446,-8.908684004709444
0.5919415019762845,0.0941411992263055,-3.1027140694643007,-8.864007568749475
0.5999407114624505,0.10392746615087035,-3.1039905390631573,-8.819331132789506
0.6079399209486165,-0.28857374835309774,-0.7450696557971034,-9.13998465085639
0.6159391304347825,-0.16225289855072533,-0.5901682971014501,-9.175314492753623
0.6239383399209485,-0.035932048748354706,-0.4352669384057991,-9.210644334650857
0.6319375494071146,0.0903888010540177,-0.28036557971014586,-9.24597417654809
0.6399367588932805,0.21670965085638833,-0.12546422101449484,-9.281304018445322
0.6479359683794466,0.3430305006587607,0.02943713768115841,-9.316633860342556
0.6559351778656126,0.46935135046113313,0.18433849637681154,-9.35196370223979
0.6639343873517786,0.5956722002635038,0.3392398550724627,-9.387293544137023
0.6719335968379446,0.7219930500658762,0.4941412137681158,-9.422623386034257
0.6799328063241106,0.8483138998682469,0.649042572463767,-9.457953227931489
0.6879320158102766,0.9746347496706191,0.8039439311594201,-9.493283069828722
0.6959312252964426,1.1009555994729898,0.9588452898550712,-9.528612911725956
0.7039304347826086,1.2146956521739112,1.338269565217392,-9.715591304347823
0.7119296442687746,1.0412041106719387,1.613330513833989,-9.824534624505928
0.7199288537549406,1.0155170759870318,1.6889311187103078,-9.807298929697561
0.7279280632411066,1.044547914908735,1.6928857840742548,-9.749686645645513
0.7359272727272727,1.0735787538304389,1.6968404494382021,-9.692074361593463
0.7439264822134386,1.1026095927521424,1.7007951148021494,-9.634462077541414
0.7519256916996047,1.131640431673846,1.7047497801660967,-9.576849793489364
0.7599249011857706,1.1606712705955495,1.7087044455300437,-9.519237509437314
0.7679241106719367,1.189702109517253,1.712659110893991,-9.461625225385266
0.7759233201581027,1.2187329484389569,1.7166137762579383,-9.404012941333216
0.7839225296442687,1.2477637873606602,1.7205684416218856,-9.346400657281166
0.7919217391304347,1.276794626282364,1.7245231069858329,-9.288788373229115
0.7999209486166007,1.3058254652040675,1.7284777723497802,-9.231176089177067
0.8079201581027667,1.1462292490118373,2.374663241106619,-9.43778814229247
0.8159193675889327,1.2685501211271175,2.5090776233584076,-9.470137906413362
0.8239185770750987,1.3771845467295663,2.571781104169322,-9.48845867652684
0.8319177865612647,1.4858189723320134,2.634484584980236,-9.506779446640316
0.8399169960474308,1.5944533979344622,2.6971880657911504,-9.525100216753792
0.8479162055335967,1.7030878235369094,2.759891546602064,-9.54342098686727
0.8559154150197628,1.811722249139358,2.8225950274129787,-9.561741756980746
0.8639146245059287,1.9203566747418055,2.885298508223893,-9.580062527094222
0.8719138339920948,2.0289911003442542,2.9480019890348075,-9.5983832972077
0.8799130434782607,2.1376255259467016,3.010705469845721,-9.616704067321177
0.8879122529644268,2.2462599515491504,3.0734089506566358,-9.635024837434655
0.8959114624505928,2.354894377151599,3.1361124314675504,-9.65334560754813
0.9039106719367588,1.3050075098814182,2.6773881422924166,-9.03414189723317
0.9119098814229248,1.309620602257447,4.149503598060389,-9.618564932154353
0.9199090909090908,1.2829015932521093,4.1432361761949394,-9.654437675726335
0.9279083003952568,1.256182584246771,4.136968754329489,-9.690310419298317
0.9359075098814228,1.2294635752414331,4.13070133246404,-9.726183162870297
0.9439067193675889,1.202744566236095,4.12443391059859,-9.76205590644228
0.9519059288537548,1.1760255572307572,4.118166488733141,-9.797928650014262
0.9599051383399209,1.1493065482254188,4.111899066867691,-9.833801393586242
0.9679043478260868,1.122587539220081,4.105631645002242,-9.869674137158224
0.9759035573122529,1.0958685302147428,4.099364223136791,-9.905546880730206
0.9839027667984188,1.0691495212094049,4.093096801271342,-9.941419624302188
0.9919019762845849,1.0424305122040667,4.086829379405892,-9.977292367874169
0.9999011857707508,1.015711503198729,4.080561957540443,-10.01316511144615
1.0079003952569168,0.5125395256917644,3.533862450592959,-10.257943478260842
1.0158996047430828,-0.22878694773825234,1.7674996925779545,-11.173304927536233
1.0238988142292489,-0.20061195432586748,1.6612879666227498,-11.141041449275363
1.031898023715415,-0.1724369609134826,1.555076240667545,-11.108777971014494
1.039897233201581,-0.14426196750109774,1.4488645147123402,-11.076514492753622
1.0478964426877468,-0.11608697408871364,1.3426527887571382,-11.044251014492755
1.055895652173913,-0.08791198067632877,1.2364410628019336,-11.011987536231885
1.063894861660079,-0.059736987263943914,1.1302293368467287,-10.979724057971014
1.071894071146245,-0.03156199385155903,1.0240176108915238,-10.947460579710144
1.0798932806324109,-0.0033870004391749475,0.917805884936322,-10.915197101449275
1.087892490118577,0.024787992973209938,0.8115941589811172,-10.882933623188405
1.095891699604743,0.052962986385594824,0.7053824330259124,-10.850670144927536
1.103890909090909,0.20450909090908542,0.6430727272727259,-10.630900000000008
1.1118901185770749,0.5687035573122439,0.8927658322353882,-10.137300043917445
1.119889328063241,0.7842652310208511,1.5375326427695195,-9.78740793239744
1.127888537549407,0.8465119531143501,1.678484230611963,-9.703921929944121
1.135887747035573,0.9087586752078494,1.8194358184544062,-9.620435927490801
1.1438869565217389,0.9710053973013467,1.9603874062968456,-9.536949925037485
1.151886166007905,1.0332521193948458,2.101338994139289,-9.453463922584165
1.159885375494071,1.0954988414883449,2.2422905819817323,-9.369977920130847
1.167884584980237,1.157745563581844,2.3832421698241757,-9.286491917677527
1.1758837944664031,1.2199922856753433,2.5241937576666187,-9.203005915224207
1.183883003952569,1.2822390077688408,2.6651453455090586,-9.11951991277089
1.191882213438735,1.3444857298623398,2.806096933351502,-9.03603391031757
1.199881422924901,1.4067324519558388,2.947048521193945,-8.952547907864252
1.2078806324110671,1.3831698023715417,2.9200053754940716,-8.779437786561266
1.215879841897233,1.3709765656565651,3.3919229424681587,-8.74077815546772
1.223879051383399,1.3873305050505045,3.4229420992534028,-8.766642266139657
1.231878260869565,1.403684444444444,3.453961256038647,-8.792506376811593
1.2398774703557311,1.4200383838383837,3.484980412823891,-8.81837048748353
1.247876679841897,1.4363923232323226,3.515999569609134,-8.844234598155467
1.255875889328063,1.4527462626262622,3.547018726394378,-8.870098708827404
1.263875098814229,1.4691002020202018,3.578037883179622,-8.89596281949934
1.2718743083003952,1.4854541414141411,3.609057039964866,-8.921826930171278
1.279873517786561,1.5018080808080803,3.6400761967501087,-8.947691040843214
1.287872727272727,1.5181620202020198,3.6710953535353528,-8.973555151515152
1.2958719367588931,1.5345159595959592,3.702114510320597,-8.999419262187088
1.3038711462450592,1.5640237154150176,3.7732284584980276,-9.087644268774705
1.3118703557312252,1.591229224048263,3.4662604701477013,-8.99959104639068
1.319869565217391,1.5998178489702517,3.443694279176202,-8.992349656750571
1.3278687747035571,1.6084064738922403,3.4211280882047017,-8.985108267110464
1.3358679841897232,1.6169950988142292,3.398561897233202,-8.977866877470355
1.3438671936758892,1.625583723736218,3.3759957062617016,-8.970625487830247
1.351866403162055,1.6341723486582067,3.3534295152902023,-8.963384098190138
1.3598656126482211,1.6427609735801953,3.3308633243187025,-8.956142708550031
1.3678648221343872,1.6513495985021842,3.308297133347202,-8.948901318909922
1.3758640316205533,1.659938223424173,3.2857309423757024,-8.941659929269814
1.383863241106719,1.6685268483461617,3.263164751404203,-8.934418539629705
1.3918624505928852,1.6771154732681504,3.240598560432703,-8.927177149989598
1.3998616600790512,1.6857040981901392,3.218032369461203,-8.919935760349489
1.4078608695652173,1.7604291075514875,3.170245217391305,-9.125552768878718
1.4158600790513833,1.7551243686290825,3.1446477470355734,-9.130689103390889
1.4238592885375492,1.749819629706678,3.1190502766798427,-9.135825437903058
1.4318584980237152,1.744514890784273,3.0934528063241116,-9.140961772415228
1.4398577075098813,1.7392101518618681,3.06785533596838,-9.146098106927397
1.4478569169960473,1.7339054129394633,3.0422578656126484,-9.151234441439566
1.4558561264822132,1.7286006740170585,3.0166603952569178,-9.156370775951737
1.4638553359683792,1.7232959350946537,2.9910629249011866,-9.161507110463907
1.4718545454545453,1.717991196172249,2.965465454545455,-9.166643444976076
1.4798537549407114,1.712686457249844,2.939867984189724,-9.171779779488245
1.4878529644268772,1.7073817183274393,2.9142705138339933,-9.176916114000417
1.4958521739130433,1.7020769794050343,2.8886730434782617,-9.182052448512586
1.5038513833992093,1.7146624505928838,2.839933280632414,-9.210438260869562
1.5118505928853754,1.7866553359683783,2.7143456916996067,-9.316027826086955
1.5198498023715412,1.7890034073872154,2.7054221071282547,-9.313707646176912
1.5278490118577073,1.7906584162464223,2.6945726046067877,-9.30662788605697
1.5358482213438733,1.792313425105629,2.683723102085321,-9.299548125937031
1.5438474308300394,1.7939684339648359,2.6728735995638546,-9.292468365817092
1.5518466403162055,1.7956234428240425,2.662024097042388,-9.28538860569715
1.5598458498023713,1.7972784516832492,2.6511745945209215,-9.278308845577211
1.5678450592885373,1.798933460542456,2.640325091999455,-9.271229085457271
1.5758442687747034,1.8005884694016627,2.6294755894779884,-9.264149325337332
1.5838434782608695,1.8022434782608696,2.618626086956522,-9.25706956521739
1.5918426877470353,1.8038984871200763,2.6077765844350558,-9.249989805097451
1.5998418972332014,1.8055534959792832,2.596927081913589,-9.242910044977512
1.6078411067193674,1.9116192885375494,2.9872031620553363,-9.181982292490119
1.6158403162055335,1.9079985937174953,2.9796249635947576,-9.181813888079883
1.6238395256916993,1.9043778988974414,2.9720467651341798,-9.181645483669648
1.6318387351778654,1.9007572040773872,2.964468566673601,-9.181477079259414
1.6398379446640314,1.8971365092573331,2.9568903682130228,-9.181308674849179
1.6478371541501975,1.893515814437279,2.9493121697524445,-9.181140270438943
1.6558363636363633,1.889895119617225,2.941733971291866,-9.180971866028708
1.6638355731225294,1.8862744247971708,2.934155772831288,-9.180803461618472
1.6718347826086954,1.8826537299771167,2.9265775743707096,-9.180635057208239
1.6798339920948615,1.8790330351570625,2.9189993759101314,-9.180466652798003
1.6878332015810276,1.8754123403370087,2.911421177449553,-9.180298248387768
1.6958324110671934,1.8717916455169545,2.903842978988975,-9.180129843977532
1.7038316205533595,1.8909794466403136,2.888109249011859,-9.152892015810279
1.7118308300395255,2.0397985535278784,2.9223060634093017,-9.174766277016232
1.7198300395256916,2.043287570431419,2.901797451854344,-9.173745101337147
1.7278292490118574,2.0467765873349593,2.881288840299387,-9.172723925658062
1.7358284584980235,2.0502656042384997,2.8607802287444293,-9.171702749978976
1.7438276679841895,2.05375462114204,2.8402716171894715,-9.170681574299891
1.7518268774703556,2.0572436380455805,2.8197630056345138,-9.169660398620806
1.7598260869565214,2.060732654949121,2.799254394079557,-9.16863922294172
1.7678252964426875,2.064221671852662,2.778745782524599,-9.167618047262636
1.7758245059288535,2.0677106887562022,2.7582371709696414,-9.16659687158355
1.7838237154150196,2.0711997056597427,2.7377285594146836,-9.165575695904465
1.7918229249011857,2.074688722563283,2.7172199478597263,-9.164554520225382
1.7998221343873515,2.0781777394668235,2.696711336304769,-9.163533344546297
1.8078213438735176,2.1200695652173853,2.7679604743082877,-9.164821343873516
1.8158205533596836,2.187096200054788,2.7369222791844403,-9.230864939537431
1.8238197628458497,2.1836905960161235,2.729794270731421,-9.230706539349587
1.8318189723320155,2.1802849919774587,2.722666262278402,-9.230548139161742
1.8398181818181816,2.176879387938794,2.7155382538253825,-9.230389738973898
1.8478173913043476,2.1734737839001292,2.7084102453723635,-9.230231338786052
1.8558166007905137,2.1700681798614645,2.701282236919344,-9.230072938598207
1.8638158102766795,2.1666625758227998,2.694154228466325,-9.229914538410362
1.8718150197628456,2.163256971784135,2.6870262200133057,-9.229756138222518
1.8798142292490116,2.1598513677454703,2.6798982115602867,-9.229597738034672
1.8878134387351777,2.1564457637068055,2.6727702031072673,-9.229439337846827
1.8958126482213435,2.1530401596681408,2.6656421946542483,-9.229280937658983
1.9038118577075096,2.149634555629476,2.658514186201229,-9.229122537471138
1.9118110671936757,2.2022375494071103,2.6276450592885396,-9.161990513833997
1.9198102766798417,2.3142955340511566,2.683879878242697,-9.220295534051157
1.9278094861660078,2.3081352232974424,2.687006006087865,-9.214135223297442
1.9358086956521736,2.3019749125437285,2.6901321339330333,-9.207974912543728
1.9438079051383397,2.2958146017900143,2.693258261778202,-9.201814601790014
1.9518071146245057,2.2896542910363,2.69638438962337,-9.1956542910363
1.9598063241106718,2.2834939802825858,2.6995105174685383,-9.189493980282586
1.9678055335968376,2.277333669528872,2.702636645313707,-9.183333669528873
1.9758047430830037,2.2711733587751577,2.705762773158875,-9.177173358775159
1.9838039525691697,2.265013048021444,2.7088889010040433,-9.171013048021443
1.9918031620553358,2.2588527372677296,2.712015028849212,-9.16485273726773
1.9998023715415016,2.252692426514016,2.71514115669438,-9.158692426514015
2.007801581027668,2.330551778656129,2.7892221343873507,-9.114059288537547
2.0158007905138335,2.298460733562837,2.8039524501678783,-9.153515491521102
2.0237999999999996,2.30370752688172,2.8015440860215057,-9.147064516129033
2.0317992094861657,2.3089543202006033,2.7991357218751327,-9.140613540736963
2.0397984189723317,2.3142011135194864,2.79672735772876,-9.134162565344894
2.0477976284584978,2.3194479068383695,2.7943189935823876,-9.127711589952824
2.055796837944664,2.3246947001572527,2.791910629436015,-9.121260614560756
2.06379604743083,2.3299414934761358,2.7895022652896424,-9.114809639168685
2.071795256916996,2.335188286795019,2.78709390114327,-9.108358663776617
2.079794466403162,2.340435080113902,2.7846855369968972,-9.101907688384546
2.0877936758893276,2.3456818734327847,2.782277172850525,-9.095456712992478
2.0957928853754937,2.350928666751668,2.7798688087041525,-9.089005737600408
2.1037920948616597,2.30034110671938,2.8030893280632356,-9.151203557312238
2.111791304347826,2.355,2.778,-9.084
2.119790513833992,2.2255448658649453,2.7937467832814726,-9.110106509124547
2.127789723320158,2.092621831637377,2.809915398200319,-9.136912370700529
2.135788932806324,1.959698797409809,2.8260840131191656,-9.16371823227651
2.14378814229249,1.826775763182241,2.8422526280380116,-9.190524093852492
2.1517873517786557,1.6938527289546803,2.858421242956857,-9.217329955428474
2.1597865612648217,1.560929694727112,2.874589857875703,-9.244135817004455
2.1677857707509878,1.4280066604995438,2.8907584727945497,-9.270941678580437
2.175784980237154,1.2950836262719758,2.906927087713396,-9.297747540156418
2.18378418972332,1.1621605920444078,2.923095702632242,-9.324553401732402
2.191783399209486,1.0292375578168396,2.9392643175510886,-9.351359263308384
2.199782608695652,0.8963145235892716,2.955432932469935,-9.378165124884365
2.207781818181818,0.8368545454545474,2.949118181818181,-9.361845454545453
2.215781027667984,0.8412093830555079,3.050048943117374,-9.405623612304518
2.2237802371541497,0.8482521653205015,3.0367459099501635,-9.406666987454889
2.231779446640316,0.8552949475854955,3.0234428767829526,-9.407710362605258
2.239778656126482,0.8623377298504895,3.010139843615742,-9.408753737755628
2.247777865612648,0.8693805121154836,2.996836810448531,-9.409797112905997
2.255777075098814,0.8764232943804776,2.9835337772813197,-9.410840488056367
2.26377628458498,0.8834660766454716,2.970230744114109,-9.411883863206736
2.271775494071146,0.8905088589104657,2.956927710946898,-9.412927238357106
2.279774703557312,0.8975516411754597,2.9436246777796873,-9.413970613507475
2.2877739130434778,0.9045944234404534,2.930321644612477,-9.415013988657845
2.295773122529644,0.9116372057054474,2.917018611445266,-9.416057363808214
2.30377233201581,0.9123362318840607,2.893543741765486,-9.41622766798419
2.311771541501976,0.8349478260869478,2.916438735177848,-9.476629249011856
2.319770750988142,0.8474231374049045,2.926889668069191,-9.472401717030047
2.327769960474308,0.8499175145565047,2.9164820944366525,-9.4666388456798
2.335769169960474,0.8524118917081048,2.906074520804114,-9.46087597432955
2.34376837944664,0.854906268859705,2.8956669471715752,-9.455113102979302
2.3517675889328062,0.8574006460113052,2.8852593735390366,-9.449350231629053
2.359766798418972,0.8598950231629052,2.8748517999064984,-9.443587360278805
2.367766007905138,0.8623894003145054,2.86444422627396,-9.437824488928555
2.375765217391304,0.8648837774661056,2.854036652641421,-9.432061617578308
2.38376442687747,0.8673781546177057,2.8436290790088825,-9.426298746228058
2.391763636363636,0.8698725317693059,2.833221505376344,-9.42053587487781
2.399762845849802,0.8723669089209061,2.8228139317438052,-9.41477300352756
2.407762055335968,0.914007905138334,2.7919952569169997,-9.470821343873508
2.4157612648221343,1.008438667900092,2.74166134050963,-9.424996787486336
2.4237604743083,1.0215437557816827,2.7259182154570696,-9.420826986796738
2.431759683794466,1.034648843663274,2.7101750904045088,-9.416657186107141
2.439758893280632,1.047753931544865,2.694431965351948,-9.412487385417544
2.447758102766798,1.0608590194264562,2.678688840299387,-9.408317584727946
2.455757312252964,1.0739641073080475,2.6629457152468263,-9.404147784038349
2.46375652173913,1.0870691951896387,2.647202590194265,-9.399977983348752
2.4717557312252962,1.10017428307123,2.6314594651417043,-9.395808182659154
2.4797549407114623,1.1132793709528213,2.6157163400891434,-9.391638381969557
2.4877541501976284,1.1263844588344123,2.5999732150365826,-9.38746858127996
2.495753359683794,1.1394895467160029,2.5842300899840227,-9.383298780590362
2.50375256916996,1.1525946345975941,2.568486964931462,-9.379128979900765
2.511751778656126,1.1922265064128423,2.657269936274905,-9.38432609502299
2.519750988142292,1.1783503266919422,2.6551476970234735,-9.382367104944745
2.527750197628458,1.1644741469710418,2.6530254577720416,-9.3804081148665
2.5357494071146243,1.1505979672501416,2.65090321852061,-9.378449124788256
2.5437486166007903,1.1367217875292412,2.648780979269178,-9.37649013471001
2.5517478260869564,1.122845607808341,2.646658740017746,-9.374531144631765
2.559747035573122,1.1089694280874416,2.6445365007663146,-9.372572154553522
2.567746245059288,1.0950932483665412,2.6424142615148827,-9.370613164475277
2.575745454545454,1.081217068645641,2.640292022263451,-9.368654174397031
2.58374466403162,1.0673408889247407,2.638169783012019,-9.366695184318788
2.5917438735177862,1.0534647092038405,2.6360475437605873,-9.364736194240542
2.5997430830039523,1.0395885294829401,2.6339253045091557,-9.362777204162297
2.6077422924901184,1.173973913043409,2.5614822134387683,-9.329081422924917
2.6157415019762844,1.311167351778656,2.314527826086959,-9.370912964426877
2.6237407114624505,1.284465355271626,2.231899898887767,-9.413091644452614
2.631739920948616,1.2191694824892043,2.1653948432760415,-9.436810230719733
2.639739130434782,1.1538736097067788,2.098889787664312,-9.460528816986853
2.647738339920948,1.0885777369243534,2.032384732052582,-9.484247403253974
2.6557375494071143,1.0232818641419281,1.9658796764408528,-9.507965989521095
2.6637367588932803,0.9579859913595028,1.8993746208291231,-9.531684575788214
2.6717359683794464,0.8926901185770774,1.8328695652173936,-9.555403162055335
2.6797351778656124,0.8273942457946519,1.7663645096056642,-9.579121748322455
2.6877343873517785,0.7620983730122266,1.6998594539939345,-9.602840334589576
2.6957335968379446,0.6968025002298013,1.633354398382205,-9.626558920856697
2.70373280632411,0.6315066274473795,1.566849342770479,-9.650277507123816
2.7117320158102762,0.7262091473743647,1.4943509533944324,-9.812300160708856
2.7197312252964423,0.7284946357989835,1.476330756200322,-9.804652564826478
2.7277304347826083,0.7307801242236024,1.4583105590062118,-9.7970049689441
2.7357296442687744,0.7330656126482212,1.4402903618121015,-9.789357373061721
2.7437288537549405,0.7353511010728402,1.422270164617991,-9.781709777179342
2.7517280632411065,0.737636589497459,1.4042499674238806,-9.774062181296964
2.7597272727272726,0.7399220779220779,1.3862297702297703,-9.766414585414585
2.767726482213438,0.7422075663466966,1.3682095730356612,-9.758766989532209
2.7757256916996043,0.7444930547713156,1.3501893758415509,-9.75111939364983
2.7837249011857703,0.7467785431959344,1.3321691786474403,-9.743471797767452
2.7917241106719364,0.7490640316205532,1.31414898145333,-9.735824201885073
2.7997233201581024,0.7513495200451721,1.2961287842592197,-9.728176606002695
2.8077225296442685,0.83129712027103,1.3782295878035016,-9.69784652738566
2.8157217391304346,0.8294322705314009,1.4988533333333334,-9.616763091787439
2.8237209486166006,0.836809319279754,1.5049860606060605,-9.624851181379007
2.8317201581027667,0.8441863680281071,1.511118787878788,-9.632939270970574
2.8397193675889323,0.8515634167764599,1.5172515151515147,-9.641027360562143
2.8477185770750983,0.858940465524813,1.523384242424242,-9.64911545015371
2.8557177865612644,0.8663175142731661,1.5295169696969693,-9.657203539745279
2.8637169960474305,0.8736945630215192,1.5356496969696967,-9.665291629336847
2.8717162055335965,0.8810716117698724,1.5417824242424238,-9.673379718928414
2.8797154150197626,0.8884486605182255,1.5479151515151512,-9.681467808519983
2.8877146245059286,0.8958257092665786,1.5540478787878784,-9.68955589811155
2.8957138339920947,0.9032027580149317,1.5601806060606058,-9.697643987703119
2.9037130434782603,1.004352795031049,1.4241304347826027,-9.857269565217385
2.9117122529644264,1.1713177865612399,1.3714229249012169,-9.942424505928852
2.9197114624505924,1.1175968379446677,1.3414920731442477,-9.926814402988317
2.9277106719367585,1.0456039525691732,1.3305920514268346,-9.910024853407462
2.9357098814229245,0.9736110671936788,1.3196920297094215,-9.893235303826609
2.9437090909090906,0.9016181818181844,1.3087920079920083,-9.876445754245754
2.9517083003952567,0.82962529644269,1.2978919862745955,-9.859656204664901
2.9597075098814227,0.7576324110671957,1.2869919645571823,-9.842866655084046
2.967706719367589,0.6856395256917013,1.2760919428397692,-9.826077105503193
2.9757059288537544,0.6136466403162109,1.2651919211223568,-9.80928755592234
2.9837051383399205,0.5416537549407164,1.2542918994049437,-9.792498006341486
2.9917043478260865,0.4696608695652221,1.2433918776875306,-9.775708456760633
2.9997035573122526,0.3976679841897277,1.2324918559701175,-9.758918907179778
3.0077027667984186,0.45479159180739914,1.0896638160258685,-9.91000546173194
3.0157019762845847,0.5093316564858057,1.1427494789795174,-9.978362342795542
3.0237011857707508,0.527085799672226,1.1586952665574086,-9.98840532150776
3.031700395256917,0.5300123397281404,1.15967077990938,-9.974943237250553
3.0396996047430824,0.5329388797840546,1.1606462932613515,-9.961481152993349
3.0476988142292485,0.535865419839969,1.1616218066133228,-9.948019068736143
3.0556980237154145,0.5387919598958835,1.1625973199652944,-9.934556984478936
3.0636972332015806,0.5417184999517979,1.163572833317266,-9.92109490022173
3.0716964426877467,0.5446450400077122,1.1645483466692372,-9.907632815964524
3.0796956521739127,0.5475715800636266,1.1655238600212088,-9.894170731707318
3.087694861660079,0.550498120119541,1.1664993733731803,-9.880708647450112
3.095694071146245,0.5534246601754554,1.1674748867251517,-9.867246563192905
3.103693280632411,-0.061905928853528414,0.6234391304347777,-9.477802371541516
3.1116924901185765,-1.013199083003953,1.0422072727272744,-9.389938498023715
3.1196916996047426,-1.0067197233201586,1.0238090909090924,-9.391538339920949
3.1276909090909086,-1.0002403636363641,1.0054109090909105,-9.39313818181818
3.1356901185770747,-0.9937610039525695,0.9870127272727284,-9.394738023715414
3.1436893280632408,-0.987281644268775,0.9686145454545464,-9.396337865612647
3.151688537549407,-0.9808022845849805,0.9502163636363644,-9.39793770750988
3.159687747035573,-0.974322924901186,0.9318181818181824,-9.399537549407114
3.167686956521739,-0.9678435652173915,0.9134200000000003,-9.401137391304347
3.1756861660079045,-0.9613642055335972,0.8950218181818195,-9.40273723320158
3.1836853754940706,-0.9548848458498028,0.8766236363636375,-9.404337075098814
3.1916845849802367,-0.9484054861660083,0.8582254545454554,-9.405936916996048
3.1996837944664027,-0.9419261264822137,0.8398272727272734,-9.407536758893281
3.207683003952569,-0.8741881422925121,0.8125841897233238,-9.382021343873529
3.215682213438735,-0.38802798418972284,0.5262418972331915,-9.597167272727264
3.223681422924901,-0.40911591980570455,0.6169632744416412,-9.70321036239821
3.231680632411067,-0.4349446926044093,0.5622216962712518,-9.701861098147532
3.239679841897233,-0.46077346540311415,0.5074801181008626,-9.700511833896853
3.2476790513833986,-0.4866022382018175,0.4527385399304763,-9.699162569646173
3.2556782608695647,-0.5124310110005224,0.39799696176008703,-9.697813305395496
3.2636774703557307,-0.5382597837992271,0.34325538358969776,-9.696464041144816
3.271676679841897,-0.5640885565979319,0.28851380541930843,-9.695114776894139
3.279675889328063,-0.5899173293966368,0.2337722272489191,-9.69376551264346
3.287675098814229,-0.6157461021953415,0.17903064907852984,-9.69241624839278
3.295674308300395,-0.6415748749940464,0.12428907090814056,-9.691066984142102
3.303673517786561,-0.5712116600790661,-0.09011719367586173,-9.89333241106716
3.3116727272727267,-0.2601345454545396,-1.693690303030299,-8.712175757575753
3.3196719367588927,-0.32039525691699067,-1.7346640316205497,-8.748616600790509
3.3276711462450588,-0.38065596837944177,-1.7756377602108002,-8.785057444005266
3.335670355731225,-0.44091667984189287,-1.816611488801051,-8.821498287220024
3.343669565217391,-0.5011773913043439,-1.8575852173913017,-8.85793913043478
3.351668774703557,-0.561438102766795,-1.8985589459815524,-8.894379973649537
3.359667984189723,-0.6216988142292461,-1.9395326745718031,-8.930820816864292
3.367667193675889,-0.6819595256916972,-1.9805064031620536,-8.96726166007905
3.375666403162055,-0.7422202371541482,-2.0214801317523046,-9.003702503293805
3.3836656126482207,-0.8024809486165959,-2.062453860342553,-9.040143346508561
3.391664822134387,-0.8627416600790471,-2.1034275889328033,-9.076584189723317
3.399664031620553,-1.0764822134386054,-2.017490118577176,-9.202743083003876
3.407663241106719,-1.5688727272727325,-2.096655968379405,-8.892451699604795
3.415662450592885,-1.5750234200581976,-2.4578428788602733,-8.352558537115064
3.423661660079051,-1.697384954176254,-2.3876080615037165,-8.23802040568128
3.431660869565217,-1.8197464882943104,-2.3173732441471597,-8.123482274247495
3.439660079051383,-1.9421080224123668,-2.247138426790603,-8.00894414281371
3.4476592885375488,-2.0644695565304163,-2.17690360943405,-7.8944060113799335
3.455658498023715,-2.186831090648473,-2.1066687920774934,-7.779867879946149
3.463657707509881,-2.309192624766529,-2.0364339747209366,-7.665329748512365
3.471656916996047,-2.4315541588845857,-1.9661991573643796,-7.550791617078581
3.479656126482213,-2.553915693002642,-1.8959643400078228,-7.436253485644797
3.487655335968379,-2.676277227120698,-1.825729522651266,-7.321715354211014
3.495654545454545,-2.7986387612387547,-1.755494705294709,-7.207177222777229
3.503653754940711,-2.3115067193678818,-2.6984363636358717,-6.921563636363724
3.5116529644268772,-1.935476884131989,0.07764341608562332,-2.3260249233912145
3.519652173913043,-1.941319003419638,0.09777625793844465,-2.3508314606741547
3.527651383399209,-1.9471611227072874,0.1179090997912671,-2.3756379979570967
3.535650592885375,-1.9530032419949368,0.13804194164408953,-2.4004445352400388
3.543649802371541,-1.958845361282586,0.158174783496912,-2.4252510725229808
3.551649011857707,-1.9646874805702355,0.17830762534973443,-2.450057609805923
3.559648221343873,-1.970529599857885,0.19844046720255687,-2.474864147088865
3.567647430830039,-1.9763717191455341,0.2185733090553793,-2.499670684371807
3.5756466403162053,-1.9822138384331836,0.2387061509082018,-2.524477221654749
3.5836458498023713,-1.988055957720833,0.25883899276102423,-2.5492837589376904
3.591645059288537,-1.993898077008482,0.27897183461384556,-2.574090296220631
3.599644268774703,-1.9997401962961314,0.299104676466668,-2.598896833503573
3.607643478260869,1.6335756521743825,0.8323478260873074,3.1316991304345567
3.615642687747035,-0.6988941062802088,-1.1250786122090455,4.108414352217847
3.623641897233201,-0.34008512077296127,-1.1606306543697835,3.730496144049203
3.6316411067193672,0.018723864734286222,-1.1961826965305213,3.352577935880559
3.6396403162055333,0.3775328502415336,-1.2317347386912592,2.9746597277119147
3.6476395256916994,0.7363418357487812,-1.2672867808519972,2.5967415195432704
3.655638735177865,1.0951508212560088,-1.302838823012733,2.2188233113746474
3.663637944664031,1.453959806763256,-1.338390865173471,1.8409051032060035
3.671637154150197,1.8127687922705036,-1.373942907334209,1.4629868950373592
3.679636363636363,2.171577777777751,-1.409494949494947,1.0850686868687154
3.687635573122529,2.530386763284999,-1.4450469916556847,0.7071504787000711
3.6956347826086953,2.889195748792246,-1.4805990338164228,0.3292322705314268
3.7036339920948613,-2.3426972332026383,8.432332015811294,-10.876942292489748
3.7116332015810274,-3.262654894944813,-4.3703707093820965,-19.353353592677333
3.7196324110671934,-6.597651633035111,-7.4269107551487,-19.87018672768878
3.727631620553359,-9.932648371125225,-10.483450800915135,-20.387019862700193
3.735630830039525,-13.267645109215525,-13.539990846681738,-20.90385299771164
3.743630039525691,-16.602641847305826,-16.596530892448342,-21.420686132723084
3.7516292490118572,-19.937638585396122,-19.653070938214945,-21.937519267734526
3.7596284584980233,-23.272635323486423,-22.70961098398155,-22.45435240274597
3.7676276679841894,-26.607632061576723,-25.766151029748155,-22.971185537757414
3.7756268774703554,-29.94262879966702,-28.822691075514758,-23.48801867276886
3.7836260869565215,-33.277625537757324,-31.87923112128136,-24.0048518077803
3.791625296442687,-36.612622275847436,-34.9357711670478,-24.52168494279172
3.799624505928853,-39.94761901393774,-37.9923112128144,-25.03851807780316
3.807623715415019,-14.208811439202904,-19.117754010697197,-17.550363171356274
3.8156229249011853,23.810960706810107,9.020641711228272,-6.6808491048599805
3.8236221343873513,5.226844268774724,1.5546001824263476,-10.618264882943087
3.8316213438735174,4.905542687747054,0.34446336272430034,-11.507202675585235
3.8396205533596834,4.584241106719383,-0.8656734569777471,-12.396140468227383
3.8476197628458495,4.262939525691712,-2.0758102766797943,-13.28507826086953
3.8556189723320156,3.9416379446640413,-3.2859470963818413,-14.174016053511679
3.863618181818181,3.6203363636363886,-4.496083916083822,-15.062953846153778
3.8716173913043472,3.299034782608718,-5.706220735785869,-15.951891638795926
3.8796166007905133,2.9777332015810476,-6.916357555487916,-16.840829431438074
3.8876158102766794,2.6564316205533767,-8.126494375189962,-17.72976722408022
3.8956150197628454,2.335130039525706,-9.336631194892009,-18.61870501672237
3.9036142292490115,-2.3701905138343715,2.019486166009133,-2.4792857707506823
3.9116134387351775,1.268405904150204,-4.844003804347847,-3.874773542490124
3.9196126482213436,1.1578334980237206,-4.4792065217391475,-3.774700098814234
3.927611857707509,1.0472610918972434,-4.1144092391304685,-3.674626655138349
3.9356110671936753,0.9366886857707601,-3.7496119565217687,-3.574553211462459
3.9436102766798413,0.8261162796442768,-3.3848146739130693,-3.4744797677865686
3.9516094861660074,0.7155438735177935,-3.02001739130437,-3.3744063241106783
3.9596086956521734,0.6049714673913101,-2.6552201086956706,-3.274332880434788
3.9676079051383395,0.4943990612648268,-2.2904228260869717,-3.1742594367588977
3.9756071146245056,0.38382665513834346,-1.9256255434782723,-3.0741859930830073
3.9836063241106716,0.27325424901186013,-1.560828260869573,-2.974112549407117
3.9916055335968377,0.16268184288537668,-1.1960309782608736,-2.8740391057312267
3.9996047430830033,0.05210943675889945,-0.8312336956521946,-2.7739656620553417
4.00760395256917,0.49250988142284235,0.5018853754941495,0.011209486166016622
4.015603162055336,1.0163031005709258,0.5615452086078183,-1.534782028985507
4.023602371541502,0.9510651032059715,0.6365600175669757,-1.5230498550724634
4.031601581027667,0.8858271058410243,0.7115748265261247,-1.5113176811594211
4.039600790513833,0.8205891084760699,0.7865896354852822,-1.4995855072463777
4.047599999999999,0.7553511111111155,0.8616044444444395,-1.4878533333333341
4.055599209486165,0.6901131137461611,0.9366192534035969,-1.4761211594202905
4.063598418972331,0.6248751163812067,1.0116340623627542,-1.464388985507247
4.071597628458497,0.5596371190162523,1.0866488713219118,-1.4526568115942033
4.079596837944663,0.49439912165129796,1.1616636802810691,-1.4409246376811597
4.0875960474308295,0.42916112428634356,1.2366784892402265,-1.4291924637681164
4.0955952569169956,0.3639231269213892,1.3116932981993839,-1.4174602898550728
4.103594466403162,3.5726205533595112,-3.672516205532337,0.5505857707515521
4.111593675889328,4.5661223278109615,-9.58800048776386,-5.62619475233369
4.119592885375494,4.244537086872435,-9.463587250862002,-5.848130266588169
4.12759209486166,3.922951845933909,-9.339174013960141,-6.070065780842648
4.135591304347826,3.601366604995383,-9.214760777058283,-6.292001295097127
4.143590513833992,3.2797813640568574,-9.090347540156424,-6.5139368093516055
4.151589723320158,2.958196123118331,-8.965934303254565,-6.735872323606085
4.159588932806324,2.6366108821798053,-8.841521066352705,-6.957807837860564
4.167588142292489,2.315025641241315,-8.71710782945086,-7.179743352115018
4.175587351778655,1.9934404003027888,-8.592694592549002,-7.401678866369497
4.183586561264821,1.671855159364263,-8.468281355647143,-7.623614380623976
4.191585770750987,1.3502699184257367,-8.343868118745283,-7.845549894878454
4.199584980237153,1.028684677487211,-8.219454881843424,-8.067485409132933
4.2075841897233195,-1.3280672655404966,-9.778100970175878,-31.394178153069372
4.2155833992094855,16.445430572663014,-2.537029828109354,2.9703726077764423
4.223582608695652,15.780752072800887,-1.3348230535896213,3.032878058645089
4.231581818181818,15.116073572938758,-0.13261627906988815,3.095383509513736
4.239581027667984,14.451395073076629,1.0695904954498445,3.1578889603823828
4.24758023715415,13.7867165732145,2.271797269969577,3.2203944112510294
4.255579446640316,13.122038073352371,3.4740040444893103,3.2828998621196765
4.263578656126482,12.457359573490242,4.676210819009043,3.345405312988323
4.271577865612648,11.792681073628113,5.878417593528775,3.40791076385697
4.279577075098814,11.128002573765984,7.080624368048509,3.470416214725617
4.28757628458498,10.463324073903856,8.282831142568241,3.5329216655942637
4.295575494071146,9.798645574041728,9.485037917087974,3.5954271164629104
4.303574703557311,8.410427272725386,4.360092885373513,-3.0447719367600894
4.311573913043477,9.340499537465377,6.372571692876992,-0.6242338575393003
4.319573122529643,8.795872508620029,6.158124800269136,-0.7508596417458434
4.3275723320158095,8.251245479774681,5.9436779076612805,-0.8774854259523865
4.3355715415019755,7.706618450929335,5.729231015053426,-1.0041112101589298
4.343570750988142,7.161991422083988,5.514784122445571,-1.1307369943654728
4.351569960474308,6.617364393238641,5.300337229837715,-1.257362778572016
4.359569169960474,6.072737364393294,5.085890337229859,-1.3839885627785593
4.36756837944664,5.528110335547947,4.871443444622004,-1.5106143469851023
4.375567588932806,4.9834833067026,4.6569965520141485,-1.6372401311916456
4.383566798418972,4.438856277857253,4.442549659406293,-1.7638659153981888
4.391566007905138,3.8942292490119064,4.228102766798438,-1.8904916996047318
4.399565217391304,3.3496022201665587,4.013655874190583,-2.0171174838112753
4.40756442687747,-1.6511944664033644,-1.915679841897262,-7.676339130434584
4.415563636363636,1.9239560776302413,-2.6093873340142997,-8.743359141981614
4.423562845849802,2.2376329439978755,-2.562740258471376,-8.740483021716924
4.431562055335968,2.551309810365509,-2.516093182928453,-8.737606901452235
4.439561264822133,2.8649866767331083,-2.469446107385535,-8.734730781187547
4.4475604743082995,3.1786635431007424,-2.4227990318426116,-8.731854660922858
4.4555596837944655,3.492340409468376,-2.3761519562996885,-8.728978540658169
4.463558893280632,3.80601727583601,-2.3295048807567653,-8.72610242039348
4.471558102766798,4.1196941422036435,-2.282857805213842,-8.723226300128792
4.479557312252964,4.433371008571278,-2.236210729670919,-8.720350179864102
4.48755652173913,4.747047874938911,-2.189563654127996,-8.717474059599413
4.495555731225296,5.0607247413065455,-2.1429165785850723,-8.714597939334725
4.503554940711462,9.207646245059106,-0.7332393280633047,-8.093551581027697
4.511554150197628,14.011368634451102,6.368824072421272,-10.318550758638281
4.519553359683794,14.034850184878234,6.166521484125975,-10.080638786178762
4.52755256916996,14.058331735305368,5.964218895830679,-9.842726813719242
4.535551778656126,14.0818132857325,5.761916307535382,-9.604814841259723
4.543550988142292,14.105294836159633,5.559613719240086,-9.366902868800203
4.551550197628458,14.128776386586766,5.357311130944789,-9.128990896340683
4.559549407114624,14.152257937013898,5.155008542649492,-8.891078923881164
4.56754861660079,14.175739487441032,4.952705954354196,-8.653166951421644
4.5755478260869555,14.199221037868162,4.750403366058922,-8.415254978962151
4.583547035573122,14.222702588295293,4.548100777763626,-8.177343006502632
4.591546245059288,14.246184138722427,4.345798189468329,-7.939431034043111
4.599545454545454,14.26966568914956,4.143495601173033,-7.701519061583592
4.60754466403162,6.962364979387149,0.6365835607123085,-7.132068851204904
4.615543873517786,6.839968472948286,0.6862130647286291,-7.028853244931794
4.623543083003952,6.717571966509422,0.7358425687449497,-6.925637638658683
4.631542292490118,6.595175460070559,0.7854720727612703,-6.822422032385573
4.639541501976284,6.472778953631695,0.8351015767775909,-6.719206426112462
4.64754071146245,6.350382447192832,0.8847310807939115,-6.615990819839352
4.655539920948616,6.2279859407539675,0.9343605848102321,-6.512775213566242
4.663539130434782,6.105589434315105,0.9839900888265527,-6.409559607293131
4.671538339920948,5.983192927876241,1.0336195928428733,-6.306344001020021
4.679537549407114,5.860796421437378,1.083249096859194,-6.20312839474691
4.68753675889328,5.738399914998514,1.1328786008755145,-6.0999127884738
4.695535968379446,5.61600340855965,1.182508104891835,-5.996697182200689
4.7035351778656125,4.2484463015246705,0.8612701298701582,-5.199160474308362
4.711534387351778,3.148503868726792,-0.4641145286860696,-4.901282644628095
4.719533596837944,3.159977482333212,-0.46960893520182,-4.9458842975206565
4.72753280632411,3.171451095939632,-0.47510334171757046,-4.990485950413219
4.735532015810276,3.182924709546052,-0.48059774823332085,-5.035087603305781
4.743531225296442,3.194398323152472,-0.48609215474907125,-5.0796892561983435
4.751530434782608,3.205871936758892,-0.4915865612648217,-5.124290909090905
4.759529644268774,3.2173455503653123,-0.4970809677805721,-5.168892561983467
4.76752885375494,3.2288191639717323,-0.5025753742963225,-5.21349421487603
4.775528063241106,3.2402927775781523,-0.5080697808120729,-5.258095867768592
4.783527272727272,3.2517663911845722,-0.5135641873278234,-5.3026975206611535
4.791526482213438,3.263240004790992,-0.5190585938435738,-5.347299173553716
4.799525691699604,3.274713618397412,-0.5245530003593242,-5.391900826446278
4.80752490118577,3.7315584980236354,-0.5328122529644262,-6.265170750987993
4.815524110671936,6.675293528816986,1.5442830039525697,-9.073721178417134
4.8235233201581025,6.809326794742163,1.4722901185770754,-9.095021399025645
4.8315225296442685,6.943360060667341,1.4002972332015813,-9.116321619634158
4.839521739130435,7.077393326592517,1.328304347826087,-9.13762184024267
4.8475209486166,7.21142659251768,1.2563114624506007,-9.158922060851179
4.855520158102766,7.345459858442857,1.1843185770751063,-9.18022228145969
4.863519367588932,7.479493124368035,1.112325691699612,-9.201522502068203
4.871518577075098,7.613526390293212,1.040332806324118,-9.222822722676714
4.879517786561264,7.747559656218389,0.9683399209486235,-9.244122943285227
4.88751699604743,7.881592922143566,0.8963470355731292,-9.265423163893738
4.895516205533596,8.015626188068744,0.824354150197635,-9.286723384502249
4.903515415019762,7.998408959156904,1.4515997364952513,-8.787408959156904
4.911514624505928,7.382240936716394,1.4841376429087512,-8.429768710952443
4.919513833992094,7.340524629181012,1.4770845764800886,-8.40912558969782
4.92751304347826,7.298808321645629,1.470031510051426,-8.388482468443199
4.935512252964426,7.257092014110247,1.4629784436227635,-8.367839347188577
4.9435114624505925,7.215375706574865,1.455925377194101,-8.347196225933954
4.9515106719367585,7.173659399039483,1.4488723107654384,-8.326553104679332
4.959509881422925,7.131943091504101,1.4418192443367759,-8.30590998342471
4.967509090909091,7.090226783968719,1.4347661779081133,-8.285266862170088
4.975508300395257,7.048510476433337,1.4277131114794508,-8.264623740915466
4.983507509881422,7.00679416889796,1.4206600450507891,-8.243980619660846
4.991506719367588,6.965077861362578,1.4136069786221266,-8.223337498406224
4.999505928853754,6.774221343873751,1.305814229249167,-8.102814229249168
5.00750513833992,5.3901893845286475,0.6733793337098157,-6.753884810841481
5.015504347826086,5.081063605276015,0.12609496824621572,-6.465670737664876
5.023503557312252,5.06371700492961,0.10443418750277739,-6.459379224585869
5.031502766798418,5.046370404583206,0.08277340675933906,-6.4530877115068614
5.039501976284584,5.0290238042368,0.06111262601590074,-6.446796198427855
5.04750118577075,5.011677203890395,0.03945184527246241,-6.440504685348848
5.055500395256916,4.9943306035439905,0.017791064529024084,-6.434213172269841
5.0634996047430825,4.976984003197585,-0.0038697162144142316,-6.427921659190834
5.0714988142292485,4.959637402851181,-0.02553049695785256,-6.421630146111827
5.079498023715415,4.942290802504775,-0.04719127770129089,-6.41533863303282
5.087497233201581,4.924944202158371,-0.06885205844472922,-6.409047119953813
5.095496442687747,4.907597601811966,-0.09051283918816755,-6.402755606874806
5.103495652173913,5.772185507246258,-0.35711304347826994,-6.995791304347769
5.111494861660079,6.6784285349993615,-0.0020604870585237516,-7.30830289430065
5.119494071146244,6.722725232691567,0.01677636108631682,-7.3305802626545935
5.12749328063241,6.767021930383777,0.03561320923115947,-7.35285763100854
5.135492490118576,6.811318628075987,0.05445005737600214,-7.375134999362486
5.143491699604742,6.855615325768197,0.0732869055208448,-7.3974123677164325
5.151490909090908,6.8999120234604066,0.09212375366568745,-7.419689736070379
5.159490118577074,6.9442087211526164,0.11096060181053012,-7.441967104424325
5.16748932806324,6.988505418844826,0.1297974499553728,-7.4642444727782715
5.175488537549406,7.032802116537036,0.14863429810021545,-7.486521841132218
5.1834877470355725,7.077098814229246,0.1674711462450581,-7.508799209486164
5.1914869565217385,7.121395511921456,0.18630799438990076,-7.5310765778401105
5.199486166007905,7.288187747035485,0.28130039525686257,-7.566341897233191
5.207485375494071,7.78732490118576,0.9370640316205121,-7.864856126482188
5.215484584980237,7.690716837944671,1.0253859288537515,-7.912942450592883
5.223483794466403,7.582619221967964,1.0810509257333056,-7.941019097149989
5.231483003952569,7.543254691075516,1.081892947784481,-7.94133485541918
5.239482213438735,7.503890160183068,1.0827349698356563,-7.941650613688371
5.247481422924901,7.46452562929062,1.0835769918868317,-7.9419663719575615
5.255480632411067,7.425161098398171,1.084419013938007,-7.942282130226753
5.263479841897232,7.385796567505727,1.0852610359891823,-7.942597888495944
5.271479051383398,7.346432036613278,1.0861030580403577,-7.942913646765134
5.279478260869564,7.30706750572083,1.086945080091533,-7.943229405034325
5.28747747035573,7.2677029748283815,1.0877871021427084,-7.943545163303516
5.295476679841896,7.228338443935933,1.0886291241938837,-7.943860921572706
5.3034758893280625,6.571803162055477,0.55048932806334,-7.5775683794467925
5.3114750988142285,6.470597944664035,0.4132888537549504,-7.381893438735191
5.319474308300395,6.438604743083007,0.325822134387352,-7.261725296442689
5.327473517786561,6.398208735177868,0.32282243083003975,-7.240227420948618
5.335472727272727,6.35781272727273,0.3198227272727275,-7.218729545454547
5.343471936758893,6.317416719367591,0.3168230237154152,-7.197231669960476
5.351471146245059,6.277020711462453,0.31382332015810294,-7.175733794466404
5.359470355731225,6.236624703557315,0.31082361660079066,-7.154235918972333
5.367469565217391,6.1962286956521755,0.3078239130434784,-7.132738043478262
5.375468774703557,6.155832687747037,0.3048242094861661,-7.111240167984191
5.383467984189723,6.115436679841898,0.30182450592885385,-7.0897422924901194
5.391467193675889,6.07504067193676,0.2988248023715416,-7.068244416996048
5.399466403162054,5.936023715415241,0.23396837944677618,-7.040304347826104
5.40746561264822,5.741836047430817,0.047730118577083175,-7.1976456916995675
5.415464822134386,5.655762897405066,0.16349102938647647,-7.336145488915613
5.4234640316205525,5.518124325485492,0.32495333390615344,-7.42170225124591
5.4314632411067185,5.380485753565918,0.48641563842583047,-7.507259013576207
5.439462450592885,5.2428471816463444,0.6478779429455076,-7.592815775906505
5.447461660079051,5.105208609726771,0.8093402474651845,-7.678372538236802
5.455460869565217,4.967570037807197,0.9708025519848615,-7.763929300567099
5.463460079051383,4.829931465887623,1.1322648565045386,-7.849486062897396
5.471459288537549,4.692292893968049,1.2937271610242156,-7.935042825227694
5.479458498023715,4.554654322048475,1.4551894655438926,-8.02059958755799
5.487457707509881,4.417015750128901,1.6166517700635694,-8.106156349888288
5.495456916996047,4.2793771782093275,1.7781140745832464,-8.191713112218586
5.503456126482213,4.299087069452258,1.9573680406549805,-8.307490909090895
5.511455335968379,4.940464031620548,2.561798418972319,-8.7632308300395
5.519454545454545,4.959900634249471,2.5956384778012693,-8.867405919661733
5.527453754940711,4.961016803014982,2.5753614118944763,-8.877823494806508
5.535452964426876,4.962132971780494,2.5550843459876855,-8.888241069951281
5.5434521739130425,4.963249140546005,2.5348072800808925,-8.898658645096056
5.5514513833992085,4.964365309311518,2.5145302141740995,-8.909076220240829
5.559450592885375,4.965481478077029,2.4942531482673065,-8.919493795385604
5.567449802371541,4.966597646842541,2.4739760823605135,-8.929911370530379
5.575449011857707,4.967713815608052,2.4536990164537205,-8.940328945675153
5.583448221343873,4.9688299843735635,2.433421950546928,-8.950746520819926
5.591447430830039,4.969946153139075,2.413144884640135,-8.961164095964701
5.599446640316205,4.971,2.394,-8.971
5.607445849802371,5.067687747035569,2.3396706945228707,-8.607269904009051
5.615445059288537,4.872807803136556,2.2644072931276313,-8.470875685324494
5.623444268774703,4.859303761315824,2.247376718092568,-8.454533214331251
5.631443478260869,4.845799719495092,2.230346143057505,-8.438190743338009
5.639442687747035,4.83229567767436,2.2133155680224417,-8.421848272344768
5.647441897233201,4.8187916358536285,2.1962849929873784,-8.405505801351525
5.655441106719367,4.8052875940328965,2.1792544179523152,-8.389163330358283
5.663440316205533,4.791783552212165,2.162223842917252,-8.37282085936504
5.6714395256916985,4.7782795103914335,2.1451932678821906,-8.3564783883718
5.679438735177865,4.7647754685707016,2.1281626928471273,-8.340135917378557
5.687437944664031,4.75127142674997,2.111132117812064,-8.323793446385315
5.695437154150197,4.737767384929238,2.094101542777001,-8.307450975392072
5.703436363636363,4.716054545454568,2.080618181818175,-8.239418181818317
5.711435573122529,4.653660869565223,2.059660869565222,-8.03583043478261
5.719434782608695,4.570173913043572,1.9940000000000586,-8.042782608695603
5.727433992094861,4.503953649872417,1.9548117976684847,-8.083469104918196
5.735433201581027,4.499599649772352,1.9546092860359234,-8.092582128383448
5.743432411067193,4.495245649672287,1.9544067744033622,-8.1016951518487
5.751431620553359,4.490891649572222,1.9542042627708012,-8.110808175313952
5.759430830039525,4.486537649472157,1.95400175113824,-8.119921198779204
5.767430039525691,4.482183649372092,1.9537992395056787,-8.129034222244458
5.775429249011857,4.477829649272027,1.9535967278731177,-8.13814724570971
5.783428458498023,4.473475649171962,1.9533942162405564,-8.147260269174962
5.791427667984189,4.469121649071897,1.9531917046079952,-8.156373292640215
5.7994268774703555,4.49210671936755,1.9512924901185795,-8.177806324110653
5.807426086956521,4.863731677018593,2.3792198757763323,-8.466437267080709
5.815425296442687,4.920858743961354,2.264857215634607,-8.730425296442686
5.823424505928853,4.916948019323672,2.2646794554238032,-8.738424505928853
5.831423715415019,4.913037294685991,2.2645016952129997,-8.74642371541502
5.839422924901185,4.9091265700483095,2.2643239350021958,-8.754422924901185
5.847422134387351,4.905215845410629,2.2641461747913922,-8.76242213438735
5.855421343873517,4.901305120772947,2.2639684145805887,-8.770421343873517
5.863420553359683,4.897394396135266,2.2637906543697848,-8.778420553359684
5.871419762845849,4.893483671497585,2.2636128941589813,-8.78641976284585
5.879418972332015,4.889572946859904,2.2634351339481773,-8.794418972332014
5.887418181818181,4.885662222222223,2.263257373737374,-8.802418181818181
5.895417391304347,4.881751497584541,2.26307961352657,-8.810417391304348
5.903416600790513,4.903775494071133,2.2790015810276776,-8.736056916996056
5.911415810276679,4.830383610013176,2.273631040843215,-8.56883943785683
5.9194150197628455,4.801853096179184,2.2690981554677205,-8.555063021519544
5.9274142292490115,4.773322582345192,2.2645652700922265,-8.541286605182258
5.935413438735178,4.7447920685112,2.2600323847167325,-8.527510188844971
5.943412648221343,4.71626155467721,2.255499499341239,-8.513733772507686
5.951411857707509,4.687731040843218,2.250966613965745,-8.4999573561704
5.959411067193675,4.659200527009226,2.246433728590251,-8.486180939833115
5.967410276679841,4.630670013175233,2.241900843214757,-8.472404523495829
5.975409486166007,4.602139499341241,2.2373679578392625,-8.458628107158543
5.983408695652173,4.573608985507248,2.2328350724637684,-8.444851690821256
5.991407905138339,4.545078471673256,2.2283021870882744,-8.43107527448397
5.999407114624505,4.504361660079071,2.2103616600790708,-8.411079051383409
6.007406324110671,4.500740966466912,1.8021624123422146,-8.398729771771007
6.015405533596837,4.504955603723065,1.8144622720897603,-8.39150467933189
6.023404743083003,4.509170240979217,1.826762131837306,-8.384279586892772
6.031403952569169,4.513384878235369,1.8390619915848516,-8.377054494453654
6.0394031620553355,4.517599515491521,1.8513618513323973,-8.369829402014537
6.0474023715415015,4.521814152747673,1.863661711079943,-8.362604309575419
6.055401581027668,4.526028790003825,1.8759615708274886,-8.355379217136301
6.063400790513834,4.530243427259977,1.8882614305750343,-8.348154124697183
6.0714,4.534458064516129,1.90056129032258,-8.340929032258066
6.079399209486165,4.53867270177228,1.9128611500701242,-8.333703939818948
6.087398418972331,4.542887339028432,1.92516100981767,-8.32647884737983
6.095397628458497,4.547101976284584,1.9374608695652156,-8.319253754940714
6.103396837944663,4.563933668702835,2.081603162055337,-8.37451254042398
6.111396047430829,4.593748904060362,2.073603952569171,-8.549767948257253
6.119395256916995,4.947908846420273,1.9270638930768906,-8.500057984597204
6.127394466403161,4.972978533882072,1.9375370848783657,-8.503109229452752
6.135393675889327,4.998048221343871,1.9480102766798408,-8.506160474308299
6.143392885375493,5.02311790880567,1.958483468481316,-8.509211719163847
6.151392094861659,5.048187596267469,1.968956660282791,-8.512262964019396
6.1593913043478254,5.0732572837292675,1.9794298520842661,-8.515314208874944
6.1673905138339915,5.098326971191066,1.9899030438857415,-8.51836545373049
6.175389723320158,5.123396658652864,2.0003762356872166,-8.52141669858604
6.183388932806324,5.148466346114663,2.0108494274886914,-8.524467943441588
6.19138814229249,5.173536033576462,2.0213226192901668,-8.527519188297136
6.199387351778656,5.198605721038261,2.0317958110916416,-8.530570433152683
6.207386561264822,5.22367540850006,2.042269002893117,-8.533621678008231
6.215385770750987,4.961770830039509,2.458299604743091,-8.560197707509898
6.223384980237153,4.8948798418973976,2.369758102766841,-8.456230039525694
6.231384189723319,4.806345517786564,2.330127357048752,-8.468882276679839
6.239383399209485,4.789387193675892,2.3075162582345228,-8.483920790513832
6.247382608695651,4.77242886956522,2.284905159420293,-8.498959304347824
6.255381818181817,4.755470545454548,2.262294060606064,-8.513997818181815
6.263381027667983,4.738512221343876,2.2396829617918343,-8.529036332015808
6.271380237154149,4.721553897233204,2.217071862977605,-8.544074845849801
6.279379446640315,4.704595573122532,2.1944607641633755,-8.559113359683792
6.2873786561264815,4.6876372490118605,2.1718496653491464,-8.574151873517785
6.295377865612648,4.670678924901188,2.149238566534917,-8.589190387351778
6.303377075098814,4.393890909090988,1.953556521739157,-8.744730434782578
6.31137628458498,4.329816550863325,1.9339317412107342,-8.748209885583526
6.319375494071146,4.326364260453506,1.9349421676721448,-8.727832951945082
6.327374703557312,4.322911970043687,1.9359525941335551,-8.707456018306637
6.335373913043478,4.319459679633868,1.9369630205949657,-8.687079084668193
6.343373122529644,4.3160073892240485,1.937973447056376,-8.66670215102975
6.351372332015809,4.312555098814229,1.9389838735177864,-8.646325217391308
6.359371541501975,4.309102808404411,1.9399942999791968,-8.625948283752864
6.367370750988141,4.305650517994592,1.9410047264406074,-8.60557135011442
6.375369960474307,4.302198227584773,1.9420151529020178,-8.585194416475975
6.383369169960473,4.298745937174954,1.9430255793634283,-8.564817482837531
6.391368379446639,4.295293646765135,1.9440360058248387,-8.544440549199088
6.399367588932805,4.392106719367338,1.9060968379447614,-8.480828063241217
6.4073667984189715,5.7459032938073245,1.6677088274045686,-8.630582872200673
6.415366007905138,6.668889212594934,1.458543749167286,-7.4981557401074586
6.423365217391304,6.622511773326824,1.5458160234489409,-7.644478358573508
6.43136442687747,6.5761343340587155,1.6330882977305958,-7.790800977039558
6.439363636363636,6.529756894790607,1.7203605720122508,-7.937123595505607
6.447362845849802,6.483379455522497,1.8076328462939055,-8.083446213971657
6.455362055335968,6.437002016254389,1.8949051205755605,-8.229768832437706
6.463361264822134,6.390624576986279,1.9821773948572154,-8.376091450903756
6.4713604743083,6.34424713771817,2.06944966913887,-8.522414069369805
6.479359683794466,6.297869698450061,2.156721943420525,-8.668736687835855
6.487358893280631,6.251492259181957,2.2439942177021703,-8.815059306301888
6.495358102766797,6.205114819913848,2.3312664919838255,-8.961381924767938
6.503357312252963,5.268642687747037,2.5159177865613476,-8.909334387351954
6.511356521739129,5.2327217391304535,2.175634782608641,-8.147339130434696
6.519355731225295,5.060072134387377,2.6629199604742384,-8.915929841897123
6.5273549407114615,4.970453087623846,2.9347846825111397,-9.14002624095273
6.5353541501976276,4.921834515681954,3.100274821621043,-9.095251444997697
6.543353359683794,4.873215943740061,3.2657649607309462,-9.050476649042663
6.55135256916996,4.824597371798169,3.431255099840849,-9.00570185308763
6.559351778656126,4.775978799856277,3.5967452389507524,-8.960927057132597
6.567350988142292,4.727360227914383,3.762235378060655,-8.916152261177563
6.575350197628458,4.678741655972491,3.9277255171705585,-8.87137746522253
6.583349407114624,4.630123084030599,4.093215656280462,-8.826602669267496
6.59134861660079,4.581504512088706,4.258705795390364,-8.781827873312464
6.599347826086956,4.465434782608827,4.277869565217654,-8.773782608695587
6.607347035573122,1.9060354201198546,2.345796633941094,-9.941101976284585
6.615346245059288,1.8409235751625674,2.3505273492286114,-9.935769169960475
6.623345454545453,1.7758117302052876,2.3552580645161285,-9.930436363636364
6.631344664031619,1.7106998852480002,2.359988779803646,-9.925103557312253
6.639343873517785,1.645588040290713,2.3647194950911636,-9.919770750988143
6.6473430830039515,1.5804761953334259,2.369450210378681,-9.914437944664032
6.6553422924901176,1.5153643503761387,2.3741809256661988,-9.909105138339923
6.663341501976284,1.4502525054188515,2.3789116409537163,-9.903772332015812
6.67134071146245,1.3851406604615644,2.383642356241234,-9.898439525691701
6.679339920948616,1.3200288155042772,2.3883730715287514,-9.89310671936759
6.687339130434782,1.25491697054699,2.393103786816269,-9.88777391304348
6.695338339920948,1.1898051255897029,2.3978345021037866,-9.88244110671937
6.703337549407114,1.8127524374176518,2.9872728590250337,-9.143592358366302
6.71133675889328,1.092354677206969,0.15760158102811372,-8.432085902503365
6.719335968379446,0.8158674917384815,-0.9284928400181427,-8.199522127907736
6.727335177865612,0.8283252770038221,-0.931640069979913,-8.125693358387876
6.735334387351778,0.8407830622691627,-0.9347872999416832,-8.051864588868014
6.743333596837944,0.8532408475345032,-0.9379345299034534,-7.978035819348155
6.75133280632411,0.8656986327998438,-0.9410817598652237,-7.904207049828294
6.759332015810275,0.8781564180651831,-0.9442289898269935,-7.830378280308442
6.7673312252964415,0.8906142033305237,-0.9473762197887639,-7.756549510788581
6.7753304347826075,0.37148695652214647,-0.5828000000002824,-7.6863521739130505
6.783329644268774,1.2658566534911104,-3.3563494071151054,-9.001145981554659
6.79132885375494,1.4947374374759546,-2.987924572387982,-9.030565707090139
6.799328063241106,1.473712966525589,-2.985659309524643,-9.047555178565181
6.807327272727272,1.4526884955752235,-2.983394046661304,-9.064544650040224
6.815326482213438,1.431664024624858,-2.9811287837979648,-9.081534121515267
6.823325691699604,1.4106395536744922,-2.9788635209346257,-9.09852359299031
6.83132490118577,1.3896150827241267,-2.9765982580712866,-9.115513064465352
6.839324110671936,1.3685906117737612,-2.9743329952079476,-9.132502535940395
6.847323320158102,1.3475661408233957,-2.9720677323446085,-9.14949200741544
6.855322529644268,1.3265416698730301,-2.9698024694812695,-9.166481478890482
6.863321739130434,1.3055171989226644,-2.9675372066179304,-9.183470950365525
6.8713209486166,1.2844927279722989,-2.9652719437545914,-9.200460421840567
6.879320158102766,1.2634682570219333,-2.9630066808912523,-9.21744989331561
6.887319367588932,1.2424437860715678,-2.9607414180279132,-9.234439364790653
6.8953185770750975,1.2214193151212045,-2.958476155164574,-9.251428836265694
6.903317786561264,1.2972358893280465,-4.746565375493695,-9.153283636363657
6.91131699604743,1.2378018972332288,-3.760011857708029,-9.168252332015792
6.919316205533596,1.1298478260869436,-1.160057876905674,-9.287645492188961
6.927315415019762,1.2398369565217262,-1.405462196499124,-9.36240000941087
6.935314624505928,1.3498260869565089,-1.6508665160925742,-9.437154526632778
6.943313833992094,1.4598152173912915,-1.8962708356860243,-9.511909043854688
6.95131304347826,1.5698043478260741,-2.141675155279474,-9.586663561076596
6.959312252964426,1.6797934782608568,-2.387079474872924,-9.661418078298505
6.967311462450592,1.7897826086956394,-2.632483794466374,-9.736172595520413
6.975310671936758,1.899771739130422,-2.8778881140598243,-9.810927112742322
6.983309881422924,2.0097608695652047,-3.1232924336532744,-9.88568162996423
6.99130909090909,2.1197499999999874,-3.3686967532467245,-9.960436147186138
6.999308300395256,2.22973913043477,-3.6141010728401746,-10.035190664408047
7.007307509881422,2.899310935441151,-1.8541064558629954,-9.527975230566655
7.015306719367588,3.3393863267167623,-1.8406626069582563,-9.27319831472875
7.0233059288537545,3.332266151240065,-1.8694070190678862,-9.262034582808496
7.03130513833992,3.3251459757633683,-1.898151431177513,-9.250870850888244
7.039304347826086,3.318025800286671,-1.9268958432871428,-9.23970711896799
7.047303557312252,3.310905624809974,-1.9556402553967727,-9.228543387047736
7.055302766798418,3.3037854493332763,-1.9843846675064025,-9.217379655127482
7.063301976284584,3.296665273856579,-2.0131290796160326,-9.206215923207228
7.07130118577075,3.2895450983798815,-2.0418734917256627,-9.195052191286974
7.079300395256916,3.2824249229031843,-2.0706179038352923,-9.18388845936672
7.087299604743082,3.275304747426487,-2.0993623159449224,-9.172724727446466
7.095298814229248,3.2681845719497895,-2.128106728054552,-9.161560995526212
7.103298023715414,2.6558682476942947,-2.5351317523057055,-9.66552700922282
7.11129723320158,2.8708828441678533,-2.322709418888239,-8.892760264065267
7.119296442687746,2.9235584896139892,-2.273948280211929,-8.813874442855948
7.127295652173912,2.9762341350601256,-2.225187141535619,-8.73498862164663
7.135294861660078,3.028909780506261,-2.176426002859309,-8.656102800437312
7.1432940711462445,3.0815854259523974,-2.127664864182999,-8.577216979227993
7.1512932806324105,3.1342610713985333,-2.078903725506689,-8.498331158018676
7.159292490118577,3.186936716844669,-2.030142586830379,-8.419445336809357
7.167291699604743,3.239612362290805,-1.981381448154069,-8.34055951560004
7.175290909090908,3.2922880077369348,-1.9326203094777645,-8.26167369439073
7.183290118577074,3.344963653183071,-1.8838591708014545,-8.182787873181411
7.19128932806324,3.397639298629207,-1.8350980321251447,-8.103902051972094
7.199288537549406,3.450314944075343,-1.7863368934488346,-8.025016230762775
7.207287747035572,4.754639602193049,-2.2718488333545532,-10.207436440137757
7.215286956521738,4.696494810659197,-2.438628050490854,-9.91198176718098
7.223286166007904,4.638350019125345,-2.6054072676271556,-9.6165270942242
7.23128537549407,4.580205227591493,-2.7721864847634565,-9.32107242126742
7.239284584980236,4.52206043605764,-2.9389657018997575,-9.025617748310642
7.247283794466402,4.463915644523788,-3.1057449190360584,-8.730163075353863
7.255283003952568,4.405770852989936,-3.2725241361723594,-8.434708402397085
7.2632822134387345,4.347626061456084,-3.4393033533086603,-8.139253729440306
7.2712814229249005,4.2894812699222316,-3.6060825704449613,-7.843799056483527
7.279280632411067,4.231336478388379,-3.7728617875812622,-7.548344383526748
7.287279841897233,4.173191686854527,-3.939641004717563,-7.25288971056997
7.295279051383399,4.115046895320674,-4.106420221853864,-6.957435037613191
7.303278260869565,4.1855391304347895,-3.310573913043466,-8.93134782608696
7.31127747035573,3.1707372740596087,-5.112976044766176,-8.353397344228808
7.319276679841896,3.0876893014167166,-5.11908780032864,-8.312053115423906
7.327275889328062,3.0046413287738245,-5.125199555891104,-8.270708886619003
7.335275098814228,2.9215933561309324,-5.131311311453568,-8.2293646578141
7.343274308300394,2.83854538348804,-5.137423067016032,-8.188020429009198
7.35127351778656,2.7554974108451478,-5.143534822578496,-8.146676200204293
7.359272727272726,2.6724494382022557,-5.14964657814096,-8.10533197139939
7.367271936758892,2.589401465559363,-5.155758333703424,-8.063987742594488
7.375271146245058,2.506353492916471,-5.1618700892658875,-8.022643513789586
7.3832703557312245,2.423305520273579,-5.167981844828351,-7.981299284984683
7.3912695652173905,2.340257547630687,-5.174093600390815,-7.939955056179779
7.399268774703557,2.489533596837339,-4.957454545455132,-8.037075098813867
7.407267984189723,3.0912910195928434,-5.051418895830678,-7.5816361086319
7.415267193675889,3.0868183433210086,-5.022518526074207,-7.5919576692592114
7.423266403162055,3.082345667049174,-4.993618156317736,-7.6022792298865225
7.431265612648221,3.077872990777339,-4.964717786561265,-7.6126007905138335
7.439264822134387,3.0734003145055038,-4.935817416804794,-7.622922351141145
7.447264031620552,3.06892763823367,-4.906917047048327,-7.633243911768455
7.455263241106718,3.064454961961835,-4.878016677291856,-7.643565472395766
7.463262450592884,3.0599822856900003,-4.849116307535385,-7.653887033023077
7.47126166007905,3.0555096094181655,-4.820215937778914,-7.664208593650388
7.479260869565216,3.0510369331463307,-4.791315568022443,-7.674530154277699
7.487260079051382,3.046564256874496,-4.762415198265972,-7.68485171490501
7.495259288537548,3.042091580602661,-4.7335148285095014,-7.695173275532321
7.5032584980237145,2.8551188405798427,-4.01892806324152,-7.709089855072018
7.5112577075098805,2.559239092184113,-3.091756640741212,-8.735158230269027
7.519256916996047,2.564657911513451,-3.1042285264992127,-8.757091546602064
7.527256126482213,2.570076730842789,-3.1167004122572135,-8.779024862935099
7.535255335968379,2.5754955501721275,-3.1291722980152143,-8.800958179268136
7.543254545454545,2.580914369501466,-3.141644183773215,-8.822891495601171
7.551253754940711,2.586333188830804,-3.154116069531216,-8.844824811934208
7.559252964426877,2.5917520081601424,-3.166587955289217,-8.866758128267243
7.567252173913043,2.5971708274894807,-3.1790598410472177,-8.88869144460028
7.575251383399209,2.602589646818819,-3.1915317268052186,-8.910624760933317
7.583250592885374,2.608008466148157,-3.204003612563218,-8.93255807726635
7.59124980237154,2.613427285477495,-3.216475498321219,-8.954491393599385
7.599249011857706,2.2264347826089916,-2.7330158102770534,-8.592675889328351
7.607248221343872,3.44771660079058,-3.6719306324114243,-8.291191897233295
7.615247430830038,3.096614116318467,-1.8266712591755856,-7.802673066064368
7.6232466403162045,3.074901976284588,-1.9977019762845636,-7.81981422924901
7.6312458498023705,3.0531898362507084,-2.1687326933935416,-7.8369553924336515
7.639245059288537,3.0314776962168293,-2.3397634105025196,-7.854096555618293
7.647244268774703,3.00976555618295,-2.5107941276114976,-7.871237718802934
7.655243478260869,2.988053416149071,-2.6818248447204756,-7.888378881987576
7.663242687747035,2.966341276115192,-2.852855561829454,-7.905520045172217
7.671241897233201,2.944629136081313,-3.0238862789384315,-7.922661208356859
7.679241106719367,2.9229169960474333,-3.19491699604741,-7.9398023715415
7.687240316205533,2.901204856013554,-3.3659477131563875,-7.9569435347261415
7.695239525691699,2.879492715979675,-3.536978430265366,-7.974084697910783
7.703238735177865,3.4868863241106336,-4.729993359683927,-8.921856126482277
7.711237944664031,3.7044317259552044,-3.994161932367145,-8.559280456741327
7.719237154150196,3.7054982872200264,-4.048912077294676,-8.55750285463329
7.727236363636362,3.7065648484848484,-4.103662222222212,-8.555725252525253
7.735235573122528,3.7076314097496708,-4.158412367149749,-8.553947650417216
7.7432347826086945,3.7086979710144927,-4.213162512077286,-8.55217004830918
7.7512339920948605,3.7097645322793147,-4.267912657004822,-8.550392446201142
7.759233201581027,3.710831093544137,-4.322662801932359,-8.548614844093105
7.767232411067193,3.711897654808959,-4.377412946859896,-8.546837241985068
7.775231620553359,3.7129642160737815,-4.432163091787432,-8.545059639877032
7.783230830039525,3.7140307773386034,-4.486913236714969,-8.543282037768995
7.791230039525691,3.715097338603426,-4.541663381642506,-8.541504435660958
7.799229249011857,3.6723616600790825,-4.524693675889373,-8.561511857707494
7.807228458498023,3.4497114624505643,-3.7805770750988708,-8.825731225296613
7.815227667984189,3.5579696855129725,-3.5585462794294607,-8.271947757346622
7.823226877470355,3.584401855989,-3.4952481869737113,-8.29455421893796
7.831226086956521,3.6108340264650267,-3.4319500945179624,-8.317160680529298
7.839225296442687,3.637266196941054,-3.368652002062213,-8.339767142120637
7.847224505928853,3.663698367417081,-3.305353909606464,-8.362373603711976
7.855223715415018,3.690130537893105,-3.242055817150722,-8.384980065303314
7.8632229249011845,3.716562708369132,-3.178757724694973,-8.407586526894653
7.8712221343873505,3.7429948788451592,-3.115459632239224,-8.430192988485992
7.879221343873517,3.769427049321186,-3.0521615397834747,-8.45279945007733
7.887220553359683,3.7958592197972134,-2.988863447327726,-8.47540591166867
7.895219762845849,3.8222913902732403,-2.925565354871977,-8.498012373260007
7.903218972332015,3.829606324110731,-3.0146529644263915,-8.495913043478339
7.911218181818181,3.78661570247934,-3.293690082644619,-7.926921487603299
7.919217391304347,3.777525691699606,-3.357320158102758,-7.97237154150197
7.927216600790513,3.768435680919872,-3.420950233560897,-8.01782159540064
7.935215810276679,3.7593456701401378,-3.484580309019036,-8.063271649299312
7.943215019762845,3.7502556593604033,-3.548210384477175,-8.108721703197983
7.951214229249011,3.7411656485806692,-3.611840459935314,-8.154171757096654
7.959213438735177,3.732075637800935,-3.6754705353934534,-8.199621810995323
7.967212648221343,3.722985627021201,-3.739100610851592,-8.245071864893994
7.975211857707509,3.713895616241467,-3.802730686309731,-8.290521918792665
7.983211067193675,3.704805605461733,-3.8663607617678704,-8.335971972691336
7.9912102766798405,3.695715594682,-3.9299908372260024,-8.381422026590002
7.999209486166007,3.837976284584805,-4.32507509881383,-8.432094861660065
8.007208695652173,4.066603726708078,-3.4817242236024777,-8.498186335403732
8.01520790513834,4.028729918528676,-3.5509418730337994,-8.444314108251994
8.023207114624505,3.9908561103492817,-3.6201595224651055,-8.390441881100271
8.031206324110672,3.9529823021698793,-3.689377171896427,-8.336569653948535
8.039205533596837,3.9151084939904854,-3.7585948213277334,-8.28269742679681
8.047204743083004,3.877234685811083,-3.827812470759055,-8.228825199645074
8.055203952569169,3.839360877631689,-3.897030120190361,-8.174952972493351
8.063203162055334,3.8014870694522953,-3.9662477696216674,-8.121080745341626
8.071202371541501,3.7636132612728925,-4.035465419052989,-8.06720851818989
8.079201581027666,3.7257394530934986,-4.104683068484295,-8.013336291038167
8.087200790513833,3.6878656449140963,-4.1739007179156165,-7.95946406388643
8.095199999999998,3.6499918367347024,-4.2431183673469235,-7.905591836734706
8.103199209486165,3.1634086956524436,-5.677575230566503,-7.06815283267477
8.11119841897233,1.936068105807211,-5.793555487990292,-6.210294922468791
8.119197628458497,2.0362779828866655,-5.70741015506234,-6.386101724362572
8.127196837944663,2.136487859966098,-5.621264822134407,-6.561908526256313
8.13519604743083,2.236697737045553,-5.535119489206455,-6.737715328150093
8.143195256916995,2.3369076141249856,-5.448974156278521,-6.913522130043835
8.151194466403162,2.4371174912044404,-5.3628288233505685,-7.089328931937615
8.159193675889327,2.537327368283873,-5.276683490422635,-7.2651357338313565
8.167192885375494,2.637537245363328,-5.190538157494683,-7.440942535725137
8.175192094861659,2.7377471224427605,-5.10439282456675,-7.616749337618879
8.183191304347826,2.8379569995222154,-5.018247491638797,-7.792556139512659
8.191190513833991,2.938166876601648,-4.9321021587108635,-7.968362941406401
8.199189723320156,2.9927430830043096,-4.904158102766335,-8.13620553359687
8.207188932806323,5.315158061160841,-1.5888001830663594,-10.468070746827566
8.215188142292488,5.132439276055803,-1.600841098398166,-10.33780993551075
8.223187351778655,4.949720490950724,-1.6128820137299753,-10.207549124193903
8.23118656126482,4.7670017058456855,-1.6249229290617822,-10.077288312877085
8.239185770750987,4.584282920740607,-1.6369638443935914,-9.947027501560239
8.247184980237153,4.401564135635569,-1.649004759725398,-9.816766690243421
8.25518418972332,4.21884535053049,-1.6610456750572073,-9.686505878926575
8.263183399209485,4.036126565425452,-1.6730865903890142,-9.556245067609758
8.271182608695652,3.853407780320373,-1.6851275057208235,-9.425984256292912
8.279181818181817,3.6706889952153348,-1.69716842105263,-9.295723444976094
8.287181027667984,3.487970210110256,-1.7092093363844394,-9.165462633659248
8.295180237154149,3.305251425005218,-1.721250251716246,-9.03520182234243
8.303179446640316,1.3978086956522664,-4.074894861660062,-8.071271146245158
8.311178656126481,1.344014320782152,-3.955996854587091,-7.906220744747219
8.319177865612648,1.5958631162887373,-3.7654472644060806,-8.054669232369456
8.327177075098813,1.847711911795267,-3.574897674225112,-8.20311771999166
8.335176284584978,2.0995607073017966,-3.384348084044144,-8.351566207613864
8.343175494071145,2.351409502808382,-3.1937984938631327,-8.5000146952361
8.35117470355731,2.6032582983149117,-3.003248903682165,-8.648463182858304
8.359173913043477,2.855107093821497,-2.812699313501154,-8.79691167048054
8.367173122529643,3.1069558893280265,-2.6221497233201854,-8.945360158102744
8.37517233201581,3.3588046848346123,-2.431600133139175,-9.093808645724982
8.383171541501975,3.610653480341142,-2.2410505429582064,-9.242257133347186
8.391170750988142,3.862502275847727,-2.050500952777196,-9.390705620969422
8.399169960474307,4.016371541502401,-2.0477272727264304,-9.454249011858082
8.407169169960474,3.132155292050938,-3.2477478260869623,-8.43738173034694
8.415168379446639,2.758499595759962,-3.5503586597197447,-8.040167750628802
8.423167588932806,2.8362191879266967,-3.4032822853036313,-8.169064103485445
8.431166798418971,2.9139387800934142,-3.2562059108875503,-8.29796045634206
8.439166007905138,2.991658372260149,-3.109129536471437,-8.426856809198704
8.447165217391303,3.0693779644268666,-2.9620531620553563,-8.555753162055318
8.45516442687747,3.1470975565936015,-2.814976787639243,-8.68464951491196
8.463163636363635,3.224817148760319,-2.6679004132231623,-8.813545867768577
8.4711628458498,3.3025367409270365,-2.5208240388070813,-8.94244222062519
8.479162055335967,3.3802563330937714,-2.373747664390968,-9.071338573481833
8.487161264822133,3.457975925260489,-2.2266712899748873,-9.200234926338448
8.4951604743083,3.5356955174272238,-2.079594915558774,-9.329131279195092
8.503159683794465,2.963070256916893,-2.8363125494071673,-8.678183498023635
8.511158893280632,3.2833021272816088,-2.663885109028738,-8.928302127281608
8.519158102766797,3.2922900031087607,-2.600969978238675,-8.93729000310876
8.527157312252964,3.3012778789359145,-2.538054847448598,-8.946277878935915
8.535156521739129,3.3102657547630665,-2.4751397166585356,-8.955265754763065
8.543155731225296,3.3192536305902203,-2.412224585868459,-8.96425363059022
8.551154940711461,3.3282415064173723,-2.3493094550783957,-8.973241506417372
8.559154150197628,3.337229382244526,-2.286394324288319,-8.982229382244526
8.567153359683793,3.346217258071678,-2.2234791934982563,-8.991217258071677
8.57515256916996,3.355205133898832,-2.160564062708179,-9.000205133898831
8.583151778656125,3.3641930097259833,-2.0976489319181164,-9.009193009725983
8.591150988142292,3.373180885553137,-2.0347338011280396,-9.018180885553136
8.599150197628457,3.402426877470197,-2.086249011856829,-9.033909090909036
8.607149407114623,2.8666852839608894,-3.1208987476596715,-9.145949598502186
8.61514861660079,2.8735056625754107,-3.0596837445392153,-9.122962396505097
8.623147826086955,2.8803260411899303,-2.998468741418773,-9.099975194508012
8.631147035573122,2.8871464198044516,-2.937253738298317,-9.076987992510922
8.639146245059287,2.893966798418971,-2.8760387351778745,-9.054000790513836
8.647145454545454,2.9007871770334925,-2.8148237320574183,-9.031013588516746
8.655144664031619,2.907607555648012,-2.7536087289369755,-9.008026386519662
8.663143873517786,2.9144279342625334,-2.6923937258165194,-8.985039184522572
8.671143083003951,2.921248312877053,-2.631178722696077,-8.962051982525487
8.679142292490118,2.9280686914915743,-2.569963719575621,-8.939064780528396
8.687141501976283,2.9348890701060943,-2.5087487164551785,-8.916077578531311
8.69514071146245,2.9417094487206152,-2.4475337133347224,-8.893090376534222
8.703139920948615,2.6222553359682843,-3.1973889328063025,-8.859607114624447
8.711139130434782,2.714391766882511,-3.0280913968547876,-8.912417391304345
8.719138339920947,2.760770162307618,-2.8253880245564305,-8.93641501976284
8.727137549407114,2.807148557732735,-2.6226846522580285,-8.960412648221341
8.73513675889328,2.853526953157842,-2.4199812799596714,-8.984410276679837
8.743135968379445,2.8999053485829487,-2.2172779076613143,-9.008407905138332
8.751135177865612,2.946283744008066,-2.0145745353629128,-9.032405533596833
8.759134387351777,2.9926621394331727,-1.8118711630645554,-9.05640316205533
8.767133596837944,3.0390405348582896,-1.6091677907661535,-9.080400790513831
8.775132806324109,3.0854189302833968,-1.4064644184677966,-9.104398418972327
8.783132015810276,3.1317973257085137,-1.2037610461693946,-9.128396047430828
8.791131225296441,3.178175721133621,-1.0010576738710375,-9.152393675889323
8.799130434782608,3.079521739130567,-1.4950869565211,-9.070130434782707
8.807129644268773,2.83595239350024,-2.9524895915677107,-9.077347913921814
8.81512885375494,3.1160515788071246,-2.9745309765954633,-9.588355731225299
8.823128063241105,3.0948401918550466,-2.9426240174090745,-9.548359683794473
8.831127272727272,3.073628804902963,-2.9107170582226782,-9.508363636363638
8.839126482213437,3.052417417950885,-2.878810099036289,-9.468367588932812
8.847125691699604,3.031206030998802,-2.846903139849893,-9.428371541501978
8.85512490118577,3.009994644046724,-2.814996180663504,-9.388375494071152
8.863124110671937,2.988783257094641,-2.783089221477108,-9.348379446640319
8.871123320158102,2.9675718701425624,-2.751182262290719,-9.308383399209493
8.879122529644267,2.946360483190484,-2.71927530310433,-9.268387351778667
8.887121739130434,2.925149096238401,-2.687368343917934,-9.228391304347833
8.895120948616599,2.9039377092863226,-2.6554613847315447,-9.188395256917007
8.903120158102766,3.214248379446576,-2.029441264822255,-9.208930276679833
8.911119367588931,3.199598435614729,-3.088243087164565,-8.905064173080918
8.919118577075098,3.1980827959226135,-3.043868525067617,-8.9241780736426
8.927117786561263,3.196567156230498,-2.9994939629706794,-8.94329197420428
8.93511699604743,3.1950515165383817,-2.955119400873732,-8.962405874765965
8.943116205533595,3.1935358768462665,-2.910744838776794,-8.981519775327643
8.951115415019762,3.1920202371541504,-2.866370276679846,-9.000633675889327
8.959114624505927,3.1905045974620347,-2.821995714582908,-9.019747576451007
8.967113833992094,3.188988957769919,-2.7776211524859606,-9.03886147701269
8.97511304347826,3.1874733180778034,-2.733246590389023,-9.057975377574369
8.983112252964427,3.1859576783856878,-2.6888720282920753,-9.077089278136052
8.991111462450592,3.184442038693572,-2.644497466195137,-9.096203178697731
8.999110671936759,3.182926399001456,-2.6001229040981895,-9.115317079259414
9.007109881422924,3.0085296442689797,-2.9659881422924084,-8.91752964426898
9.015109090909089,2.5872484848484656,-3.1333466666666747,-8.500592727272707
9.023108300395256,2.654352964426866,-3.104993913043483,-8.573385533596825
9.031107509881421,2.721457444005252,-3.0766411594202974,-8.64617833992093
9.039106719367588,2.7885619235836527,-3.0482884057971056,-8.718971146245048
9.047105928853753,2.8556664031620382,-3.01993565217392,-8.791763952569152
9.05510513833992,2.922770882740439,-2.9915828985507282,-8.86455675889327
9.063104347826085,2.989875362318825,-2.9632301449275427,-8.937349565217374
9.071103557312252,3.0569798418972254,-2.934877391304351,-9.010142371541493
9.079102766798417,3.124084321475611,-2.9065246376811658,-9.082935177865597
9.087101976284584,3.1911888010540115,-2.8781718840579735,-9.155727984189715
9.09510118577075,3.2582932806323974,-2.8498191304347884,-9.228520790513818
9.103100395256916,2.4184946557971005,-3.5276368824110658,-8.772676852766798
9.111099604743082,2.4579074275362265,-3.578381867588926,-8.746929397233204
9.119098814229249,2.4973201992753618,-3.6291268527667975,-8.721181941699605
9.127098023715414,2.5367329710144877,-3.6798718379446576,-8.695434486166011
9.13509723320158,2.576145742753623,-3.730616823122529,-8.669687030632412
9.143096442687746,2.6155585144927493,-3.7813618083003897,-8.643939575098818
9.151095652173911,2.6549712862318753,-3.83210679347825,-8.618192119565222
9.159094861660078,2.6943840579710105,-3.8828517786561214,-8.592444664031623
9.167094071146243,2.733796829710137,-3.9335967638339815,-8.566697208498029
9.17509328063241,2.7732096014492718,-3.984341749011853,-8.54094975296443
9.183092490118575,2.812622373188398,-4.035086734189713,-8.515202297430836
9.191091699604742,2.852035144927533,-4.085831719367585,-8.489454841897235
9.199090909090907,2.8889363636363976,-4.130627272727361,-8.459372727272804
9.207090118577074,2.7073543083004044,-3.657873992094885,-8.052212964426898
9.21508932806324,2.7104453720192687,-2.582295157016864,-8.151925092299024
9.223088537549406,2.8074028232636867,-2.7720785996611967,-8.050748277809154
9.231087747035572,2.9043602745080834,-2.9618620423054867,-7.949571463319308
9.239086956521739,3.0013177257525014,-3.1516454849498188,-7.848394648829439
9.247086166007904,3.0982751769968977,-3.341428927594109,-7.747217834339593
9.25508537549407,3.1952326282413157,-3.5312123702384413,-7.646041019849724
9.263084584980236,3.292190079485712,-3.720995812882731,-7.544864205359878
9.271083794466403,3.3891475307301304,-3.9107792555270637,-7.443687390870009
9.279083003952568,3.4861049819745267,-4.100562698171354,-7.342510576380163
9.287082213438733,3.583062433218923,-4.290346140815644,-7.241333761890317
9.2950814229249,3.680019884463341,-4.480129583459976,-7.140156947400448
9.303080632411065,3.7292332015825727,-4.551889328067078,-7.265770750980684
9.311079841897232,3.8898675932762736,-3.9533687529861563,-8.18836572123527
9.319079051383397,4.0505550102071535,-3.8218652651696376,-8.365930591147947
9.327078260869564,4.211242427138068,-3.69036177735309,-8.543495461060667
9.33507747035573,4.371929844068948,-3.5588582895365715,-8.721060330973344
9.343076679841896,4.532617260999864,-3.427354801720024,-8.898625200886064
9.351075889328062,4.693304677930743,-3.2958513139035053,-9.076190070798742
9.359075098814229,4.853992094861658,-3.1643478260869577,-9.253754940711461
9.367074308300394,5.014679511792538,-3.032844338270439,-9.431319810624139
9.37507351778656,5.175366928723453,-2.9013408504538916,-9.608884680536859
9.383072727272726,5.336054345654333,-2.7698373626373733,-9.786449550449536
9.391071936758893,5.496741762585248,-2.6383338748208254,-9.964014420362256
9.399071146245058,5.615304347826368,-2.529628458497874,-10.105849802371777
9.407070355731225,3.3711872587770286,-5.003347500581268,-8.51016172983027
9.41506956521739,3.369069820971867,-4.7619595907928725,-8.58874219948848
9.423068774703555,3.366952383166706,-4.520571681004477,-8.66732266914669
9.431067984189722,3.3648349453615443,-4.2791837712160286,-8.745903138804918
9.439067193675887,3.3627175075563827,-4.037795861427633,-8.82448360846313
9.447066403162054,3.360600069751221,-3.796407951639184,-8.903064078121357
9.45506561264822,3.3584826319460594,-3.555020041850789,-8.981644547779567
9.463064822134386,3.356365194140898,-3.31363213206234,-9.060225017437796
9.471064031620552,3.3542477563357362,-3.0722442222739446,-9.138805487096006
9.479063241106719,3.3521303185305746,-2.8308563124854955,-9.217385956754233
9.487062450592884,3.3500128807254135,-2.5894684026971,-9.295966426412445
9.49506166007905,3.3478954429202514,-2.3480804929086516,-9.374546896070672
9.503060869565216,3.3457780051150903,-2.1066925831202563,-9.453127365728882
9.511060079051383,3.2367374462966145,-3.4589752964426865,-7.750242782264992
9.519059288537548,3.242302113765251,-3.488972332015806,-7.789804090049831
9.527058498023715,3.247866781233889,-3.5189693675889315,-7.829365397834678
9.53505770750988,3.2534314487025253,-3.548966403162051,-7.868926705619516
9.543056916996047,3.258996116171163,-3.5789634387351765,-7.908488013404363
9.551056126482212,3.2645607836397996,-3.608960474308296,-7.948049321189202
9.559055335968377,3.2701254511084366,-3.638957509881415,-7.98761062897404
9.567054545454544,3.2756901185770744,-3.668954545454541,-8.027171936758887
9.57505375494071,3.281254786045711,-3.69895158102766,-8.066733244543725
9.583052964426876,3.2868194535143487,-3.728948616600786,-8.106294552328572
9.591052173913042,3.292384120982985,-3.7589456521739053,-8.14585586011341
9.599051383399209,3.297948788451623,-3.788942687747031,-8.185417167898258
9.607050592885374,2.7477130434780874,-3.39947509881416,-7.810248221344704
9.61504980237154,2.9319974547191965,-3.527340277114185,-6.938863084741331
9.623049011857706,2.9015828779915793,-3.5872903965599505,-7.098671467662742
9.631048221343873,2.8711683012639555,-3.6472405160057297,-7.258479850584188
9.639047430830038,2.840753724536338,-3.7071906354514956,-7.418288233505599
9.647046640316205,2.810339147808714,-3.7671407548972744,-7.578096616427045
9.65504584980237,2.779924571081097,-3.8270908743430403,-7.737904999348456
9.663045059288537,2.7495099943534727,-3.8870409937888195,-7.897713382269902
9.671044268774702,2.7190954176258555,-3.946991113234585,-8.057521765191314
9.67904347826087,2.6886808408982317,-4.006941232680364,-8.21733014811276
9.687042687747034,2.6582662641706145,-4.06689135212613,-8.37713853103417
9.6950418972332,2.627851687442997,-4.126841471571896,-8.536946913955582
9.703041106719366,2.669363794466562,-3.6750142292489865,-8.415120158102916
9.711040316205532,1.2954793063877565,-3.9227729695269637,-7.068240367206366
9.719039525691699,1.6913971694504066,-3.9353308682901935,-7.295142674996779
9.727038735177864,2.087315032512969,-3.94788876705342,-7.522044982787142
9.73503794466403,2.483232895575619,-3.9604466658166504,-7.748947290577554
9.743037154150196,2.8791507586381813,-3.973004564579877,-7.975849598367917
9.751036363636363,3.2750686217008314,-3.9855624633431073,-8.20275190615833
9.759035573122528,3.670986484763394,-3.998120362106334,-8.429654213948693
9.767034782608695,4.0669043478260445,-4.010678260869564,-8.656556521739105
9.77503399209486,4.462822210888606,-4.023236159632791,-8.883458829529468
9.783033201581027,4.858740073951257,-4.035794058396021,-9.110361137319881
9.791032411067192,5.254657937013819,-4.048351957159248,-9.337263445110244
9.79903162055336,5.650575800076469,-4.060909855922477,-9.564165752900657
9.807030830039524,2.6605435739546435,-3.7640868067401705,-7.041050634491356
9.815030039525691,2.757881323070527,-3.7647604243811106,-7.204402912419396
9.823029249011856,2.855219072186389,-3.765434042022051,-7.3677551903474
9.831028458498022,2.9525568213022506,-3.766107659662991,-7.531107468275403
9.839027667984189,3.049894570418134,-3.7667812773039313,-7.694459746203443
9.847026877470354,3.147232319533996,-3.767454894944872,-7.857812024131446
9.85502608695652,3.244570068649879,-3.768128512585812,-8.021164302059486
9.863025296442686,3.3419078177657413,-3.7688021302267525,-8.18451657998749
9.871024505928853,3.4392455668816244,-3.7694757478676926,-8.347868857915529
9.879023715415018,3.536583315997486,-3.770149365508633,-8.511221135843533
9.887022924901185,3.6339210651133698,-3.770822983149573,-8.674573413771572
9.89502213438735,3.7312588142292316,-3.7714966007905133,-8.837925691699576
9.903021343873517,3.706975494071175,-4.181659025032817,-8.717438735177938
9.911020553359682,4.6050108591637064,-4.634210443103831,-7.901160807156222
9.91901976284585,4.670688579155392,-4.511275223632214,-7.9432619097149955
9.927018972332014,4.736366299147064,-4.388340004160624,-7.985363012273759
9.935018181818181,4.80204401913875,-4.265404784689006,-8.027464114832533
9.943017391304346,4.867721739130421,-4.142469565217416,-8.069565217391297
9.951016600790513,4.933399459122108,-4.019534345745798,-8.11166631995007
9.959015810276679,4.99907717911378,-3.8965991262742086,-8.153767422508833
9.967015019762844,5.06475489910545,-3.7736639068026183,-8.195868525067597
9.97501422924901,5.130432619097137,-3.650728687331001,-8.23796962762637
9.983013438735176,5.196110339088809,-3.5277934678594107,-8.280070730185134
9.991012648221343,5.261788059080494,-3.404858248387793,-8.322171832743907
9.999011857707508,5.327465779072166,-3.2819230289162027,-8.36427293530267
10.007011067193675,4.162966007904975,-3.3791588932806786,-7.85077470355727
10.01501027667984,4.412879795396421,-3.3067491281097414,-7.892508718902584
10.023009486166007,4.395626598465473,-3.3098860730062776,-7.861139269937224
10.031008695652172,4.378373401534529,-3.313023017902813,-7.829769820971871
10.03900790513834,4.361120204603581,-3.316159962799349,-7.79840037200651
10.047007114624504,4.343867007672636,-3.3192969076958843,-7.7670309230411565
10.055006324110671,4.326613810741688,-3.3224338525924204,-7.735661474075796
10.063005533596836,4.309360613810743,-3.3255707974889557,-7.704292025110442
10.071004743083003,4.292107416879795,-3.328707742385492,-7.672922576145082
10.079003952569169,4.274854219948851,-3.331844687282027,-7.641553127179728
10.087003162055336,4.257601023017902,-3.3349816321785632,-7.6101836782143675
10.0950023715415,4.240347826086958,-3.3381185770750985,-7.578814229249014
10.103001581027666,4.223094629156014,-3.341255521971634,-7.54744478028366
10.111000790513833,4.222011067193662,-3.396041106719319,-7.6300869565216365
10.119,4.04,-3.72,-8.0
