accel_time_list,vertical_Accel_x,vertical_Accel_y,vertical_Accel_z
0.0,-0.016,2.43,10.115
0.0079984496124031,0.5348458471760797,2.4860414491377947,9.619948489163107
0.0159968992248062,0.5931202657807308,2.4301339186837527,9.622478610979275
0.0239953488372093,0.6513946843853821,2.3742263882297108,9.625008732795443
0.0319937984496124,0.7096691029900333,2.3183188577756684,9.627538854611611
0.0399922480620155,0.7679435215946844,2.2624113273216264,9.630068976427781
0.0479906976744186,0.8262179401993357,2.2065037968675845,9.632599098243949
0.0559891472868217,0.8844923588039868,2.150596266413542,9.635129220060117
0.0639875968992248,0.9427667774086379,2.0946887359595,9.637659341876285
0.0719860465116279,1.001041196013289,2.038781205505458,9.640189463692455
0.079984496124031,1.0593156146179403,1.982873675051416,9.642719585508623
0.0879829457364341,1.1175900332225914,1.9269661445973738,9.64524970732479
0.0959813953488372,1.1758644518272425,1.8710586141433319,9.647779829140958
0.1039798449612403,1.1221565891472878,1.351674418604655,9.563773643410853
0.1119782945736434,2.6561950732127477,0.7757934022394488,9.058445943152455
0.1199767441860465,2.518799483204135,0.7577524547803618,9.127499224806202
0.1279751937984496,2.3814038931955213,0.7397115073212748,9.196552506459948
0.1359736434108527,2.2440083031869085,0.7216705598621879,9.265605788113696
0.1439720930232558,2.106612713178295,0.7036296124031008,9.334659069767442
0.1519705426356589,1.9692171231696816,0.6855886649440138,9.40371235142119
0.159968992248062,1.8318215331610685,0.6675477174849268,9.472765633074935
0.1679674418604651,1.694425943152455,0.6495067700258398,9.541818914728683
0.1759658914728682,1.5570303531438419,0.6314658225667529,9.610872196382429
0.1839643410852713,1.4196347631352288,0.6134248751076659,9.679925478036175
0.1919627906976744,1.2822391731266152,0.5953839276485788,9.748978759689923
0.1999612403100775,1.1448435831180022,0.5773429801894918,9.818032041343669
0.2079596899224806,0.4454185881576777,0.25316440705921156,9.544397641431635
0.2159581395348837,0.44890727362691735,0.27120346363186537,9.539377337951509
0.2239565891472868,0.45239595909615704,0.28924252020451924,9.534357034471384
0.2319550387596899,0.4558846445653967,0.307281576777173,9.52933673099126
0.239953488372093,0.4593733300346363,0.32532063334982675,9.524316427511133
0.2479519379844961,0.46286201550387596,0.3433596899224806,9.519296124031008
0.2559503875968992,0.4663507009731156,0.36139874649513437,9.514275820550882
0.2639488372093023,0.46983938644235523,0.3794378030677882,9.509255517070757
0.2719472868217054,0.47332807191159487,0.397476859640442,9.504235213590633
0.27994573643410847,0.47681675738083457,0.41551591621309575,9.499214910110506
0.2879441860465116,0.4803054428500742,0.43355497278574967,9.494194606630382
0.2959426356589147,0.48379412831931384,0.4515940293584034,9.489174303150257
0.3039410852713178,0.4068868217054274,0.5384403100775192,9.70394108527132
0.3119395348837209,0.16947835420393673,0.6348851520572446,9.469478354203938
0.319937984496124,0.007550913152017034,0.8059005386939936,9.274187360399424
0.3279364341085271,-0.02634082249375878,1.1050967809749024,9.149465773222968
0.3359348837209302,-0.06023255813953482,1.4042930232558133,9.024744186046512
0.3439333333333333,-0.09412429378531063,1.7034892655367222,8.900022598870057
0.3519317829457364,-0.12801602943108645,2.002685507817631,8.775301011693601
0.3599302325581395,-0.16190776507686228,2.3018817500985396,8.650579424517147
0.3679286821705426,-0.19579950072263808,2.601077992379449,8.525857837340693
0.3759271317829457,-0.2296912363684139,2.9002742346603574,8.401136250164237
0.3839255813953488,0.38430089445438287,7.407752057245081,9.273667262969589
0.3919240310077519,0.3730893924335785,7.145033750745379,9.164286755449547
0.399922480620155,0.3618778904127742,6.882315444245678,9.054906247929505
0.4079209302325581,0.35066638839196984,6.619597137745977,8.945525740409462
0.4159193798449612,0.3394548863711655,6.356878831246275,8.83614523288942
0.4239178294573643,0.3282433843503612,6.094160524746574,8.726764725369378
0.4319162790697674,0.31703188232955687,5.831442218246872,8.617384217849336
0.4399147286821705,0.30582038030875247,5.568723911747169,8.508003710329293
0.4479131782945736,0.29460887828794813,5.306005605247467,8.398623202809251
0.4559116279069767,0.2833973762671438,5.0432872987477655,8.289242695289207
0.4639100775193798,0.27218587424633944,4.780568992248064,8.179862187769166
0.4719085271317829,0.2609743722255351,4.517850685748362,8.070481680249124
0.479906976744186,0.24976287020473079,4.255132379248661,7.961101172729081
0.4879054263565891,0.23855136818392636,3.9924140727489577,7.851720665209038
0.4959038759689922,0.22733986616312202,3.729695766249256,7.742340157688996
0.5039023255813952,-1.1272615348837223,1.833002883720932,6.797488930232558
0.5119007751937984,-1.0190425116279078,1.698468961240311,6.786930976744186
0.5198992248062015,-0.9108234883720931,1.56393503875969,6.776373023255814
0.5278976744186046,-0.80260446511628,1.429401116279071,6.7658150697674415
0.5358961240310077,-0.6943854418604654,1.29486719379845,6.755257116279069
0.5438945736434108,-0.5861664186046524,1.160333271317831,6.744699162790698
0.5518930232558139,-0.4779473953488377,1.02579934883721,6.734141209302326
0.5598914728682169,-0.36972837209302467,0.8912654263565908,6.723583255813954
0.5678899224806201,-0.26150934883721,0.7567315038759699,6.7130253023255815
0.5758883720930232,-0.15329032558139544,0.6221975813953489,6.702467348837209
0.5838868217054263,-0.04507130232558243,0.48766365891472985,6.691909395348837
0.5918852713178294,0.06314772093023224,0.35312973643410883,6.681351441860465
0.5998837209302325,0.17136674418604536,0.21859581395348981,6.670793488372094
0.6078821705426356,-0.2504097452934639,-1.3515911406423022,5.23394728682172
0.6158806201550387,-0.5690238082509133,-1.5496399002049364,3.0281365588523568
0.6238790697674418,-0.4372792301523667,-1.6076516439454687,2.909630793905374
0.6318775193798449,-0.30553465205381825,-1.6656633876860019,2.791125028958389
0.639875968992248,-0.17379007395527168,-1.7236751314265342,2.672619264011406
0.6478744186046511,-0.042045495856723236,-1.7816868751670674,2.554113499064422
0.6558728682170542,0.08969908224182332,-1.8396986189075997,2.435607734117439
0.6638713178294573,0.22144366034037177,-1.8977103626481329,2.317101969170454
0.6718697674418604,0.3531882384389202,-1.955722106388666,2.1985962042234695
0.6798682170542635,0.4849328165374668,-2.0137338501291984,2.0800904392764865
0.6878666666666666,0.6166773946360152,-2.0717455938697316,1.9615846743295018
0.6958651162790697,0.7484219727345619,-2.129757337610264,1.8430789093825188
0.7038635658914728,1.1207883720930214,-2.6745670542635622,1.1928550387596935
0.7118620155038758,1.529273736434112,-4.053912620155024,0.14479758139534943
0.719860465116279,1.2282120930232576,-5.364378604651154,0.09392744186046545
0.7278589147286821,0.9271504496124034,-6.674844589147285,0.043057302325581484
0.7358573643410852,-0.438849612403049,-14.512386046511315,0.7054645994831721
0.7438558139534883,-0.5982829941860501,-18.676543168604653,1.160888226744186
0.7518542635658914,0.03022017926355658,-18.63167686531008,1.1887578246124026
0.7598527131782945,0.658723352713172,-18.586810562015504,1.21662742248062
0.7678511627906976,1.2872265261627875,-18.54194425872093,1.244497020348837
0.7758496124031007,1.915729699612394,-18.49707795542636,1.2723666182170539
0.7838480620155038,2.54423287306201,-18.452211652131783,1.3002362160852712
0.7918465116279069,3.172736046511617,-18.40734534883721,1.328105813953488
0.79984496124031,3.8012392199612317,-18.36247904554264,1.3559754118217051
0.807843410852713,-2.044731156193317,-2.8214685139369915,29.75788504040907
0.8158418604651162,-1.4542073231073824,-2.9681634834240453,28.305826076199924
0.8238403100775193,-0.8636834900214476,-3.1148584529110988,26.85376711199078
0.8318387596899224,-0.273159656935521,-3.2615534223981504,25.401708147781655
0.8398372093023255,0.3173641761504138,-3.408248391885204,23.949649183572507
0.8478356589147286,0.9078880092363399,-3.554943361372255,22.49759021936338
0.8558341085271317,1.498411842322275,-3.701638330859309,21.045531255154238
0.8638325581395347,2.0889356754082016,-3.84833330034636,19.59347229094511
0.8718310077519379,2.679459508494136,-3.995028269833414,18.141413326735965
0.879829457364341,3.2699833415800708,-4.141723239320467,16.689354362526817
0.8878279069767441,3.8605071746659974,-4.288418208807519,15.237295398317691
0.8958263565891472,4.451031007751932,-4.435113178294572,13.785236434108544
0.9038248062015503,3.103277002584075,-4.559189664082686,9.175635142119067
0.9118232558139534,1.5602480620154842,-3.7411984496123623,1.1094527131783876
0.9198217054263564,1.766032314258336,-3.958027959236997,1.014524083268007
0.9278201550387596,1.9460423656475894,-4.116559027959235,1.0610768574166007
0.9358186046511627,2.1260524170368424,-4.275090096681473,1.1076296315651943
0.9438170542635658,2.3060624684260933,-4.433621165403708,1.1541824057137875
0.9518155038759689,2.4860725198153464,-4.592152234125947,1.200735179862381
0.959813953488372,2.666082571204597,-4.7506833028481825,1.2472879540109743
0.9678124031007751,2.84609262259385,-4.90921437157042,1.2938407281595679
0.9758108527131782,3.026102673983103,-5.067745440292658,1.3403935023081615
0.9838093023255813,3.206112725372354,-5.226276509014894,1.3869462764567546
0.9918077519379844,3.3861227767616073,-5.384807577737131,1.4334990506053482
0.9998062015503875,3.5661328281508577,-5.543338646459367,1.4800518247539411
1.0078046511627905,5.472641860464867,-8.766051162791033,7.999218604651119
1.0158031007751938,5.243269417354341,-8.293117812786532,8.049970909394014
1.0238015503875968,4.756654063515885,-8.147683637576064,8.058141368675502
1.0317999999999998,4.270038709677429,-8.002249462365596,8.066311827956989
1.039798449612403,3.78342335583896,-7.856815287155123,8.074482287238476
1.0477968992248061,3.296808002000504,-7.711381111944654,8.082652746519964
1.0557953488372092,2.8101926481620483,-7.565946936734186,8.09082320580145
1.0637937984496122,2.3235772943235924,-7.420512761523717,8.098993665082938
1.0717922480620155,1.8369619404851232,-7.275078586313246,8.107164124364425
1.0797906976744185,1.3503465866466673,-7.1296444111027775,8.115334583645911
1.0877891472868215,0.8637312328082114,-6.984210235892309,8.123505042927398
1.0957875968992248,0.3771158789697422,-6.838776060681837,8.131675502208886
1.1037860465116278,0.012018087855298981,-6.542166408268741,8.225224806201547
1.1117844961240309,0.7570968992246845,-5.959947286821724,7.364686046511779
1.1197829457364339,0.4871261451726688,-7.983839323467166,4.997634249471531
1.1277813953488371,0.522181955729894,-8.883166993555617,3.9147900252171497
1.1357798449612402,0.8386507331652142,-8.977124684785652,3.6518048566358496
1.1437782945736432,1.1551195106005345,-9.071082376015688,3.38881968805455
1.1517767441860465,1.4715882880358635,-9.165040067245727,3.1258345194732424
1.1597751937984495,1.7880570654711836,-9.258997758475763,2.862849350891943
1.1677736434108525,2.104525842906504,-9.352955449705798,2.5998641823106428
1.1757720930232556,2.4209946203418244,-9.446913140935834,2.3368790137293427
1.1837705426356588,2.7374633977771534,-9.540870832165872,2.0738938451480355
1.1917689922480619,3.0539321752124735,-9.634828523395907,1.8109086765667355
1.199767441860465,3.370400952647794,-9.728786214625943,1.5479235079854354
1.2077658914728682,3.2355674418604674,-9.511510852713181,1.0065976744186065
1.2157643410852712,2.8919927384907447,-9.251836228444866,1.9162109159943082
1.2237627906976742,2.906438917892738,-9.262936117702894,1.7663624110109204
1.2317612403100775,2.9208850972947316,-9.274036006960923,1.6165139060275286
1.2397596899224805,2.935331276696725,-9.285135896218952,1.466665401044141
1.2477581395348836,2.9497774560987184,-9.29623578547698,1.3168168960607534
1.2557565891472866,2.9642236355007117,-9.30733567473501,1.1669683910773656
1.2637550387596899,2.9786698149027053,-9.318435563993038,1.0171198860939739
1.271753488372093,2.9931159943046985,-9.329535453251067,0.8672713811105861
1.279751937984496,3.0075621737066918,-9.340635342509096,0.7174228761271984
1.2877503875968992,3.0220083531086854,-9.351735231767126,0.5675743711438066
1.2957488372093022,3.0364545325106786,-9.362835121025155,0.41772586616041885
1.3037472868217053,3.050900711912672,-9.373935010283184,0.2678773611770311
1.3117457364341083,3.053559689922484,-9.249767441860511,-0.04623100775187741
1.3197441860465116,2.7789146341463415,-9.58872064662507,-0.9592552467385138
1.3277426356589146,2.783108943089431,-9.633297371903952,-0.9604257515598411
1.3357410852713176,2.7873032520325203,-9.677874097182832,-0.9615962563811684
1.3437395348837209,2.7914975609756096,-9.722450822461713,-0.9627667612024957
1.351737984496124,2.795691869918699,-9.767027547740593,-0.963937266023823
1.359736434108527,2.799886178861789,-9.811604273019473,-0.9651077708451502
1.36773488372093,2.804080487804878,-9.856180998298354,-0.9662782756664775
1.3757333333333333,2.8082747967479675,-9.900757723577236,-0.9674487804878048
1.3837317829457363,2.812469105691057,-9.945334448856116,-0.9686192853091321
1.3917302325581393,2.8166634146341463,-9.989911174134996,-0.9697897901304594
1.3997286821705426,2.820857723577236,-10.034487899413877,-0.9709602949517867
1.4077271317829456,3.0433413250219763,-9.749959002637256,-0.7463600895069149
1.4157255813953487,3.0862196116039304,-9.736353392471829,-0.628527259649967
1.4237240310077517,3.129097898185885,-9.722747782306401,-0.5106944297930192
1.431722480620155,3.1719761847678405,-9.709142172140973,-0.39286159993606806
1.439720930232558,3.214854471349795,-9.695536561975546,-0.2750287700791202
1.447719379844961,3.2577327579317497,-9.681930951810118,-0.15719594022217243
1.4557178294573643,3.300611044513705,-9.668325341644689,-0.03936311036522133
1.4637162790697673,3.3434893310956597,-9.654719731479261,0.07846971949172654
1.4717147286821703,3.386367617677614,-9.641114121313834,0.19630254934867442
1.4797131782945734,3.4292459042595684,-9.627508511148406,0.3141353792056222
1.4877116279069766,3.472124190841524,-9.613902900982978,0.43196820906257327
1.4957100775193797,3.5150024774234785,-9.60029729081755,0.5498010389195213
1.5037085271317827,3.6555603100775116,-9.283708837209321,1.0094415503875718
1.511706976744186,2.9229906976744657,-8.79313953488372,-1.0320930232556766
1.519705426356589,3.14376361044284,-9.441282812082331,-3.574466185511897
1.527703875968992,3.23413689744275,-9.426113338679498,-3.2958994921144127
1.5357023255813953,3.3245101844426626,-9.410943865276664,-3.0173327987169203
1.5437007751937983,3.4148834714425726,-9.39577439187383,-2.738766105319436
1.5516992248062014,3.5052567584424823,-9.380604918470997,-2.4601994119219515
1.5596976744186044,3.5956300454423924,-9.365435445068163,-2.181632718524467
1.5676961240310077,3.686003332442305,-9.35026597166533,-1.9030660251269749
1.5756945736434107,3.776376619442215,-9.335096498262496,-1.6244993317294902
1.5836930232558137,3.866749906442125,-9.319927024859664,-1.3459326383320058
1.591691472868217,3.9571231934420372,-9.304757551456829,-1.0673659449345139
1.59968992248062,4.047496480441947,-9.289588078053997,-0.7887992515370295
1.607688372093023,3.4801383720930446,-9.341857558139532,-0.018773255813981704
1.615686821705426,2.454151092318534,-8.7415067653277,3.2093396053558716
1.6236852713178294,2.4479704721634956,-8.64498002114165,3.5094632487667305
1.6316837209302324,2.4417898520084567,-8.548453276955605,3.8095868921775815
1.6396821705426354,2.435609231853418,-8.451926532769559,4.109710535588432
1.6476806201550387,2.429428611698379,-8.355399788583512,4.409834178999292
1.6556790697674417,2.4232479915433403,-8.258873044397465,4.709957822410142
1.6636775193798448,2.4170673713883017,-8.16234630021142,5.010081465820993
1.6716759689922478,2.410886751233263,-8.065819556025373,5.310205109231844
1.679674418604651,2.404706131078224,-7.969292811839325,5.610328752642703
1.687672868217054,2.3985255109231853,-7.872766067653279,5.910452396053554
1.6956713178294571,2.3923448907681464,-7.776239323467233,6.210576039464405
1.7036697674418604,2.6782302325581386,-8.668046511627907,3.160739534883733
1.7116682170542634,2.787370697674417,-8.800675813953486,2.895983100775196
1.7196666666666665,2.8941499999999976,-8.933849999999998,2.7228166666666707
1.7276651162790695,2.937194859241127,-9.028955201958382,2.5734927784577764
1.7356635658914727,2.90488533251734,-9.079050754793961,2.45235836393309
1.7436620155038758,2.8725758057935544,-9.129146307629538,2.3312239494084075
1.7516604651162788,2.8402662790697684,-9.179241860465115,2.210089534883725
1.759658914728682,2.807956752345982,-9.229337413300692,2.0889551203590386
1.7676573643410851,2.775647225622196,-9.27943296613627,1.967820705834356
1.7756558139534881,2.7433376988984097,-9.329528518971847,1.8466862913096733
1.7836542635658912,2.7110281721746237,-9.379624071807424,1.7255518767849907
1.7916527131782944,2.678718645450837,-9.429719624643,1.6044174622603045
1.7996511627906975,2.646409118727051,-9.479815177478578,1.4832830477356218
1.8076496124031005,2.839043410852708,-9.18970852713179,1.6634589147286691
1.8156480620155038,3.049867228895136,-9.021159451401312,1.8182608228980321
1.8236465116279068,3.0581293636595963,-9.029773166368514,1.8053402504472273
1.8316449612403098,3.0663914984240566,-9.038386881335718,1.7924196779964223
1.8396434108527129,3.074653633188517,-9.04700059630292,1.7794991055456175
1.8476418604651161,3.082915767952977,-9.055614311270125,1.7665785330948123
1.8556403100775192,3.0911779027174378,-9.064228026237329,1.7536579606440073
1.8636387596899222,3.099440037481898,-9.072841741204531,1.7407373881932025
1.8716372093023255,3.1077021722463583,-9.081455456171735,1.7278168157423972
1.8796356589147285,3.1159643070108185,-9.09006917113894,1.7148962432915922
1.8876341085271315,3.1242264417752788,-9.098682886106142,1.7019756708407874
1.8956325581395348,3.1324885765397394,-9.107296601073346,1.6890550983899821
1.9036310077519378,2.9307823255813843,-9.19347596899225,1.297292093023258
1.9116294573643409,3.2262504381530164,-9.179668907987866,1.2551078361981793
1.919627906976744,3.224598584428716,-9.18775429726997,1.2950131445904944
1.9276263565891472,3.222946730704415,-9.195839686552073,1.3349184529828106
1.9356248062015502,3.2212948769801146,-9.203925075834176,1.3748237613751257
1.9436232558139532,3.219643023255814,-9.212010465116279,1.4147290697674408
1.9516217054263565,3.2179911695315133,-9.220095854398382,1.454634378159757
1.9596201550387595,3.216339315807213,-9.228181243680485,1.4945396865520721
1.9676186046511626,3.214687462082912,-9.236266632962588,1.5344449949443872
1.9756170542635656,3.2130356083586116,-9.24435202224469,1.5743503033367023
1.9836155038759689,3.2113837546343107,-9.252437411526795,1.6142556117290185
1.991613953488372,3.2097319009100103,-9.260522800808898,1.6541609201213336
1.999612403100775,3.20808004718571,-9.268608190091001,1.6940662285136487
2.007610852713178,2.978604618523052,-9.257378523051816,0.8565752917176667
2.015609302325581,2.9804568910648714,-9.252411064871481,0.8430200244798047
2.0236077519379845,2.982309163606691,-9.247443606691146,0.829464757241942
2.0316062015503875,2.984161436148511,-9.242476148510812,0.81590949000408
2.0396046511627905,2.9860137086903307,-9.237508690330477,0.802354222766218
2.0476031007751936,2.9878659812321504,-9.232541232150142,0.7887989555283561
2.0556015503875966,2.9897182537739697,-9.227573773969809,0.7752436882904941
2.0635999999999997,2.9915705263157895,-9.222606315789474,0.7616884210526321
2.0715984496124027,2.993422798857609,-9.217638857609138,0.7481331538147702
2.079596899224806,2.995275071399429,-9.212671399428805,0.7345778865769075
2.087595348837209,2.9971273439412482,-9.20770394124847,0.7210226193390455
2.0955937984496122,2.998979616483068,-9.202736483068135,0.7074673521011836
2.1035922480620153,3.03654263565894,-9.264922480620152,1.2001782945735584
2.1115906976744183,2.990446511627908,-9.273744186046512,1.2771023255813962
2.1195891472868214,2.971950096899226,-9.278743217054263,1.2571895187338513
2.1275875968992244,2.9534536821705437,-9.283742248062016,1.2372767118863062
2.135586046511628,2.934957267441861,-9.288741279069768,1.2173639050387601
2.143584496124031,2.916460852713179,-9.293740310077519,1.197451098191215
2.151582945736434,2.8979644379844967,-9.298739341085271,1.17753829134367
2.159581395348837,2.8794680232558147,-9.303738372093024,1.157625484496125
2.16757984496124,2.860971608527133,-9.308737403100775,1.13771267764858
2.175578294573643,2.842475193798451,-9.313736434108527,1.1177998708010348
2.183576744186046,2.823978779069769,-9.31873546511628,1.09788706395349
2.1915751937984496,2.8054823643410858,-9.32373449612403,1.0779742571059436
2.1995736434108526,2.786985949612404,-9.328733527131783,1.0580614502583985
2.2075720930232556,2.6443031089351283,-9.44540259485924,1.181028837209302
2.2155705426356587,2.6545748021215827,-9.440435136678905,1.1842282170542633
2.2235689922480617,2.664846495308037,-9.435467678498572,1.1874275968992247
2.2315674418604647,2.6751181884944915,-9.430500220318237,1.190626976744186
2.2395658914728678,2.685389881680946,-9.425532762137903,1.1938263565891472
2.2475643410852713,2.695661574867401,-9.420565303957568,1.1970257364341084
2.2555627906976743,2.7059332680538555,-9.415597845777233,1.2002251162790698
2.2635612403100773,2.71620496124031,-9.4106303875969,1.203424496124031
2.2715596899224804,2.7264766544267642,-9.405662929416565,1.2066238759689922
2.2795581395348834,2.7367483476132186,-9.40069547123623,1.2098232558139534
2.2875565891472864,2.747020040799673,-9.395728013055896,1.2130226356589147
2.2955550387596895,2.757291733986128,-9.39076055487556,1.2162220155038759
2.303553488372093,2.8219930232558155,-9.231439534883721,1.0532023255813927
2.311551937984496,2.7846205793553653,-9.20179329253366,1.1077241942064464
2.319550387596899,2.7804950632394942,-9.208865605875152,1.109829049367605
2.327548837209302,2.776369547123623,-9.215937919216646,1.1119339045287637
2.335547286821705,2.772244031007752,-9.223010232558138,1.1140387596899224
2.343545736434108,2.768118514891881,-9.230082545899633,1.116143614851081
2.351544186046511,2.76399299877601,-9.237154859241125,1.11824847001224
2.3595426356589146,2.759867482660139,-9.244227172582619,1.1203533251733986
2.3675410852713177,2.7557419665442677,-9.251299485924111,1.1224581803345572
2.3755395348837207,2.7516164504283966,-9.258371799265605,1.124563035495716
2.3835379844961238,2.7474909343125256,-9.2654441126071,1.1266678906568748
2.391536434108527,2.7433654181966545,-9.272516425948591,1.1287727458180334
2.39953488372093,2.7392399020807834,-9.279588739290086,1.130877600979192
2.4075333333333333,2.492400000000004,-9.35693333333333,0.9904111111111139
2.4155317829457363,2.3438361169837916,-9.48830102184637,0.8705350951374208
2.4235302325581394,2.341200264270613,-9.50257098308668,0.8536292811839326
2.4315286821705424,2.338564411557435,-9.51684094432699,0.8367234672304443
2.4395271317829454,2.3359285588442567,-9.5311109055673,0.8198176532769561
2.4475255813953485,2.333292706131078,-9.54538086680761,0.8029118393234679
2.4555240310077515,2.3306568534179,-9.55965082804792,0.7860060253699797
2.463522480620155,2.3280210007047217,-9.57392078928823,0.7691002114164904
2.471520930232558,2.3253851479915433,-9.58819075052854,0.7521943974630023
2.479519379844961,2.322749295278365,-9.60246071176885,0.735288583509514
2.487517829457364,2.320113442565187,-9.61673067300916,0.7183827695560258
2.495516279069767,2.3174775898520084,-9.631000634249471,0.7014769556025375
2.50351472868217,2.0634806201551257,-9.554741085271347,0.5791550387596782
2.511513178294573,1.7608511138310892,-9.471922496940023,0.6431046430028547
2.5195116279069767,1.7631243574051407,-9.495160097919216,0.6714780905752755
2.5275100775193797,1.765397600979192,-9.518397698898408,0.6998515381476946
2.5355085271317828,1.7676708445532434,-9.5416352998776,0.7282249857201137
2.543506976744186,1.769944088127295,-9.564872900856791,0.7565984332925328
2.551505426356589,1.7722173317013463,-9.588110501835983,0.784971880864952
2.559503875968992,1.7744905752753977,-9.611348102815176,0.8133453284373711
2.567502325581395,1.776763818849449,-9.634585703794368,0.8417187760097903
2.5755007751937984,1.7790370624235006,-9.657823304773562,0.8700922235822109
2.5834992248062014,1.781310305997552,-9.681060905752753,0.8984656711546302
2.5914976744186045,1.7835835495716035,-9.704298506731945,0.9268391187270493
2.5994961240310075,1.7858567931456548,-9.727536107711137,0.9552125662994684
2.6074945736434105,1.7550542635658957,-9.9,0.3101085271317916
2.6154930232558136,1.7028425124972828,-9.898625342316889,0.20090867202781992
2.6234914728682166,1.711962240092733,-9.894214982250237,0.2038239947837425
2.63148992248062,1.7210819676881837,-9.889804622183583,0.20673931753966526
2.639488372093023,1.7302016952836339,-9.88539426211693,0.20965464029558786
2.647486821705426,1.7393214228790839,-9.880983902050279,0.21256996305151046
2.655485271317829,1.748441150474534,-9.876573541983626,0.21548528580743304
2.6634837209302322,1.7575608780699843,-9.872163181916974,0.21840060856335564
2.6714821705426353,1.7666806056654345,-9.867752821850322,0.22131593131927824
2.6794806201550383,1.7758003332608847,-9.86334246178367,0.22423125407520084
2.6874790697674418,1.7849200608563354,-9.858932101717018,0.22714657683112358
2.695477519379845,1.7940397884517856,-9.854521741650366,0.23006189958704618
2.703475968992248,1.8031595160472358,-9.850111381583714,0.23297722234296878
2.711474418604651,1.812279243642686,-9.845701021517062,0.23589254509889138
2.719472868217054,1.821398971238136,-9.841290661450408,0.23880786785481395
2.727471317829457,2.1195598966408222,-9.552182098191217,0.5621354005167839
2.73546976744186,2.1958117829457313,-9.510696806201553,0.7567643410852585
2.7434682170542635,2.272063669250645,-9.469211514211887,0.9513932816537438
2.7514666666666665,2.348315555555554,-9.427726222222223,1.1460222222222185
2.7594651162790695,2.4245674418604635,-9.386240930232558,1.3406511627906932
2.7674635658914726,2.5008193281653726,-9.344755638242894,1.5352801033591676
2.7754620155038756,2.5770712144702816,-9.303270346253232,1.729909043927642
2.7834604651162786,2.6533231007751907,-9.261785054263568,1.9245379844961168
2.7914589147286817,2.7295749870801,-9.220299762273903,2.119166925064591
2.799457364341085,2.8058268733850134,-9.178814470284237,2.3137958656330766
2.807455813953488,2.976437209302322,-9.083134883720932,2.558660465116278
2.8154542635658912,3.0235063122923584,-8.997357127036862,2.715247872172124
2.8234527131782943,3.028648172757475,-8.971484591045723,2.7361417813637074
2.8314511627906973,3.033790033222591,-8.945612055054582,2.757035690555291
2.8394496124031003,3.038931893687707,-8.919739519063441,2.7779295997468743
2.8474480620155034,3.0440737541528238,-8.8938669830723,2.7988235089384577
2.855446511627907,3.0492156146179403,-8.86799444708116,2.8197174181300424
2.86344496124031,3.0543574750830564,-8.842121911090018,2.840611327321626
2.871443410852713,3.0594993355481725,-8.816249375098877,2.861505236513209
2.879441860465116,3.064641196013289,-8.790376839107738,2.8823991457047926
2.887440310077519,3.069783056478405,-8.764504303116597,2.903293054896376
2.895438759689922,3.0749249169435213,-8.738631767125456,2.92418696408796
2.903437209302325,3.080066777408638,-8.712759231134315,2.9450808732795433
2.9114356589147286,3.1410302325581356,-8.80496046511628,2.7806837209302286
2.9194341085271316,3.2067192691029898,-8.809127630121816,2.8260849944629016
2.9274325581395346,3.2212878737541524,-8.805556893687708,2.812516196013289
2.9354310077519377,3.2358564784053154,-8.801986157253598,2.798947397563677
2.9434294573643407,3.250425083056478,-8.79841542081949,2.7853785991140647
2.9514279069767437,3.2649936877076406,-8.794844684385382,2.7718098006644523
2.9594263565891468,3.2795622923588033,-8.791273947951273,2.7582410022148403
2.9674248062015502,3.2941308970099668,-8.787703211517165,2.744672203765227
2.9754232558139533,3.3086995016611294,-8.784132475083057,2.731103405315615
2.9834217054263563,3.323268106312292,-8.780561738648949,2.7175346068660025
2.9914201550387594,3.3378367109634546,-8.77699100221484,2.70396580841639
2.9994186046511624,3.352405315614617,-8.77342026578073,2.6903970099667776
3.0074170542635654,3.3669739202657802,-8.769849529346622,2.6768282115171655
3.0154155038759685,3.381542524916943,-8.766278792912514,2.663259413067553
3.023413953488372,3.3961111295681063,-8.762708056478406,2.64969061461794
3.031412403100775,3.4736499224806154,-8.771701085271317,2.7249386046511574
3.039410852713178,3.5832286821705392,-8.785298449612403,2.840116279069764
3.047409302325581,3.6854574239713793,-8.609677996422183,3.222936374478233
3.055407751937984,3.595936314847946,-8.597372689326178,3.3071251838600646
3.063406201550387,3.506415205724512,-8.585067382230173,3.391313993241896
3.0714046511627906,3.416894096601074,-8.572762075134168,3.4755028026237325
3.0794031007751936,3.32737298747764,-8.560456768038163,3.5596916120055644
3.0874015503875967,3.2378518783542063,-8.548151460942158,3.643880421387396
3.0953999999999997,3.148330769230773,-8.535846153846155,3.7280692307692274
3.1033984496124027,3.058809660107339,-8.52354084675015,3.8122580401510593
3.111396899224806,2.9692885509839058,-8.511235539654145,3.8964468495328908
3.119395348837209,2.879767441860472,-8.49893023255814,3.9806356589147223
3.1273937984496123,3.0191469767441865,-8.325838139534884,4.020853023255814
3.1353922480620153,2.982,-8.630152534287417,3.877263923673226
3.1433906976744184,2.982,-8.647379964221825,3.8748028622540254
3.1513891472868214,2.982,-8.664607394156231,3.8723418008348243
3.1593875968992244,2.982,-8.681834824090638,3.869880739415623
3.1673860465116275,2.982,-8.699062254025044,3.8674196779964225
3.1753844961240305,2.982,-8.71628968395945,3.8649586165772214
3.183382945736434,2.982,-8.733517113893859,3.8624975551580203
3.191381395348837,2.982,-8.750744543828265,3.8600364937388196
3.19937984496124,3.0192558139534786,-8.809155038759679,3.820744186046521
3.207378294573643,2.759778666666673,-8.696166418604651,3.853986790697673
3.215376744186046,2.6290840000000073,-8.702645162790699,3.8765424186046498
3.223375193798449,2.498389333333342,-8.709123906976744,3.8990980465116265
3.231373643410852,2.3676946666666763,-8.71560265116279,3.921653674418603
3.2393720930232557,2.2370000000000037,-8.722081395348837,3.944209302325581
3.2473705426356587,2.106305333333338,-8.728560139534885,3.966764930232557
3.2553689922480618,1.9756106666666726,-8.73503888372093,3.989320558139534
3.263367441860465,1.844916000000007,-8.741517627906976,4.011876186046511
3.271365891472868,1.7142213333333418,-8.747996372093024,4.034431813953487
3.279364341085271,1.5835266666666763,-8.75447511627907,4.056987441860463
3.287362790697674,1.4528320000000108,-8.760953860465117,4.07954306976744
3.2953612403100774,1.322137333333338,-8.767432604651162,4.102098697674418
3.3033596899224804,1.1939304540420859,-8.795933997785157,4.188453599114057
3.3113581395348834,1.2102593648412112,-8.718777994498627,4.41755443860965
3.3193565891472865,1.1713851796282417,-8.66915320496791,4.496936900891886
3.3273550387596895,1.132510994415272,-8.619528415437195,4.5763193631741235
3.3353534883720926,1.0936368092023026,-8.569903625906479,4.65570182545636
3.3433519379844956,1.0547626239893328,-8.520278836375764,4.735084287738596
3.351350387596899,1.0158884387763611,-8.470654046845045,4.814466750020838
3.359348837209302,0.9770142535633916,-8.421029257314329,4.893849212303074
3.367347286821705,0.938140068350422,-8.371404467783615,4.9732316745853105
3.375345736434108,0.8992658831374524,-8.321779678252899,5.052614136867547
3.383344186046511,0.8603916979244828,-8.272154888722183,5.131996599149784
3.3913426356589143,0.8215175127115131,-8.222530099191466,5.21137906143202
3.3993410852713173,0.7826433274985436,-8.172905309660752,5.290761523714257
3.4073395348837208,0.7733581395348836,-8.211532816537467,5.160746770025842
3.415337984496124,0.9597596899224761,-8.841362790697657,4.3566465116279
3.423336434108527,1.0689652043692728,-9.02536372445384,4.214586680761102
3.43133488372093,1.1648557082452409,-9.093986786469344,3.969179704016919
3.439333333333333,1.260746212121209,-9.162609848484847,3.7237727272727352
3.447331782945736,1.356636715997177,-9.23123291050035,3.4783657505285515
3.455330232558139,1.4525272198731454,-9.299855972515854,3.2329587737843672
3.4633286821705425,1.5484177237491188,-9.36847903453136,2.98755179704017
3.4713271317829455,1.6443082276250869,-9.437102096546864,2.7421448202959864
3.4793255813953485,1.7401987315010552,-9.505725158562367,2.496737843551802
3.4873240310077516,1.836089235377023,-9.574348220577871,2.2513308668076184
3.4953224806201546,1.9319797392529914,-9.642971282593374,2.0059238900634346
3.5033209302325576,2.0278702431289597,-9.711594344608876,1.7605169133192509
3.5113193798449607,2.1262199335548155,-9.50023197887384,2.1515327711048666
3.519317829457364,2.1639269102990033,-9.501638299684812,2.1002020615043873
3.527316279069767,2.2016338870431893,-9.503044620495784,2.0488713519039106
3.5353147286821702,2.239340863787375,-9.504450941306755,1.997540642303434
3.5433131782945733,2.2770478405315604,-9.505857262117727,1.9462099327029576
3.5513116279069763,2.314754817275746,-9.507263582928699,1.8948792231024811
3.5593100775193793,2.3524617940199315,-9.508669903739671,1.8435485135020047
3.5673085271317824,2.3901687707641175,-9.510076224550643,1.792217803901528
3.575306976744186,2.4278757475083053,-9.511482545361615,1.7408870943010486
3.583305426356589,2.465582724252491,-9.512888866172586,1.6895563847005721
3.591303875968992,2.5032897009966764,-9.51429518698356,1.6382256751000956
3.599302325581395,2.540996677740862,-9.515701507794532,1.5868949654996192
3.607300775193798,2.5360326065891483,-9.585325048449612,0.9345093830749346
3.615299224806201,2.517786143410854,-9.618068701550387,0.9560885335917302
3.623297674418604,2.499539680232559,-9.65081235465116,0.9776676841085259
3.6312961240310075,2.481293217054264,-9.683556007751937,0.9992468346253227
3.6392945736434106,2.4630467538759695,-9.716299660852712,1.0208259851421184
3.6472930232558136,2.444800290697675,-9.749043313953488,1.0424051356589141
3.6552914728682167,2.4265538275193808,-9.781786967054263,1.0639842861757098
3.6632899224806197,2.408307364341086,-9.814530620155038,1.0855634366925053
3.6712883720930227,2.3900609011627916,-9.847274273255813,1.107142587209301
3.6792868217054258,2.371814437984497,-9.880017926356588,1.1287217377260967
3.6872852713178292,2.353567974806202,-9.912761579457364,1.1503008882428936
3.6952837209302323,2.3353215116279076,-9.945505232558139,1.1718800387596893
3.7032821705426353,0.9873472868216543,-8.738474418604627,1.2255581395347728
3.7112806201550383,2.3471102295181643,-9.254350341997256,1.2804947712418329
3.7192790697674414,2.332367989056088,-9.509124487004092,1.202941176470592
3.7272775193798444,2.317625748594012,-9.76389863201093,1.1253875816993508
3.7352759689922475,2.302883508131936,-10.018672777017766,1.04783398692811
3.743274418604651,2.288141267669859,-10.273446922024618,0.9702803921568646
3.751272868217054,2.2733990272077826,-10.528221067031456,0.8927267973856237
3.759271317829457,2.2586567867457066,-10.782995212038292,0.8151732026143828
3.76726976744186,2.2439145462836305,-11.03776935704513,0.7376196078431417
3.775268217054263,2.2291723058215545,-11.292543502051966,0.6600660130719008
3.783266666666666,2.214430065359478,-11.547317647058804,0.5825124183006598
3.7912651162790696,2.199687824897401,-11.802091792065655,0.5049588235294146
3.7992635658914726,2.184945584435325,-12.056865937072493,0.42740522875817355
3.8072620155038757,2.170203343973249,-12.311640082079329,0.34985163398693264
3.8152604651162787,1.6889281183932614,-11.475737420718866,1.000024101479878
3.8232589147286817,0.3051874975154012,-10.522512701252227,2.0760573842178567
3.8312573643410848,0.372764142317627,-10.723704472271903,1.9233690320015984
3.839255813953488,0.44034078711985275,-10.92489624329158,1.7706806797853403
3.8472542635658913,0.5079174319220823,-11.126088014311268,1.6179923275690735
3.8552527131782943,0.5754940767243081,-11.327279785330944,1.4653039753528154
3.8632511627906974,0.6430707215265339,-11.52847155635062,1.312615623136557
3.8712496124031004,0.7106473663287596,-11.729663327370298,1.1599272709202988
3.8792480620155034,0.7782240111309854,-11.930855098389975,1.0072389187040405
3.8872465116279065,0.8458006559332112,-12.13204686940965,0.8545505664877824
3.8952449612403095,0.9133773007354369,-12.333238640429329,0.7018622142715241
3.903243410852713,-0.2254465116277639,-12.074023255814021,1.7785217054262046
3.911241860465116,-1.6857975030599777,-9.288448616891078,2.412552705018365
3.919240310077519,-1.6442897592819283,-9.064828804569578,2.314213871889031
3.927238759689922,-1.602782015503879,-8.84120899224808,2.215875038759697
3.935237209302325,-1.5612742717258297,-8.61758917992658,2.117536205630363
3.943235658914728,-1.5197665279477803,-8.39396936760508,2.019197372501029
3.951234108527131,-1.478258784169731,-8.17034955528358,1.920858539371695
3.9592325581395347,-1.4367510403916792,-7.946729742962069,1.8225197062423555
3.9672310077519377,-1.39524329661363,-7.72310993064057,1.7241808731130215
3.9752294573643407,-1.3537355528355806,-7.499490118319071,1.6258420399836877
3.983227906976744,-1.3122278090575312,-7.275870305997572,1.5275032068543537
3.991226356589147,-1.2707200652794817,-7.052250493676072,1.4291643737250197
3.99922480620155,-1.2292123215014323,-6.828630681354573,1.3308255405956857
4.007223255813953,0.3633451162790958,-6.366049742962074,-0.29996014687879335
4.015221705426356,0.11059410852715917,-6.189831268869868,-0.6070164177886244
4.023220155038759,-0.14215689922477748,-6.013612794777662,-0.9140726886984554
4.031218604651162,-0.3949079069767141,-5.837394320685456,-1.2211289596082864
4.039217054263565,-0.6476589147286508,-5.661175846593249,-1.5281852305181172
4.047215503875969,-0.9004099224806154,-5.484957372501023,-1.8352415014279826
4.055213953488372,-1.153160930232552,-5.3087388984088175,-2.1422977723378134
4.063212403100775,-1.4059119379844884,-5.132520424316611,-2.4493540432476446
4.071210852713178,-1.6586629457364253,-4.956301950224405,-2.7564103141574754
4.079209302325581,-1.9114139534883616,-4.780083476132198,-3.0634665850673066
4.087207751937984,-2.1641649612402984,-4.603865002039992,-3.3705228559771374
4.095206201550387,-2.416915968992235,-4.427646527947786,-3.677579126886968
4.10320465116279,-3.5032325581402026,-3.594395348837114,-0.5274651162783541
4.111203100775193,0.9253792075796848,-5.658453970714914,-7.923203772609835
4.119201550387596,0.6252596037898503,-5.321896985357466,-7.537411886304928
4.127199999999999,0.3251400000000161,-4.985340000000018,-7.151620000000021
4.135198449612402,0.025020396210181595,-4.64878301464257,-6.765828113695114
4.143196899224805,-0.2750992075796528,-4.312226029285121,-6.380036227390207
4.151195348837209,-0.5752188113695205,-3.9756690439276356,-5.994244341085257
4.159193798449612,-0.8753384151593548,-3.6391120585701873,-5.60845245478035
4.167192248062015,-1.1754580189491894,-3.302555073212739,-5.222660568475443
4.175190697674418,-1.4755776227390236,-2.9659980878552905,-4.836868682170536
4.1831891472868215,-1.7756972265288582,-2.629441102497842,-4.451076795865629
4.1911875968992245,-2.0758168303186926,-2.292884117140394,-4.065284909560722
4.1991860465116275,-2.375936434108527,-1.9563271317829458,-3.679493023255815
4.207184496124031,-8.320641109751177,4.740932974296162,-4.1645537005302975
4.215182945736434,-7.81177132598945,5.152390061199464,-5.086648649530701
4.223181395348837,-7.302901542227723,5.5638471481027665,-6.008743598531104
4.23117984496124,-6.794031758465995,5.975304235006069,-6.930838547531507
4.239178294573643,-6.285161974704268,6.386761321909372,-7.85293349653191
4.247176744186046,-5.7762921909425415,6.798218408812675,-8.775028445532314
4.255175193798449,-5.267422407180814,7.209675495715977,-9.697123394532717
4.263173643410853,-4.75855262341903,7.621132582619325,-10.619218343533221
4.271172093023256,-4.249682839657304,8.032589669522627,-11.541313292533625
4.279170542635659,-3.7408130558955763,8.44404675642593,-12.46340824153403
4.287168992248062,-3.231943272133849,8.855503843329233,-13.385503190534433
4.295167441860465,-2.7230734883721217,9.266960930232536,-14.307598139534836
4.303165891472868,0.6672527131775996,9.386418798449654,-11.655356589148052
4.311164341085271,13.287263565879144,7.568524031021577,-20.230110077511966
4.319162790697674,35.62483275606167,-22.316906976744065,-33.76150816427529
4.327161240310077,32.051312666996864,-23.7126364341084,-31.7286256143825
4.33515968992248,28.47779257793205,-25.10836589147274,-29.695743064489715
4.343158139534883,24.904272488867235,-26.50409534883708,-27.662860514596925
4.351156589147286,21.330752399802424,-27.899824806201416,-25.62997796470414
4.359155038759689,17.75723231073761,-29.295554263565755,-23.59709541481135
4.367153488372092,14.183712221672799,-30.691283720930095,-21.56421286491856
4.375151937984496,10.61019213260759,-32.08701317829458,-19.531330315025546
4.383150387596899,7.036672043542776,-33.48274263565892,-17.49844776513276
4.391148837209302,3.463151954477965,-34.87847209302326,-15.46556521523997
4.399147286821705,-0.11036813458684946,-36.2742015503876,-13.43268266534718
4.407145736434108,6.727020155037658,-37.08251782945755,-33.40576899224636
4.415144186046511,1.619459069767443,-11.234318604651163,-25.330620465116272
4.423142635658914,2.118295710594308,-10.90682652885444,-21.28838177433253
4.431141085271317,2.6171323514211733,-10.579334453057719,-17.24614308354879
4.43913953488372,3.1159689922480385,-10.251842377260997,-13.20390439276505
4.447137984496123,3.614805633074904,-9.924350301464276,-9.16166570198131
4.4551364341085264,4.113642273901769,-9.596858225667555,-5.119427011197569
4.4631348837209295,4.6124789147286345,-9.269366149870834,-1.0771883204138284
4.4711333333333325,5.1113155555555,-8.94187407407411,2.9650503703699123
4.4791317829457356,5.610152196382365,-8.61438199827739,7.007289061153653
4.4871302325581395,6.108988837209285,-8.286889922480633,11.049527751937841
4.4951286821705425,6.60782547803615,-7.95939784668391,15.091766442721582
4.5031271317829455,6.949426356588902,-8.69141240310037,2.3567767441869503
4.511125581395349,5.133527441860475,-11.453239069767442,-3.714295813953488
4.519124031007752,2.895716964124752,-11.082998557778982,-3.738582116459348
4.527122480620155,2.724494339282497,-10.183079971155593,-3.51667164232919
4.535120930232558,2.553271714440242,-9.283161384532203,-3.2947611681990323
4.543119379844961,2.382049089597987,-8.383242797908814,-3.0728506940688742
4.551117829457364,2.210826464755732,-7.4833242112854235,-2.8509402199387166
4.559116279069767,2.039603839913477,-6.583405624662034,-2.6290297458085585
4.56711472868217,1.8683812150712218,-5.683487038038644,-2.4071192716784005
4.575113178294573,1.6971585902289668,-4.783568451415254,-2.185208797548243
4.583111627906976,1.5259359653867117,-3.883649864791865,-1.963298323418085
4.591110077519379,1.3547133405444567,-2.9837312781684755,-1.7413878492879271
4.599108527131783,1.1834907157021826,-2.083812691544985,-1.5194773751577446
4.607106976744186,0.5974232558139088,-5.1875395348837525,-5.159432558139528
4.615105426356589,0.4399995618469866,-5.562276491405462,-4.909133350185369
4.623103875968992,0.6989058982136834,-5.683035692618807,-4.687524132119987
4.631102325581395,0.9578122345803801,-5.803794893832152,-4.465914914054604
4.639100775193798,1.216718570947077,-5.924554095045497,-4.244305695989221
4.647099224806201,1.4756249073137737,-6.0453132962588425,-4.022696477923838
4.655097674418604,1.7345312436804705,-6.166072497472188,-3.8010872598584555
4.663096124031007,1.9934375800471673,-6.286831698685533,-3.5794780417930725
4.67109457364341,2.252343916413864,-6.407590899898878,-3.3578688237276895
4.679093023255813,2.511250252780561,-6.528350101112223,-3.136259605662307
4.687091472868216,2.7701565891472577,-6.649109302325568,-2.914650387596924
4.695089922480619,3.0290629255139545,-6.7698685035389135,-2.6930411695315413
4.703088372093022,1.3490950166118674,-7.336374750830412,-3.1905574750828594
4.711086821705426,-0.935274436024738,-6.648298858984411,-1.806563626861774
4.719085271317829,-0.7680259559271877,-6.481230119327589,-1.553129605435072
4.727083720930232,-0.6007774758296374,-6.314161379670766,-1.2996955840083704
4.735082170542635,-0.43352899573208703,-6.147092640013945,-1.0462615625816687
4.743080620155038,-0.2662805156345367,-5.980023900357122,-0.792827541154967
4.751079069767441,-0.09903203553698636,-5.8129551607003,-0.5393935197282653
4.7590775193798445,0.06821644456056397,-5.645886421043477,-0.2859594983015634
4.7670759689922475,0.23546492465811442,-5.478817681386656,-0.032525476874861736
4.7750744186046505,0.40271340475566464,-5.311748941729833,0.22090854455183995
4.783072868217054,0.5699618848532151,-5.144680202073011,0.47434256597854163
4.791071317829457,0.7372103649507653,-4.9776114624161885,0.7277765874052433
4.79906976744186,1.1748604651116914,-4.745953488373208,1.2589302325534155
4.807068217054263,6.4787318996415575,0.5954906893389826,-0.86773258314584
4.815066666666667,6.64145304659498,0.7564057347670229,-0.4089827956989309
4.82306511627907,6.804174193548383,0.9173207801950454,0.049766991747927314
4.831063565891473,6.966895340501788,1.0782358256230677,0.5085167791947856
4.839062015503876,7.129616487455191,1.2391508710510901,0.9672665666416438
4.847060465116279,7.292337634408595,1.4000659164791125,1.426016354088502
4.855058914728682,7.455058781361998,1.560980961907135,1.88476614153536
4.863057364341085,7.617779928315402,1.7218960073351575,2.3435159289822183
4.871055813953488,7.780501075268806,1.8828110527631798,2.8022657164290763
4.879054263565891,7.94322222222221,2.043726098191202,3.2610155038759343
4.887052713178294,8.105943369175614,2.2046411436192246,3.7197652913227923
4.895051162790697,8.268664516129018,2.365556189047247,4.178515078769651
4.9030496124031,5.328108527131646,-0.4820263565893652,1.709316279070457
4.911048062015503,6.399188372092919,1.0103922480618797,1.227524547803433
4.919046511627906,6.830552535724324,1.655382460072855,2.2550277388623723
4.92704496124031,6.627218455216223,1.6196303539740373,2.6016593443541454
4.935043410852713,6.423884374708144,1.5838782478752234,2.94829094984588
4.943041860465116,6.2205502942000654,1.5481261417764096,3.2949225553376142
4.951040310077519,6.017216213691986,1.5123740356775957,3.6415541608293487
4.959038759689922,5.813882133183908,1.476621929578782,3.988185766321083
4.967037209302325,5.610548052675829,1.440869823479968,4.334817371812818
4.975035658914728,5.4072139721677495,1.4051177173811542,4.681448977304552
4.983034108527131,5.20387989165967,1.3693656112823402,5.028080582796287
4.991032558139534,5.000545811151592,1.3336135051835263,5.37471218828802
4.999031007751937,4.953245478034498,1.406733850128024,5.719007751937995
5.00702945736434,8.632564614683224,21.25817619699052,14.902907067943437
5.015027906976743,7.448205950752539,20.451509028727866,15.065346169630622
5.023026356589146,6.263847286821853,19.644841860465217,15.22778527131781
5.0310248062015495,5.0794886228911675,18.838174692202564,15.390224373004996
5.039023255813953,3.89512995896035,18.031507523939823,15.552663474692201
5.047021705426356,2.710771295029664,17.22484035567717,15.715102576379387
5.0550201550387595,1.526412631098978,16.418173187414517,15.877541678066573
5.0630186046511625,0.34205396716829206,15.611506019151868,16.03998077975376
5.0710170542635655,-0.8423046967623922,14.804838850889215,16.202419881440946
5.079015503875969,4.949206718346316,4.429007751938093,0.843555555555636
5.087013953488372,2.6965411387329628,0.5337580326116097,-2.013055012028873
5.095012403100775,2.631174498797117,0.381879426178393,-1.9457577118417575
5.103010852713178,2.5658078588612714,0.23000081974517628,-1.8784604116546422
5.111009302325581,2.5004412189254257,0.07812221331195951,-1.8111631114675268
5.119007751937984,2.43507457898958,-0.07375639312125726,-1.7438658112804115
5.127006201550387,2.3697079390537343,-0.22563499955447397,-1.6765685110932962
5.13500465116279,2.3043412991178887,-0.3775136059876907,-1.6092712109061806
5.143003100775193,2.238974659182043,-0.5293922124209075,-1.5419739107190653
5.151001550387597,2.17360801924619,-0.6812708188541411,-1.4746766105319424
5.159,2.108241379310344,-0.8331494252873578,-1.407379310344827
5.166998449612403,2.0428747393744984,-0.9850280317205745,-1.3400820101577118
5.174996899224806,4.532048923341825,-2.0190284237725646,-1.2653670973298896
5.182995348837209,14.125357027300304,-3.7279167846309536,-0.8468922143579589
5.190993798449612,14.128226036400404,-3.590639046174601,-0.6210229524772723
5.198992248062015,14.131095045500505,-3.4533613077182483,-0.3951536905965857
5.206990697674418,14.133964054600606,-3.3160835692618957,-0.1692844287158991
5.214989147286821,14.136833063700708,-3.178805830805543,0.05658483316478746
5.222987596899224,14.139702072800809,-3.04152809234919,0.28245409504547414
5.230986046511627,14.14257108190091,-2.904250353892838,0.5083233569261607
5.23898449612403,14.14544009100101,-2.766972615436485,0.7341926188068473
5.246982945736433,14.14830910010111,-2.6296948769801323,0.9600618806875338
5.254981395348836,14.151178109201213,-2.4924171385237797,1.1859311425682204
5.26297984496124,14.154047118301314,-2.3551394000674115,1.411800404448932
5.270978294573643,14.156916127401415,-2.2178616616110594,1.6376696663296189
5.278976744186046,6.266178294573935,-2.656596899224753,1.7840155038758863
5.286975193798449,6.935209612403093,-2.0871910077519447,2.6409655813953394
5.294973643410852,7.212854163540883,-1.9365037092606487,2.836537484371093
5.302972093023255,7.345215603900972,-1.930483370842711,2.8104780195048766
5.310970542635658,7.477577044261062,-1.9244630324247731,2.7844185546386604
5.318968992248061,7.609938484621151,-1.9184426940068353,2.758359089772444
5.3269674418604644,7.742299924981239,-1.9124223555888975,2.7322996249062275
5.3349658914728675,7.874661365341328,-1.9064020171709597,2.7062401600400112
5.3429643410852705,8.007022805701418,-1.9003816787530219,2.680180695173795
5.3509627906976736,8.139384246061507,-1.8943613403350843,2.6541212303075787
5.358961240310077,8.271745686421596,-1.8883410019171465,2.628061765441362
5.36695968992248,8.404107126781685,-1.8823206634992087,2.602002300575146
5.3749581395348835,8.536468567141789,-1.8763003250812702,2.5759428357089265
5.382956589147287,9.688029457364093,-1.0827705426358474,2.5357813953488413
5.39095503875969,9.82169422355589,0.6821870467616907,2.3532170209218974
5.398953488372093,9.761318829707427,0.6718664666166545,2.3375641410352594
5.406951937984496,9.700943435858967,0.6615458864716184,2.321911261148621
5.414950387596899,9.640568042010505,0.6512253063265822,2.306258381261983
5.422948837209302,9.580192648162043,0.6409047261815459,2.2906055013753446
5.430947286821705,9.519817254313582,0.6305841460365098,2.2749526214887066
5.438945736434108,9.45944186046512,0.6202635658914736,2.259299741602068
5.446944186046511,9.399066466616658,0.6099429857464375,2.24364686171543
5.454942635658914,9.338691072768198,0.5996224056014012,2.227993981828792
5.462941085271317,9.278315678919736,0.589301825456365,2.2123411019421537
5.47093953488372,9.217940285071274,0.5789812453113289,2.1966882220555157
5.478937984496124,9.157564891222805,0.5686606651662915,2.1810353421688755
5.486936434108527,9.209743410852703,1.616986046511574,2.576865891472841
5.49493488372093,9.361101997264024,1.6788213953488378,2.8485271682626507
5.502933333333333,9.296549803921572,1.6516266666666675,3.035220392156858
5.510931782945736,9.231997610579118,1.6244319379844971,3.2219136160510655
5.518930232558139,9.167445417236666,1.5972372093023266,3.408606839945273
5.526928682170542,9.102893223894213,1.5700424806201563,3.5953000638394803
5.534927131782945,9.03834103055176,1.542847751937986,3.7819932877336875
5.542925581395348,8.973788837209307,1.5156530232558156,3.968686511627895
5.550924031007751,8.909236643866855,1.4884582945736453,4.155379735522103
5.558922480620154,8.8446844505244,1.461263565891475,4.34207295941631
5.566920930232557,8.780132257181949,1.4340688372093047,4.528766183310517
5.57491937984496,8.805284496123972,1.370926356589175,4.571722480620242
5.582917829457363,8.639325962422811,1.268586007094995,4.230317382735515
5.590916279069767,8.63234426487978,1.2626888450926295,4.227470476941269
5.59891472868217,8.625362567336749,1.2567916830902646,4.224623571147024
5.606913178294573,8.61838086979372,1.2508945210878994,4.221776665352779
5.614911627906976,8.61139917225069,1.2449973590855345,4.2189297595585336
5.622910077519379,8.604417474707661,1.2391001970831697,4.216082853764289
5.6309085271317825,8.59743577716463,1.2332030350808045,4.213235947970044
5.6389069767441855,8.590454079621601,1.2273058730784396,4.210389042175798
5.6469054263565885,8.583472382078572,1.2214087110760747,4.207542136381553
5.654903875968992,8.57649068453554,1.2155115490737096,4.204695230587308
5.662902325581395,8.569508986992512,1.2096143870713447,4.201848324793063
5.670900775193798,8.562527289449482,1.2037172250689798,4.199001418998818
5.678899224806201,8.555545591906451,1.1978200630666147,4.196154513204573
5.686897674418604,8.548563894363422,1.1919229010642498,4.193307607410327
5.694896124031007,8.541582196820393,1.186025739061885,4.190460701616082
5.702894573643411,8.496457881136953,1.1959819121447024,4.108512144702846
5.710893023255814,8.65186215644819,1.2946097251585567,4.0751788583509505
5.718891472868217,8.804302979359298,1.374343700382927,4.0823352012701974
5.72688992248062,8.789077015036892,1.3774274399925281,4.067398337536192
5.734888372093023,8.773851050714486,1.3805111796021294,4.052461473802186
5.742886821705426,8.75862508639208,1.3835949192117305,4.03752461006818
5.750885271317829,8.743399122069675,1.3866786588213316,4.022587746334175
5.758883720930232,8.72817315774727,1.3897623984309329,4.007650882600169
5.766882170542635,8.712947193424863,1.392846138040534,3.9927140188661636
5.774880620155038,8.697721229102457,1.395929877650135,3.977777155132158
5.782879069767441,8.682495264780052,1.3990136172597363,3.962840291398152
5.790877519379844,8.667269300457646,1.4020973568693373,3.9479034276641465
5.798875968992247,8.65204333613524,1.4051810964789384,3.932966563930141
5.80687441860465,8.61300852713176,1.482524806201558,4.166434108527086
5.814872868217054,8.673102904847092,1.2350726808075643,4.448303893006218
5.822871317829457,8.67354238010052,1.209758906210069,4.436789641366385
5.83086976744186,8.673981855353949,1.184445131612574,4.425275389726552
5.838868217054263,8.674421330607377,1.1591313570150785,4.41376113808672
5.846866666666666,8.674860805860806,1.1338175824175833,4.402246886446886
5.854865116279069,8.675300281114234,1.108503807820088,4.390732634807054
5.862863565891472,8.675739756367664,1.0831900332225928,4.379218383167221
5.870862015503875,8.676179231621093,1.0578762586250974,4.367704131527388
5.878860465116278,8.676618706874521,1.0325624840276022,4.356189879887555
5.886858914728681,8.67705818212795,1.0072487094301068,4.344675628247723
5.894857364341084,8.677497657381378,0.9819349348326116,4.333161376607889
5.9028558139534875,8.677937132634808,0.9566211602351162,4.321647124968057
5.9108542635658905,8.395163173939551,0.9899004964724303,4.23023036320878
5.9188527131782935,8.39669096768574,1.007694800104518,4.232387248497518
5.9268511627906975,8.39821876143193,1.0254891037366076,4.2345441337862555
5.9348496124031005,8.39974655517812,1.0432834073686954,4.236701019074993
5.9428480620155035,8.401274348924309,1.0610777110007832,4.238857904363732
5.950846511627907,8.402802142670499,1.078872014632871,4.2410147896524695
5.95884496124031,8.404329936416689,1.0966663182649588,4.243171674941207
5.966843410852713,8.405857730162879,1.1144606218970463,4.245328560229945
5.974841860465116,8.407385523909067,1.132254925529134,4.247485445518683
5.982840310077519,8.408913317655257,1.1500492291612219,4.24964233080742
5.990838759689922,8.410441111401447,1.1678435327933097,4.251799216096158
5.998837209302325,8.411968905147637,1.1856378364253974,4.2539561013848965
6.006835658914728,8.670605376876134,1.9541562262906151,4.407144812798945
6.014834108527131,8.673243163450437,1.9548369454065644,4.399061273297049
6.022832558139534,8.67588095002474,1.9555176645225134,4.390977733795152
6.030831007751937,8.678518736599043,1.9561983836384627,4.382894194293255
6.038829457364341,8.681156523173346,1.956879102754412,4.374810654791357
6.046827906976744,8.68379430974765,1.9575598218703611,4.366727115289461
6.054826356589147,8.686432096321953,1.9582405409863104,4.358643575787564
6.06282480620155,8.689069882896256,1.9589212601022594,4.350560036285668
6.070823255813953,8.69170766947056,1.9596019792182087,4.342476496783771
6.078821705426356,8.694345456044863,1.960282698334158,4.3343929572818745
6.086820155038759,8.696983242619165,1.9609634174501072,4.326309417779978
6.094818604651162,8.69962102919347,1.9616441365660564,4.318225878278081
6.102817054263565,8.699958985200846,1.827709090909126,4.264725299506708
6.110815503875968,8.691068217054273,1.494265116279174,4.162213953488385
6.118813953488371,8.656713543091657,1.1694659370725051,4.121941723666211
6.126812403100774,8.64626850889193,1.1519634473324232,4.116860355677155
6.134810852713177,8.635823474692204,1.1344609575923412,4.111778987688099
6.142809302325581,8.625378440492476,1.1169584678522573,4.106697619699043
6.150807751937984,8.61493340629275,1.0994559781121753,4.101616251709986
6.158806201550387,8.604488372093023,1.0819534883720934,4.09653488372093
6.16680465116279,8.594043337893297,1.0644509986320114,4.0914535157318745
6.174803100775193,8.58359830369357,1.0469485088919295,4.086372147742818
6.182801550387596,8.573153269493844,1.0294460191518475,4.081290779753762
6.190799999999999,8.562708235294117,1.0119435294117656,4.076209411764706
6.1987984496124025,8.55226320109439,0.9944410396716837,4.07112804377565
6.2067968992248055,8.39060418604652,0.8575542635658984,4.0055060465116314
6.2147953488372085,8.545544943212548,1.28814326663061,4.2048354786371
6.222793798449612,8.544242870019831,1.3057212547322863,4.215810095547141
6.230792248062015,8.542940796827114,1.3232992428339627,4.2267847124571825
6.238790697674418,8.541638723634396,1.3408772309356392,4.237759329367224
6.246789147286821,8.540336650441679,1.3584552190373156,4.248733946277265
6.254787596899225,8.539034577248962,1.3760332071389938,4.259708563187308
6.262786046511628,8.537732504056246,1.3936111952406702,4.2706831800973495
6.270784496124031,8.536430430863529,1.4111891833423467,4.281657797007391
6.278782945736434,8.535128357670812,1.428767171444023,4.292632413917432
6.286781395348837,8.533826284478096,1.4463451595456993,4.303607030827473
6.29477984496124,8.532524211285379,1.4639231476473757,4.314581647737515
6.302778294573643,8.590534108527125,1.6949825581395044,4.421733333333319
6.310776744186046,8.67,1.954,4.409
6.318775193798449,8.67,1.954,4.409
6.326773643410852,8.67,1.954,4.409
6.334772093023255,8.67,1.954,4.409
6.342770542635658,8.67,1.954,4.409
6.350768992248061,8.67,1.954,4.409
6.358767441860464,8.67,1.954,4.409
6.366765891472868,8.67,1.954,4.409
6.374764341085271,8.67,1.954,4.409
6.382762790697674,8.67,1.954,4.409
6.390761240310077,8.67,1.954,4.409
6.39875968992248,8.67,1.954,4.409
6.406758139534883,8.690241860465118,1.6362000000001136,4.218781395348879
6.414756589147286,8.57150019379845,1.2807841085271334,4.103373966408269
6.422755038759689,8.56225198643411,1.2652871124031024,4.0989581556847545
6.430753488372092,8.553003779069769,1.2497901162790717,4.094542344961241
6.438751937984495,8.543755571705427,1.2342931201550407,4.090126534237727
6.446750387596898,8.534507364341087,1.21879612403101,4.085710723514213
6.454748837209301,8.525259156976745,1.203299127906979,4.081294912790698
6.462747286821704,8.516010949612404,1.1878021317829481,4.076879102067184
6.470745736434107,8.506762742248062,1.1723051356589174,4.07246329134367
6.478744186046511,8.49751453488372,1.1568081395348846,4.068047480620155
6.486742635658914,8.48826632751938,1.1413111434108538,4.063631669896641
6.494741085271317,8.47901812015504,1.125814147286823,4.059215859173127
6.5027395348837205,8.469769912790698,1.110317151162792,4.0548000484496125
6.5107379844961235,8.461735813953489,1.0570939534883785,4.047314418604652
6.5187364341085265,8.480715762273896,1.2759069767441162,4.072925064599475
6.52673488372093,8.56432343470483,1.4944842576028607,4.226691055456171
6.534733333333333,8.566169230769232,1.5146854700854684,4.229049572649572
6.542731782945736,8.568015026833631,1.534886682568076,4.231408089842973
6.550730232558139,8.569860822898033,1.5550878950506837,4.233766607036374
6.558728682170542,8.571706618962432,1.575289107533291,4.236125124229775
6.566727131782945,8.573552415026834,1.5954903200158987,4.238483641423176
6.574725581395348,8.575398211091233,1.6156915324985064,4.2408421586165765
6.582724031007751,8.577244007155635,1.635892744981114,4.243200675809978
6.590722480620155,8.579089803220036,1.656093957463724,4.245559193003379
6.598720930232558,8.580935599284436,1.6762951699463313,4.24791771019678
6.606719379844961,8.666211627906968,1.9456749354004987,4.402031266149855
6.614717829457364,8.56823153249851,1.8502863446630904,4.356531973762673
6.622716279069767,8.56995427549195,1.8269062611806817,4.341888658318427
6.63071472868217,8.57167701848539,1.803526177698273,4.327245342874181
6.638713178294573,8.57339976147883,1.7801460942158642,4.312602027429936
6.646711627906976,8.575122504472272,1.7567660107334553,4.29795871198569
6.654710077519379,8.576845247465712,1.7333859272510468,4.283315396541445
6.662708527131782,8.578567990459153,1.7100058437686378,4.2686720810972
6.670706976744185,8.580290733452593,1.6866257602862291,4.254028765652954
6.678705426356588,8.560276485788119,1.444532299741664,4.220767441860472
6.686703875968991,8.474,1.203,4.065
6.694702325581394,8.474,1.203,4.065
6.702700775193798,8.474,1.203,4.065
6.710699224806201,8.474,1.203,4.065
6.718697674418604,8.474,1.203,4.065
6.726696124031007,8.474,1.203,4.065
6.73469457364341,8.474,1.203,4.065
6.742693023255813,8.474,1.203,4.065
6.750691472868216,8.474,1.203,4.065
6.758689922480619,8.474,1.203,4.065
6.766688372093022,8.474,1.203,4.065
6.7746868217054255,8.474,1.203,4.065
6.7826852713178285,8.474,1.203,4.065
6.7906837209302315,8.474,1.203,4.065
6.798682170542635,8.495657945736424,1.2212936046511542,4.073621124031004
6.806680620155038,8.587924031007745,1.4147860465115496,4.121125581395339
6.8146790697674415,8.60164196157735,1.5925556117290187,4.1485432760364
6.822677519379845,8.59972928884395,1.6003801820020218,4.157758881024604
6.830675968992248,8.59781661611055,1.6082047522750247,4.1669744860128075
6.838674418604651,8.595903943377149,1.6160293225480278,4.17619009100101
6.846672868217054,8.593991270643748,1.6238538928210307,4.185405695989214
6.854671317829457,8.592078597910348,1.6316784630940337,4.194621300977418
6.86266976744186,8.590165925176946,1.6395030333670368,4.2038369059656215
6.870668217054263,8.588253252443545,1.6473276036400397,4.213052510953825
6.878666666666666,8.586340579710145,1.6551521739130428,4.222268115942028
6.886665116279069,8.584427906976744,1.6629767441860457,4.231483720930232
6.894663565891472,8.582515234243344,1.6708013144590488,4.240699325918436
6.902662015503875,8.594296124031,1.6915888027562367,4.273299569336765
6.910660465116278,8.653,1.756,4.385
6.918658914728682,8.573898757821985,1.5777801438311385,4.237599607733259
6.926657364341085,8.583053609787989,1.5767201083403382,4.2404906136172595
6.934655813953488,8.592208461753991,1.5756600728495378,4.243381619501261
6.942654263565891,8.601363313719995,1.5746000373587374,4.246272625385262
6.950652713178294,8.610518165685999,1.5735400018679369,4.249163631269263
6.958651162790697,8.619673017652003,1.5724799663771365,4.252054637153265
6.9666496124031,8.628827869618005,1.5714199308863361,4.254945643037265
6.974648062015503,8.63798272158401,1.5703598953955358,4.257836648921266
6.982646511627906,8.647137573550014,1.5692998599047352,4.260727654805268
6.990644961240309,8.656292425516016,1.5682398244139348,4.263618660689269
6.998643410852712,8.66544727748202,1.5671797889231345,4.26650966657327
7.006641860465115,8.455724418604643,1.1982837209302304,4.120416279069793
7.014640310077518,8.478562947478443,1.208006567372179,4.073618900792612
7.022638759689921,8.485033603344656,1.2151063147809413,4.085841250762127
7.030637209302325,8.49150425921087,1.2222060621897044,4.098063600731643
7.038635658914728,8.497974915077084,1.2293058095984666,4.110285950701158
7.046634108527131,8.504445570943297,1.2364055570072288,4.122508300670672
7.054632558139534,8.510916226809512,1.2435053044159912,4.134730650640187
7.062631007751937,8.517386882675725,1.2506050518247533,4.146953000609702
7.0706294573643405,8.523857538541938,1.2577047992335157,4.159175350579217
7.0786279069767435,8.53032819440815,1.264804546642278,4.171397700548732
7.0866263565891465,8.536798850274366,1.2719042940510403,4.183620050518246
7.09462480620155,8.543269506140579,1.2790040414598025,4.195842400487761
7.102623255813953,8.662955038759689,1.5257116279069627,4.2617038759689905
7.110621705426356,8.649863565891485,1.6587023255813989,4.355031007751902
7.118620155038759,8.635080954897816,1.6494664376321362,4.36936310782241
7.126618604651162,8.62571913319239,1.6415588794926013,4.365545665961946
7.134617054263565,8.616357311486963,1.6336513213530666,4.361728224101481
7.142615503875969,8.606995489781538,1.6257437632135308,4.3579107822410155
7.150613953488372,8.59763366807611,1.617836205073996,4.35409334038055
7.158612403100775,8.588271846370684,1.6099286469344611,4.350275898520085
7.166610852713178,8.578910024665259,1.6020210887949264,4.34645845665962
7.174609302325581,8.569548202959831,1.5941135306553915,4.342641014799155
7.182607751937984,8.560186381254406,1.5862059725158568,4.33882357293869
7.190606201550387,8.55082455954898,1.578298414376322,4.335006131078225
7.19860465116279,8.541462737843553,1.5703908562367872,4.331188689217759
7.206603100775193,8.67266914728681,1.5662762790697689,4.268809302325578
7.214601550387596,8.7478545736434,1.556678139534885,4.292804651162787
7.222599999999999,8.744619277108436,1.541163855421689,4.290320481927711
7.230598449612402,8.72476770337163,1.524396021294483,4.282225665452509
7.238596899224805,8.704916129634821,1.5076281871672765,4.274130848977306
7.246595348837208,8.685064555898014,1.4908603530400701,4.266036032502103
7.254593798449612,8.665212982161204,1.474092518912862,4.257941216026899
7.262592248062015,8.645361408424396,1.4573246847856558,4.2498463995516955
7.270590697674418,8.62550983468759,1.4405568506584494,4.241751583076493
7.278589147286821,8.605658260950781,1.423789016531243,4.23365676660129
7.286587596899224,8.585806687213974,1.4070211824040368,4.225561950126087
7.294586046511627,8.565955113477166,1.3902533482768304,4.217467133650883
7.30258449612403,8.506401033591699,1.3399503875968715,4.193182945736421
7.310582945736433,8.658,1.468,4.255
7.318581395348836,8.658,1.468,4.255
7.326579844961239,8.658,1.468,4.255
7.334578294573642,8.658,1.468,4.255
7.3425767441860454,8.658,1.468,4.255
7.3505751937984485,8.658,1.468,4.255
7.3585736434108515,8.658,1.468,4.255
7.366572093023255,8.658,1.468,4.255
7.3745705426356585,8.660567441860463,1.4962418604651018,4.258423255813952
7.3825689922480615,8.667,1.567,4.267
7.3905674418604645,8.667,1.567,4.267
7.398565891472868,8.667,1.567,4.267
7.406564341085271,8.667,1.567,4.267
7.414562790697674,8.667,1.567,4.267
7.422561240310077,8.667,1.567,4.267
7.43055968992248,8.667,1.567,4.267
7.438558139534883,8.667,1.567,4.267
7.446556589147286,8.667,1.567,4.267
7.454555038759689,8.667,1.567,4.267
7.462553488372092,8.667,1.567,4.267
7.470551937984495,8.667,1.567,4.267
7.478550387596899,8.654250480620155,1.4648329302325585,4.253471069767442
7.486548837209302,8.647659758139534,1.459266009302326,4.250783590697675
7.494547286821705,8.641069035658916,1.4536990883720935,4.248096111627907
7.502545736434108,8.634478313178295,1.448132167441861,4.2454086325581395
7.510544186046511,8.627887590697675,1.4425652465116285,4.242721153488373
7.518542635658914,8.621296868217055,1.436998325581396,4.240033674418605
7.526541085271317,8.614706145736434,1.4314314046511634,4.237346195348837
7.53453953488372,8.608115423255814,1.4258644837209309,4.23465871627907
7.542537984496123,8.601524700775194,1.4202975627906984,4.231971237209303
7.550536434108526,8.594933978294574,1.414730641860466,4.229283758139536
7.558534883720929,8.588343255813955,1.4091637209302335,4.226596279069768
7.566533333333332,8.581752533333335,1.403596800000001,4.2239088
7.574531782945735,8.575161810852714,1.3980298790697685,4.221221320930233
7.582530232558139,8.568571088372094,1.3924629581395354,4.218533841860466
7.590528682170542,8.561980365891474,1.3868960372093027,4.215846362790698
7.598527131782945,8.555389643410853,1.3813291162790702,4.21315888372093
7.606525581395348,8.649920930232529,1.5482604651162473,4.2345023255813405
7.614524031007751,8.718284804534468,1.5413700425106278,4.3793549554055184
7.622522480620154,8.70392199716596,1.535693723430858,4.365078152871551
7.630520930232557,8.68955918979745,1.5300174043510881,4.350801350337585
7.63851937984496,8.675196382428942,1.5243410852713182,4.336524547803618
7.6465178294573635,8.660833575060433,1.5186647661915482,4.322247745269651
7.6545162790697665,8.646470767691925,1.5129884471117783,4.307970942735685
7.6625147286821695,8.632107960323415,1.5073121280320085,4.293694140201718
7.670513178294573,8.617745152954907,1.5016358089522386,4.279417337667751
7.678511627906976,8.603382345586398,1.4959594898724686,4.265140535133785
7.686510077519379,8.58901953821789,1.4902831707926987,4.250863732599818
7.694508527131783,8.57465673084938,1.4846068517129283,4.236586930065849
7.702506976744186,8.563,1.48,4.225
7.710505426356589,8.646403765227024,1.5612073089701006,4.327501439645617
7.718503875968992,8.571834940442427,1.576202684817546,4.236779920589903
7.726502325581395,8.570957061826432,1.5666435621100403,4.235609415768576
7.734500775193798,8.570079183210437,1.5570844394025343,4.234438910947249
7.742499224806201,8.569201304594442,1.5475253166950282,4.233268406125922
7.750497674418604,8.568323425978445,1.5379661939875222,4.232097901304594
7.758496124031007,8.56744554736245,1.5284070712800162,4.230927396483267
7.76649457364341,8.566567668746455,1.5188479485725102,4.22975689166194
7.774493023255813,8.56568979013046,1.5092888258650043,4.228586386840613
7.782491472868216,8.564811911514465,1.4997297031574983,4.227415882019285
7.790489922480619,8.56393403289847,1.4901705804499923,4.226245377197958
7.798488372093022,8.563056154282474,1.4806114577424863,4.225074872376631
7.806486821705426,8.653476279069766,1.4182390697674296,4.248968372093022
7.814485271317829,8.652456374731981,1.468700247402276,4.25324938149431
7.822483720930232,8.644372835230085,1.4697213260761999,4.2506966848095
7.830482170542635,8.636289295728188,1.4707424047501236,4.248143988124691
7.838480620155038,8.628205756226292,1.4717634834240474,4.245591291439881
7.846479069767441,8.620122216724395,1.4727845620979712,4.243038594755072
7.854477519379844,8.612038677222499,1.473805640771895,4.240485898070262
7.862475968992247,8.603955137720602,1.474826719445819,4.237933201385453
7.87047441860465,8.595871598218704,1.4758477981197426,4.235380504700643
7.878472868217053,8.587788058716807,1.4768688767936664,4.232827808015833
7.886471317829456,8.57970451921491,1.4778899554675902,4.230275111331024
7.894469767441859,8.571620979713014,1.478911034141514,4.227722414646214
7.902468217054262,8.563537440211118,1.4799321128154377,4.225169717961405
7.910466666666665,8.574492907801416,1.5777113475177307,4.237787234042552
7.918465116279069,8.582576447303314,1.5767753587333004,4.240339930727362
7.926463565891472,8.59065998680521,1.5758393699488704,4.242892627412172
7.934462015503875,8.598743526307107,1.5749033811644402,4.245445324096981
7.9424604651162785,8.606827065809004,1.5739673923800102,4.247998020781791
7.9504589147286815,8.6149106053109,1.57303140359558,4.2505507174666
7.9584573643410845,8.622994144812797,1.5720954148111497,4.25310341415141
7.966455813953488,8.631077684314693,1.5711594260267197,4.255656110836219
7.974454263565891,8.63916122381659,1.5702234372422894,4.258208807521029
7.982452713178294,8.647244763318488,1.5692874484578594,4.260761504205838
7.990451162790697,8.655328302820385,1.5683514596734291,4.263314200890648
7.9984496124031,8.663411842322281,1.567415470888999,4.2658668975754575
8.006448062015503,8.66674796511628,1.5642276162790782,4.266663953488373
8.014446511627906,8.662248837209303,1.5147372093023344,4.260665116279071
8.022444961240309,8.657451021846372,1.4680693446088793,4.254826638477802
8.030443410852712,8.647582804792108,1.4693158562367863,4.251710359408034
8.038441860465115,8.637714587737845,1.470562367864693,4.2485940803382665
8.046440310077518,8.627846370683582,1.4718088794926,4.2454778012685
8.054438759689921,8.617978153629318,1.473055391120507,4.242361522198732
8.062437209302324,8.608109936575055,1.474301902748414,4.2392452431289644
8.070435658914727,8.598241719520791,1.4755484143763211,4.236128964059197
8.07843410852713,8.588373502466528,1.476794926004228,4.23301268498943
8.086432558139535,8.578505285412263,1.4780414376321354,4.2298964059196615
8.094431007751938,8.568637068357999,1.4792879492600421,4.226780126849894
8.102429457364341,8.665711627906978,1.5528279069767594,4.265282170542638
8.110427906976744,8.652115006119951,1.4630291799265611,4.25260029375765
8.118426356589147,8.643443002855978,1.4557042839657288,4.249064137086903
8.12642480620155,8.634770999592003,1.4483793880048963,4.245527980416157
8.134423255813953,8.626098996328029,1.441054492044064,4.24199182374541
8.142421705426356,8.617426993064056,1.4337295960832317,4.238455667074663
8.15042015503876,8.608754989800081,1.4264047001223994,4.234919510403917
8.158418604651162,8.600082986536108,1.419079804161567,4.23138335373317
8.166417054263565,8.591410983272134,1.4117549082007348,4.227847197062424
8.174415503875968,8.582738980008159,1.4044300122399023,4.224311040391677
8.182413953488371,8.574066976744186,1.39710511627907,4.220774883720931
8.190412403100774,8.565394973480212,1.3897802203182377,4.217238727050184
8.198410852713177,8.556722970216239,1.3824553243574054,4.2137025703794375
8.20640930232558,8.698047455342097,1.5755872598584422,4.172071183013144
8.214407751937983,8.698974811818896,1.5870632962588462,4.1734622177283445
8.222406201550386,8.699902168295697,1.5985393326592505,4.174853252443546
8.23040465116279,8.700829524772498,1.6100153690596548,4.176244287158746
8.238403100775193,8.701756881249297,1.6214914054600589,4.177635321873947
8.246401550387596,8.702684237726098,1.6329674418604632,4.179026356589147
8.254399999999999,8.703611594202899,1.6444434782608675,4.180417391304347
8.262398449612402,8.704538950679698,1.6559195146612715,4.181808426019548
8.270396899224805,8.705466307156499,1.6673955510616758,4.183199460734749
8.278395348837208,8.578062015503845,1.5492713178296065,4.250310077519311
8.28639379844961,8.61753097404786,1.3541958038422672,4.33729646107179
8.294392248062014,8.61683545669026,1.3455887765419638,4.33625318503539
8.302390697674419,8.61613993933266,1.3369817492416587,4.335209908998989
8.310389147286822,8.61544442197506,1.328374721941355,4.334166632962589
8.318387596899225,8.614748904617459,1.3197676946410517,4.333123356926188
8.326386046511628,8.614053387259858,1.3111606673407483,4.332080080889788
8.33438449612403,8.613357869902257,1.302553640040445,4.331036804853387
8.342382945736434,8.612662352544657,1.2939466127401416,4.329993528816987
8.350381395348837,8.611966835187058,1.2853395854398382,4.3289502527805865
8.35837984496124,8.611271317829457,1.2767325581395348,4.327906976744186
8.366378294573643,8.610575800471857,1.2681255308392314,4.3268637007077855
8.374376744186046,8.565944186046522,1.2754558139534846,4.239953488372115
8.382375193798449,8.553375193798448,1.3631271317829357,4.210833591731265
8.390373643410852,8.562931645133505,1.3941721963824267,4.216824186046511
8.398372093023255,8.572885271317828,1.410702325581393,4.221623255813953
8.406370542635658,8.582838897502151,1.4272324547803594,4.226422325581395
8.414368992248061,8.592792523686475,1.4437625839793258,4.231221395348837
8.422367441860464,8.6027461498708,1.460292713178292,4.236020465116279
8.430365891472867,8.612699776055123,1.4768228423772582,4.2408195348837205
8.43836434108527,8.622653402239447,1.4933529715762246,4.245618604651162
8.446362790697673,8.63260702842377,1.509883100775191,4.250417674418604
8.454361240310076,8.642560654608095,1.526413229974157,4.255216744186046
8.46235968992248,8.652514280792419,1.5429433591731234,4.260015813953488
8.470358139534882,8.662467906976742,1.5594734883720898,4.26481488372093
8.478356589147285,8.672426356589144,1.634151162790649,4.274461240310072
8.486355038759688,8.66632879640963,1.6515996083231348,4.273896662586699
8.494353488372091,8.65689904528764,1.6359394859241143,4.269434369645043
8.502351937984495,8.64746929416565,1.6202793635250936,4.264972076703386
8.510350387596898,8.638039543043657,1.6046192411260731,4.26050978376173
8.5183488372093,8.628609791921667,1.5889591187270524,4.256047490820074
8.526347286821705,8.619180040799673,1.5732989963280284,4.251585197878416
8.534345736434108,8.609750289677683,1.557638873929008,4.24712290493676
8.542344186046511,8.600320538555692,1.5419787515299874,4.242660611995103
8.550342635658915,8.5908907874337,1.5263186291309667,4.238198319053447
8.558341085271318,8.58146103631171,1.5106585067319462,4.2337360261117905
8.56633953488372,8.57203128518972,1.4949983843329255,4.229273733170134
8.574337984496124,8.563,1.48,4.225
8.582336434108527,8.658,1.468,4.255
8.59033488372093,8.658,1.468,4.255
8.598333333333333,8.658,1.468,4.255
8.606331782945736,8.658,1.468,4.255
8.614330232558139,8.658,1.468,4.255
8.622328682170542,8.658,1.468,4.255
8.630327131782945,8.658,1.468,4.255
8.638325581395348,8.658,1.468,4.255
8.646324031007751,8.658,1.468,4.255
8.654322480620154,8.658,1.468,4.255
8.662320930232557,8.658,1.468,4.255
8.67031937984496,8.658,1.468,4.255
8.678317829457363,8.872356589146754,1.5450930232553317,4.260240310077097
8.686316279069766,9.092253933696204,1.8200849579416198,4.328784166254329
8.69431472868217,9.033031370608624,1.7902184067293487,4.333549200065973
8.702313178294572,8.973808807521044,1.7603518555170776,4.338314233877617
8.710311627906975,8.914586244433464,1.7304853043048065,4.343079267689262
8.718310077519378,8.855363681345883,1.7006187530925354,4.347844301500906
8.726308527131781,8.796141118258303,1.6707522018802643,4.35260933531255
8.734306976744184,8.736918555170723,1.6408856506679932,4.357374369124195
8.742305426356587,8.677695992083143,1.611019099455722,4.362139402935839
8.750303875968992,8.618473428995548,1.5811525482434445,4.366904436747485
8.758302325581395,8.559250865907968,1.5512859970311734,4.371669470559129
8.766300775193798,8.500028302820388,1.5214194458189023,4.376434504370774
8.774299224806201,8.440805739732808,1.4915528946066312,4.381199538182418
8.782297674418604,8.33009395348837,1.3505060465116208,4.241715348837208
8.790296124031007,8.319309767441863,1.1917813953488285,4.2241776744186055
8.79829457364341,8.381697674418596,1.0238139534883912,4.228976744186046
8.806293023255813,8.478340037712114,1.0116413576367018,4.259594217473282
8.814291472868216,8.584265451497993,1.0416895872616756,4.297208548082961
8.82228992248062,8.69019086528387,1.0717378168866492,4.33482287869264
8.830288372093023,8.796116279069748,1.1017860465116227,4.372437209302319
8.838286821705426,8.902041692855628,1.1318342761365963,4.410051539911999
8.846285271317829,9.007967106641505,1.16188250576157,4.447665870521678
8.854283720930232,9.113892520427385,1.1919307353865436,4.485280201131357
8.862282170542635,9.219817934213262,1.2219789650115174,4.522894531741036
8.870280620155038,9.32574334799914,1.252027194636491,4.560508862350716
8.87827906976744,11.707523255813587,3.0278837209301908,5.287465116278776
8.886277519379844,12.086663772609803,3.033439689922483,5.438363229974166
8.894275968992247,12.233568630490938,3.008644496124034,5.387106498708016
8.90227441860465,12.380473488372074,2.9838493023255848,5.335849767441868
8.910272868217053,12.527378346253208,2.9590541085271354,5.2845930361757185
8.918271317829456,12.674283204134342,2.9342589147286864,5.233336304909569
8.926269767441859,12.821188062015477,2.909463720930237,5.182079573643421
8.934268217054262,12.96809291989661,2.884668527131788,5.130822842377271
8.942266666666665,13.114997777777745,2.8598733333333386,5.079566111111122
8.950265116279068,13.261902635658881,2.8350781395348896,5.028309379844973
8.958263565891471,13.408807493540015,2.81028294573644,4.977052648578824
8.966262015503876,13.555712351421182,2.7854877519379855,4.925795917312664
8.974260465116279,13.702617209302316,2.7606925581395365,4.874539186046515
8.982258914728682,13.849522067183452,2.735897364341087,4.823282454780366
8.990257364341085,13.996426925064586,2.711102170542638,4.772025723514217
8.998255813953488,14.14333178294572,2.6863069767441887,4.720768992248067
9.006254263565891,14.456393798449692,3.5233922480619726,6.313041860465276
9.014252713178294,14.2074974553421,3.4608053252443405,5.443055476912689
9.022251162790697,14.272093629929223,3.1752954499494335,5.093905763397359
9.0302496124031,14.336689804516348,2.889785574654527,4.744756049882028
9.038248062015503,14.401285979103472,2.6042756993596203,4.395606336366697
9.046246511627906,14.465882153690597,2.3187658240647133,4.046456622851367
9.05424496124031,14.53047832827772,2.0332559487698068,3.6973069093360365
9.062243410852712,14.595074502864845,1.7477460734749,3.348157195820706
9.070241860465115,14.659670677451969,1.4622361981799932,2.9990074823053754
9.078240310077518,14.724266852039094,1.1767263228850866,2.649857768790045
9.086238759689921,14.788863026626217,0.8912164475901796,2.3007080552747143
9.094237209302324,14.853459201213342,0.605706572295273,1.9515583417593838
9.102235658914728,14.930555038758948,-0.15443720930201577,0.3
9.11023410852713,9.874368232874613,-3.4879070874860822,4.172096440436662
9.118232558139534,9.56063312766974,-3.8312691029899595,4.0721974371144025
9.126231007751937,9.246898022464867,-4.174631118493836,3.972298433792143
9.13422945736434,8.933162917259994,-4.517993133997713,3.8723994304698834
9.142227906976743,8.61942781205512,-4.861355149501589,3.7725004271476243
9.150226356589146,8.305692706850246,-5.204717165005467,3.672601423825365
9.158224806201549,7.991957601645373,-5.548079180509344,3.5727024205031053
9.166223255813952,7.6782224964405,-5.89144119601322,3.472803417180846
9.174221705426355,7.364487391235627,-6.234803211517097,3.3729044138585866
9.182220155038758,7.050752286030754,-6.578165227020974,3.273005410536327
9.190218604651163,6.73701718082581,-6.9215272425249275,3.173106407214046
9.198217054263566,6.4232820756209374,-7.264889258028804,3.0732074038917863
9.206215503875969,5.842801550387363,-7.525513178294512,2.9951798449612568
9.214213953488372,-1.37014090287278,-2.3230265937072314,2.8427135430916564
9.222212403100775,-1.4171906064751503,-2.0267075604195033,2.860592430460557
9.230210852713178,-1.4642403100775205,-1.7303885271317747,2.8784713178294576
9.238209302325581,-1.511290013679891,-1.4340694938440466,2.8963502051983583
9.246207751937984,-1.5583397172822613,-1.1377504605563182,2.914229092567259
9.254206201550387,-1.6053894208846315,-0.8414314272685899,2.93210797993616
9.26220465116279,-1.6524391244870018,-0.5451123939808615,2.9499868673050607
9.270203100775193,-1.6994888280893723,-0.24879336069313318,2.9678657546739613
9.278201550387596,-1.7465385316917426,0.04752567259459495,2.985744642042862
9.2862,-1.7935882352941128,0.3438447058823235,3.0036235294117626
9.294198449612402,-1.8406379388964833,0.6401637391700516,3.0215024167806632
9.302196899224805,0.0077162790695674555,3.4544706976738855,3.409941395348598
9.310195348837208,0.8161845994831491,8.019555658914749,3.7557862532299513
9.318193798449611,1.3050676141256954,7.832125322997438,3.959035745047349
9.326192248062014,1.7939506287682416,7.644694987080126,4.162285236864746
9.334190697674417,2.282833643410788,7.457264651162816,4.365534728682144
9.34218914728682,2.771716658053334,7.269834315245504,4.568784220499541
9.350187596899223,3.2605996726958804,7.082403979328192,4.772033712316938
9.358186046511626,3.7494826873384266,6.894973643410881,4.975283204134336
9.36618449612403,4.238365701980973,6.7075433074935695,5.178532695951734
9.374182945736433,4.72724871662352,6.520112971576258,5.381782187769131
9.382181395348836,5.216131731266066,6.332682635658947,5.585031679586528
9.390179844961239,5.7050147459086125,6.145252299741635,5.788281171403926
9.398178294573642,6.287124031006855,5.832825581396461,6.045213178294072
9.406176744186045,7.450477002583889,3.0946832041345913,4.438778811370046
9.41417519379845,7.814942767606796,2.1681991753257415,2.4117794161306305
9.422173643410853,7.8676984990928585,2.002444070592115,2.484276001979219
9.430172093023256,7.92045423057892,1.836688965858488,2.556772587827807
9.438170542635659,7.973209962064982,1.6709338611248612,2.6292691736763953
9.446168992248062,8.025965693551044,1.5051787563912344,2.7017657595249838
9.454167441860465,8.078721425037106,1.3394236516576077,2.7742623453735717
9.462165891472868,8.131477156523168,1.173668546923981,2.84675893122216
9.47016434108527,8.18423288800923,1.0079134421903542,2.9192555170707486
9.478162790697674,8.236988619495293,0.8421583374567274,2.991752102919337
9.486161240310077,8.289744350981353,0.6764032327231007,3.064248688767925
9.49415968992248,8.342500082467415,0.5106481279894739,3.1367452746165134
9.502158139534883,8.395255813953478,0.34489302325584714,3.2092418604651014
9.510156589147286,9.532733850129162,0.6359483204137363,0.35279018087879954
9.518155038759689,9.76602196382424,-1.19702971576189,-1.156250645994516
9.526153488372092,9.784012503775317,-2.153858954998381,-1.771975536091787
9.534151937984495,9.683148937883846,-2.6270139937580668,-1.8945491795026388
9.542150387596898,9.582285371992374,-3.100169032517753,-2.0171228229134908
9.550148837209301,9.4814218061009,-3.5733240712774395,-2.1396964663243425
9.558147286821704,9.38055824020943,-4.046479110037126,-2.2622701097351943
9.566145736434107,9.279694674317957,-4.519634148796812,-2.384843753146046
9.57414418604651,9.178831108426484,-4.9927891875564985,-2.5074173965568978
9.582142635658913,9.077967542535013,-5.465944226316185,-2.6299910399677495
9.590141085271316,8.97710397664354,-5.939099265075871,-2.7525646833786013
9.59813953488372,8.84276744186105,-6.353348837210142,-2.83972093023311
9.606137984496122,9.014213580246974,-6.281590783807072,-2.9503211024977913
9.614136434108525,8.819954938271664,-6.24981916451336,-3.1267313522824605
9.622134883720928,8.625696296296356,-6.2180475452196475,-3.3031416020671296
9.630133333333333,8.431437654321003,-6.186275925925928,-3.479551851851838
9.638131782945736,8.237179012345694,-6.154504306632216,-3.6559621016365065
9.64613023255814,8.042920370370386,-6.1227326873385035,-3.8323723514211756
9.654128682170542,7.848661728395076,-6.090961068044791,-4.008782601205844
9.662127131782945,7.654403086419766,-6.059189448751079,-4.185192850990513
9.670125581395348,7.460144444444457,-6.027417829457367,-4.3616031007751825
9.678124031007751,7.265885802469148,-5.995646210163654,-4.538013350559852
9.686122480620154,7.071627160493838,-5.963874590869942,-4.714423600344521
9.694120930232557,6.877368518518529,-5.93210297157623,-4.890833850129189
9.70211937984496,6.68310987654322,-5.900331352282517,-5.067244099913859
9.710117829457364,7.026444961240026,-6.415252713178146,-5.05202015503909
9.718116279069767,7.147590697674435,-6.5772627906976755,-4.598565116279073
9.72611472868217,6.794021643410878,-6.575491307493539,-4.578428981912143
9.734113178294573,6.380021891472903,-6.593941064599481,-4.606476878552969
9.742111627906976,5.966022139534927,-6.612390821705424,-4.634524775193795
9.750110077519379,5.552022387596952,-6.630840578811367,-4.662572671834622
9.758108527131782,5.138022635658977,-6.64929033591731,-4.690620568475448
9.766106976744185,4.724022883721002,-6.667740093023252,-4.7186684651162745
9.774105426356588,4.310023131783026,-6.686189850129195,-4.7467163617571
9.782103875968991,3.8960233798450514,-6.704639607235138,-4.774764258397926
9.790102325581394,3.482023627907076,-6.723089364341081,-4.802812155038753
9.798100775193797,3.5405426356583583,-7.2849844961233,-4.758201550387689
9.8060992248062,5.289030096699426,-8.457380692080248,-3.9413948533525103
9.814097674418603,5.372065547830248,-8.326849292735568,-3.9732237353152686
9.822096124031006,5.455100998961069,-8.19631789339089,-4.005052617278026
9.830094573643409,5.5381364500918915,-8.065786494046211,-4.036881499240785
9.838093023255812,5.621171901222714,-7.9352550947015335,-4.068710381203543
9.846091472868215,5.704207352353536,-7.804723695356855,-4.100539263166301
9.85408992248062,5.787242803484377,-7.674192296012147,-4.132368145129066
9.862088372093023,5.870278254615199,-7.543660896667468,-4.164197027091824
9.870086821705426,5.953313705746021,-7.41312949732279,-4.1960259090545815
9.878085271317829,6.036349156876843,-7.282598097978111,-4.22785479101734
9.886083720930232,6.119384608007665,-7.1520666986334325,-4.259683672980098
9.894082170542635,6.202420059138487,-7.021535299288754,-4.291512554942856
9.902080620155038,6.285455510269309,-6.891003899944075,-4.323341436905614
9.910079069767441,6.675883874265269,-5.460232047022745,-3.1859105034500392
9.918077519379844,6.740838316722035,-5.430347729789592,-3.1201650055371006
9.926075968992247,6.805792759178802,-5.400463412556437,-3.0544195076241625
9.93407441860465,6.870747201635568,-5.370579095323284,-2.988674009711224
9.942072868217053,6.935701644092335,-5.34069477809013,-2.9229285117982853
9.950071317829456,7.000656086549102,-5.310810460856976,-2.857183013885347
9.95806976744186,7.065610529005869,-5.280926143623822,-2.7914375159724085
9.966068217054262,7.130564971462635,-5.251041826390669,-2.72569201805947
9.974066666666666,7.195519413919402,-5.221157509157514,-2.6599465201465318
9.982065116279069,7.260473856376169,-5.191273191924361,-2.594201022233593
9.990063565891472,7.325428298832936,-5.161388874691207,-2.5284555243206546
9.998062015503875,7.390382741289702,-5.131504557458053,-2.4627100264077164
10.006060465116278,7.559732183045751,-4.985629557389338,-1.9632771192798173
10.01405891472868,7.595424189380668,-5.020547520213377,-1.9729096607485177
10.022057364341084,7.631116195715585,-5.055465483037416,-1.982542202217218
10.030055813953487,7.666808202050502,-5.0903834458614545,-1.9921747436859185
10.03805426356589,7.702500208385419,-5.125301408685494,-2.001807285154619
10.046052713178293,7.7381922147203355,-5.160219371509533,-2.0114398266233193
10.054051162790696,7.773884221055252,-5.195137334333572,-2.0210723680920197
10.062049612403099,7.809576227390169,-5.230055297157611,-2.03070490956072
10.070048062015502,7.845268233725085,-5.26497325998165,-2.0403374510294205
10.078046511627907,7.88096024006001,-5.299891222805697,-2.049969992498123
10.08604496124031,7.916652246394928,-5.3348091856297355,-2.0596025339668236
10.094043410852713,7.952344252729844,-5.369727148453775,-2.069235075435524
10.102041860465116,8.229279069767413,-5.090353488372095,-1.9281348837209695
10.110040310077519,8.184489567183466,-5.133055361757104,-1.939856233850127
10.118038759689922,8.087341731266154,-5.185378552971574,-2.0146750645994804
10.126037209302325,7.990193895348842,-5.237701744186044,-2.089493895348834
10.134035658914728,7.89304605943153,-5.290024935400513,-2.164312726098187
10.142034108527131,7.795898223514218,-5.342348126614984,-2.2391315568475405
10.150032558139534,7.698750387596906,-5.394671317829453,-2.3139503875968934
10.158031007751937,7.601602551679594,-5.446994509043923,-2.388769218346247
10.16602945736434,7.504454715762282,-5.499317700258393,-2.4635880490956
10.174027906976743,7.407306879844971,-5.5516408914728625,-2.5384068798449535
10.182026356589146,7.310159043927659,-5.603964082687332,-2.613225710594307
10.19002480620155,7.2130112080103475,-5.656287273901802,-2.68804454134366
10.198023255813952,7.1158633720930355,-5.708610465116272,-2.7628633720930136
10.206021705426355,7.690202578862543,-5.770183222043136,-2.5954413385524577
10.214020155038758,7.629857840202631,-5.757433218205543,-2.6230795456289786
10.222018604651161,7.56951310154272,-5.74468321436795,-2.6507177527055
10.230017054263564,7.509168362882808,-5.731933210530357,-2.678355959782021
10.238015503875967,7.4488236242228965,-5.719183206692764,-2.705994166858542
10.24601395348837,7.388478885562985,-5.706433202855171,-2.7336323739350634
10.254012403100774,7.328134146903073,-5.6936831990175785,-2.7612705810115843
10.262010852713177,7.2677894082431616,-5.6809331951799855,-2.7889087880881056
10.27000930232558,7.20744466958325,-5.668183191342393,-2.816546995164627
10.278007751937983,7.147099930923339,-5.6554331875048,-2.844185202241148
10.286006201550386,7.0867551922634275,-5.642683183667208,-2.871823409317669
10.29400465116279,7.026410453603503,-5.629933179829611,-2.8994616163941966
10.302003100775194,6.966065714943591,-5.617183175992018,-2.9270998234707175
10.310001550387597,7.0830124031007715,-5.522221705426344,-3.1649023255813975
10.318,7.147,-5.728,-3.13
