accel_time_list,vertical_Accel_x,vertical_Accel_y,vertical_Accel_z
0.0,-0.4,-4.785,8.623
0.007999468085106383,-0.3617444890129055,-4.726844999128009,8.754835917335193
0.015998936170212766,-0.2597184862225323,-4.71576376874782,8.757065277293338
0.02399840425531915,-0.15769248343215905,-4.704682538367631,8.759294637251482
0.03199787234042553,-0.055666480641785865,-4.693601307987444,8.761523997209627
0.039997340425531915,0.046359522148587406,-4.682520077607255,8.76375335716777
0.0479968085106383,0.14838552493896062,-4.6714388472270665,8.765982717125915
0.05599627659574468,0.25041152772933384,-4.660357616846878,8.76821207708406
0.06399574468085106,0.35243753051970705,-4.64927638646669,8.770441437042205
0.07199521276595744,0.45446353331008016,-4.638195156086502,8.772670797000348
0.07999468085106383,0.5564895361004535,-4.627113925706313,8.774900156958493
0.08799414893617022,0.6585155388908267,-4.616032695326125,8.777129516916638
0.0959936170212766,0.7605415416811999,-4.604951464945937,8.779358876874783
0.10399308510638297,0.8625675444715729,-4.593870234565748,8.781588236832926
0.11199255319148936,0.9645935472619463,-4.58278900418556,8.78381759679107
0.11999202127659575,1.0666195500523195,-4.571707773805372,8.786046956749216
0.12799148936170213,0.2621723404255353,-4.845070212765957,8.493031914893619
0.1359909574468085,0.1630949793747287,-4.768669686278767,8.543737586843248
0.14399042553191488,0.11517979808944867,-4.772016402518455,8.577286376465478
0.15198989361702128,0.06726461680416848,-4.775363118758142,8.61083516608771
0.15998936170212766,0.019349435518888458,-4.778709834997829,8.644383955709943
0.16798882978723403,-0.028565745766391565,-4.782056551237517,8.677932745332175
0.17598829787234044,-0.07648092705167175,-4.785403267477204,8.711481534954407
0.1839877659574468,-0.1243961083369518,-4.788749983716891,8.74503032457664
0.1919872340425532,-0.1723112896222318,-4.792096699956579,8.778579114198871
0.19998670212765957,-0.22022647090751185,-4.795443416196266,8.812127903821104
0.20798617021276594,-0.26814165219279185,-4.798790132435953,8.845676693443336
0.21598563829787235,-0.31605683347807206,-4.80213684867564,8.879225483065568
0.22398510638297872,-0.3639720147633521,-4.805483564915328,8.912774272687798
0.2319845744680851,-0.33384751773049687,-4.746808953900709,8.96346870567376
0.2399840425531915,-0.09840425531915101,-4.5899122340425516,8.867779255319148
0.24798351063829788,-0.367997455780569,-4.335608882337863,8.810076531658549
0.25598297872340425,-0.3166273775954883,-4.355848500384517,8.802173442706998
0.26398244680851063,-0.26525729941040765,-4.376088118431172,8.794270353755447
0.271981914893617,-0.21388722122532697,-4.396327736477827,8.786367264803896
0.2799813829787234,-0.16251714304024625,-4.4165673545244815,8.778464175852346
0.28798085106382976,-0.11114706485516557,-4.436806972571136,8.770561086900795
0.2959803191489362,-0.05977698667008452,-4.45704659061779,8.762657997949244
0.30397978723404256,-0.008406908485003806,-4.477286208664445,8.754754908997693
0.31197925531914894,0.04296316970007691,-4.4975258267111,8.746851820046142
0.3199787234042553,0.09433324788515757,-4.517765444757755,8.738948731094592
0.3279781914893617,0.40221462765956983,-5.107267553191484,8.538448670212766
0.33597765957446807,0.39796415711947736,-5.157778968903438,8.689374468085106
0.34397712765957444,0.22231808510638296,-5.00437460106383,8.85771755319149
0.3519765957446809,0.22765106382978725,-4.981614209726444,8.856574772036474
0.35997606382978725,0.2329840425531915,-4.958853818389057,8.85543199088146
0.3679755319148936,0.23831702127659576,-4.936093427051672,8.854289209726444
0.375975,0.24365,-4.9133330357142855,8.85314642857143
0.3839744680851064,0.24898297872340425,-4.8905726443769,8.852003647416414
0.39197393617021276,0.2543159574468085,-4.867812253039514,8.850860866261398
0.39997340425531913,0.2596489361702128,-4.845051861702127,8.849718085106383
0.4079728723404255,0.264981914893617,-4.822291470364742,8.848575303951367
0.4159723404255319,0.27031489361702127,-4.799531079027355,8.847432522796353
0.4239718085106383,0.2756478723404256,-4.77677068768997,8.846289741641337
0.4319712765957447,0.2731395833333333,-4.771308011968085,8.839367475620568
0.43997074468085107,0.25747395833333336,-4.772557928856383,8.812452598625887
0.44797021276595744,0.24180833333333335,-4.773807845744681,8.785537721631206
0.4559696808510638,0.2261427083333334,-4.775057762632978,8.758622844636525
0.4639691489361702,0.21047708333333337,-4.776307679521277,8.731707967641844
0.47196861702127657,0.1948114583333334,-4.777557596409574,8.704793090647163
0.479968085106383,0.1791458333333333,-4.778807513297872,8.677878213652482
0.4879675531914894,0.16348020833333332,-4.78005743018617,8.650963336657801
0.49596702127659575,0.14781458333333333,-4.781307347074468,8.62404845966312
0.5039664893617021,0.13214895833333348,-4.782557263962766,8.59713358266844
0.5119659574468085,0.11648333333333338,-4.783807180851063,8.570218705673758
0.5199654255319149,0.10081770833333328,-4.785057097739362,8.543303828679077
0.5279648936170213,0.10373670212765924,-4.837087234042552,8.394299468085109
0.5359643617021277,-0.0339976763717805,-4.578995235162374,8.704522603583428
0.543963829787234,0.012736058230682745,-4.591878589025756,8.66991437849944
0.5519632978723404,0.05946979283314664,-4.604761942889137,8.635306153415454
0.5599627659574468,0.1062035274356099,-4.617645296752519,8.600697928331467
0.5679622340425532,0.15293726203807378,-4.630528650615902,8.566089703247481
0.5759617021276595,0.19967099664053706,-4.643412004479283,8.531481478163494
0.583961170212766,0.24640473124300094,-4.656295358342665,8.496873253079508
0.5919606382978724,0.2931384658454648,-4.6691787122060475,8.462265027995521
0.5999601063829787,0.3398722004479281,-4.682062066069429,8.427656802911534
0.6079595744680851,0.386605935050392,-4.694945419932811,8.393048577827548
0.6159590425531914,0.4333396696528552,-4.707828773796193,8.35844035274356
0.6239585106382979,0.48007340425531914,-4.720712127659574,8.323832127659575
0.6319579787234042,0.27451933930571126,-4.669416814109743,8.348934440089586
0.6399574468085106,0.25380492721164616,-4.656196640537514,8.373438073908174
0.6479569148936171,0.2330905151175811,-4.642976466965286,8.397941707726764
0.6559563829787234,0.21237610302351628,-4.629756293393058,8.422445341545354
0.6639558510638298,0.19166169092945123,-4.616536119820829,8.446948975363942
0.6719553191489361,0.1709472788353864,-4.603315946248601,8.471452609182531
0.6799547872340426,0.15023286674132133,-4.590095772676372,8.49595624300112
0.6879542553191489,0.12951845464725656,-4.576875599104143,8.520459876819709
0.6959537234042553,0.10880404255319145,-4.563655425531915,8.544963510638299
0.7039531914893618,0.08808963045912638,-4.550435251959686,8.569467144456887
0.7119526595744681,0.06737521836506158,-4.537215078387458,8.593970778275477
0.7199521276595745,0.0466608062709965,-4.52399490481523,8.618474412094066
0.7279515957446808,-0.1256787234042559,-5.263477659574465,8.550881648936171
0.7359510638297873,0.09962478723404326,-5.674279787234043,8.447303617021277
0.7439505319148936,0.26721364361702055,-5.710277393617021,8.512099308510638
0.75195,0.36346038961038957,-5.721698051948051,8.541468181818182
0.7599494680851063,0.3375919798286821,-5.691050739154463,8.51019753384913
0.7679489361702128,0.31172357004697426,-5.6604034263608725,8.478926885880078
0.7759484042553192,0.2858551602652665,-5.629756113567283,8.447656237911026
0.7839478723404255,0.259986750483559,-5.599108800773694,8.416385589941974
0.7919473404255319,0.23411834070185117,-5.568461487980104,8.38511494197292
0.7999468085106383,0.2082499309201437,-5.537814175186515,8.353844294003869
0.8079462765957447,0.1823815211384359,-5.507166862392926,8.322573646034817
0.815945744680851,0.15651311135672843,-5.476519549599336,8.291302998065765
0.8239452127659574,0.1306447015750206,-5.445872236805747,8.260032350096711
0.8319446808510638,0.8247685106382954,-5.945055319148936,8.338810212765956
0.8399441489361702,0.9962918051861701,-5.881391373005319,8.344560089760638
0.8479436170212766,0.9455451795212763,-5.798480219414893,8.362808876329787
0.855943085106383,0.8947985538563831,-5.715569065824468,8.381057662898936
0.8639425531914894,0.8440519281914892,-5.632657912234042,8.399306449468085
0.8719420212765957,0.793305302526596,-5.549746758643617,8.417555236037234
0.8799414893617021,0.7425586768617022,-5.466835605053191,8.435804022606384
0.8879409574468085,0.691812051196809,-5.383924451462766,8.454052809175533
0.8959404255319149,0.6410654255319151,-5.301013297872341,8.472301595744682
0.9039398936170213,0.5903187998670212,-5.218102144281914,8.490550382313831
0.9119393617021276,0.5395721742021281,-5.13519099069149,8.508799168882978
0.9199388297872341,0.48882554853723426,-5.052279837101064,8.527047955452128
0.9279382978723404,0.43807892287234107,-4.969368683510639,8.545296742021277
0.9359377659574468,0.2814749999999997,-5.078248936170213,8.485241489361702
0.9439372340425531,0.057837914398812466,-5.13364850321623,8.570040252350323
0.9519367021276596,0.102207057149926,-5.279220218951015,8.452280640771894
0.959936170212766,0.14657619990103957,-5.424791934685801,8.334521029193468
0.9679356382978723,0.1909453426521525,-5.5703636504205845,8.216761417615041
0.9759351063829788,0.23531448540326605,-5.71593536615537,8.099001806036615
0.9839345744680851,0.27968362815437897,-5.861507081890153,7.981242194458189
0.9919340425531915,0.3240527709054925,-6.0070787976249385,7.8634825828797625
0.9999335106382978,0.3684219136566054,-6.152650513359722,7.745722971301337
1.0079329787234041,0.41279105640771835,-6.298222229094505,7.627963359722911
1.0159324468085107,0.4571601991588325,-6.443793944829293,7.510203748144482
1.023931914893617,0.5015293419099455,-6.589365660564076,7.392444136566057
1.0319313829787233,0.2561274524076148,-6.3642647088465845,7.429647043673012
1.0399308510638299,0.2572221164613662,-6.366538241881299,7.418026763717805
1.0479303191489362,0.2583167805151176,-6.368811774916013,7.406406483762598
1.0559297872340425,0.259411444568869,-6.371085307950728,7.39478620380739
1.0639292553191488,0.2605061086226204,-6.373358840985443,7.383165923852184
1.0719287234042554,0.26160077267637183,-6.375632374020157,7.371545643896976
1.0799281914893617,0.2626954367301232,-6.377905907054871,7.35992536394177
1.087927659574468,0.2637901007838746,-6.380179440089585,7.3483050839865625
1.0959271276595746,0.264884764837626,-6.3824529731243,7.336684804031355
1.1039265957446809,0.26597942889137743,-6.384726506159015,7.325064524076148
1.1119260638297872,0.2670740929451288,-6.387000039193729,7.313444244120941
1.1199255319148935,0.2681687569988802,-6.3892735722284435,7.301823964165734
1.127925,0.09354166666666422,-6.206416666666668,7.296041666666666
1.1359244680851064,-0.21310460992907782,-6.3397411347517725,7.1493847517730496
1.1439239361702127,-0.19294823917828316,-6.502452745169967,7.016134134262656
1.151923404255319,-0.18025942773294212,-6.3629677671802405,7.1289542186353625
1.1599228723404256,-0.16757061628760073,-6.223482789190509,7.2417743030080715
1.167922340425532,-0.1548818048422597,-6.083997811200782,7.354594387380778
1.1759218085106382,-0.14219299339691865,-5.944512833211055,7.467414471753484
1.1839212765957448,-0.12950418195157729,-5.805027855221324,7.580234556126193
1.191920744680851,-0.11681537050623625,-5.665542877231597,7.693054640498899
1.1999202127659574,-0.10412655906089521,-5.52605789924187,7.805874724871606
1.2079196808510637,-0.09143774761555418,-5.386572921252142,7.918694809244311
1.2159191489361703,-0.0787489361702128,-5.247087943262412,8.03151489361702
1.2239186170212766,-0.06606012472487177,-5.107602965272685,8.144334977989727
1.231918085106383,-0.5808760638297683,-5.347330851063827,8.21090106382979
1.2399175531914894,-0.44738871780515077,-5.119202127659575,8.718693449048153
1.2479170212765958,-0.4168223292273235,-5.13840085106383,8.691242642777157
1.255916489361702,-0.38625594064949614,-5.157599574468086,8.66379183650616
1.2639159574468084,-0.35568955207166886,-5.176798297872341,8.636341030235164
1.271915425531915,-0.3251231634938407,-5.195997021276597,8.608890223964167
1.2799148936170213,-0.2945567749160134,-5.215195744680852,8.58143941769317
1.2879143617021276,-0.26399038633818606,-5.234394468085107,8.553988611422174
1.2959138297872341,-0.23342399776035788,-5.2535931914893625,8.526537805151175
1.3039132978723404,-0.2028576091825306,-5.2727919148936175,8.499086998880179
1.3119127659574468,-0.17229122060470325,-5.2919906382978725,8.471636192609182
1.319912234042553,-0.14172483202687597,-5.3111893617021275,8.444185386338187
1.3279117021276596,-0.1111584434490478,-5.330388085106383,8.416734580067189
1.335911170212766,-0.43978009366327486,-5.176255718085106,8.383694131591119
1.3439106382978723,-0.4263027289546718,-5.198254255319148,8.374042599444959
1.3519101063829788,-0.41282536424606836,-5.220252792553192,8.364391067298797
1.3599095744680851,-0.3993479995374653,-5.242251329787234,8.354739535152635
1.3679090425531915,-0.38587063482886225,-5.2642498670212765,8.345088003006476
1.3759085106382978,-0.3723932701202592,-5.2862484042553195,8.335436470860314
1.3839079787234043,-0.35891590541165574,-5.3082469414893625,8.325784938714154
1.3919074468085106,-0.3454385407030527,-5.330245478723405,8.316133406567992
1.399906914893617,-0.33196117599444963,-5.352244015957447,8.306481874421833
1.4079063829787235,-0.3184838112858462,-5.37424255319149,8.29683034227567
1.4159058510638298,-0.30500644657724313,-5.396241090425533,8.28717881012951
1.4239053191489361,-0.29152908186864007,-5.418239627659575,8.27752727798335
1.4319047872340425,-0.364366628122112,-4.858018270120262,7.9720056891766875
1.439904255319149,-0.1996239592969467,-4.7432432932469935,8.025103607770584
1.4479037234042553,-0.03488129047178595,-4.628468316373729,8.078201526364477
1.4559031914893616,0.12986137835337475,-4.513693339500464,8.13129944495837
1.463902659574468,0.2946040471785355,-4.3989183626271995,8.184397363552264
1.4719021276595745,0.4593467160037008,-4.284143385753931,8.237495282146162
1.4799015957446808,0.6240893848288616,-4.169368408880667,8.290593200740055
1.4879010638297872,0.7888320536540223,-4.054593432007402,8.343691119333949
1.4959005319148937,0.9535747224791875,-3.9398184551341338,8.396789037927844
1.5039,0.15715714285714033,-4.0149928571428575,8.374971428571428
1.5118994680851063,-1.6495798632218712,-4.28983172492401,8.27440668693009
1.5198989361702127,-0.05158383991894627,-4.795453748733536,6.899022340425532
1.5278984042553192,-0.06567814083080063,-4.799491575481256,6.881423510638298
1.5358978723404255,-0.0797724417426546,-4.8035294022289765,6.863824680851064
1.5438973404255318,-0.09386674265450856,-4.807567228976697,6.84622585106383
1.5518968085106384,-0.10796104356636292,-4.811605055724417,6.828627021276596
1.5598962765957447,-0.12205534447821689,-4.815642882472138,6.811028191489362
1.567895744680851,-0.13614964539007085,-4.819680709219858,6.7934293617021275
1.5758952127659573,-0.15024394630192484,-4.823718535967578,6.7758305319148935
1.5838946808510639,-0.16433824721377918,-4.827756362715299,6.7582317021276594
1.5918941489361702,-0.17843254812563314,-4.831794189463019,6.740632872340425
1.5998936170212765,-0.19252684903748712,-4.835832016210739,6.723034042553191
1.607893085106383,-0.20662114994934144,-4.83986984295846,6.705435212765957
1.6158925531914894,-0.22071545086119543,-4.84390766970618,6.687836382978723
1.6238920212765957,-0.2348097517730494,-4.8479454964539,6.670237553191489
1.631891489361702,0.09367949709864329,-4.647466924564796,6.847766537717602
1.6398909574468086,0.3683710992907803,-4.770518173758865,6.786096365248227
1.647890425531915,0.39983567375886514,-4.769184929078014,6.7863630141843965
1.6558898936170212,0.43130024822695,-4.767851684397163,6.786629663120567
1.6638893617021275,0.4627648226950348,-4.766518439716312,6.786896312056737
1.671888829787234,0.49422939716312053,-4.765185195035461,6.787162960992908
1.6798882978723404,0.5256939716312053,-4.76385195035461,6.787429609929077
1.6878877659574467,0.5571585460992902,-4.762518705673759,6.787696258865248
1.6958872340425533,0.5886231205673759,-4.761185460992908,6.787962907801418
1.7038867021276596,0.6200876950354607,-4.759852216312057,6.788229556737589
1.711886170212766,0.6515522695035456,-4.758518971631206,6.788496205673758
1.7198856382978722,0.6830168439716304,-4.757185726950355,6.788762854609929
1.7278851063829788,0.7840844984802401,-4.729193920972645,6.766493009118542
1.735884574468085,2.1087898936170166,-5.629514893617015,5.602752659574474
1.7438840425531914,1.6151731963805345,-7.366371606749819,3.2949142455368006
1.751883510638298,1.5548553680606507,-7.214657556859868,3.5355419234531666
1.7598829787234043,1.4945375397407685,-7.062943506969921,3.7761696013695256
1.7678824468085106,1.4342197114208863,-6.911229457079973,4.016797279285885
1.775881914893617,1.3739018831010041,-6.759515407190026,4.257424957202244
1.7838813829787235,1.3135840547811202,-6.607801357300074,4.49805263511861
1.7918808510638298,1.2532662264612382,-6.456087307410126,4.738680313034969
1.799880319148936,1.192948398141356,-6.304373257520179,4.9793079909513285
1.8078797872340426,1.132630569821472,-6.1526592076302276,5.219935668867693
1.815879255319149,1.07231274150159,-6.000945157740279,5.460563346784053
1.8238787234042553,1.0119949131817079,-5.849231107850333,5.701191024700412
1.8318781914893616,2.754844680851045,-6.228835089760644,2.909232895611703
1.8398776595744681,3.6187872340425526,-5.942770777925532,2.8761517619680848
1.8478771276595745,4.482729787234037,-5.656706466090427,2.843070628324468
1.8558765957446808,5.3466723404255205,-5.370642154255323,2.8099894946808512
1.8638760638297873,6.210614893617029,-5.08457784242021,2.7769083610372336
1.8718755319148936,7.074557446808512,-4.798513530585106,2.743827227393617
1.879875,7.938499999999996,-4.512449218750001,2.71074609375
1.8878744680851063,8.80244255319148,-4.226384906914896,2.6776649601063833
1.8958739361702128,9.666385106382988,-3.9403205950797844,2.6445838264627657
1.9038734042553191,10.530327659574471,-3.65425628324468,2.611502692819149
1.9118728723404255,11.394270212765955,-3.368191971409575,2.578421559175532
1.919872340425532,12.258212765957463,-3.0821276595744624,2.545340425531914
1.9278718085106383,14.354741223404329,-3.205540957446826,1.8957518617020956
1.9358712765957446,10.622673149861242,-0.9320527173913074,1.9660497224791842
1.943870744680851,10.384949826549494,-0.6173779891304398,2.127778098982421
1.9518702127659575,10.147226503237741,-0.30270326086956345,2.289506475485662
1.9598696808510638,9.909503179925995,0.011971467391304058,2.451234851988899
1.9678691489361702,9.671779856614247,0.3266461956521718,2.6129632284921356
1.9758686170212765,9.4340565333025,0.6413209239130393,2.7746916049953723
1.983868085106383,9.196333209990748,0.9559956521739155,2.936419981498614
1.9918675531914893,8.958609886679001,1.2706703804347832,3.0981483580018505
1.9998670212765957,8.720886563367253,1.585345108695651,3.259876734505087
2.007866489361702,8.4831632400555,1.900019836956527,3.4216051110083283
2.0158659574468083,8.24543991674376,2.214694565217386,3.5833334875115606
2.023865425531915,8.007716593432006,2.529369293478262,3.7450618640148017
2.0318648936170214,7.535225332446808,6.373558477393617,3.2819093750000006
2.0398643617021275,7.56505668218085,6.350976645611703,3.133085937500005
2.047863829787234,7.594888031914893,6.328394813829788,2.9842625000000016
2.0558632978723406,7.624719381648936,6.305812982047873,2.835439062499998
2.0638627659574467,7.654550731382978,6.283231150265959,2.686615625000003
2.071862234042553,7.684382081117021,6.260649318484043,2.5377921874999996
2.0798617021276598,7.714213430851064,6.2380674867021275,2.388968749999996
2.087861170212766,7.7440447805851065,6.215485654920213,2.240145312500001
2.0958606382978724,7.77387613031915,6.192903823138298,2.091321874999997
2.1038601063829785,7.803707480053191,6.170321991356384,1.942498437500002
2.111859574468085,7.833538829787234,6.147740159574468,1.7936749999999984
2.1198590425531916,7.863370179521278,6.125158327792553,1.6448515624999949
2.1278585106382977,8.412832978723358,6.413634574468058,1.3703457446808633
2.135857978723404,9.010708157894733,6.810914305711085,0.9081786170212753
2.1438574468085108,9.196716842105264,6.854279843225084,0.9769740425531918
2.151856914893617,9.382725526315784,6.89764538073908,1.0457694680851044
2.1598563829787234,9.568734210526314,6.941010918253079,1.114564893617021
2.16785585106383,9.754742894736845,6.9843764557670776,1.1833603191489372
2.175855319148936,9.940751578947365,7.027741993281074,1.25215574468085
2.1838547872340426,10.126760263157896,7.071107530795073,1.3209511702127663
2.191854255319149,10.312768947368426,7.114473068309072,1.3897465957446828
2.1998537234042552,10.498777631578946,7.157838605823068,1.4585420212765956
2.2078531914893618,10.684786315789477,7.201204143337066,1.527337446808512
2.215852659574468,10.870794999999998,7.244569680851063,1.5961328723404247
2.2238521276595744,11.056803684210529,7.287935218365062,1.664928297872341
2.231851595744681,10.178568882978782,5.688433244680874,1.1436183510637732
2.239851063829787,9.831900358120931,5.494745523488527,1.1627752264588198
2.2478505319148936,9.574016515694131,5.3345185538234725,1.0881663261006973
2.25585,9.31613267326733,5.174291584158417,1.013557425742575
2.2638494680851062,9.058248830840544,5.014064614493371,0.9389485253844566
2.2718489361702128,8.800364988413742,4.8538376448283165,0.8643396250263342
2.2798484042553193,8.54248114598694,4.693610675163262,0.7897307246682118
2.2878478723404254,8.284597303560155,4.533383705498216,0.7151218243100935
2.295847340425532,8.026713461133353,4.373156735833161,0.6405129239519711
2.303846808510638,7.768829618706565,4.212929766168115,0.5659040235938528
2.3118462765957446,7.5109457762797645,4.05270279650306,0.49129512323573044
2.319845744680851,7.253061933852964,3.8924758268380053,0.41668622287760804
2.3278452127659572,6.995178091426176,3.7322488571729595,0.34207732251948975
2.335844680851064,7.929389361702132,3.4070489361701766,1.705891489361771
2.3438441489361703,6.38167639851781,1.915011755916805,3.027944788429359
2.3518436170212764,6.321006275400433,1.6508495457805485,3.4275586660291535
2.359843085106383,6.260336152283052,1.3866873356442773,3.8271725436289703
2.3678425531914895,6.1996660291656704,1.1225251255080062,4.226786421228788
2.3758420212765956,6.138995906048293,0.8583629153717496,4.626400298828582
2.383841489361702,6.078325782930912,0.5942007052354783,5.026014176428399
2.3918409574468087,6.0176556598135305,0.330038495099207,5.425628054028216
2.399840425531915,5.956985536696153,0.0658762849629504,5.82524193162801
2.4078398936170213,5.896315413578772,-0.19828592517332044,6.224855809227828
2.4158393617021274,5.835645290461394,-0.46244813530957707,6.624469686827622
2.423838829787234,5.774975167344013,-0.7266103454458483,7.024083564427439
2.4318382978723405,3.1083217021275793,-1.758985531914922,8.779605957446858
2.4398377659574466,-1.1374851699815116,0.7599291743755832,13.309765726179474
2.447837234042553,-0.7282080365402457,0.5994181082331195,12.965440795559672
2.4558367021276597,-0.31893090309897976,0.43890704209065573,12.621115864939869
2.463836170212766,0.09034623034226352,0.27839597594820087,12.276790934320085
2.4718356382978723,0.49962336378352923,0.11788490980573718,11.93246600370028
2.479835106382979,0.9089004972247954,-0.04262615633672662,11.588141073080479
2.487834574468085,1.3181776306660382,-0.20313722247918142,11.243816142460695
2.4958340425531915,1.7274547641073041,-0.3636482886216452,10.89949121184089
2.503833510638298,2.13673189754857,-0.5241593547641088,10.555166281221089
2.511832978723404,2.546009030989813,-0.6846704209065637,10.210841350601305
2.5198324468085107,2.9552861644310795,-0.8451814870490275,9.866516419981501
2.527831914893617,5.6164212765950285,-1.8383851063827135,7.901657446809028
2.5358313829787233,7.86104225643897,-0.04991493281074991,6.790792015677491
2.54383085106383,7.8820092833146695,-0.08940704367301283,6.80914868980963
2.551830319148936,7.902976310190369,-0.12889915453527356,6.827505363941769
2.5598297872340425,7.92394333706607,-0.1683912653975365,6.845862038073908
2.567829255319149,7.944910363941769,-0.2078833762597994,6.864218712206047
2.575828723404255,7.965877390817469,-0.24737548712206014,6.8825753863381856
2.5838281914893617,7.986844417693169,-0.28686759798432304,6.900932060470325
2.5918276595744683,8.007811444568869,-0.32635970884658594,6.919288734602464
2.5998271276595744,8.028778471444568,-0.3658518197088467,6.9376454087346024
2.607826595744681,8.049745498320268,-0.4053439305711096,6.956002082866742
2.615826063829787,8.070712525195969,-0.4448360414333704,6.97435875699888
2.6238255319148935,8.09167955207167,-0.4843281522956333,6.992715431131019
2.631825,5.724411363636358,-0.7479045454545473,7.604663636363637
2.639824468085106,5.489517891682791,-0.8395348162475799,7.60757253384913
2.6478239361702127,5.508321919841662,-0.8643467775853537,7.577371635329045
2.6558234042553193,5.570829391390402,-0.8776482187036123,7.541467046016822
2.6638228723404254,5.633336862939138,-0.8909496598218701,7.505562456704602
2.671822340425532,5.6958443344878775,-0.9042511009401287,7.46965786739238
2.6798218085106384,5.758351806036617,-0.9175525420583872,7.433753278080157
2.6878212765957445,5.820859277585353,-0.9308539831766451,7.397848688767937
2.695820744680851,5.883366749134093,-0.9441554242949037,7.361944099455715
2.7038202127659576,5.945874220682832,-0.9574568654131622,7.3260395101434925
2.7118196808510637,6.008381692231568,-0.97075830653142,7.290134920831272
2.7198191489361703,6.070889163780308,-0.9840597476496786,7.254230331519049
2.7278186170212764,6.537945744680666,-0.8822122340426042,7.1106680851064334
2.735818085106383,7.090728014184399,-0.9999889406028377,6.839403246897163
2.7438175531914895,7.0293987588652485,-0.9748239472517732,6.852819021498227
2.7518170212765956,6.9680695035461016,-0.9496589539007102,6.86623479609929
2.759816489361702,6.906740248226952,-0.9244939605496458,6.879650570700354
2.7678159574468086,6.8454109929078015,-0.8993289671985814,6.893066345301419
2.7758154255319147,6.784081737588655,-0.8741639738475183,6.906482119902482
2.7838148936170213,6.722752482269504,-0.848998980496454,6.919897894503546
2.791814361702128,6.661423226950354,-0.8238339871453895,6.93331366910461
2.799813829787234,6.600093971631207,-0.7986689937943264,6.9467294437056735
2.8078132978723405,6.538764716312056,-0.7735040004432621,6.960145218306738
2.815812765957447,6.477435460992906,-0.7483390070921976,6.973560992907801
2.823812234042553,6.416106205673759,-0.7231740137411345,6.986976767508865
2.8318117021276596,6.302636879432622,-0.6210712765957455,7.223708156028367
2.8398111702127657,6.482173476789168,-0.6210303433268862,7.20225664893617
2.8478106382978723,6.487918549323017,-0.6128127079303676,7.1998568085106385
2.855810106382979,6.493663621856866,-0.604595072533849,7.197456968085106
2.863809574468085,6.4994086943907154,-0.5963774371373309,7.195057127659575
2.8718090425531915,6.505153766924565,-0.5881598017408124,7.192657287234042
2.879808510638298,6.510898839458414,-0.5799421663442939,7.190257446808511
2.887807978723404,6.516643911992263,-0.5717245309477758,7.187857606382979
2.8958074468085107,6.5223889845261125,-0.5635068955512572,7.185457765957447
2.903806914893617,6.528134057059962,-0.5552892601547387,7.183057925531915
2.9118063829787233,6.533879129593811,-0.5470716247582206,7.1806580851063835
2.91980585106383,6.53962420212766,-0.538853989361702,7.178258244680851
2.927805319148936,6.545369274661509,-0.5306363539651839,7.17585840425532
2.9358047872340425,6.551114347195358,-0.5224187185686654,7.173458563829787
2.943804255319149,6.556859419729207,-0.5142010831721469,7.171058723404256
2.951803723404255,6.234747872340429,-0.9661467325227945,7.309115805471119
2.9598031914893617,6.198539007092199,-0.9844603280141846,7.3763282358156035
2.967802659574468,6.212760283687944,-0.9685724955673758,7.363551307624114
2.9758021276595743,6.226981560283687,-0.9526846631205679,7.350774379432625
2.983801595744681,6.241202836879433,-0.9367968306737591,7.337997451241135
2.9918010638297874,6.255424113475177,-0.9209089982269503,7.325220523049645
2.9998005319148935,6.269645390070921,-0.9050211657801424,7.3124435948581565
3.0078,6.2838666666666665,-0.8891333333333336,7.299666666666667
3.0157994680851066,6.298087943262411,-0.8732455008865246,7.286889738475177
3.0237989361702127,6.312309219858156,-0.8573576684397167,7.274112810283689
3.031798404255319,6.413348527004909,-0.807452168576104,7.342326882160393
3.0397978723404253,6.362890343698854,-0.7773003273322424,7.323251227495908
3.047797340425532,6.349,-0.769,7.318
3.0557968085106384,6.349,-0.769,7.318
3.0637962765957445,6.349,-0.769,7.318
3.071795744680851,6.349,-0.769,7.318
3.0797952127659576,6.349,-0.769,7.318
3.0877946808510637,6.349,-0.769,7.318
3.09579414893617,6.349,-0.769,7.318
3.1037936170212768,6.349,-0.769,7.318
3.111793085106383,6.349,-0.769,7.318
3.1197925531914894,6.349,-0.769,7.318
3.1277920212765955,6.349,-0.769,7.318
3.135791489361702,6.431902127659563,-0.8587829787233977,7.2117446808510595
3.1437909574468086,6.45449467525196,-0.8707222116461366,7.200613863381859
3.1517904255319147,6.46013640537514,-0.8724905151175811,7.182762418812991
3.1597898936170212,6.46577813549832,-0.8742588185890258,7.164910974244121
3.1677893617021278,6.471419865621501,-0.8760271220604703,7.147059529675252
3.175788829787234,6.47706159574468,-0.8777954255319148,7.1292080851063835
3.1837882978723404,6.4827033258678615,-0.8795637290033594,7.111356640537514
3.191787765957447,6.488345055991042,-0.8813320324748041,7.093505195968644
3.199787234042553,6.493986786114221,-0.8831003359462486,7.075653751399776
3.2077867021276596,6.499628516237402,-0.8848686394176932,7.057802306830907
3.215786170212766,6.505270246360582,-0.8866369428891379,7.039950862262038
3.2237856382978722,6.510911976483762,-0.8884052463605823,7.02209941769317
3.231785106382979,6.433563829787224,-0.9269000000000045,7.038974468085111
3.239784574468085,6.189209814122049,-0.9918789747486558,7.389406534954407
3.2477840425531914,6.187539595510873,-0.9873957563712884,7.400834346504559
3.255783510638298,6.185869376899697,-0.982912537993921,7.412262158054712
3.263782978723404,6.1841991582885205,-0.9784293196165538,7.4236899696048635
3.2717824468085106,6.182528939677344,-0.9739461012391865,7.435117781155015
3.279781914893617,6.180858721066168,-0.969462882861819,7.446545592705167
3.2877813829787232,6.179188502454992,-0.9649796644844518,7.457973404255319
3.29578085106383,6.177518283843816,-0.9604964461070844,7.469401215805472
3.3037803191489363,6.17584806523264,-0.956013227729717,7.4808290273556235
3.3117797872340424,6.174177846621464,-0.9515300093523498,7.492256838905775
3.319779255319149,6.172507628010288,-0.9470467909749823,7.503684650455927
3.327778723404255,6.131285106382985,-0.8409872340425693,7.528795744680849
3.3357781914893616,6.144123936170214,-0.7489664893616997,7.571131382978725
3.343777659574468,6.167922819733458,-0.7342478138882395,7.559436240355389
3.3517771276595743,6.185328255786766,-0.7375882511105915,7.536228992284312
3.359776595744681,6.202733691840074,-0.7409286883329437,7.513021744213233
3.3677760638297873,6.2201391278933835,-0.7442691255552958,7.489814496142155
3.3757755319148934,6.237544563946692,-0.7476095627776478,7.466607248071078
3.383775,6.25495,-0.75095,7.4434
3.3917744680851065,6.272355436053309,-0.7542904372223522,7.420192751928921
3.3997739361702126,6.2897608721066165,-0.7576308744447042,7.396985503857844
3.407773404255319,6.307166308159926,-0.7609713116670563,7.373778255786766
3.4157728723404257,6.324571744213234,-0.7643117488894086,7.350571007715688
3.423772340425532,6.341977180266542,-0.7676521861117606,7.32736375964461
3.4317718085106383,6.43330195035461,-0.7960402482269503,7.310046985815602
3.4397712765957444,6.49891223404257,-0.8612952127659508,7.298771276595744
3.447770744680851,6.254263756419663,-0.8852506419662509,7.3568511555392515
3.4557702127659575,6.2230014673514304,-0.8921467351430669,7.36926412325752
3.4637696808510636,6.1917391782832,-0.8990428283198825,7.3816770909757885
3.47176914893617,6.1604768892149675,-0.9059389214966984,7.394090058694057
3.4797686170212767,6.129214600146735,-0.9128350146735144,7.4065030264123255
3.487768085106383,6.0979523110785046,-0.91973110785033,7.418915994130594
3.4957675531914894,6.066690022010272,-0.9266272010271459,7.4313289618488625
3.503767021276596,6.03542773294204,-0.9335232942039619,7.443741929567131
3.511766489361702,6.004165443873809,-0.9404193873807775,7.4561548972853995
3.5197659574468085,5.972903154805577,-0.9473154805575934,7.468567865003668
3.527765425531915,5.9416408657373445,-0.9542115737344095,7.4809808327219365
3.535764893617021,6.033360638297868,-1.0802398936170188,7.625355851063828
3.5437643617021277,6.024911596913725,-1.0801980593874212,7.630706453121347
3.551763829787234,6.006275473462709,-1.074220434884265,7.632464577975216
3.5597632978723404,5.9876393500116905,-1.0682428103811084,7.634222702829086
3.567762765957447,5.969003226560673,-1.0622651858779517,7.635980827682955
3.575762234042553,5.950367103109657,-1.0562875613747955,7.637738952536824
3.5837617021276595,5.9317309796586395,-1.050309936871639,7.639497077390694
3.591761170212766,5.913094856207622,-1.0443323123684825,7.6412552022445634
3.599760638297872,5.894458732756606,-1.0383546878653263,7.6430133270984335
3.6077601063829787,5.875822609305588,-1.0323770633621696,7.644771451952303
3.6157595744680853,5.85718648585457,-1.0263994388590132,7.646529576806173
3.6237590425531914,5.838550362403554,-1.0204218143558568,7.648287701660042
3.631758510638298,6.067083510638297,-1.0077430851063838,7.6877803191489384
3.639757978723404,6.085824413808076,-0.999012727963526,7.677841673903604
3.6477574468085106,6.09904802431611,-0.9938702127659576,7.677678419452888
3.655756914893617,6.112271634824142,-0.9887276975683891,7.677515165002171
3.663756382978723,6.125495245332175,-0.9835851823708208,7.6773519105514545
3.6717558510638297,6.138718855840208,-0.9784426671732523,7.677188656100738
3.6797553191489363,6.151942466348242,-0.9733001519756839,7.677025401650022
3.6877547872340424,6.165166076856274,-0.9681576367781156,7.676862147199305
3.695754255319149,6.178389687364308,-0.9630151215805471,7.676698892748589
3.7037537234042555,6.191613297872341,-0.9578726063829786,7.676535638297873
3.7117531914893616,6.204836908380374,-0.9527300911854104,7.676372383847156
3.719752659574468,6.218060518888406,-0.9475875759878419,7.676209129396439
3.7277521276595746,6.23128412939644,-0.9424450607902733,7.676045874945723
3.7357515957446807,6.318113666121113,-1.0131741465980828,7.336137473696517
3.7437510638297873,6.309498854337153,-1.018536427402385,7.350466191255554
3.7517505319148934,6.300884042553192,-1.0238987082066868,7.36479490881459
3.75975,6.292269230769231,-1.029260989010989,7.379123626373627
3.7677494680851065,6.283654418985271,-1.034623269815291,7.393452343932664
3.7757489361702126,6.27503960720131,-1.039985550619593,7.4077810614917
3.783748404255319,6.2664247954173495,-1.045347831423895,7.422109779050737
3.7917478723404257,6.257809983633388,-1.0507101122281972,7.436438496609774
3.7997473404255317,6.249195171849428,-1.0560723930324991,7.45076721416881
3.8077468085106383,6.240580360065467,-1.0614346738368015,7.465095931727847
3.815746276595745,6.231965548281506,-1.0667969546411036,7.479424649286884
3.823745744680851,6.2233507364975456,-1.0721592354454055,7.49375336684592
3.8317452127659575,6.168038297872341,-1.2334397036474152,7.698356382978722
3.839744680851064,6.07053191489361,-1.5981276595745033,7.95732978723405
3.84774414893617,5.336179956195244,-1.4613167834793492,8.288686977471839
3.8557436170212767,5.351520112640801,-1.470539699624531,8.294427772215268
3.8637430851063828,5.366860269086358,-1.4797626157697121,8.300168566958698
3.8717425531914893,5.382200425531915,-1.4889855319148937,8.305909361702128
3.879742021276596,5.397540581977472,-1.4982084480600755,8.311650156445557
3.887741489361702,5.412880738423029,-1.5074313642052566,8.317390951188985
3.8957409574468085,5.428220894868586,-1.5166542803504381,8.323131745932415
3.903740425531915,5.443561051314143,-1.52587719649562,8.328872540675844
3.911739893617021,5.458901207759699,-1.535100112640801,8.334613335419274
3.9197393617021277,5.474241364205257,-1.5443230287859826,8.340354130162703
3.927738829787234,5.489581520650814,-1.5535459449311644,8.346094924906133
3.9357382978723403,5.352902279635259,-1.9554474164133704,8.164584650455929
3.943737765957447,5.323993617021287,-2.4194617021276623,7.744456914893598
3.951737234042553,5.018572596283323,-2.1949682736331724,7.328770239698356
3.9597367021276595,5.1337041812550455,-2.3496921626716887,7.357730339348235
3.967736170212766,5.248835766226769,-2.5044160517102045,7.386690438998114
3.975735638297872,5.363967351198485,-2.659139940748712,7.415650538647992
3.9837351063829787,5.4790989361702085,-2.8138638297872283,7.444610638297871
3.991734574468085,5.594230521141932,-2.968587718825744,7.4735707379477505
3.9997340425531913,5.709362106113648,-3.1233116078642515,7.502530837597629
4.007733510638298,5.8244936910853715,-3.278035496902768,7.531490937247508
4.015732978723404,5.939625276057094,-3.432759385941284,7.560451036897387
4.023732446808511,6.054756861028817,-3.5874832749798,7.589411136547266
4.031731914893617,5.747353900709257,-3.2145404255319625,6.790673049645422
4.039731382978723,5.407267033229739,-2.8079317475496057,6.483456430791297
4.04773085106383,5.384257327277073,-2.842086779823094,6.439414415491273
4.055730319148936,5.361247621324408,-2.8762418120965827,6.395372400191248
4.063729787234043,5.338237915371741,-2.910396844370071,6.351330384891224
4.071729255319149,5.315228209419075,-2.9445518766435597,6.307288369591199
4.079728723404255,5.292218503466412,-2.9787069089170446,6.263246354291179
4.0877281914893615,5.2692087975137465,-3.012861941190533,6.219204338991155
4.095727659574468,5.24619909156108,-3.0470169734640216,6.17516232369113
4.103727127659575,5.223189385608414,-3.08117200573751,6.131120308391106
4.111726595744681,5.200179679655748,-3.1153270380109985,6.087078293091081
4.119726063829787,5.177169973703085,-3.149482070284483,6.043036277791062
4.127725531914893,5.663497872340354,-2.9294276595745026,5.95403829787235
4.135725,6.802495478723403,-3.484627659574473,6.6105037234042525
4.143724468085106,6.849045574920778,-3.3654866455409707,6.67569087822544
4.151723936170213,6.895595671118154,-3.2463456315074684,6.740878033046628
4.1597234042553195,6.942145767315529,-3.1272046174739656,6.806065187867816
4.167722872340425,6.9886958635129,-3.008063603440476,6.871252342688996
4.175722340425532,7.035245959710275,-2.888922589406974,6.936439497510184
4.183721808510638,7.081796055907651,-2.7697815753734716,7.001626652331372
4.191721276595745,7.128346152105027,-2.6506405613399693,7.06681380715256
4.199720744680851,7.174896248302402,-2.5314995473064665,7.132000961973747
4.207720212765957,7.221446344499772,-2.412358533272977,7.197188116794928
4.2157196808510635,7.267996440697148,-2.293217519239475,7.262375271616116
4.22371914893617,7.3145465368945235,-2.1740765052059725,7.327562426437304
4.231718617021277,6.876611679964515,-2.3565585106383087,7.316724379432623
4.239718085106383,6.346313608155994,-2.5965425531915045,7.291392730496452
4.24771755319149,5.816015536347473,-2.836526595744701,7.266061081560281
4.255717021276595,5.574745884658456,-2.745406970884658,7.293798096304588
4.263716489361702,5.54622146556551,-2.759195527715565,7.428947004479282
4.271715957446808,5.5176970464725645,-2.7729840845464726,7.5640959126539755
4.279715425531915,5.489172627379619,-2.7867726413773797,7.699244820828669
4.2877148936170215,5.460648208286673,-2.800561198208287,7.834393729003363
4.295714361702128,5.432123789193728,-2.8143497550391943,7.9695426371780576
4.303713829787234,5.403599370100785,-2.8281383118701,8.104691545352736
4.31171329787234,5.37507495100784,-2.841926868701007,8.23984045352743
4.319712765957447,5.346550531914895,-2.8557154255319146,8.374989361702124
4.327712234042553,5.318026112821949,-2.8695039823628217,8.510138269876817
4.33571170212766,5.109733581560293,-3.6937752127659524,7.17838865248226
4.3437111702127655,5.320297358156019,-3.5788495212766014,6.957958865248237
4.351710638297872,5.530861134751768,-3.463923829787237,6.73752907801419
4.359710106382979,5.741424911347517,-3.3489981382978726,6.517099290780143
4.367709574468085,5.951988687943267,-3.2340724468085087,6.296669503546095
4.375709042553192,6.162552464539015,-3.1191467553191448,6.076239716312048
4.383708510638298,6.373116241134765,-3.0042210638297804,5.855809929078001
4.391707978723404,6.58368001773049,-2.889295372340429,5.635380141843978
4.3997074468085104,6.79424379432624,-2.7743696808510645,5.414950354609931
4.407706914893617,7.004807570921989,-2.6594439893617006,5.194520567375884
4.4157063829787235,7.215371347517738,-2.5445182978723366,4.974090780141836
4.42370585106383,7.425935124113487,-2.4295926063829723,4.753660992907789
4.431705319148936,9.128317021276851,-1.8271420212773481,3.713981382978965
4.439704787234042,8.89000370027753,-1.5655487974098021,3.4632442183163863
4.447704255319149,8.750882516188721,-1.6107631822386654,3.304646068455143
4.455703723404255,8.611761332099912,-1.6559775670675285,3.1460479185939
4.463703191489362,8.472640148011102,-1.7011919518963918,2.9874497687326564
4.471702659574468,8.333518963922291,-1.7464063367252551,2.828851618871413
4.479702127659574,8.194397779833498,-1.7916207215541133,2.670253469010187
4.487701595744681,8.055276595744687,-1.8368351063829764,2.511655319148944
4.495701063829787,7.916155411655877,-1.8820494912118397,2.3530571692877005
4.503700531914894,7.777034227567068,-1.927263876040703,2.194459019426457
4.5117,7.637913043478258,-1.9724782608695661,2.0358608695652136
4.519699468085106,7.498791859389463,-2.0176926456984243,1.877262719703988
4.5276989361702125,8.117443085106483,-3.2327808510639593,2.892142553191402
4.535698404255319,6.692084393266308,-1.8827508826280113,4.215482552022445
4.5436978723404255,6.720741828384382,-2.079397147533322,4.137685527238717
4.551697340425532,6.749399263502456,-2.276043412438633,4.059888502454989
4.559696808510639,6.77805669862053,-2.4726896773439444,3.9820914776712604
4.567696276595744,6.806714133738601,-2.6693359422492335,3.904294452887541
4.575695744680851,6.835371568856675,-2.8659822071545444,3.8264974281038127
4.583695212765957,6.864029003974748,-3.0626284720598553,3.7487004033200844
4.591694680851064,6.892686439092822,-3.2592747369651662,3.670903378536356
4.5996941489361705,6.921343874210896,-3.455921001870477,3.5931063537526278
4.607693617021276,6.950001309328967,-3.6525672667757663,3.515309328968908
4.615693085106383,6.978658744447041,-3.8492135316810776,3.4375123041851796
4.623692553191489,7.007316179565115,-4.045859796586388,3.3597152794014513
4.631692021276596,5.55632756337709,-3.316276143051159,6.231733889769137
4.639691489361702,5.66415018107741,-3.14607469443187,5.870311113626076
4.647690957446809,5.77197279877773,-2.975873245812581,5.5088883374830155
4.6556904255319145,5.8797954164780375,-2.8056717971933107,5.147465561339995
4.663689893617021,5.987618034178357,-2.6354703485740214,4.786042785196934
4.671689361702128,6.095440651878677,-2.465268899954732,4.424620009053873
4.679688829787234,6.203263269578997,-2.295067451335443,4.063197232910813
4.687688297872341,6.311085887279317,-2.124866002716154,3.7017744567677524
4.695687765957447,6.418908504979636,-1.9546645540968646,3.340351680624692
4.703687234042553,6.526731122679944,-1.7844631054775943,2.978928904481671
4.711686702127659,6.634553740380264,-1.614261656858305,2.6175061283386105
4.719686170212766,6.742376358080584,-1.444060208239016,2.2560833521955503
4.7276856382978725,5.0387930851061284,3.0152579787240286,1.7993585106382668
4.735685106382979,-4.298074865559969,3.789338601823688,7.40327935468786
4.743684574468085,-4.217728559738139,3.2545170212766257,7.243202086743053
4.751684042553191,-4.1373822539163,2.7196954407295033,7.083124818798229
4.759683510638298,-4.057035948094461,2.1848738601823814,6.923047550853405
4.767682978723404,-3.9766896422726212,1.6500522796352595,6.762970282908581
4.775682446808511,-3.8963433364507822,1.1152306990881375,6.602893014963757
4.783681914893617,-3.815997030628943,0.5804091185410152,6.442815747018933
4.791681382978723,-3.7356507248071127,0.045587537993952765,6.282738479074126
4.79968085106383,-3.6553044189852733,-0.4892340425531696,6.122661211129303
4.807680319148936,-3.5749581131634343,-1.024055623100291,5.9625839431844785
4.815679787234043,-3.494611807341595,-1.5588772036474134,5.802506675239655
4.823679255319149,-3.414265501519756,-2.093698784194535,5.642429407294831
4.831678723404255,-36.170423869681045,-7.963659197695085,25.071814583333392
4.839678191489361,-34.33679579454802,-7.511772578679114,24.515684895833378
4.847677659574468,-32.50316771941499,-7.059885959663144,23.959555208333363
4.8556771276595745,-30.669539644281954,-6.607999340647174,23.403425520833345
4.863676595744681,-28.835911569148927,-6.156112721631204,22.84729583333333
4.871676063829788,-27.002283494015895,-5.704226102615234,22.291166145833316
4.879675531914893,-25.16865541888307,-5.252339483599314,21.73503645833336
4.887675,-23.335027343750035,-4.8004528645833435,21.178906770833343
4.895674468085106,-21.501399268617007,-4.348566245567373,20.62277708333333
4.903673936170213,-19.667771193483976,-3.8966796265514025,20.066647395833314
4.911673404255319,-17.834143118350944,-3.4447930075354325,19.510517708333296
4.919672872340425,-16.00051504321812,-2.992906388519512,18.954388020833342
4.927672340425532,-6.976487659574773,0.6236263829785904,17.114438297872397
4.935671808510638,9.713773736702125,-19.434412433510634,-39.31439594414893
4.943671276595745,5.2130730053190595,-12.815852526595613,-29.040079122340224
4.951670744680851,2.2267020786674143,-7.735413136898022,-20.975961660134246
4.959670212765958,2.2617523796192627,-5.723862681970783,-17.32167833146678
4.967669680851063,2.296802680571107,-3.7123122270437685,-13.667395002799726
4.97566914893617,2.331852981522955,-1.7007617721165298,-10.013111674132263
4.9836686170212765,2.3669032824748033,0.31078868281070804,-6.3588283454648025
4.991668085106383,2.401953583426651,2.3223391377379468,-2.70454501679734
4.99966755319149,2.4370038843784996,4.3338895926651855,0.9497383118701208
5.007667021276596,2.472054185330348,6.345440047592424,4.604021640537585
5.015666489361702,2.5071044862821923,8.356990502519437,8.25830496920464
5.023665957446808,2.54215478723404,10.368540957446676,11.912588297872102
5.031665425531915,6.22103085106388,-6.023596276595811,2.1795609042553
5.039664893617021,6.2312157973003925,-5.813220086936628,2.3681382406771925
5.047664361702128,6.438083762296965,-5.855195790436972,2.4883022935255132
5.055663829787234,6.644951727293514,-5.897171493937312,2.6084663463738207
5.06366329787234,6.8518196922900865,-5.939147197437656,2.7286303992221415
5.071662765957447,7.05868765728666,-5.981122900938,2.8487944520704627
5.079662234042553,7.265555622283232,-6.023098604438344,2.9689585049187834
5.08766170212766,7.472423587279804,-6.065074307938688,3.089122557767104
5.095661170212766,7.679291552276377,-6.107050011439032,3.209286610615425
5.103660638297872,7.886159517272926,-6.149025714939372,3.3294506634637324
5.1116601063829785,8.093027482269498,-6.191001418439715,3.4496147163120536
5.119659574468085,8.29989544726607,-6.232977121940059,3.5697787691603744
5.127659042553192,6.95957234042547,-5.484559574468053,4.234324601063855
5.135658510638298,7.960221276597284,-1.9061765957450805,9.963065957448016
5.143657978723404,11.534000130932897,-3.064353944353517,13.001607479541734
5.15165744680851,11.392224942716856,-3.305076399345337,13.174149852700493
5.159656914893617,11.250449754500815,-3.545798854337157,13.34669222585925
5.167656382978723,11.108674566284774,-3.786521309328977,13.51923459901801
5.17565585106383,10.966899378068733,-4.027243764320797,13.691776972176768
5.1836553191489365,10.82512418985269,-4.267966219312617,13.864319345335526
5.191654787234042,10.683349001636666,-4.508688674304411,14.036861718494265
5.199654255319149,10.541573813420625,-4.749411129296231,14.209404091653024
5.207653723404255,7.62413936170225,-9.62189574468065,5.705916489362064
5.215653191489362,-3.797085383903805,-3.59387692876967,3.797073802035159
5.223652659574468,-4.081936008325641,-3.8717019333950216,3.9373775161887226
5.231652127659574,-4.366786632747447,-4.149526938020343,4.077681230342272
5.2396515957446805,-4.651637257169283,-4.427351942645695,4.217984944495836
5.247651063829787,-4.93648788159112,-4.705176947271046,4.358288658649399
5.255650531914894,-5.221338506012957,-4.983001951896399,4.498592372802963
5.26365,-5.506189130434794,-5.2608269565217505,4.638896086956527
5.271649468085107,-5.79103975485663,-5.538651961147103,4.779199801110091
5.279648936170212,-6.075890379278436,-5.816476965772424,4.91950351526364
5.287648404255319,-6.360741003700273,-6.094301970397776,5.059807229417204
5.295647872340425,-6.645591628122109,-6.372126975023127,5.200110943570768
5.303647340425532,-6.930442252543946,-6.649951979648479,5.340414657724332
5.3116468085106385,-7.2152928769657825,-6.927776984273832,5.480718371877896
5.319646276595745,-7.500143501387619,-7.205601988899183,5.62102208603146
5.327645744680851,-4.002797340427673,-6.8083135638301595,5.971328989361576
5.335645212765957,15.563385474196464,-2.9499206880942164,7.243603966727012
5.343644680851064,15.63121075147125,-2.1438466274332626,7.45473886373924
5.35164414893617,15.699036028746038,-1.3377725667723088,7.665873760751468
5.359643617021277,15.766861306020825,-0.531698506111355,7.877008657763696
5.3676430851063826,15.834686583295603,0.27437555454950946,8.0881435547759
5.375642553191489,15.90251186057039,1.0804496152104628,8.29927845178813
5.383642021276596,15.970337137845178,1.886523675871417,8.510413348800357
5.391641489361702,16.038162415119963,2.6925977365323703,8.721548245812585
5.399640957446809,16.105987692394752,3.4986717971933246,8.932683142824814
5.407640425531915,16.173812969669537,4.304745857854278,9.143818039837042
5.415639893617021,16.24163824694432,5.110819918515143,9.354952936849248
5.4236393617021275,16.309463524219105,5.916893979176096,9.566087833861475
5.431638829787234,2.1955702127667394,11.224284361702134,10.94845351063832
5.4396382978723405,-1.1356387869894815,5.072545121056494,6.905772805086825
5.447637765957447,-1.2709861090731236,5.07116590242113,6.592782122768402
5.455637234042553,-1.4063334311567506,5.069786683785767,6.279791440450015
5.463636702127659,-1.5416807532403927,5.068407465150404,5.966800758131592
5.471636170212766,-1.677028075324035,5.067028246515041,5.653810075813169
5.479635638297872,-1.812375397407677,5.065649027879678,5.340819393494747
5.487635106382979,-1.9477227194913191,5.064269809244314,5.0278287111763245
5.4956345744680855,-2.0830700415749615,5.0628905906089505,4.714838028857902
5.503634042553191,-2.218417363658588,5.061511371973587,4.4018473465395145
5.511633510638298,-2.3537646857422305,5.060132153338224,4.088856664221092
5.519632978723404,-2.489112007825873,5.058752934702861,3.7758659819026694
5.527632446808511,0.7478696808511422,-1.0215367021280084,3.814559042553376
5.535631914893617,5.55489510638298,-3.07529970212766,4.775521957446808
5.543631382978723,5.939669521276564,-3.118336840425528,4.772002191489362
5.5516308510638295,6.324443936170189,-3.1613739787234016,4.768482425531915
5.559630319148936,6.709218351063815,-3.204411117021275,4.764962659574468
5.567629787234043,7.0939927659574415,-3.2474482553191484,4.761442893617021
5.575629255319149,7.478767180851067,-3.290485393617022,4.757923127659574
5.583628723404256,7.863541595744693,-3.333522531914895,4.754403361702128
5.591628191489361,8.248316010638277,-3.376559670212764,4.750883595744681
5.599627659574468,8.633090425531902,-3.419596808510637,4.747363829787234
5.607627127659574,9.017864840425528,-3.4626339468085106,4.743844063829787
5.615626595744681,9.402639255319155,-3.5056710851063837,4.74032429787234
5.6236260638297875,9.78741367021278,-3.5487082234042573,4.736804531914894
5.631625531914894,11.302618085106337,-3.995775531914808,5.141328723404138
5.639625,10.74568039772729,-3.3462642045454674,2.8179417613636346
5.647624468085106,10.44706389023212,-3.1195520067698346,2.853121240328819
5.655623936170213,10.14844738273695,-2.892839808994202,2.888300719294003
5.663623404255319,9.84983087524178,-2.6661276112185686,2.923480198259188
5.671622872340426,9.55121436774661,-2.4394154134429358,2.958659677224372
5.6796223404255315,9.252597860251473,-2.212703215667328,2.9938391561895528
5.687621808510638,8.953981352756303,-1.985991017891695,3.029018635154737
5.695621276595745,8.655364845261133,-1.759278820116062,3.0641981141199213
5.703620744680851,8.356748337765962,-1.5325666223404293,3.099377593085106
5.711620212765958,8.058131830270792,-1.3058544245647963,3.13455707205029
5.719619680851064,7.759515322775622,-1.0791422267891635,3.169736551015475
5.72761914893617,8.333154559270572,0.22104057750767242,4.156442857142733
5.735618617021276,7.108664551671783,-1.4091367401215122,6.8956892857141705
5.743618085106383,5.9490873330034635,-1.2166866031667494,9.872499863928748
5.7516175531914895,5.895137431964374,-1.1706431531420083,9.988678185304307
5.759617021276596,5.841187530925283,-1.1245997031172674,10.104856506679866
5.767616489361702,5.7872376298861985,-1.0785562530925314,10.22103482805541
5.775615957446808,5.733287728847108,-1.0325128030677906,10.33721314943097
5.783615425531915,5.679337827808018,-0.9864693530430495,10.453391470806528
5.791614893617021,5.625387926768927,-0.9404259030183085,10.569569792182087
5.799614361702128,5.571438025729837,-0.8943824529935676,10.685748113557645
5.807613829787234,5.517488124690746,-0.8483390029688265,10.801926434933204
5.81561329787234,5.463538223651661,-0.8022955529440907,10.91810475630875
5.823612765957447,5.409588322612572,-0.7562521029193496,11.034283077684307
5.831612234042553,2.6436448138297557,1.8089038563829751,9.823612632978698
5.83961170212766,1.06252581879034,-0.4063382739660497,7.666999163279944
5.847611170212766,1.1500705594071243,-0.5576989959359315,7.6049808152043985
5.855610638297872,1.237615300023899,-0.7090597179057967,7.54296246712886
5.863610106382978,1.3251600406406834,-0.8604204398756785,7.480944119053315
5.871609574468085,1.4127047812574678,-1.0117811618455603,7.418925770977769
5.8796090425531915,1.5002495218742524,-1.1631418838154424,7.356907422902224
5.887608510638298,1.5877942624910366,-1.3145026057853242,7.294889074826679
5.895607978723405,1.6753390031078212,-1.465863327755206,7.232870726751133
5.90360744680851,1.7628837437245959,-1.6172240497250712,7.170852378675594
5.911606914893617,1.8504284843413803,-1.768584771694953,7.108834030600049
5.919606382978723,1.937973224958165,-1.9199454936648348,7.046815682524503
5.92760585106383,1.5159598936169636,-2.5233657446809112,7.1123610638298
5.935605319148936,6.8382987234043755,-3.816917872340443,7.466931914893489
5.943604787234042,7.442641841909946,-3.95950616650173,6.8030672624938155
5.951604255319149,7.419294557149926,-4.03587318159327,6.7988814943097475
5.959603723404255,7.395947272389906,-4.11224019668481,6.79469572612568
5.967603191489362,7.3725999876298856,-4.18860721177635,6.790509957941613
5.975602659574468,7.349252702869865,-4.26497422686789,6.786324189757545
5.983602127659575,7.325905418109845,-4.34134124195943,6.782138421573478
5.99160159574468,7.3025581333498275,-4.417708257050962,6.777952653389412
5.999601063829787,7.279210848589807,-4.494075272142502,6.773766885205344
6.0076005319148935,7.255863563829788,-4.570442287234042,6.769581117021277
6.0156,7.232516279069768,-4.6468093023255825,6.76539534883721
6.023599468085107,7.2091689943097474,-4.723176317417122,6.761209580653142
6.031598936170213,9.472079890185293,-3.8512460306565917,7.967777956989257
6.039598404255319,9.259448867536033,-3.7476830244795245,8.08501747311828
6.047597872340425,9.04681784488675,-3.6441200183024463,8.202256989247314
6.055597340425532,8.834186822237466,-3.540557012125368,8.319496505376348
6.063596808510638,8.621555799588183,-3.4369940059482897,8.436736021505382
6.071596276595745,8.4089247769389,-3.3334309997712115,8.553975537634416
6.079595744680851,8.19629375428964,-3.229867993594145,8.671215053763438
6.087595212765957,7.983662731640355,-3.1263049874170665,8.788454569892473
6.095594680851064,7.771031708991072,-3.022741981239988,8.905694086021509
6.10359414893617,7.5584006863417885,-2.91917897506291,9.022933602150543
6.111593617021277,7.345769663692504,-2.8156159688858313,9.140173118279577
6.119593085106383,7.133138641043221,-2.712052962708753,9.257412634408611
6.127592553191489,3.9959682370821223,1.0491791033434008,9.62344536474165
6.1355920212765955,2.925182294832879,2.2839541413373254,9.436600645896664
6.143591489361702,2.6407086900794674,2.5838475262753153,8.74524557805691
6.151590957446809,2.5657257241732885,2.459903960522942,8.65031213150474
6.159590425531915,2.490742758267109,2.3359603947705683,8.555378684952574
6.167589893617021,2.415759792360938,2.212016829018209,8.460445238400416
6.175589361702127,2.340776826454759,2.0880732632658354,8.365511791848249
6.183588829787234,2.2657938605485795,1.9641296975134621,8.27057834529608
6.19158829787234,2.1908108946424005,1.8401861317610888,8.175644898743913
6.199587765957447,2.115827928736221,1.7162425660087153,8.080711452191746
6.2075872340425535,2.040844962830042,1.592299000256342,7.9857780056395775
6.215586702127659,1.965861996923871,1.4683554345039824,7.89084455908742
6.223586170212766,1.890879031017692,1.344411868751609,7.7959111125352525
6.231585638297872,6.476515082361017,-3.2019911633493483,8.94534384008236
6.239585106382979,6.538188400823612,-3.2428486616334946,8.922721688400822
6.247584574468085,6.599861719286208,-3.283706159917641,8.900099536719285
6.255584042553191,6.661535037748797,-3.3245636582017823,8.877477385037748
6.2635835106382975,6.7232083562113925,-3.365421156485929,8.854855233356211
6.271582978723404,6.784881674673988,-3.4062786547700754,8.832233081674673
6.279582446808511,6.846554993136583,-3.4471361530542217,8.809610929993136
6.287581914893617,6.908228311599179,-3.487993651338368,8.786988778311597
6.295581382978724,6.969901630061774,-3.5288511496225143,8.76436662663006
6.303580851063829,7.031574948524363,-3.569708647906656,8.741744474948524
6.311580319148936,7.093248266986959,-3.6105661461908025,8.719122323266987
6.3195797872340425,7.1549215854495545,-3.651423644474949,8.696500171585448
6.327579255319149,4.718998758864988,-2.3324677304964467,8.360632092198582
6.3355787234042555,4.426514316624596,-3.687537684817887,7.893085394879192
6.343578191489362,4.345299377930039,-3.679741593040029,7.917693928056257
6.351577659574468,4.264084439235492,-3.671945501262172,7.942302461233319
6.359577127659574,4.182869500540935,-3.6641494094843137,7.966910994410385
6.367576595744681,4.101654561846378,-3.6563533177064556,7.9915195275874495
6.375576063829787,4.020439623151821,-3.6485572259285974,8.016128060764515
6.383575531914894,3.939224684457265,-3.6407611341507393,8.04073659394158
6.391575,3.8580097457627174,-3.632965042372882,8.065345127118643
6.399574468085106,3.7767948070681605,-3.625168950595024,8.089953660295707
6.407573936170213,3.695579868373604,-3.617372858817166,8.114562193472773
6.415573404255319,3.6143649296790477,-3.6095767670393077,8.139170726649839
6.423572872340426,3.533149990984491,-3.6017806752614496,8.163779259826903
6.431572340425532,3.451935052289934,-3.5939845834835915,8.188387793003969
6.439571808510638,3.370720113595387,-3.5861884917057343,8.212996326181031
6.4475712765957445,3.28950517490083,-3.578392399927876,8.237604859358097
6.455570744680851,2.242494148936154,3.948289273049656,9.86316542553192
6.463570212765958,2.7420407201309405,3.569204713584286,9.750825531914888
6.471569680851064,2.3873566121112906,3.6538760065466453,9.95881170212766
6.47956914893617,2.03267250409168,3.738547299508995,10.166797872340409
6.487568617021276,1.6779883960720305,3.8232185924713544,10.37478404255318
6.495568085106383,1.3233042880523809,3.9078898854337134,10.582770212765952
6.503567553191489,0.9686201800327312,3.992561178396073,10.790756382978724
6.511567021276596,0.6139360720130815,4.077232471358432,10.998742553191496
6.5195664893617025,0.2592519639934321,4.161903764320791,11.206728723404268
6.527565957446808,-0.09248201160540699,4.220461895551259,11.264810058027095
6.535565425531915,-0.43209579303674467,4.1717378626692465,10.707028965183762
6.543564893617021,0.03756276595744157,2.0479106382978935,9.88426489361703
6.551564361702128,2.015590492021275,-2.6044208333333327,9.298205016252956
6.559563829787234,2.2365757978723426,-2.667083333333334,9.27276226359338
6.56756329787234,2.4575611037233864,-2.7297458333333284,9.247319510933808
6.5755627659574465,2.6785464095744542,-2.7924083333333294,9.221876758274234
6.583562234042553,2.8995317154255225,-2.855070833333331,9.196434005614659
6.59156170212766,3.1205170212765903,-2.9177333333333317,9.170991252955083
6.599561170212766,3.3415023271276585,-2.980395833333333,9.145548500295508
6.607560638297873,3.5624876329787263,-3.0430583333333345,9.120105747635934
6.615560106382978,3.78347293882977,-3.1057208333333284,9.09466299497636
6.623559574468085,4.00970425531913,-2.8312397163123504,9.027912765957485
6.631559042553191,3.2759922557767114,-0.0641489533287605,8.963887520018302
6.639558510638298,3.247262983299017,0.0052657858613575775,8.990896476778769
6.6475579787234045,3.2185337108213226,0.07468052505147565,9.017905433539235
6.65555744680851,3.1898044383436313,0.14409526424158603,9.0449143902997
6.663556914893617,3.1610751658659364,0.21351000343170412,9.071923347060167
6.671556382978723,3.132345893388242,0.28292474262182216,9.098932303820634
6.67955585106383,3.1036166209105476,0.35233948181194025,9.125941260581103
6.687555319148936,3.074887348432853,0.42175422100205834,9.15295021734157
6.695554787234043,3.0461580759551588,0.49116896019217643,9.179959174102036
6.7035542553191485,3.0174288034774674,0.5605836993822868,9.206968130862501
6.711553723404255,2.988699530999773,0.6299984385724049,9.233977087622968
6.719553191489362,2.9599702585220786,0.699413177762523,9.260986044383435
6.727552659574468,2.6001914893616824,0.8753191489361868,9.962287234042561
6.735552127659575,1.722467021276578,1.3197255319148562,10.049576241134714
6.743551595744681,1.6735922267891659,1.29973364966151,9.990431026353964
6.751551063829787,1.64032171179884,1.3174597437137328,9.966523525145067
6.759550531914893,1.6070511968085106,1.3351858377659573,9.94261602393617
6.76755,1.5737806818181812,1.3529119318181821,9.918708522727272
6.7755494680851065,1.5405101668278518,1.3706380258704067,9.894801021518374
6.783548936170213,1.5072396518375222,1.3883641199226315,9.870893520309476
6.791548404255319,1.4739691368471965,1.4060902139748543,9.846986019100582
6.799547872340425,1.4406986218568671,1.423816308027079,9.823078517891684
6.807547340425532,1.4074281068665375,1.4415424020793037,9.799171016682784
6.815546808510638,1.3741575918762081,1.4592684961315285,9.775263515473886
6.823546276595745,1.3408870768858787,1.4769945901837531,9.751356014264989
6.831545744680851,2.6072039893618126,-0.7516578457448734,8.968564361702063
6.839545212765957,2.6263588931388946,-1.728959239780064,8.917806030360987
6.847544680851064,2.648110255797274,-1.6919279942624923,8.880505139851783
6.85554414893617,2.6698616184556534,-1.6548967487449204,8.843204249342577
6.863543617021277,2.691612981114033,-1.6178655032273488,8.805903358833373
6.871543085106383,2.713364343772412,-1.5808342577097771,8.768602468324168
6.879542553191489,2.7351157064307894,-1.5438030121922095,8.731301577814968
6.887542021276595,2.756867069089169,-1.5067717666746379,8.694000687305763
6.895541489361702,2.7786184317475486,-1.4697405211570662,8.656699796796559
6.9035409574468085,2.800369794405928,-1.4327092756394946,8.619398906287355
6.911540425531915,2.8221211570643074,-1.395678030121923,8.582098015778149
6.919539893617022,2.843872519722687,-1.358646784604351,8.544797125268945
6.927539361702127,3.6879983282676765,-1.462697720364925,9.339731155015098
6.935538829787234,1.3591827659574478,1.0620096808510593,10.15460446808511
6.94353829787234,1.3279866583229065,1.5011866082603242,9.79592272841051
6.951537765957447,1.4492962390488164,1.4480136733416749,9.680259831038793
6.959537234042553,1.5706058197747261,1.3948407384230255,9.564596933667076
6.967536702127659,1.6919154005006225,1.3416678035043819,9.448934036295372
6.975536170212766,1.8132249812265324,1.2884948685857325,9.333271138923655
6.983535638297872,1.934534561952442,1.235321933667083,9.217608241551938
6.991535106382979,2.0558441426783522,1.1821489987484337,9.101945344180221
6.999534574468085,2.177153723404262,1.1289760638297843,8.986282446808504
7.007534042553192,2.2984633041301716,1.075803128911135,8.870619549436787
7.015533510638297,2.4197728848560685,1.0226301939924913,8.754956652065083
7.023532978723404,2.8884968085105482,0.6036457446809447,8.54733297872343
7.0315324468085105,3.4054488343141633,0.7720077580353112,10.443449083295612
7.039531914893617,3.156784517881384,0.817196242643732,10.525315980081489
7.047531382978724,2.908120201448605,0.8623847272521529,10.607182876867366
7.05553085106383,2.659455885015826,0.9075732118605737,10.689049773653243
7.063530319148936,2.4107915685830745,0.9527616964689896,10.770916670439112
7.071529787234042,2.162127252150295,0.9979501810774105,10.85278356722499
7.079529255319149,1.9134629357175161,1.0431386656858312,10.934650464010867
7.087528723404255,1.6647986192847368,1.0883271502942522,11.016517360796744
7.095528191489362,1.4161343028519577,1.1335156349026732,11.098384257582621
7.103527659574468,1.167469986419206,1.1787041195110888,11.18025115436849
7.111527127659574,0.9188056699864271,1.2238926041195097,11.262118051154367
7.119526595744681,0.6701413535536478,1.2690810887279307,11.343984947940244
7.127526063829787,-0.07725585106382578,2.306763297872355,10.242965780141873
7.135525531914894,1.2552143617021774,-0.891761702127752,9.168724999999995
7.143525,1.642348295454551,-1.2820880681818188,9.116940340909089
7.151524468085106,1.8446984767891552,-1.3066318907156655,9.079670091876212
7.1595239361702125,2.047048658123782,-1.3311757132495152,9.042399842843329
7.167523404255319,2.2493988394584084,-1.355719535783365,9.005129593810446
7.175522872340426,2.4517490207930352,-1.3802633583172144,8.967859344777564
7.183522340425532,2.6540992021276617,-1.404807180851064,8.930589095744681
7.191521808510638,2.856449383462266,-1.4293510033849108,8.893318846711802
7.199521276595744,3.0587995647968924,-1.4538948259187605,8.85604859767892
7.207520744680851,3.2611497461315193,-1.47843864845261,8.818778348646036
7.2155202127659575,3.463499927466146,-1.5029824709864597,8.781508099613154
7.223519680851064,3.6658501088007727,-1.5275262935203093,8.744237850580271
7.2315191489361705,2.8530686930091,-0.8435598784194133,9.46097386018238
7.239518617021276,2.180541983282686,0.5786312689969371,9.733527165653491
7.247518085106383,2.013883142389525,0.8544631517418753,9.771536848258126
7.255517553191489,1.9621942716857597,0.8697588379705405,9.75624116202946
7.263517021276596,1.9105054009819944,0.8850545241992057,9.740945475800794
7.271516489361702,1.8588165302782291,0.900350210427871,9.72564978957213
7.279515957446808,1.8071276595744696,0.9156458966565345,9.710354103343466
7.287515425531915,1.7554387888707044,0.9309415828851997,9.6950584171148
7.295514893617021,1.703749918166939,0.946237269113865,9.679762730886136
7.303514361702128,1.6520610474631738,0.9615329553425302,9.664467044657469
7.311513829787234,1.6003721767594086,0.9768286415711954,9.649171358428804
7.319513297872341,1.5486833060556435,0.9921243277998606,9.633875672200139
7.327512765957446,1.4969944353518838,1.007420014028524,9.618579985971476
7.335512234042553,0.27053643617046574,0.14571090425553346,9.68593297872334
7.3435117021276595,0.5927559198998731,-1.051260938673346,9.892755919899873
7.351511170212766,0.6189188861076333,-0.9843477409261606,9.918918886107633
7.3595106382978726,0.6450818523153936,-0.9174345431789753,9.945081852315393
7.367510106382979,0.6712448185231539,-0.8505213454317899,9.971244818523154
7.375509574468085,0.6974077847309111,-0.7836081476846121,9.997407784730912
7.383509042553191,0.7235707509386714,-0.7166949499374267,10.023570750938672
7.391508510638298,0.7497337171464316,-0.6497817521902414,10.049733717146433
7.399507978723404,0.7758966833541918,-0.5828685544430561,10.075896683354193
7.407507446808511,0.8020596495619521,-0.5159553566958708,10.102059649561953
7.415506914893617,0.8282226157697095,-0.4490421589486928,10.12822261576971
7.423506382978723,0.8543855819774697,-0.3821289612015075,10.15438558197747
7.43150585106383,0.25670166437886044,1.619019286204531,9.957245590253946
7.439505319148936,0.26779770075497594,1.5718826355525053,9.976943205216196
7.447504787234043,0.2788937371310915,1.5247459849004796,9.996640820178449
7.455504255319149,0.289989773507207,1.477609334248454,10.016338435140701
7.463503723404255,0.30108580988332134,1.4304726835964336,10.03603605010295
7.4715031914893615,0.31218184625943685,1.383336032944408,10.055733665065201
7.479502659574468,0.3232778826355524,1.3361993822923823,10.075431280027454
7.487502127659575,0.3343739190116679,1.2890627316403567,10.095128894989704
7.495501595744681,0.34546995538778347,1.241926080988331,10.114826509951957
7.503501063829787,0.35656599176389775,1.1947894303363105,10.134524124914206
7.511500531914893,0.36766202814001325,1.1476527796842848,10.154221739876458
7.5195,0.3787580645161288,1.1005161290322591,10.17391935483871
7.527499468085106,0.6201195478723397,0.7506867021276841,9.645092952127655
7.535498936170213,0.6620469572180285,-0.49391559139785113,9.852371825669183
7.5434984042553195,0.6727989304506987,-0.5222147849462389,9.845920641729581
7.551497872340425,0.6835509036833676,-0.5505139784946234,9.83946945778998
7.559497340425532,0.6943028769160376,-0.578813172043011,9.833018273850378
7.567496808510638,0.7050548501487077,-0.6071123655913987,9.826567089910775
7.575496276595745,0.7158068233813778,-0.6354115591397864,9.820115905971173
7.583495744680851,0.7265587966140479,-0.663710752688174,9.813664722031572
7.591495212765957,0.7373107698467168,-0.6920099462365585,9.80721353809197
7.5994946808510635,0.7480627430793869,-0.7203091397849463,9.800762354152369
7.60749414893617,0.758814716312057,-0.748608333333334,9.794311170212767
7.615493617021277,0.7695666895447271,-0.7769075268817216,9.787859986273164
7.623493085106383,0.7803186627773971,-0.8052067204301092,9.781408802333562
7.63149255319149,0.21810425531914263,0.036158282674816744,9.710642249240134
7.639492021276595,0.10611170212766535,0.8252486702127255,9.94148404255318
7.647491489361702,0.0715533434650461,0.9871375379939205,9.987009270516717
7.655490957446808,0.05498301671732535,1.0033269376899694,9.989485296352584
7.663490425531915,0.03841268996960458,1.0195163373860185,9.99196132218845
7.6714898936170215,0.021842363221883807,1.0357057370820675,9.994437348024315
7.679489361702128,0.005272036474163036,1.0518951367781164,9.996913373860181
7.687488829787234,-0.011298290273555889,1.0680845364741638,9.999389399696048
7.69548829787234,-0.02786861702127666,1.0842739361702127,10.001865425531914
7.703487765957447,-0.044438943768997416,1.1004633358662619,10.00434145136778
7.711487234042553,-0.061009270516718186,1.1166527355623108,10.006817477203647
7.71948670212766,-0.07757959726443896,1.1328421352583598,10.009293503039514
7.7274861702127655,0.07678404255302587,0.204988297872779,10.085081914893744
7.735485638297872,1.884804853723394,0.1611314494680824,9.297006648936176
7.743485106382979,1.891434189288334,0.1347650770359497,9.32237720714111
7.751484574468085,1.7786141049156252,0.07573451944240528,9.397590596722917
7.759484042553192,1.6657940205429165,0.016703961848860888,9.472803986304722
7.767483510638298,1.5529739361702077,-0.04232659574468353,9.548017375886529
7.775482978723404,1.4401538517975117,-0.10135715333822137,9.623230765468326
7.78348244680851,1.3273337674248027,-0.1603877109317658,9.698444155050131
7.791481914893617,1.2145136830520942,-0.2194182685253102,9.773657544631938
7.7994813829787235,1.1016935986793854,-0.2784488261188546,9.848870934213743
7.80748085106383,0.9888735143066767,-0.337479383712399,9.92408432379555
7.815480319148936,0.8760534299339806,-0.3965099413059368,9.999297713377347
7.823479787234042,0.625344148936366,-0.42345265957450673,10.021301595744747
7.831479255319149,0.7934091613852439,0.18107868379357173,9.603354792892711
7.839478723404255,0.7361363739248535,0.18150418741511995,9.599865663196015
7.847478191489362,0.6788635864644632,0.18192969103666817,9.59637653349932
7.855477659574468,0.621590799004073,0.1823551946582164,9.592887403802624
7.863477127659574,0.5643180115436891,0.18278069827976456,9.58939827410593
7.871476595744681,0.5070452240832988,0.1832062019013128,9.585909144409236
7.879476063829787,0.4497724366229085,0.183631705522861,9.58242001471254
7.887475531914894,0.3924996491625182,0.18405720914440923,9.578930885015845
7.895475,0.33522686170212795,0.18448271276595743,9.575441755319149
7.903474468085106,0.277954074241744,0.18490821638750563,9.571952625622455
7.911473936170212,0.2206812867813538,0.18533372000905382,9.568463495925759
7.919473404255319,0.16340849932096346,0.18575922363060204,9.564974366229064
7.9274728723404255,-0.23017765957441066,2.331430673758788,9.739644680851178
7.935472340425532,0.15253798098687132,1.7525986419194157,10.522482661837937
7.943471808510639,0.1430918005885008,1.668689327750106,10.52903541760978
7.951471276595744,0.1336456201901313,1.584780013580806,10.53558817338162
7.959470744680851,0.12419943979176074,1.5008706994114962,10.542140929153463
7.967470212765957,0.11475325939339018,1.4169613852421867,10.548693684925306
7.975469680851064,0.10530707899501962,1.333052071072877,10.555246440697148
7.98346914893617,0.09586089859664908,1.2491427569035674,10.561799196468991
7.991468617021276,0.08641471819827957,1.1652334427342672,10.568351952240834
7.999468085106383,0.07696853779990902,1.0813241285649577,10.574904708012676
8.00746755319149,0.06752235740153847,0.997414814395648,10.581457463784519
8.015467021276596,0.05807617700316792,0.9135055002263385,10.588010219556361
8.023466489361702,0.048629996604797374,0.8295961860570289,10.594562975328204
8.031465957446809,0.0009031914893583605,0.6551280851063606,9.724359468085105
8.039465425531915,-0.035094414893618656,0.41354414893615926,9.692761569148935
8.047464893617022,-0.0655766924564796,0.18438796628903006,9.663802998065764
8.055464361702128,-0.006671518375240493,0.15664955098093333,9.677620261121858
8.063463829787233,0.05223365570598554,0.1289111356728428,9.691437524177948
8.07146329787234,0.11113882978722464,0.10117272036474605,9.70525478723404
8.079462765957446,0.17004400386846377,0.07343430505664932,9.719072050290134
8.087462234042553,0.22894917794970288,0.0456958897485526,9.732889313346226
8.09546170212766,0.287854352030942,0.017957474440455867,9.74670657640232
8.103461170212766,0.3467595261121811,-0.009780940867640864,9.760523839458413
8.111460638297872,0.4056647001934202,-0.037519356175737595,9.774341102514505
8.119460106382979,0.4645698742746593,-0.06525777148383433,9.788158365570599
8.127459574468086,-0.23866808510644022,0.5594808510638021,9.584638297872303
8.135459042553192,0.31015827297419696,0.7979227478497067,9.954219573336351
8.143458510638299,0.28547906292440006,0.7465219103666814,9.956006688546854
8.151457978723403,0.2607998528746086,0.6951210728836675,9.957793803757356
8.15945744680851,0.23612064282481166,0.6437202354006422,9.959580918967857
8.167456914893616,0.2114414327750147,0.5923193979176169,9.96136803417836
8.175456382978723,0.18676222272521775,0.5409185604345915,9.963155149388863
8.18345585106383,0.16208301267542083,0.48951772295156615,9.964942264599365
8.191455319148936,0.13740380262562388,0.43811688546854083,9.966729379809868
8.199454787234043,0.11272459257582695,0.3867160479855155,9.96851649502037
8.20745425531915,0.08804538252603,0.3353152105024902,9.970303610230873
8.215453723404256,0.06336617247623305,0.28391437301946487,9.972090725441376
8.223453191489362,0.038686962426436156,0.2325135355364395,9.973877840651879
8.231452659574469,0.19547020132692655,1.9905499027682434,9.900328019903913
8.239452127659574,0.17052562342713748,1.9385103523221316,9.902134351407001
8.24745159574468,0.14558104552734288,1.8864708018760084,9.90394068291009
8.255451063829787,0.12063646762754827,1.8344312514298853,9.905747014413178
8.263450531914893,0.09569188972775368,1.782391700983762,9.907553345916266
8.27145,0.07074731182795907,1.7303521505376387,9.909359677419355
8.279449468085106,0.045802733928164474,1.6783126000915156,9.911166008922443
8.287448936170213,0.02085815602836985,1.6262730496453923,9.912972340425531
8.29544840425532,-0.004086421871424745,1.574233499199269,9.91477867192862
8.303447872340426,-0.02903099977121934,1.522193948753146,9.916585003431708
8.311447340425532,-0.05397557767101396,1.4701543983070227,9.918391334934798
8.319446808510639,-0.07892015557080856,1.4181148478608994,9.920197666437886
8.327446276595744,-0.4657118794328532,1.6682328014187215,9.756331382978885
8.33544574468085,0.18878848089682074,0.827429020819039,9.313652242049871
8.343445212765957,0.18113307595515965,0.7839910489590518,9.349864887897503
8.351444680851063,0.17347767101349854,0.7405530770990647,9.386077533745135
8.35944414893617,0.16582226607183742,0.6971151052390776,9.42229017959277
8.367443617021276,0.15816686113017633,0.6536771333790904,9.458502825440402
8.375443085106383,0.15051145618851522,0.6102391615191032,9.494715471288036
8.38344255319149,0.14285605124685413,0.5668011896591161,9.530928117135668
8.391442021276596,0.13520064630519302,0.523363217799129,9.567140762983302
8.399441489361703,0.1275452413635319,0.4799252459391418,9.603353408830934
8.40744095744681,0.11988983642187082,0.43648727407915466,9.639566054678566
8.415440425531914,0.11223443148021141,0.3930493022191771,9.675778700526191
8.42343989361702,0.011742553191693775,0.49232606382947963,9.743431914893545
8.431439361702127,-0.33039271685760824,1.0538982815057156,9.888748117839603
8.439438829787234,-0.14272207446821092,1.211444813829729,9.847295877659619
8.44743829787234,0.1935366430260062,1.3661304964539014,9.728289834515365
8.455437765957447,0.16637795508274308,1.3516129432624118,9.733129018912528
8.463437234042553,0.13921926713947996,1.337095390070922,9.737968203309693
8.47143670212766,0.11206057919621684,1.3225778368794323,9.742807387706856
8.479436170212766,0.08490189125295372,1.3080602836879425,9.747646572104019
8.487435638297873,0.05774320330969063,1.2935427304964529,9.752485756501182
8.49543510638298,0.030584515366427506,1.279025177304963,9.757324940898345
8.503434574468084,0.0034258274231704078,1.2645076241134765,9.762164125295508
8.51143404255319,-0.023732860520092713,1.2499900709219869,9.76700330969267
8.519433510638297,-0.050891548463355835,1.2354725177304973,9.771842494089833
8.527432978723404,-0.11607517730489325,0.47435248226945703,9.851215957446822
8.53543244680851,0.5820488046213677,0.04793818920155773,9.969055776710135
8.543431914893617,0.5718129261038657,0.09791336078700828,9.95735762983299
8.551431382978723,0.5615770475863638,0.14788853237245886,9.945659482955845
8.55943085106383,0.5513411690688619,0.19786370395790942,9.9339613360787
8.567430319148936,0.5411052905513599,0.24783887554335998,9.922263189201555
8.575429787234043,0.5308694120338581,0.29781404712881054,9.910565042324409
8.58342925531915,0.5206335335163561,0.3477892187142611,9.898866895447265
8.591428723404256,0.5103976549988543,0.39776439029971167,9.887168748570119
8.59942819148936,0.5001617764813545,0.4477395618851511,9.875470601692976
8.607427659574467,0.4899258979638526,0.4977147334706017,9.86377245481583
8.615427127659574,0.4796900194463507,0.5476899050560523,9.852074307938686
8.62342659574468,0.38041489361698216,0.7229787234043111,9.853797872340431
8.631426063829787,-0.11635448871037639,1.563146520842378,9.634014855623102
8.639425531914894,-0.08296895353886055,1.5235573165436367,9.651727963525836
8.647425,-0.04958341836734473,1.4839681122448953,9.669441071428572
8.655424468085107,-0.016197883195828905,1.4443789079461542,9.687154179331309
8.663423936170213,0.01718765197568692,1.4047897036474128,9.704867287234045
8.67142340425532,0.05057318714720277,1.3652004993486715,9.72258039513678
8.679422872340426,0.08395872231871859,1.3256112950499304,9.740293503039515
8.687422340425531,0.11734425749022698,1.2860220907511979,9.758006610942248
8.695421808510638,0.15072979266174286,1.2464328864524565,9.775719718844984
8.703421276595744,0.18411532783325868,1.2068436821537154,9.79343282674772
8.71142074468085,0.2175008630047745,1.167254477854974,9.811145934650455
8.719420212765957,0.2508863981762903,1.1276652735562327,9.82885904255319
8.727419680851064,0.04366569148936006,1.704940691489366,9.650283510638276
8.73541914893617,0.07628418812990075,1.5928086898096223,9.925607950727883
8.743418617021277,0.09034641097424584,1.5190451735722195,9.920134630459126
8.751418085106383,0.10440863381859093,1.4452816573348164,9.914661310190368
8.75941755319149,0.11847085666293602,1.3715181410974133,9.909187989921612
8.767417021276597,0.1325330795072811,1.2977546248600105,9.903714669652855
8.775416489361701,0.1465953023516231,1.2239911086226238,9.898241349384099
8.783415957446808,0.16065752519596818,1.150227592385221,9.892768029115341
8.791415425531914,0.17471974804031326,1.076464076147818,9.887294708846584
8.799414893617021,0.18878197088465837,1.0027005599104148,9.881821388577828
8.807414361702127,0.20284419372900345,0.928937043673012,9.87634806830907
8.815413829787234,0.21690641657334855,0.8551735274356089,9.870874748040313
8.82341329787234,0.23096863941769363,0.781410011198206,9.865401427771557
8.831412765957447,0.39821361702128383,0.9453180851063879,9.836787446808511
8.839412234042554,0.5070063829787255,1.0193131648936185,9.853986303191489
8.84741170212766,0.11781901254773589,1.4118509956355676,10.14285942444081
8.855411170212767,0.11679343971631195,1.3713408687943227,10.181728634751776
8.863410638297871,0.11576786688488826,1.3308307419530867,10.220597845062734
8.871410106382978,0.11474229405346434,1.2903206151118416,10.259467055373701
8.879409574468085,0.11371672122204042,1.2498104882705967,10.298336265684668
8.887409042553191,0.11269114839061649,1.2093003614293516,10.337205475995635
8.895408510638298,0.11166557555919257,1.1687902345881067,10.376074686306602
8.903407978723404,0.11064000272776865,1.1282801077468618,10.414943896617569
8.91140744680851,0.10961442989634472,1.0877699809056167,10.453813106928536
8.919406914893617,0.1085888570649208,1.0472598540643718,10.492682317239503
8.927406382978724,-0.35994468085107256,0.3394872340425757,9.435208936170186
8.93540585106383,-0.15767412696577138,0.1438884828862165,9.35899634597595
8.943405319148937,-0.11932885060129277,0.14597530064754868,9.377777705827938
8.951404787234042,-0.08098357423682266,0.1480621184088804,9.396559065679924
8.959404255319148,-0.04263829787234405,0.15014893617021258,9.415340425531914
8.967403723404255,-0.004293021507865424,0.15223575393154473,9.434121785383903
8.975403191489361,0.0340522548566132,0.15432257169287691,9.452903145235894
8.983402659574468,0.07239753122109183,0.15640938945420907,9.471684505087882
8.991402127659574,0.11074280758557042,0.15849620721554125,9.490465864939871
8.999401595744681,0.14908808395004908,0.16058302497687343,9.509247224791862
9.007401063829787,0.18743336031452767,0.1626698427382056,9.52802858464385
9.015400531914894,0.22577863667900633,0.16475666049953777,9.54680994449584
9.0234,0.2641239130434849,0.16684347826086993,9.56559130434783
9.031399468085107,-0.19206613661813382,0.27811698208286806,9.485202060470325
9.039398936170212,-0.1156080627099751,0.29184238521836353,9.485875699888018
9.047398404255318,-0.0391499888017994,0.305567788353862,9.48654933930571
9.055397872340425,0.037308085106376315,0.31929319148936053,9.487222978723404
9.063397340425531,0.11376615901455198,0.333018594624859,9.487896618141097
9.071396808510638,0.1902242329227277,0.3467439977603575,9.48857025755879
9.079396276595745,0.26668230683090344,0.360469400895856,9.489243896976484
9.087395744680851,0.34314038073907915,0.3741948040313545,9.489917536394177
9.095395212765958,0.41959845464725487,0.38792020716685305,9.49059117581187
9.103394680851064,0.4960565285554306,0.4016456103023515,9.491264815229563
9.11139414893617,0.5725146024636062,0.41537101343785,9.491938454647256
9.119393617021277,0.6489726763717819,0.4290964165733485,9.49261209406495
9.127393085106382,0.8162356382979604,0.9591303191483562,10.41623563829796
9.135392553191489,0.7236339317375954,1.2391071032801384,10.329255352393623
9.143392021276595,0.664804510195041,1.269521747562054,10.276508859707452
9.151391489361702,0.6059750886524867,1.2999363918439695,10.22376236702128
9.159390957446808,0.5471456671099324,1.3303510361258848,10.17101587433511
9.167390425531915,0.48831624556737807,1.3607656804078003,10.118269381648938
9.175389893617021,0.42948682402482374,1.3911803246897159,10.065522888962766
9.183389361702128,0.37065740248226947,1.4215949689716314,10.012776396276596
9.191388829787234,0.31182798093971514,1.4520096132535467,9.960029903590424
9.199388297872341,0.25299855939716076,1.4824242575354623,9.907283410904252
9.207387765957447,0.19416913785460654,1.5128389018173778,9.85453691821808
9.215387234042552,0.1353397163120652,1.5432535460992864,9.801790425531921
9.223386702127659,0.07651029476951088,1.573668190381202,9.749043932845751
9.231386170212765,-0.0509269756838822,1.382904407294846,9.762410258358662
9.239385638297872,-0.16030718085106407,0.8566622340426803,9.848667553191465
9.247385106382978,0.08612498029944243,0.5871964013659099,9.821257656947727
9.255384574468085,0.12641859732072008,0.5533221105857672,9.82609684134489
9.263384042553191,0.16671221434199773,0.5194478198056245,9.830936025742053
9.271383510638298,0.20700583136327536,0.48557352902548173,9.835775210139216
9.279382978723405,0.247299448384553,0.45169923824533903,9.84061439453638
9.287382446808511,0.28759306540583063,0.4178249474651963,9.845453578933544
9.295381914893618,0.3278866824271083,0.38395065668505357,9.850292763330707
9.303381382978724,0.36818029944838593,0.35007636590491087,9.85513194772787
9.311380851063829,0.40847391646965464,0.31620207512477566,9.859971132125033
9.319380319148935,0.4487675334909323,0.28232778434463296,9.864810316522195
9.327379787234042,1.9325202127660306,0.4618297872340788,9.427682978723407
9.335379255319149,1.7806912933930577,0.3920888017917138,9.434224568868983
9.343378723404255,1.80637379619261,0.4106138857782762,9.450728734602464
9.351378191489362,1.8320562989921625,0.42913896976483856,9.467232900335947
9.359377659574468,1.857738801791715,0.44766405375140095,9.48373706606943
9.367377127659575,1.8834213045912673,0.46618913773796333,9.500241231802914
9.375376595744681,1.9091038073908195,0.4847142217245257,9.516745397536395
9.383376063829788,1.934786310190372,0.5032393057110881,9.533249563269878
9.391375531914894,1.9604688129899244,0.5217643896976505,9.549753729003362
9.399375,1.9861513157894712,0.5402894736842088,9.566257894736841
9.407374468085106,2.0118338185890234,0.5588145576707712,9.582762060470325
9.415373936170212,2.037516321388576,0.5773396416573335,9.599266226203806
9.423373404255319,2.2169627659573594,0.6278595744680666,9.622841489361697
9.431372872340425,1.9661972019060274,0.933159424867021,9.696121647828013
9.439372340425532,1.9737800310283682,0.9359092420212765,9.694038453014183
9.447371808510638,1.981362860150709,0.9386590591755318,9.691955258200354
9.455371276595745,1.9889456892730495,0.9414088763297872,9.689872063386524
9.463370744680851,1.9965285183953903,0.9441586934840427,9.687788868572694
9.471370212765958,2.004111347517731,0.9469085106382981,9.685705673758864
9.479369680851065,2.0116941766400718,0.9496583277925534,9.683622478945034
9.48736914893617,2.0192770057624108,0.9524081449468083,9.681539284131206
9.495368617021276,2.0268598348847515,0.9551579621010637,9.679456089317377
9.503368085106382,2.034442664007092,0.9579077792553191,9.677372894503547
9.511367553191489,2.0420254931294326,0.9606575964095745,9.675289699689717
9.519367021276596,2.0496083222517734,0.96340741356383,9.673206504875887
9.527366489361702,2.073654521276582,0.8472460106383103,9.591277659574434
9.535365957446809,2.0451382526029884,0.8802075147125394,9.505034495246719
9.543365425531915,2.061647793119059,0.8754418741511993,9.52392685604346
9.551364893617022,2.07815733363513,0.8706762335898592,9.5428192168402
9.559364361702128,2.0946668741512013,0.8659105930285191,9.561711577636942
9.567363829787235,2.1111764146672725,0.861144952467179,9.580603938433683
9.57536329787234,2.12768595518334,0.85637931190584,9.59949629923042
9.583362765957446,2.1441954956994107,0.8516136713445,9.618388660027161
9.591362234042553,2.160705036215482,0.8468480307831598,9.637281020823902
9.59936170212766,2.177214576731553,0.8420823902218197,9.656173381620643
9.607361170212766,2.193724117247624,0.8373167496604796,9.675065742417384
9.615360638297872,2.210233657763695,0.8325511090991395,9.693958103214126
9.623360106382979,2.226,0.828,9.712
9.631359574468085,2.2542794795146825,1.1020601019869878,9.79769641287146
9.639359042553192,2.245420564445226,1.0783922542641105,9.787449160365746
9.647358510638298,2.2365616493757687,1.0547244065412333,9.77720190786003
9.655357978723405,2.227702734306312,1.0310565588183562,9.766954655354317
9.66335744680851,2.218843819236857,1.0073887110954844,9.756707402848603
9.671356914893616,2.2099849041674005,0.9837208633726073,9.74646015034289
9.679356382978723,2.2011259890979438,0.9600530156497302,9.736212897837174
9.68735585106383,2.192267074028487,0.936385167926853,9.725965645331458
9.695355319148936,2.18340815895903,0.9127173202039759,9.715718392825744
9.703354787234042,2.1745492438895733,0.8890494724810988,9.705471140320029
9.711354255319149,2.1656903288201166,0.8653816247582217,9.695223887814313
9.719353723404256,2.15683141375066,0.8417137770353444,9.6849766353086
9.727353191489362,2.1479724986812028,0.8180459293124673,9.674729382802884
9.735352659574469,2.139113583611746,0.7943780815895902,9.66448213029717
9.743352127659575,2.1302546685422894,0.7707102338667131,9.654234877791454
9.75135159574468,2.01914999999977,0.45440744680886413,9.53387659574464
9.759351063829786,1.8169256796690307,-0.026885786052010384,9.472473699763595
9.767350531914893,1.8168145759456265,-0.008775879137116645,9.45225282210402
9.77535,1.8167034722222222,0.009334027777777094,9.432031944444446
9.783349468085106,1.8165923684988179,0.027443934692670834,9.411811066784871
9.791348936170213,1.8164812647754138,0.04555384160756457,9.391590189125296
9.79934840425532,1.8163701610520095,0.06366374852245832,9.371369311465722
9.807347872340426,1.8162590573286053,0.08177365543735204,9.351148433806147
9.815347340425532,1.816147953605201,0.0998835623522458,9.330927556146573
9.823346808510639,1.8160368498817967,0.11799346926713952,9.310706678486998
9.831346276595745,2.295540425531917,0.5638444148936363,9.748582446808518
9.83934574468085,2.2882095866960177,1.009317314746889,9.81651809733432
9.847345212765957,2.270187796527272,0.9767677549523176,9.782497370995362
9.855344680851063,2.252166006358526,0.9442181951577461,9.748476644656401
9.86334414893617,2.2341442161897804,0.9116686353631746,9.714455918317443
9.871343617021276,2.2161224260210344,0.879119075568603,9.680435191978484
9.879343085106383,2.1981006358522888,0.8465695157740315,9.646414465639525
9.88734255319149,2.1800788456835427,0.81401995597946,9.612393739300567
9.895342021276596,2.162057055514797,0.7814703961848883,9.578373012961606
9.903341489361702,2.144035265346051,0.7489208363903168,9.544352286622647
9.911340957446809,2.126013475177305,0.7163712765957453,9.510331560283689
9.919340425531916,2.1079916850085594,0.6838217168011738,9.47631083394473
9.927339893617022,2.2203974652627005,0.4201755699088147,9.568178381458967
9.935339361702127,2.2115000976986554,0.431031990881457,9.582463145896654
9.943338829787233,2.202602730134608,0.4418884118541017,9.596747910334345
9.95133829787234,2.193705362570561,0.45274483282674644,9.611032674772035
9.959337765957446,2.184807995006514,0.46360125379939116,9.625317439209725
9.967337234042553,2.175910627442467,0.4744576747720359,9.639602203647415
9.97533670212766,2.1670132598784195,0.4853140957446806,9.653886968085107
9.983336170212766,2.158115892314372,0.49617051671732526,9.668171732522797
9.991335638297873,2.1492185247503253,0.50702693768997,9.682456496960487
9.99933510638298,2.140321157186278,0.5178833586626147,9.696741261398177
10.007334574468086,2.131423789622231,0.5287397796352594,9.711026025835869
10.015334042553192,2.1225264220581836,0.5395962006079041,9.725310790273559
10.023333510638297,2.1071630319149066,0.5643409574467809,9.733497074468096
10.031332978723404,2.035430296985815,0.7136743905141869,9.671166755319149
10.03933244680851,2.041263242464538,0.6960922262854632,9.669166888297873
10.047331914893617,2.0470961879432616,0.6785100620567395,9.667167021276596
10.055331382978723,2.0529291334219852,0.6609278978280158,9.66516715425532
10.06333085106383,2.058762078900709,0.6433457335992919,9.663167287234042
10.071330319148936,2.0645950243794324,0.6257635693705682,9.661167420212767
10.079329787234043,2.070427969858156,0.6081814051418445,9.65916755319149
10.08732925531915,2.0762609153368796,0.5905992409131208,9.657167686170213
10.095328723404256,2.082093860815603,0.573017076684397,9.655167819148936
10.103328191489362,2.0879268062943264,0.5554349124556732,9.65316795212766
10.111327659574467,2.0937597517730486,0.5378527482269535,9.651168085106383
10.119327127659574,2.099592697251772,0.5202705839982298,9.649168218085107
10.12732659574468,1.962796276595739,0.39214946808500145,9.716976595744727
10.135326063829787,1.9803708521384054,0.5586772189984957,9.640511197077155
10.143325531914893,1.9909560068772838,0.5544754781861164,9.641157618740598
10.151325,2.0015411616161622,0.5502737373737372,9.641804040404041
10.159324468085106,2.0121263163550402,0.5460719965613581,9.642450462067483
10.167323936170213,2.0227114710939187,0.5418702557489788,9.643096883730927
10.17532340425532,2.033296625832797,0.5376685149365997,9.64374330539437
10.183322872340426,2.0438817805716756,0.5334667741242205,9.644389727057812
10.191322340425533,2.054466935310554,0.5292650333118413,9.645036148721255
10.199321808510637,2.06505209004943,0.525063292499463,9.645682570384698
10.207321276595744,2.0756372447883082,0.5208615516870838,9.64632899204814
10.21532074468085,2.0862223995271867,0.5166598108747047,9.646975413711584
10.223320212765957,2.0968075542660647,0.5124580700623255,9.647621835375027
10.231319680851064,2.107135904255302,0.7781007978723838,9.620553457446805
10.23931914893617,2.2389148936170207,0.4431851063829802,9.653244680851063
10.247318617021277,2.245136702127659,0.4244307978723415,9.651022606382979
10.255318085106383,2.2513585106382976,0.40567648936170275,9.648800531914894
10.26331755319149,2.257580319148936,0.3869221808510641,9.64657845744681
10.271317021276596,2.2638021276595746,0.36816787234042536,9.644356382978723
10.279316489361703,2.270023936170213,0.34941356382978667,9.642134308510638
10.287315957446808,2.2762457446808497,0.33065925531915213,9.639912234042553
10.295315425531914,2.282467553191488,0.31190494680851344,9.637690159574468
10.30331489361702,2.2886893617021267,0.2931506382978747,9.635468085106384
10.311314361702127,2.294911170212765,0.27439632978723605,9.633246010638299
10.319313829787234,2.3011329787234036,0.2556420212765973,9.631023936170214
10.32731329787234,2.2686309574468053,0.3203260638297932,9.601532234042551
10.335312765957447,2.0455815602836895,0.43254184397163103,9.517799468085103
10.343312234042553,1.9984545821584214,0.4398141886695712,9.583790502435273
10.35131170212766,1.982937541655986,0.4569696744424503,9.588609459113048
10.359311170212766,1.9674205011535504,0.4741251602153293,9.593428415790823
10.367310638297873,1.9519034606511148,0.49128064598820836,9.598247372468597
10.375310106382978,1.9363864201486827,0.5084361317610836,9.60306632914637
10.383309574468084,1.9208693796462473,0.5255916175339627,9.607885285824146
10.39130904255319,1.9053523391438116,0.5427471033068417,9.612704242501922
10.399308510638297,1.8898352986413762,0.5599025890797208,9.617523199179697
10.407307978723404,1.8743182581389406,0.5770580748525999,9.62234215585747
10.41530744680851,1.8588012176365052,0.5942135606254788,9.627161112535246
10.423306914893617,1.8432841771340696,0.6113690463983579,9.631980069213022
10.431306382978724,1.94338889137738,0.6912590817469216,9.696391086226203
10.43930585106383,1.9518935890257565,0.711215649496082,9.68653910974244
10.447305319148937,1.9603982866741327,0.7311722172452424,9.676687133258678
10.455304787234043,1.9689029843225092,0.7511287849944028,9.666835156774916
10.463304255319148,1.9774076819708837,0.7710853527435588,9.656983180291155
10.471303723404255,1.9859123796192601,0.7910419204927192,9.647131203807392
10.479303191489361,1.9944170772676364,0.8109984882418796,9.63727922732363
10.487302659574468,2.002921774916013,0.83095505599104,9.627427250839867
10.495302127659574,2.011426472564389,0.8509116237402004,9.617575274356103
10.50330159574468,2.019931170212766,0.8708681914893608,9.60772329787234
10.511301063829787,2.028435867861142,0.8908247592385212,9.597871321388578
10.519300531914894,2.0369405655095183,0.9107813269876817,9.588019344904815
10.5273,2.0388000000000095,0.7920499999999902,9.530450000000004
10.535299468085107,2.106890035083749,0.507293888637392,9.636273517428698
10.543298936170213,2.112761985061115,0.503209053870529,9.618572566772292
10.551298404255318,2.1186339350384786,0.4991242191036671,9.60087161611589
10.559297872340425,2.1245058850158443,0.4950393843368043,9.583170665459484
10.567297340425531,2.1303778349932094,0.4909545495699414,9.56546971480308
10.575296808510638,2.1362497849705746,0.48686971480307856,9.547768764146673
10.583296276595744,2.1421217349479402,0.48278488003621567,9.530067813490268
10.59129574468085,2.1479936849253054,0.47870004526935284,9.512366862833861
10.599295212765957,2.153865634902671,0.47461521050248995,9.494665912177457
10.607294680851064,2.159737584880036,0.4705303757356271,9.47696496152105
10.61529414893617,2.165609534857402,0.4664455409687642,9.459264010864645
10.623293617021277,2.171481484834767,0.4623607062019014,9.441563060208239
10.631293085106384,1.9938392759094026,0.6426281285746964,9.822185935712652
10.63929255319149,1.9894524708304733,0.6324782658430558,9.827260867078472
10.647292021276595,1.9850656657515449,0.6223284031114175,9.83233579844429
10.655291489361701,1.9806788606726156,0.6121785403797769,9.837410729810111
10.663290957446808,1.976292055593686,0.6020286776481364,9.842485661175932
10.671290425531915,1.9719052505147567,0.5918788149164959,9.847560592541752
10.679289893617021,1.9675184454358272,0.5817289521848552,9.852635523907573
10.687289361702128,1.963131640356898,0.5715790894532147,9.857710455273393
10.695288829787234,1.9587448352779686,0.5614292267215741,9.862785386639214
10.70328829787234,1.954358030199039,0.5512793639899336,9.867860318005032
10.711287765957447,1.9499712251201098,0.5411295012582931,9.872935249370853
10.719287234042554,1.9455844200411803,0.5309796385266524,9.878010180736673
10.72728670212766,1.6882867021276595,0.5907958897485492,9.454644535783366
10.735286170212765,1.696286170212765,0.6206120889748509,9.520821953578327
10.743285638297872,2.0431680287859817,0.36738626408009467,9.625075469336668
10.751285106382978,2.047214818523153,0.39797246558197297,9.642015519399246
10.759284574468085,2.051261608260325,0.42855866708385126,9.658955569461824
10.767284042553191,2.0553083979974964,0.45914486858572956,9.675895619524404
10.775283510638298,2.0593551877346683,0.48973107008760786,9.692835669586982
10.783282978723404,2.0634019774718397,0.5203172715894862,9.709775719649562
10.791282446808511,2.067448767209011,0.5509034730913644,9.72671576971214
10.799281914893617,2.071495556946183,0.5814896745932427,9.743655819774718
10.807281382978724,2.0755423466833545,0.612075876095121,9.760595869837298
10.81528085106383,2.0795891364205263,0.6426620775969993,9.777535919899876
10.823280319148935,2.083635926157697,0.6732482790988709,9.79447596996245
10.831279787234042,2.0622963717805147,0.5960911870100777,9.617438331466964
10.839279255319148,2.064148880179171,0.6029117861142211,9.632679423292272
10.847278723404255,2.0660013885778272,0.6097323852183646,9.64792051511758
10.855278191489361,2.0678538969764837,0.6165529843225079,9.663161606942888
10.863277659574468,2.0697064053751397,0.6233735834266514,9.678402698768195
10.871277127659575,2.071558913773796,0.6301941825307948,9.693643790593505
10.879276595744681,2.0734114221724522,0.6370147816349383,9.708884882418813
10.887276063829788,2.0752639305711087,0.6438353807390818,9.72412597424412
10.895275531914894,2.0771164389697647,0.6506559798432251,9.739367066069429
10.903275,2.078968947368421,0.6574765789473686,9.754608157894737
10.911274468085105,2.0808214557670768,0.6642971780515105,9.76984924972004
10.919273936170212,2.0826739641657332,0.6711177771556539,9.785090341545349
10.927273404255319,2.1006716312056635,0.8609035460991787,9.79524219858156
10.935272872340425,1.911883670212767,0.6230521808510643,9.550593936170214
10.943272340425532,1.6693826004728127,0.5436002836879431,9.354890685579196
10.951271808510638,1.6532058983451527,0.5377340070921983,9.359512600472813
10.959271276595745,1.6370291962174928,0.5318677304964535,9.36413451536643
10.967270744680851,1.620852494089833,0.5260014539007087,9.368756430260047
10.975270212765958,1.604675791962173,0.5201351773049638,9.373378345153665
10.983269680851064,1.588499089834513,0.514268900709219,9.378000260047282
10.991269148936171,1.5723223877068533,0.5084026241134743,9.382622174940899
10.999268617021276,1.5561456855791969,0.5025363475177307,9.387244089834514
11.007268085106382,1.5399689834515369,0.49667007092198595,9.391866004728131
11.015267553191489,1.5237922813238771,0.4908037943262411,9.396487919621748
11.023267021276595,1.5076155791962171,0.4849375177304963,9.401109834515365
11.031266489361702,1.7580630319148796,0.32802127659575275,9.649432446808497
11.039265957446808,2.12170817469205,0.793281522956327,9.725067413213885
11.047265425531915,2.0967835162374024,0.7919342441209407,9.700816394176933
11.055264893617021,2.071858857782755,0.7905869652855544,9.676565375139978
11.063264361702128,2.046934199328107,0.789239686450168,9.652314356103023
11.071263829787235,2.0220095408734595,0.7878924076147816,9.628063337066068
11.079263297872341,1.997084882418812,0.7865451287793953,9.603812318029114
11.087262765957446,1.97216022396417,0.7851978499440092,9.579561298992164
11.095262234042552,1.9472355655095226,0.7838505711086229,9.555310279955211
11.103261702127659,1.922310907054875,0.7825032922732366,9.531059260918257
11.111261170212765,1.8973862486002273,0.7811560134378501,9.506808241881302
11.119260638297872,1.87246159014558,0.7798087346024638,9.482557222844347
11.127260106382979,1.8475369316909322,0.7784614557670775,9.458306203807393
11.135259574468085,1.8617914893617014,0.7582765957446815,9.50434893617021
11.143259042553192,1.879668617021274,0.7348885638297876,9.783001063829836
11.151258510638298,1.993733746296795,0.6265588338270952,9.800034069485593
11.159257978723405,1.9933287099380554,0.6015478386749263,9.766618569889577
11.167257446808511,1.9929236735793159,0.5765368435227574,9.733203070293563
11.175256914893616,1.9925186372205763,0.551525848370594,9.699787570697554
11.183256382978723,1.9921136008618368,0.5265148532184251,9.66637207110154
11.19125585106383,1.9917085645030972,0.5015038580662562,9.632956571505524
11.199255319148936,1.9913035281443576,0.4764928629140872,9.59954107190951
11.207254787234042,1.990898491785618,0.45148186776191834,9.566125572313494
11.215254255319149,1.9904934554268785,0.42647087260974936,9.53271007271748
11.223253723404255,1.990088419068139,0.4014598774575805,9.499294573121464
11.231253191489362,1.9364159574467958,0.7347095744680903,9.788113829787234
11.239252659574468,1.8384905307458494,0.7682198386719667,9.77052533902268
11.247252127659575,1.8595880289922844,0.7518692775309797,9.755844996492868
11.255251595744681,1.8806855272387195,0.7355187163899924,9.741164653963057
11.263251063829788,1.9017830254851544,0.7191681552490053,9.726484311433246
11.271250531914893,1.9228805237315847,0.7028175941080218,9.711803968903439
11.27925,1.9439780219780196,0.6864670329670347,9.697123626373628
11.287249468085106,1.9650755202244548,0.6701164718260476,9.682443283843817
11.295248936170212,1.9861730184708897,0.6537659106850604,9.667762941314006
11.303248404255319,2.0072705167173246,0.6374153495440733,9.653082598784195
11.311247872340426,2.0283680149637595,0.6210647884030862,9.638402256254384
11.319247340425532,2.0494655132101944,0.6047142272620991,9.623721913724573
11.327246808510639,2.06448510638297,0.6620382978723668,9.708961702127663
11.335246276595745,1.996635968645017,0.8287871724524078,9.731775257558791
11.343245744680852,1.9872050167973123,0.8054624076147812,9.734048790593505
11.351245212765958,1.9777740649496076,0.7821376427771545,9.73632232362822
11.359244680851063,1.968343113101905,0.7588128779395329,9.738595856662934
11.36724414893617,1.9589121612542002,0.7354881131019062,9.740869389697648
11.375243617021276,1.9494812094064957,0.7121633482642794,9.743142922732362
11.383243085106383,1.940050257558791,0.6888385834266527,9.745416455767078
11.39124255319149,1.9306193057110863,0.6655138185890259,9.747689988801792
11.399242021276596,1.9211883538633816,0.6421890537513992,9.749963521836506
11.407241489361702,1.911757402015677,0.6188642889137725,9.752237054871221
11.415240957446809,1.9023264501679722,0.5955395240761459,9.754510587905935
11.423240425531915,1.8928954983202675,0.572214759238519,9.75678412094065
11.431239893617022,1.8820181334622825,0.5314231576402325,9.664798602514507
11.439239361702128,1.885654255319149,0.540077127659575,9.660507978723404
11.447238829787233,1.889290377176015,0.5487310976789157,9.656217354932302
11.45523829787234,1.8929264990328816,0.5573850676982584,9.6519267311412
11.463237765957446,1.8965626208897484,0.5660390377176009,9.647636107350097
11.471237234042553,1.900198742746615,0.5746930077369434,9.643345483558994
11.47923670212766,1.9038348646034815,0.5833469777562861,9.639054859767892
11.487236170212766,1.907470986460348,0.5920009477756286,9.634764235976789
11.495235638297872,1.9111071083172149,0.6006549177949712,9.630473612185686
11.503235106382979,1.9147432301740814,0.6093088878143138,9.626182988394584
11.511234574468086,1.918379352030948,0.6179628578336563,9.62189236460348
11.519234042553192,1.9220154738878148,0.6266168278529989,9.617601740812379
11.527233510638299,1.9256515957446814,0.6352707978723415,9.613311117021276
11.535232978723403,1.929287717601547,0.6439247678916822,9.609020493230174
11.54323244680851,2.0545739361701485,0.6821635638296937,9.848283510638137
11.551231914893616,2.664526914893617,0.7187602393617026,10.631273670212767
11.559231382978723,2.691325132978724,0.7902554853723422,10.662271609042554
11.56723085106383,2.7181233510638307,0.8617507313829819,10.693269547872342
11.575230319148936,2.744921569148938,0.9332459773936215,10.72426748670213
11.583229787234043,2.7717197872340447,1.0047412234042612,10.755265425531917
11.59122925531915,2.7985180053191514,1.076236469414901,10.786263364361705
11.599228723404256,2.8253162234042586,1.1477317154255404,10.817261303191493
11.607228191489362,2.8521144414893653,1.2192269614361801,10.84825924202128
11.615227659574469,2.8789126595744725,1.2907222074468199,10.879257180851068
11.623227127659574,2.9057108776595735,1.3622174534574436,10.91025511968085
11.63122659574468,2.3239008335160967,1.2216283395482,10.955029666593534
11.639226063829787,2.5322168787014494,0.7848738758500098,11.0972882485194
11.647225531914893,2.740532923886802,0.3481194121518195,11.239546830445263
11.655225,2.948848969072155,-0.08863505154637075,11.381805412371127
11.663224468085106,3.157165014257508,-0.5253895152445611,11.524063994296991
11.671223936170213,3.3654810594428604,-0.9621439789427515,11.666322576222857
11.67922340425532,3.5737971046282135,-1.3988984426409417,11.808581158148721
11.687222872340426,3.7821131498135663,-1.8356529063391318,11.950839740074585
11.695222340425532,3.990429194998919,-2.272407370037322,12.09309832200045
11.703221808510639,4.198745240184272,-2.7091618337355126,12.235356903926315
11.711221276595744,4.407061285369579,-3.1459162974336055,12.377615485852147
11.71922074468085,4.6153773305549315,-3.582670761131796,12.519874067778012
11.727220212765957,4.823693375740284,-4.019425224829987,12.662132649703876
11.735219680851063,3.3256025034689896,-2.7616945478723087,11.579922571692896
11.74321914893617,3.497156313598505,-3.0236771276595515,11.42828048103609
11.751218617021276,3.6687101237280206,-3.2856597074467944,11.276638390379286
11.759218085106383,3.840263933857536,-3.547642287234037,11.124996299722483
11.76721755319149,4.011817743987051,-3.80962486702128,10.973354209065677
11.775217021276596,4.183371554116567,-4.071607446808523,10.821712118408874
11.783216489361703,4.354925364246082,-4.333590026595766,10.67007002775207
11.79121595744681,4.526479174375598,-4.5955726063830085,10.518427937095264
11.799215425531914,4.698032984505075,-4.8575551861701936,10.366785846438495
11.80721489361702,4.869586794634591,-5.119537765957436,10.215143755781689
11.815214361702127,5.041140604764106,-5.381520345744679,10.063501665124885
11.823213829787234,5.212694414893622,-5.643502925531922,9.911859574468082
11.83121329787234,4.611209375671604,-2.622688373092615,9.555633650333125
11.839212765957447,4.744453041048782,-2.89095336342144,9.408168708360202
11.847212234042553,4.87769670642596,-3.159218353750265,9.260703766387278
11.85521170212766,5.010940371803138,-3.42748334407909,9.113238824414355
11.863211170212766,5.144184037180317,-3.6957483344079147,8.965773882441432
11.871210638297873,5.277427702557495,-3.96401332473674,8.818308940468508
11.87921010638298,5.410671367934674,-4.232278315065565,8.670843998495585
11.887209574468084,5.543915033311823,-4.500543305394331,8.523379056522694
11.89520904255319,5.677158698689001,-4.768808295723155,8.375914114549772
11.903208510638297,5.81040236406618,-5.03707328605198,8.228449172576848
11.911207978723404,5.943646029443357,-5.305338276380805,8.080984230603924
11.91920744680851,6.076889694820537,-5.573603266709631,7.933519288631002
11.927206914893617,6.210133360197714,-5.841868257038455,7.786054346658078
11.935206382978723,4.832659875115636,-2.196412557816834,8.959515633672533
11.94320585106383,4.776924450740057,-2.2448441200277514,8.821090055504165
11.951205319148936,4.721189026364477,-2.293275682238669,8.682664477335798
11.959204787234043,4.665453601988896,-2.3417072444495863,8.54423889916743
11.96720425531915,4.609718177613316,-2.390138806660504,8.405813320999062
11.975203723404256,4.553982753237737,-2.4385703688714213,8.267387742830696
11.98320319148936,4.498247328862169,-2.487001931082328,8.12896216466236
11.991202659574467,4.442511904486588,-2.5354334932932456,7.990536586493992
11.999202127659574,4.386776480111009,-2.583865055504163,7.8521110083256245
12.00720159574468,4.331041055735429,-2.63229661771508,7.713685430157257
12.015201063829787,4.275305631359848,-2.680728179925998,7.57525985198889
12.023200531914894,4.219570206984269,-2.729159742136915,7.436834273820523
12.0312,1.9675999999997784,-2.673199999999994,6.9437999999999525
12.039199468085107,-0.4098164893614954,-0.7539188829785144,7.5139920212767946
12.047198936170213,0.37923854139964164,-0.02629410407587809,8.185586285567803
12.05519840425532,0.45181202896693334,-0.043449589848757145,8.143757741604716
12.063197872340426,0.524385516534225,-0.060605075621636195,8.101929197641628
12.071197340425531,0.5969590041015007,-0.07776056139451144,8.06010065367855
12.079196808510638,0.6695324916687924,-0.0949160471673905,8.018272109715463
12.087196276595744,0.7421059792360842,-0.11207153294026954,7.976443565752376
12.09519574468085,0.8146794668033759,-0.1292270187131486,7.9346150217892895
12.103195212765957,0.8872529543706678,-0.14638250448602766,7.892786477826202
12.111194680851064,0.9598264419379594,-0.16353799025890672,7.850957933863115
12.11919414893617,1.032399929505251,-0.18069347603178576,7.809129389900027
12.127193617021277,1.057065957446658,1.2689212765952325,7.97591276595726
12.135193085106383,1.520539283314672,2.7103743561030265,8.48184047032475
12.14319255319149,1.5956500783874614,2.813104367301236,8.498344636058231
12.151192021276596,1.6707608734602508,2.915834378499446,8.514848801791715
12.159191489361701,1.7458716685330236,3.018564389697633,8.531352967525194
12.167190957446808,1.8209824636058127,3.1212944008958425,8.547857133258677
12.175190425531914,1.8960932586786021,3.224024412094052,8.564361298992159
12.18318989361702,1.9712040537513915,3.326754423292262,8.580865464725642
12.191189361702127,2.046314848824181,3.4294844344904716,8.597369630459125
12.199188829787234,2.1214256438969703,3.5322144456886813,8.613873796192609
12.20718829787234,2.1965364389697597,3.634944456886891,8.63037796192609
12.215187765957447,2.271647234042549,3.7376744680851006,8.646882127659573
12.223187234042554,2.3062960486322917,3.840113069908811,8.629083890577572
12.23118670212766,1.0398109042554127,5.096581914894395,7.778898138298126
12.239186170212767,1.823656205673764,6.689840543735224,8.502436879432619
12.247185638297871,2.049507854609889,6.671530650118206,8.280584964539045
12.255185106382978,2.2753595035460643,6.6532207565011845,8.058733049645424
12.263184574468085,2.501211152482239,6.634910862884163,7.836881134751803
12.271184042553191,2.7270628014184144,6.616600969267141,7.615029219858181
12.279183510638298,2.9529144503545894,6.59829107565012,7.393177304964559
12.287182978723404,3.1787660992907645,6.579981182033098,7.171325390070937
12.29518244680851,3.4046177482269395,6.561671288416076,6.9494734751773155
12.303181914893617,3.6304693971631146,6.543361394799055,6.727621560283694
12.311181382978724,3.8563210460992896,6.525051501182033,6.505769645390072
12.31918085106383,4.082172695035465,6.5067416075650115,6.28391773049645
12.327180319148937,4.631023670212845,6.848624268617084,5.420317154255183
12.335179787234042,3.584279261295709,7.496423452067875,4.243842624910343
12.343179255319148,3.755683594310294,7.763731520439861,4.364823344489594
12.351178723404255,3.9270879273248798,8.031039588811847,4.485804064068845
12.359178191489361,4.098492260339465,8.298347657183832,4.606784783648097
12.367177659574468,4.2698965933540505,8.565655725555818,4.727765503227348
12.375177127659574,4.441300926368636,8.832963793927805,4.848746222806599
12.38317659574468,4.612705259383222,9.10027186229979,4.96972694238585
12.391176063829787,4.784109592397807,9.367579930671775,5.0907076619651015
12.399175531914894,4.955513925412393,9.634887999043762,5.211688381544352
12.407175,5.126918258426978,9.902196067415748,5.332669101123604
12.415174468085107,5.298322591441563,10.169504135787733,5.453649820702855
12.423173936170212,5.529080851063468,10.248714893618066,5.389077127660624
12.431173404255318,5.426106563829783,5.974581436170201,2.0578403723404097
12.439172872340425,5.459624335106379,6.061375664893608,2.175032579787221
12.447172340425531,5.493142106382976,6.1481698936170135,2.2922247872340327
12.455171808510638,5.526659877659572,6.23496412234042,2.4094169946808437
12.463171276595745,5.560177648936169,6.321758351063826,2.526609202127655
12.471170744680851,5.593695420212765,6.408552579787233,2.6438014095744666
12.479170212765958,5.627213191489362,6.4953468085106385,2.7609936170212777
12.487169680851064,5.6607309627659586,6.582141037234045,2.878185824468089
12.49516914893617,5.694248734042556,6.668935265957451,2.9953780319149
12.503168617021277,5.727766505319152,6.755729494680858,3.1125702393617116
12.511168085106382,5.761284276595741,6.842523723404245,3.229762446808497
12.519167553191489,5.794802047872338,6.929317952127651,3.346954654255308
12.527167021276595,5.828319819148934,7.016112180851057,3.4641468617021194
12.535166489361702,6.248134042552417,5.623160638297201,2.728774734042649
12.543165957446808,7.870394893617101,7.3723468085106445,2.4292217021276676
12.551165425531915,7.301366063829855,7.324794414893622,2.372425478723411
12.559164893617021,6.732337234042609,7.2772420212766,2.3156292553191546
12.567164361702128,6.163308404255362,7.229689627659578,2.258833031914898
12.575163829787234,5.594279574468116,7.182137234042556,2.202036808510641
12.583163297872341,5.02525074468087,7.134584840425533,2.145240585106385
12.591162765957447,4.456221914893623,7.087032446808511,2.088444361702128
12.599162234042552,3.887193085106504,7.039480053191499,2.0316481382978844
12.607161702127659,3.3181642553192576,6.991927659574477,1.9748519148936279
12.615161170212765,2.7491354255320113,6.944375265957454,1.9180556914893714
12.623160638297872,2.180106595744765,6.896822872340432,1.8612594680851149
12.631160106382978,2.8602586626137922,6.737310790273583,1.6420408054711628
12.639159574468085,6.943329787233947,6.859622340425529,2.661984042553187
12.647159042553191,5.255442021276531,6.815625265957445,2.5859890957446776
12.655158510638298,5.1031025106382994,6.960278808510645,2.5025015744680816
12.663157978723405,5.131153978723406,7.127094382978731,2.4181338510638257
12.671157446808511,5.159205446808512,7.293909957446817,2.33376612765957
12.679156914893618,5.187256914893619,7.460725531914903,2.249398404255314
12.687156382978724,5.2153083829787255,7.627541106382989,2.1650306808510584
12.695155851063829,5.2433598510638255,7.794356680851038,2.080662957446821
12.703155319148935,5.271411319148933,7.961172255319124,1.9962952340425653
12.711154787234042,5.299462787234039,8.12798782978721,1.9119275106383096
12.719154255319149,5.327514255319145,8.294803404255298,1.8275597872340539
12.727153723404255,5.5891728723404945,7.543336968085212,3.080436436170122
12.735153191489362,5.192991195891415,7.026637417461484,2.9658309611151865
12.743152659574468,5.192531456346295,7.059922560528249,2.957003961848862
12.751152127659575,5.192071716801173,7.093207703595015,2.948176962582538
12.759151595744681,5.191611977256052,7.12649284666178,2.939349963316213
12.767151063829788,5.191152237710932,7.159777989728545,2.9305229640498887
12.775150531914894,5.19069249816581,7.19306313279531,2.9216959647835643
12.78315,5.19023275862069,7.226348275862068,2.9128689655172417
12.791149468085106,5.189773019075568,7.259633418928834,2.9040419662509174
12.799148936170212,5.189313279530447,7.292918561995599,2.8952149669845926
12.807148404255319,5.188853539985326,7.326203705062364,2.886387967718268
12.815147872340425,5.188393800440205,7.359488848129129,2.877560968451944
12.823147340425532,5.3380147606383455,7.432746276595759,2.881760239361706
12.831146808510638,5.1413963558171085,7.021960887279314,2.757318198279769
12.839146276595745,5.183861617247621,6.992005432322319,2.68770580579448
12.847145744680851,5.226326878678134,6.962049977365324,2.6180934133091904
12.855145212765958,5.268792140108647,6.932094522408329,2.548481020823901
12.863144680851065,5.31125740153916,6.902139067451334,2.478868628338612
12.87114414893617,5.353722662969663,6.8721836124943465,2.4092562358533383
12.879143617021276,5.396187924400175,6.842228157537352,2.339643843368049
12.887143085106382,5.438653185830688,6.812272702580357,2.2700314508827595
12.895142553191489,5.481118447261201,6.782317247623362,2.20041905839747
12.903142021276595,5.523583708691713,6.752361792666367,2.130806665912181
12.911141489361702,5.5660489701222255,6.722406337709372,2.0611942734268918
12.919140957446809,5.608514231552738,6.692450882752377,1.9915818809416026
12.927140425531915,5.419202127659645,6.794078723404053,2.0628021276590007
12.935139893617022,8.826195264241568,8.095152024708295,2.91815717227179
12.943139361702128,8.535461908030168,7.983331503088526,2.9043946465339725
12.951138829787235,8.24472855181877,7.871510981468758,2.890632120796155
12.95913829787234,7.953995195607435,7.759690459849013,2.87686959505834
12.967137765957446,7.663261839396036,7.6478699382292445,2.8631070693205225
12.975137234042553,7.372528483184637,7.536049416609476,2.8493445435827045
