accel_time_list,accel_x_list,accel_y_list,accel_z_list
0.0,1.4,1.9,9.4
0.007995114006514658,1.6823816823146196,1.432300249089864,8.14404579421345
0.015990228013029316,1.635351599923357,1.5185220668071788,8.261621000191607
0.023985342019543974,1.5883215175320942,1.6047438845244937,8.379196206169764
0.03198045602605863,1.5412914351408316,1.6909657022418088,8.49677141214792
0.03997557003257329,1.494261352749569,1.7771875199591238,8.614346618126078
0.04797068403908795,1.4472312703583061,1.8634093376764387,8.731921824104234
0.0559657980456026,1.4002011879670435,1.9496311553937535,8.849497030082391
0.06396091205211726,1.3531711055757807,2.0358529731110684,8.967072236060547
0.07195602605863193,1.306141023184518,2.1220747908283837,9.084647442038705
0.07995114006514659,1.2591109407932555,2.2082966085456985,9.20222264801686
0.08794625407166123,1.2120808584019929,2.2945184262630134,9.319797853995018
0.0959413680781759,1.1650507760107303,2.3807402439803282,9.437373059973174
0.10393648208469056,1.1180206936194674,2.466962061697643,9.554948265951332
0.1119315960912052,2.434201954397399,3.789902280130299,10.24104234527688
0.11992671009771987,0.9497647484618168,2.0846000723850886,8.444788273615636
0.12792182410423453,1.0305234758003488,2.221889908860593,8.517471128220315
0.13591693811074917,1.1112822031388805,2.359179745336097,8.590153982824994
0.14391205211726385,1.1920409304774124,2.4964695818116014,8.662836837429673
0.1519071661237785,1.2727996578159444,2.633759418287106,8.73551969203435
0.15990228013029317,1.3535583851544764,2.77104925476261,8.808202546639029
0.16789739413680782,1.4343171124930083,2.908339091238114,8.880885401243708
0.17589250814332247,1.51507583983154,3.0456289277136186,8.953568255848387
0.18388762214983714,1.5958345671700722,3.182918764189123,9.026251110453066
0.1918827361563518,1.6765932945086037,3.320208600664627,9.098933965057745
0.19987785016286644,1.7573520218471357,3.4574984371401314,9.171616819662423
0.2078729641693811,1.8381107491856676,3.5947882736156354,9.244299674267102
0.21586807817589576,1.9622692725298587,3.0150380021715533,9.113192182410424
0.2238631921824104,1.8918669638265042,3.1959334819132525,9.391866963826505
0.23185830618892508,1.8750351448654208,3.1875175724327107,9.375035144865421
0.23985342019543973,1.8582033259043373,3.179101662952169,9.358203325904338
0.2478485342019544,1.841371506943254,3.170685753471627,9.341371506943254
0.25584364820846905,1.8245396879821703,3.1622698439910852,9.32453968798217
0.2638387622149837,1.8077078690210868,3.1538539345105434,9.307707869021087
0.27183387622149835,1.7908760500600034,3.145438025030002,9.290876050060003
0.27982899022801305,1.77404423109892,3.13702211554946,9.27404423109892
0.2878241042345277,1.7572124121378363,3.1286062060689184,9.257212412137836
0.29581921824104235,1.7403805931767529,3.1201902965883765,9.240380593176752
0.303814332247557,1.7235487742156694,3.1117743871078347,9.223548774215669
0.31180944625407164,1.706716955254586,3.1033584776272933,9.206716955254585
0.31980456026058635,1.6,2.7,9.290228013029317
0.327799674267101,1.4009087207580693,2.999091279241931,9.298182558483862
0.33579478827361564,1.4099940775836541,2.990005922416346,9.280011844832693
0.3437899022801303,1.4190794344092388,2.980920565590761,9.261841131181523
0.35178501628664494,1.4281647912348236,2.9718352087651763,9.243670417530353
0.3597801302931596,1.4372501480604085,2.9627498519395914,9.225499703879183
0.3677752442996743,1.4463355048859934,2.9536644951140065,9.207328990228014
0.37577035830618893,1.4554208617115783,2.9445791382884217,9.189158276576844
0.3837654723127036,1.4645062185371631,2.935493781462837,9.170987562925674
0.39176058631921823,1.473591575362748,2.926408424637252,9.152816849274505
0.3997557003257329,1.4826769321883329,2.917323067811667,9.134646135623335
0.4077508143322476,1.4917622890139177,2.908237710986082,9.116475421972165
0.4157459283387622,1.5745928338762247,2.8254071661237754,9.137296416938112
0.4237410423452769,1.6151153226071795,2.4,9.096221169348205
0.4317361563517915,1.6474188135425922,2.4,9.088145296614352
0.43973127035830617,1.6797223044780047,2.4,9.080069423880499
0.4477263843648208,1.7120257954134175,2.4,9.071993551146646
0.4557214983713355,1.7443292863488304,2.4,9.063917678412793
0.46371661237785017,1.7766327772842432,2.4,9.05584180567894
0.4717117263843648,1.808936268219656,2.4,9.047765932945087
0.47970684039087946,1.8412397591550684,2.4,9.039690060211234
0.4877019543973941,1.8735432500904812,2.4,9.031614187477379
0.4956970684039088,1.9058467410258941,2.4,9.023538314743526
0.5036921824104235,1.9381502319613069,2.4,9.015462442009673
0.5116872964169381,1.9704537228967196,2.4,9.00738656927582
0.5196824104234528,2.0,2.468241042345274,9.136482084690549
0.5276775244299674,1.7760161450219518,2.6,9.988008072510976
0.535672638436482,1.7238740971533781,2.6,9.961937048576688
0.5436677524429967,1.6717320492848042,2.6,9.935866024642403
0.5516628664495113,1.6195900014162303,2.6,9.909795000708115
0.5596579804560261,1.567447953547656,2.6,9.883723976773828
0.5676530944625408,1.515305905679082,2.6,9.85765295283954
0.5756482084690554,1.4631638578105082,2.6,9.831581928905253
0.58364332247557,1.4110218099419345,2.6,9.805510904970967
0.5916384364820847,1.3588797620733606,2.6,9.77943988103668
0.5996335504885993,1.306737714204787,2.6,9.753368857102393
0.607628664495114,1.254595666336213,2.6,9.727297833168105
0.6156237785016286,1.202453618467639,2.6,9.70122680923382
0.6236188925081433,1.2025181658732147,2.407554497619644,9.597481834126786
0.6316140065146579,1.2102057754948634,2.4306173264845903,9.589794224505136
0.6396091205211727,1.2178933851165121,2.4536801553495367,9.582106614883488
0.6476042345276873,1.2255809947381608,2.4767429842144826,9.57441900526184
0.655599348534202,1.2332686043598096,2.499805813079429,9.56673139564019
0.6635944625407166,1.2409562139814583,2.522868641944375,9.559043786018542
0.6715895765472313,1.248643823603107,2.5459314708093213,9.551356176396892
0.6795846905537459,1.2563314332247557,2.568994299674267,9.543668566775244
0.6875798045602606,1.2640190428464044,2.5920571285392136,9.535980957153596
0.6955749185667752,1.2717066524680531,2.6151199574041595,9.528293347531946
0.7035700325732899,1.2793942620897019,2.6381827862691054,9.520605737910298
0.7115651465798045,1.2870818717113506,2.661245615134052,9.51291812828865
0.7195602605863192,1.2947694813329993,2.6843084439989977,9.505230518667
0.7275553745928339,1.3555374592833946,2.1277687296416974,9.172231270358303
0.7355504885993486,1.5595498963577146,2.140450103642286,9.1
0.7435456026058632,1.6046652665866623,2.1046652665866623,9.104665266586661
0.7515407166123779,1.6151851534373394,2.1151851534373396,9.11518515343734
0.7595358306188925,1.6257050402880167,2.1257050402880164,9.125705040288016
0.7675309446254072,1.6362249271386937,2.1362249271386937,9.136224927138693
0.7755260586319218,1.6467448139893708,2.146744813989371,9.14674481398937
0.7835211726384365,1.657264700840048,2.1572647008400483,9.157264700840047
0.7915162866449511,1.6677845876907251,2.167784587690725,9.167784587690724
0.7995114006514658,1.6783044745414024,2.1783044745414024,9.178304474541402
0.8075065146579804,1.6888243613920795,2.1888243613920797,9.18882436139208
0.8155016286644952,1.6993442482427568,2.199344248242757,9.199344248242756
0.8234967426710098,1.610065146579803,2.1,9.3
0.8314918566775245,1.5924324680025006,2.1,9.3075675319975
0.8394869706840391,1.5843565952686474,2.1,9.315643404731354
0.8474820846905537,1.5762807225347943,2.1,9.323719277465207
0.8554771986970684,1.568204849800941,2.1,9.33179515019906
0.863472312703583,1.5601289770670879,2.1,9.339871022932913
0.8714674267100977,1.5520531043332346,2.1,9.347946895666766
0.8794625407166123,1.5439772315993816,2.1,9.356022768400619
0.887457654723127,1.5359013588655284,2.1,9.364098641134472
0.8954527687296416,1.5278254861316751,2.1,9.372174513868325
0.9034478827361564,1.5197496133978219,2.1,9.380250386602178
0.911442996742671,1.5116737406639686,2.1,9.388326259336031
0.9194381107491857,1.5035978679301154,2.1,9.396402132069884
0.9274332247557003,1.5,2.121457654723127,9.542915309446254
0.935428338762215,1.5,2.171427117263844,9.642854234527688
0.9434234527687296,1.6,2.196768729641694,9.6
0.9514185667752443,1.6,2.1861085776330076,9.6
0.9594136807817589,1.6,2.1754484256243214,9.6
0.9674087947882736,1.6,2.164788273615635,9.6
0.9754039087947882,1.6,2.154128121606949,9.6
0.983399022801303,1.6,2.143467969598263,9.6
0.9913941368078176,1.6,2.1328078175895766,9.6
0.9993892508143323,1.6,2.1221476655808904,9.6
1.007384364820847,1.6,2.111487513572204,9.6
1.0153794788273616,1.6,2.100827361563518,9.6
1.0233745928338762,1.5,2.2,9.670828809265291
1.0313697068403909,1.4038292123186258,2.0076584246372517,9.603829212318626
1.0393648208469055,1.4129145691442107,2.0258291382884215,9.61291456914421
1.0473599348534202,1.4219999259697955,2.043999851939591,9.621999925969796
1.0553550488599348,1.4310852827953804,2.062170565590761,9.63108528279538
1.0633501628664495,1.4401706396209653,2.0803412792419307,9.640170639620965
1.071345276872964,1.44925599644655,2.0985119928931,9.64925599644655
1.0793403908794788,1.4583413532721348,2.1166827065442697,9.658341353272135
1.0873355048859934,1.4674267100977196,2.1348534201954394,9.667426710097718
1.095330618892508,1.4765120669233045,2.153024133846609,9.676512066923303
1.1033257328990227,1.4855974237488894,2.171194847497779,9.685597423748888
1.1113208469055376,1.4946827805744745,2.189365561148949,9.694682780574473
1.1193159609120522,1.6912269272529858,2.091226927252986,9.691226927252986
1.1273110749185669,1.6379261672095546,2.0379261672095548,9.637926167209555
1.1353061889250815,1.5994432928634883,2.0,9.599443292863487
1.1433013029315962,1.5849067219425526,2.0,9.584906721942552
1.1512964169381108,1.5703701510216168,2.0,9.570370151021617
1.1592915309446254,1.555833580100681,2.0,9.55583358010068
1.16728664495114,1.5412970091797453,2.0,9.541297009179745
1.1752817589576547,1.5267604382588096,2.0,9.52676043825881
1.1832768729641694,1.5122238673378738,2.0,9.512223867337873
1.191271986970684,1.5,1.9364006514657954,9.563599348534204
1.1992671009771987,1.6,1.9973652411474203,9.50263475885258
1.2072622149837133,1.6,1.9909175685615215,9.509082431438479
1.215257328990228,1.6,1.9844698959756226,9.515530104024377
1.2232524429967426,1.6,1.9780222233897236,9.521977776610276
1.2312475570032573,1.6,1.9715745508038247,9.528425449196176
1.239242671009772,1.6,1.9651268782179259,9.534873121782073
1.2472377850162866,1.6,1.958679205632027,9.541320794367973
1.2552328990228012,1.6,1.952231533046128,9.547768466953872
1.2632280130293159,1.6,1.945783860460229,9.55421613953977
1.2712231270358305,1.6,1.9393361878743303,9.56066381212567
1.2792182410423454,1.6,1.9328885152884312,9.56711148471157
1.28721335504886,1.6,1.9264408427025321,9.573559157297467
1.2952084690553747,1.6,1.9199931701166333,9.580006829883366
1.3032035830618893,1.6,1.9135454975307344,9.586454502469266
1.311198697068404,1.6,1.9070978249448354,9.592902175055164
1.3191938110749186,1.6,1.9006501523589365,9.599349847641063
1.3271889250814333,1.6045531794363406,1.8045531794363405,9.5
1.335184039087948,1.6132435207477696,1.8132435207477695,9.5
1.3431791530944626,1.6219338620591985,1.8219338620591985,9.5
1.3511742671009772,1.6306242033706275,1.8306242033706275,9.5
1.3591693811074919,1.6393145446820565,1.8393145446820565,9.5
1.3671644951140065,1.6480048859934853,1.8480048859934852,9.5
1.3751596091205212,1.6566952273049143,1.8566952273049142,9.5
1.3831547231270358,1.6653855686163432,1.8653855686163432,9.5
1.3911498371335504,1.6740759099277722,1.8740759099277722,9.5
1.399144951140065,1.6827662512392012,1.8827662512392012,9.5
1.4071400651465797,1.69145659255063,1.8914565925506301,9.5
1.4151351791530944,1.6909880564603759,1.913517915309436,9.504505971769811
1.423130293159609,1.5,2.1,9.7
1.4311254071661237,1.5929766131098344,2.103511693445083,9.682441532774584
1.4391205211726383,1.575010064780588,2.112494967609706,9.63752516195147
1.447115635179153,1.5570435164513414,2.121478241774329,9.592608791128352
1.4551107491856679,1.5390769681220946,2.130461515938953,9.547692420305236
1.4631058631921825,1.5211104197928482,2.139444790103576,9.50277604948212
1.4711009771986971,1.5031438714636018,2.148428064268199,9.457859678659004
1.4790960912052118,1.4851773231343552,2.1574113384328224,9.412943307835887
1.4870912052117264,1.4672107748051089,2.1663946125974456,9.368026937012772
1.495086319218241,1.4492442264758625,2.175377886762069,9.323110566189655
1.5030814332247557,1.431277678146616,2.184361160926692,9.27819419536654
1.5110765472312704,1.4133111298173697,2.193344435091315,9.233277824543423
1.519071661237785,1.4,2.2207166123778515,9.179283387622148
1.5270667752442997,1.389983713355035,2.303338762214988,9.093322475570023
1.5350618892508143,0.8402047463936725,2.659795253606328,8.553606328524896
1.543057003257329,0.7821341689687875,2.7535974930936375,8.419603760359543
1.5510521172638436,0.7618933740155859,2.814319877953243,8.328520183070136
1.5590472312703583,0.7416525790623842,2.8750422628128476,8.23743660578073
1.567042345276873,0.7214117841091825,2.9357646476724524,8.14635302849132
1.5750374592833876,0.7011709891559809,2.996487032532057,8.055269451201914
1.5830325732899022,0.6809301942027792,3.0572094173916624,7.964185873912506
1.5910276872964169,0.6606893992495776,3.117931802251267,7.873102296623099
1.5990228013029315,0.640448604296376,3.178654187110872,7.782018719333691
1.6070179153094462,0.6202078093431743,3.2393765719704772,7.6909351420442835
1.6150130293159608,0.6,3.3019543973941214,7.598045602605878
1.6230081433224757,0.4,3.0704063089319376,7.6317075261443525
1.6310032573289903,0.4,2.9525835762043533,7.757946168352478
1.638998371335505,0.4,2.834760843476769,7.884184810560605
1.6469934853420196,0.4,2.716938110749185,8.01042345276873
1.6549885993485343,0.4,2.5991153780216,8.136662094976856
1.662983713355049,0.4,2.481292645294016,8.262900737184983
1.6709788273615636,0.4,2.3634699125664316,8.389139379393109
1.6789739413680782,0.4,2.2456471798388473,8.515378021601235
1.6869690553745929,0.4,2.127824447111263,8.64161666380936
1.6949641693811075,0.4,2.0100017143836784,8.767855306017488
1.7029592833876221,0.4,1.8921789816560943,8.894093948225613
1.7109543973941368,0.4,1.77435624892851,9.020332590433739
1.7189495114006514,0.5179804560260561,1.2870684039088034,9.217980456026057
1.726944625407166,0.22060260586319214,0.7381921824104236,8.64334283387622
1.7349397394136807,0.25391558089033645,0.6382532573289906,8.551732152551574
1.7429348534201954,0.2872285559174808,0.5383143322475576,8.460121471226927
1.75092996742671,0.3205415309446251,0.4383754071661246,8.368510789902281
1.7589250814332247,0.3538545059717695,0.33843648208469157,8.276900108577633
1.7669201954397393,0.3871674809989138,0.2384975570032586,8.185289427252986
1.774915309446254,0.4204804560260581,0.1385586319218255,8.09367874592834
1.7829104234527686,0.45379343105320247,0.03861970684039251,8.002068064603693
1.7909055374592833,0.4871064060803468,-0.061319218241040474,7.910457383279046
1.7989006514657981,0.520419381107492,-0.16125814332247634,7.818846701954397
1.8068957654723128,0.5537323561346363,-0.2611970684039093,7.72723602062975
1.8148908794788274,0.5870453311617807,-0.3611359934853424,7.635625339305102
1.822885993485342,0.32280130293157433,-2.5973941368079156,5.7228013029315745
1.8308811074918567,-0.5229370249728555,-5.013472674629027,5.154125950054289
1.8388762214983714,-0.5495874049945711,-5.377694534925806,5.100825190010858
1.846871335504886,-0.5762377850162866,-5.741916395222585,5.047524429967427
1.8548664495114007,-0.6028881650380022,-6.1061382555193635,4.994223669923995
1.8628615635179153,-0.6295385450597177,-6.470360115816143,4.940922909880564
1.87085667752443,-0.6561889250814332,-6.834581976112922,4.887622149837133
1.8788517915309446,-0.6828393051031488,-7.1988038364097005,4.834321389793702
1.8868469055374593,-0.7094896851248643,-7.56302569670648,4.781020629750271
1.894842019543974,-0.7361400651465799,-7.927247557003259,4.72771986970684
1.9028371335504886,-0.7627904451682954,-8.291469417300037,4.674419109663409
1.9108322475570032,-0.7894408251900109,-8.655691277596816,4.6211183496199775
1.9188273615635179,-1.0194255256144489,-8.580574474385552,4.248919159016881
1.9268224755700325,-1.4822475570032454,-7.297638436482151,4.3467426710097365
1.9348175895765471,-2.2817589576547093,-5.831921824104258,4.497719869706839
1.9428127035830618,-2.4186739784768876,-5.621989032284668,4.569226487444851
1.9508078175895764,-2.5401187481960976,-5.439821877705853,4.6400692697810575
1.958802931596091,-2.661563517915308,-5.257654723127038,4.710912052117263
1.966798045602606,-2.7830082876345217,-5.075487568548217,4.781754834453471
1.9747931596091206,-2.9044530573537317,-4.893320413969402,4.852597616789677
1.9827882736156353,-3.025897827072942,-4.711153259390587,4.923440399125883
1.99078338762215,-3.1473425967921522,-4.528986104811771,4.994283181462089
1.9987785016286646,-3.2687873665113627,-4.346818950232956,5.065125963798295
2.006773615635179,-3.3902321362305727,-4.164651795654141,5.135968746134501
2.014768729641694,-3.6844951140065687,-3.8846905537458944,5.130814332247537
2.0227638436482085,-5.603322475570041,-2.685423452768725,4.411254071661235
2.030758957654723,-2.5869819162079994,-21.98703807705268,38.12416039537238
2.038754071661238,-4.048157924295163,-21.959468718409525,35.8359036279906
2.0467491856677524,-5.509333932382328,-21.931899359766373,33.54764686060881
2.054744299674267,-6.970509940469492,-21.904330001123217,31.259390093227026
2.0627394136807817,-8.431685948556655,-21.87676064248006,28.97113332584524
2.0707345276872964,-9.89286195664382,-21.84919128383691,26.682876558463455
2.078729641693811,-11.354037964730985,-21.821621925193753,24.39461979108167
2.0867247557003257,-12.815213972818148,-21.7940525665506,22.106363023699885
2.0947198697068403,-14.276389980905313,-21.766483207907445,19.8181062563181
2.102714983713355,-15.737565988992477,-21.738913849264293,17.529849488936314
2.1107100977198696,-17.19874199707964,-21.711344490621137,15.241592721554529
2.1187052117263843,-10.400760043431065,15.171471226927268,9.035260586319218
2.126700325732899,-4.264857785687897,7.935142214312103,6.640400953692203
2.1346954397394136,-4.569826051915776,7.6301739480842246,6.360159844185504
2.142690553745928,-4.874794318143653,7.325205681856347,6.079918734678805
2.150685667752443,-5.179762584371532,7.020237415628468,5.799677625172106
2.1586807817589575,-5.48473085059941,6.71526914940059,5.519436515665407
2.166675895765472,-5.789699116827289,6.410300883172711,5.239195406158708
2.174671009771987,-6.094667383055167,6.105332616944833,4.958954296652009
2.1826661237785014,-6.399635649283045,5.800364350716954,4.678713187145309
2.190661237785016,-6.7046039155109245,5.495396084489077,4.39847207763861
2.1986563517915307,-7.009572181738802,5.190427818261197,4.118230968131911
2.2066514657980454,-7.314540447966682,4.8854595520333195,3.8379898586252126
2.21464657980456,-7.619508714194559,4.580491285805441,3.5577487491185136
2.222641693811075,-7.795724755700289,3.7786237785014407,3.67699511400665
2.2306368078175898,-6.408957654723041,-3.9830618892516103,9.14625407166175
2.2386319218241044,-6.312799822327509,-3.4848015990524117,9.152802043233638
2.246627035830619,-6.330970535978679,-3.321265176191885,8.943838836245186
2.2546221498371337,-6.349141249629849,-3.1577287533313583,8.734875629256736
2.2626172638436484,-6.3673119632810184,-2.9941923304708316,8.525912422268284
2.270612377850163,-6.385482676932188,-2.830655907610305,8.316949215279834
2.2786074918566777,-6.403653390583358,-2.667119484749778,8.107986008291384
2.2866026058631923,-6.421824104234528,-2.5035830618892514,7.899022801302932
2.294597719869707,-6.439994817885697,-2.3400466390287247,7.690059594314482
2.3025928338762216,-6.458165531536867,-2.176510216168198,7.481096387326031
2.3105879478827362,-6.476336245188037,-2.0129737933076712,7.27213318033758
2.318583061889251,-6.494506958839207,-1.8494373704471445,7.063169973349129
2.3265781758957655,-6.26757600434311,-1.939454397394134,6.628121606948976
2.33457328990228,-6.0,-2.3359934853420268,6.593322475570045
2.342568403908795,-6.221980541745243,-3.6659416252357264,7.121980541745242
2.3505635179153095,-6.253540202297274,-3.7606206068918215,7.153540202297274
2.358558631921824,-6.2850998628493056,-3.8552995885479167,7.185099862849305
2.366553745928339,-6.316659523401337,-3.9499785702040113,7.216659523401337
2.3745488599348534,-6.348219183953369,-4.044657551860106,7.248219183953369
2.382543973941368,-6.379778844505401,-4.139336533516201,7.2797788445054
2.3905390879478827,-6.411338505057432,-4.234015515172296,7.311338505057432
2.3985342019543974,-6.4428981656094635,-4.328694496828391,7.342898165609464
2.406529315960912,-6.474457826161496,-4.4233734784844865,7.374457826161496
2.4145244299674267,-6.52177757096324,-4.369334574220558,7.3564448580735196
2.4225195439739413,-6.5,-2.692182410423513,5.844136807817635
2.430514657980456,-6.485360319145043,-2.0414412765801706,5.451238882992351
2.4385097719869706,-6.4673937708157965,-1.9695750832631849,5.514121802144714
2.4465048859934853,-6.44942722248655,-1.8977088899461994,5.577004721297076
2.4545,-6.431460674157304,-1.8258426966292136,5.639887640449438
2.4624951140065146,-6.413494125828057,-1.753976503312228,5.702770559601801
2.470490228013029,-6.395527577498811,-1.6821103099952424,5.765653478754163
2.478485342019544,-6.377561029169564,-1.6102441166782568,5.828536397906525
2.4864804560260585,-6.359594480840317,-1.538377923361271,5.8914193170588876
2.494475570032573,-6.341627932511071,-1.4665117300442856,5.95430223621125
2.502470684039088,-6.3236613841818246,-1.3946455367273,6.017185155363612
2.5104657980456024,-6.305694835852578,-1.3227793434103143,6.0800680745159745
2.518460912052117,-6.2,-0.7,7.061726384364828
2.5264560260586317,-6.179174109488285,-0.7208258905117152,6.565290182480474
2.5344511400651464,-6.1533834191446894,-0.7466165808553108,6.522305698574481
2.542446254071661,-6.127592728801094,-0.7724072711989065,6.479321214668489
2.5504413680781757,-6.101802038457498,-0.7981979615425021,6.436336730762496
2.5584364820846908,-6.076011348113901,-0.8239886518860993,6.393352246856501
2.5664315960912054,-6.050220657770305,-0.8497793422296949,6.350367762950508
2.57442671009772,-6.02442996742671,-0.8755700325732905,6.307383279044515
2.5824218241042347,-5.9986392770831145,-0.9013607229168862,6.264398795138523
2.5904169381107494,-5.972848586739518,-0.9271514132604818,6.22141431123253
2.598412052117264,-5.947057896395923,-0.9529421036040775,6.1784298273265374
2.6064071661237787,-5.9212672060523275,-0.9787327939476731,6.135445343420544
2.6144022801302933,-5.9,-1.2629275244299953,6.117528501628666
2.622397394136808,-5.9,-3.617915309446235,6.828827361563507
2.6303925081433226,-6.8781306550850525,-5.849719507781397,7.814205573651828
2.6383876221498372,-6.975848715164676,-5.911903727832066,7.831972493666305
2.646382736156352,-7.0735667752443,-5.974087947882736,7.849739413680782
2.6543778501628665,-7.171284835323924,-6.036272167933406,7.867506333695259
2.662372964169381,-7.269002895403547,-6.098456387984076,7.885273253709736
2.670368078175896,-7.366720955483171,-6.160640608034745,7.903040173724213
2.6783631921824105,-7.464439015562794,-6.222824828085415,7.92080709373869
2.686358306188925,-7.562157075642419,-6.285009048136084,7.938574013753167
2.6943534201954398,-7.659875135722042,-6.347193268186754,7.956340933767644
2.7023485342019544,-7.7575931958016655,-6.409377488237423,7.974107853782121
2.710343648208469,-7.85531125588129,-6.4715617082880925,7.991874773796598
2.7183387622149837,-7.639674267100969,-6.152899022801292,8.086775244299677
2.7263338762214984,-6.896929873825303,-2.6915571530195814,5.197697405368976
2.734328990228013,-6.823411584110225,-2.4893818563031194,5.142558688082669
2.7423241042345277,-6.749893294395148,-2.2872065595866573,5.087419970796361
2.7503192182410423,-6.676375004680072,-2.0850312628701957,5.032281253510053
2.758314332247557,-6.602856714964994,-1.8828559661537336,4.977142536223745
2.7663094462540716,-6.529338425249917,-1.6806806694372716,4.922003818937438
2.7743045602605862,-6.4558201355348395,-1.4785053727208097,4.86686510165113
2.782299674267101,-6.382301845819763,-1.2763300760043477,4.811726384364822
2.7902947882736155,-6.308783556104686,-1.0741547792878858,4.756587667078514
2.79828990228013,-6.235265266389608,-0.871979482571424,4.701448949792206
2.806285016286645,-6.161746976674531,-0.6698041858549622,4.646310232505899
2.8142801302931595,-6.118287575616562,-0.37198697068406195,4.8743136342484386
2.822275244299674,-6.65504885993482,-1.592671009771871,7.38257328990223
2.830270358306189,-6.832312703583061,-2.2130944625407154,7.61615635179153
2.8382654723127034,-6.867846543612015,-2.3374629026420544,7.633923271806007
2.846260586319218,-6.90338038364097,-2.4618313427433938,7.651690191820484
2.8542557003257327,-6.938914223669924,-2.5861997828447327,7.669457111834961
2.8622508143322474,-6.974448063698878,-2.7105682229460717,7.687224031849438
2.870245928338762,-7.009981903727832,-2.834936663047411,7.704990951863915
2.8782410423452767,-7.045515743756786,-2.9593051031487505,7.722757871878392
2.8862361563517913,-7.08104958378574,-3.0836735432500895,7.74052479189287
2.894231270358306,-7.116583423814694,-3.2080419833514284,7.758291711907347
2.902226384364821,-7.15211726384365,-3.3324104234527745,7.776058631921825
2.9102214983713357,-7.187651103872604,-3.4567788635541135,7.793825551936302
2.9182166123778503,-7.289169381107483,-4.341395222584127,6.352225841476644
2.926211726384365,-6.7975149141748705,-2.990059656699483,5.995029828349741
2.9342068403908796,-6.788531640010247,-2.95412656004099,5.977063280020495
2.9422019543973943,-6.779548365845624,-2.9181934633824973,5.959096731691249
2.950197068403909,-6.770565091681001,-2.8822603667240045,5.941130183362002
2.9581921824104236,-6.761581817516378,-2.846327270065512,5.923163635032756
2.9661872964169382,-6.752598543351755,-2.810394173407019,5.9051970867035095
2.974182410423453,-6.743615269187131,-2.7744610767485263,5.887230538374263
2.9821775244299675,-6.734631995022508,-2.738527980090033,5.869263990045017
2.990172638436482,-6.725648720857885,-2.7025948834315403,5.85129744171577
2.998167752442997,-6.716665446693262,-2.6666617867730475,5.833330893386524
3.0061628664495115,-6.707682172528639,-2.630728690114555,5.815364345057278
3.014157980456026,-6.7,-2.329804560260559,5.915798045602617
3.0221530944625408,-6.869218241042349,-2.292290988056465,6.123072747014116
3.0301482084690554,-7.0024701411509245,-2.4699601882012328,6.1674900470503085
3.03814332247557,-7.108350607047675,-2.6083506070476754,6.205567071365117
3.0461384364820847,-7.1395004018782515,-2.639500401878252,6.226333601252168
3.0541335504885994,-7.170650196708828,-2.6706501967088285,6.247100131139219
3.062128664495114,-7.201799991539405,-2.701799991539405,6.26786666102627
3.0701237785016287,-7.232949786369982,-2.7329497863699816,6.2886331909133215
3.0781188925081433,-7.264099581200559,-2.764099581200558,6.309399720800372
3.086114006514658,-7.295249376031135,-2.7952493760311348,6.330166250687424
3.0941091205211726,-7.326399170861712,-2.8263991708617113,6.350932780574475
3.1021042345276872,-7.357548965692288,-2.857548965692288,6.371699310461525
3.110099348534202,-7.388698760522865,-2.8886987605228645,6.392465840348577
3.1180944625407165,-7.595276872964168,-2.6905537459283355,5.995276872964168
3.126089576547231,-7.5,-2.4873133821932685,5.893656691096635
3.134084690553746,-7.5,-2.4706568946796965,5.885328447339848
3.1420798045602605,-7.5,-2.454000407166124,5.877000203583062
3.150074918566775,-7.5,-2.437343919652552,5.868671959826276
3.1580700325732898,-7.5,-2.4206874321389797,5.86034371606949
3.1660651465798044,-7.5,-2.404030944625408,5.852015472312704
3.174060260586319,-7.5,-2.3873744571118354,5.843687228555918
3.1820553745928337,-7.5,-2.3707179695982634,5.835358984799131
3.1900504885993484,-7.5,-2.354061482084691,5.827030741042345
3.198045602605863,-7.5,-2.337404994571119,5.818702497285559
3.2060407166123777,-7.5,-2.3207485070575467,5.8103742535287735
3.2140358306188923,-7.5,-2.3040920195439747,5.8020460097719875
3.222030944625407,-7.4505157437567835,-2.450515743756783,5.7
3.2300260586319216,-7.603518672827816,-2.7070373456556323,5.603518672827816
3.2380211726384363,-7.612815317021437,-2.7256306340428753,5.612815317021437
3.2460162866449513,-7.62211196121506,-2.7442239224301197,5.62211196121506
3.254011400651466,-7.631408605408681,-2.7628172108173628,5.631408605408681
3.2620065146579806,-7.640705249602303,-2.7814104992046063,5.640705249602303
3.2700016286644953,-7.650001893795925,-2.8000037875918493,5.650001893795925
3.27799674267101,-7.659298537989546,-2.818597075979093,5.659298537989546
3.2859918566775246,-7.668595182183168,-2.837190364366336,5.668595182183168
3.2939869706840392,-7.67789182637679,-2.8557836527535794,5.67789182637679
3.301982084690554,-7.687188470570412,-2.8743769411408224,5.687188470570412
3.3099771986970685,-7.696485114764033,-2.892970229528066,5.696485114764033
3.317972312703583,-7.7,-2.802768729641689,5.7
3.325967426710098,-7.6,-2.6870273332389174,5.7
3.3339625407166125,-7.6,-2.66964665061606,5.7
3.341957654723127,-7.6,-2.652265967993202,5.7
3.3499527687296418,-7.6,-2.634885285370344,5.7
3.3579478827361564,-7.6,-2.617504602747486,5.7
3.365942996742671,-7.6,-2.600123920124628,5.7
3.3739381107491857,-7.6,-2.58274323750177,5.7
3.3819332247557004,-7.6,-2.565362554878912,5.7
3.389928338762215,-7.6,-2.547981872256054,5.7
3.3979234527687296,-7.6,-2.530601189633196,5.7
3.4059185667752443,-7.6,-2.513220507010338,5.7
3.413913680781759,-7.647842019543975,-2.4521579804560245,5.652157980456025
3.4219087947882736,-7.7,-2.4656532754252636,5.665653275425264
3.4299039087947882,-7.694551212450235,-2.505448787549765,5.694551212450235
3.437899022801303,-7.685667752442996,-2.5143322475570034,5.685667752442996
3.4458941368078175,-7.676784292435758,-2.523215707564242,5.676784292435758
3.453889250814332,-7.667900832428519,-2.5320991675714803,5.667900832428519
3.461884364820847,-7.659017372421281,-2.540982627578719,5.659017372421281
3.4698794788273615,-7.650133912414042,-2.5498660875859573,5.650133912414042
3.477874592833876,-7.641250452406804,-2.558749547593196,5.641250452406804
3.4858697068403908,-7.632366992399565,-2.5676330076004343,5.632366992399565
3.4938648208469054,-7.623483532392327,-2.576516467607673,5.623483532392327
3.50185993485342,-7.614600072385088,-2.5853999276149113,5.614600072385088
3.5098550488599347,-7.60571661237785,-2.59428338762215,5.60571661237785
3.5178501628664494,-7.571661237785019,-2.5,5.6
3.525845276872964,-7.5017984614318385,-2.6008992307159193,5.7
3.5338403908794787,-7.5188093422967635,-2.609404671148382,5.7
3.5418355048859933,-7.5358202231616875,-2.6179101115808443,5.7
3.549830618892508,-7.5528311040266125,-2.6264155520133063,5.7
3.5578257328990226,-7.5698419848915375,-2.634920992445769,5.7
3.5658208469055372,-7.5868528657564624,-2.6434264328782313,5.7
3.573815960912052,-7.6038637466213865,-2.6519318733106934,5.7
3.5818110749185665,-7.6208746274863115,-2.660437313743156,5.7
3.5898061889250816,-7.637885508351237,-2.6689427541756188,5.7
3.5978013029315963,-7.654896389216162,-2.6774481946080813,5.7
3.605796416938111,-7.671907270081087,-2.6859536350405433,5.7
3.6137915309446256,-7.688918150946011,-2.694459075473006,5.7
3.62178664495114,-7.759554831704668,-2.6,5.6
3.629781758957655,-7.7,-2.6,5.5
3.6377768729641695,-7.7,-2.6,5.5
3.645771986970684,-7.7,-2.6,5.5
3.653767100977199,-7.7,-2.6,5.5
3.6617622149837135,-7.7,-2.6,5.5
3.669757328990228,-7.7,-2.6,5.5
3.6777524429967428,-7.7,-2.6,5.5
3.6857475570032574,-7.7,-2.6,5.5
3.693742671009772,-7.7,-2.6,5.5
3.7017377850162867,-7.7,-2.6,5.5
3.7097328990228013,-7.7,-2.6,5.5
3.717728013029316,-7.7,-2.584799131378934,5.5
3.7257231270358306,-7.8,-2.5,5.406153900038528
3.7337182410423453,-7.8,-2.5,5.414750796819726
3.74171335504886,-7.8,-2.5,5.423347693600925
3.7497084690553746,-7.8,-2.5,5.431944590382123
3.7577035830618892,-7.8,-2.5,5.440541487163322
3.765698697068404,-7.8,-2.5,5.44913838394452
3.7736938110749185,-7.8,-2.5,5.457735280725719
3.781688925081433,-7.8,-2.5,5.466332177506917
3.789684039087948,-7.8,-2.5,5.474929074288116
3.7976791530944625,-7.8,-2.5,5.483525971069314
3.805674267100977,-7.8,-2.5,5.4921228678505125
3.8136693811074918,-7.8,-2.5,5.5
3.8216644951140064,-7.752396463471383,-2.595207073057234,5.5
3.829659609120521,-7.7,-2.667019543973953,5.467019543973953
3.8376547231270357,-7.7,-2.6081155160085805,5.4
3.8456498371335504,-7.7,-2.6178656550409154,5.4
3.853644951140065,-7.7,-2.6276157940732503,5.4
3.8616400651465796,-7.7,-2.637365933105585,5.4
3.8696351791530943,-7.7,-2.64711607213792,5.4
3.877630293159609,-7.7,-2.656866211170255,5.4
3.8856254071661236,-7.7,-2.66661635020259,5.4
3.8936205211726382,-7.7,-2.676366489234925,5.4
3.901615635179153,-7.7,-2.68611662826726,5.4
3.9096107491856675,-7.7,-2.695866767299595,5.4
3.917605863192182,-7.613137893593931,-2.7262757871878636,5.239413680781795
3.9256009771986973,-7.607022316168827,-2.8,5.2
3.933596091205212,-7.615527756601289,-2.8,5.2
3.9415912052117266,-7.624033197033752,-2.8,5.2
3.949586319218241,-7.632538637466214,-2.8,5.2
3.957581433224756,-7.641044077898676,-2.8,5.2
3.9655765472312705,-7.649549518331138,-2.8,5.2
3.973571661237785,-7.658054958763601,-2.8,5.2
3.9815667752443,-7.666560399196063,-2.8,5.2
3.9895618892508145,-7.675065839628526,-2.8,5.2
3.997557003257329,-7.683571280060988,-2.8,5.2
4.005552117263844,-7.692076720493451,-2.8,5.2
4.013547231270358,-7.6452768729641685,-2.854723127035831,5.254723127035831
4.021542345276873,-7.7,-2.7983415642184153,5.198341564218416
4.029537459283388,-7.7,-2.789744667437217,5.189744667437218
4.037532573289902,-7.7,-2.781147770656019,5.181147770656019
4.045527687296417,-7.7,-2.7725508738748204,5.172550873874821
4.053522801302932,-7.7,-2.763953977093622,5.163953977093621
4.061517915309446,-7.7,-2.7553570803124234,5.155357080312423
4.069513029315961,-7.7,-2.746760183531225,5.146760183531224
4.077508143322476,-7.7,-2.7381632867500265,5.138163286750026
4.08550325732899,-7.7,-2.729566389968828,5.1295663899688275
4.093498371335505,-7.7,-2.7209694931876296,5.120969493187629
4.1014934853420195,-7.7,-2.712372596406431,5.112372596406431
4.109488599348534,-7.7,-2.7037756996252327,5.103775699625232
4.117483713355049,-7.6,-2.7,5.2
4.1254788273615635,-7.506966481033939,-2.8069664810339394,5.0930335189660605
4.133473941368078,-7.515563377815138,-2.815563377815138,5.084436622184862
4.141469055374593,-7.524160274596336,-2.8241602745963363,5.075839725403664
4.149464169381107,-7.532757171377535,-2.832757171377535,5.067242828622464
4.157459283387622,-7.541354068158734,-2.8413540681587337,5.058645931841266
4.165454397394137,-7.549950964939932,-2.849950964939932,5.050049035060067
4.173449511400651,-7.558547861721131,-2.8585478617211306,5.041452138278869
4.181444625407166,-7.567144758502329,-2.867144758502329,5.03285524149767
4.189439739413681,-7.575741655283528,-2.8757416552835275,5.024258344716472
4.197434853420195,-7.584338552064726,-2.8843385520647264,5.0156614479352735
4.20542996742671,-7.592935448845925,-2.892935448845925,5.007064551154075
4.213425081433225,-7.579641693811075,-2.859283387622151,5.0407166123778495
4.221420195439739,-7.5,-2.7201682953311583,5.159663409337683
4.229415309446254,-7.5,-2.7867942453854493,5.026411509229101
4.2374104234527685,-7.493236970684039,-2.7,4.793236970684039
4.245405537459283,-7.483243078175897,-2.7,4.783243078175897
4.253400651465798,-7.473249185667753,-2.7,4.773249185667753
4.2613957654723125,-7.46325529315961,-2.7,4.7632552931596095
4.269390879478827,-7.453261400651466,-2.7,4.753261400651466
4.277385993485342,-7.4432675081433235,-2.7,4.743267508143323
4.285381107491856,-7.43327361563518,-2.7,4.73327361563518
4.293376221498371,-7.423279723127036,-2.7,4.723279723127036
4.301371335504886,-7.413285830618894,-2.7,4.713285830618894
4.3093664495114,-7.40329193811075,-2.7,4.70329193811075
4.317361563517915,-7.1,-3.0819218241042563,4.645765472312769
4.32535667752443,-7.09323757710167,-2.986475154203341,4.4
4.333351791530944,-7.084732136669208,-2.9694642733384162,4.4
4.341346905537459,-7.076226696236746,-2.9524533924734917,4.4
4.349342019543974,-7.067721255804283,-2.9354425116085667,4.4
4.357337133550488,-7.059215815371821,-2.918431630743642,4.4
4.365332247557003,-7.050710374939358,-2.9014207498787172,4.4
4.3733273615635175,-7.042204934506897,-2.8844098690137927,4.4
4.381322475570032,-7.033699494074434,-2.8673989881488677,4.4
4.389317589576547,-7.025194053641972,-2.850388107283943,4.4
4.3973127035830615,-7.016688613209509,-2.8333772264190182,4.4
4.405307817589576,-7.008183172777047,-2.8163663455540937,4.4
4.413302931596091,-7.0,-2.7899022801303164,4.3798045602606335
4.421298045602605,-6.900921790523522,-2.9006145270156805,4.10030726350784
4.42929315960912,-6.925648947244701,-2.9170992981631336,4.108549649081566
4.437288273615636,-6.950376103965883,-2.9335840693105886,4.116792034655294
4.44528338762215,-6.975103260687063,-2.9500688404580413,4.125034420229021
4.453278501628665,-6.9998304174082415,-2.9665536116054945,4.133276805802747
4.4612736156351795,-7.024557574129421,-2.983038382752947,4.1415191913764735
4.469268729641694,-7.049284730850601,-2.9995231539004004,4.1497615769502
4.477263843648209,-7.07401188757178,-3.0160079250478535,4.158003962523926
4.4852589576547235,-7.09873904429296,-3.0324926961953063,4.166246348097653
4.493254071661238,-7.123466201014139,-3.0489774673427594,4.17448873367138
4.501249185667753,-7.148193357735319,-3.065462238490212,4.182731119245106
4.509244299674267,-7.172920514456498,-3.0819470096376653,4.190973504818833
4.517239413680782,-7.197647671177677,-3.098431780785118,4.199215890392559
4.525234527687297,-9.991677341433954,-2.018032426893098,7.901387109761008
4.533229641693811,-9.937777696446217,-2.134814991033199,7.910370383925631
4.541224755700326,-9.883878051458478,-2.2515975551733,7.919353658090254
4.549219869706841,-9.829978406470739,-2.368380119313401,7.928336932254878
4.557214983713355,-9.776078761483,-2.485162683453502,7.937320206419501
4.56521009771987,-9.72217911649526,-2.601945247593603,7.946303480584124
4.573205211726385,-9.668279471507521,-2.718727811733704,7.955286754748746
4.581200325732899,-9.614379826519782,-2.835510375873805,7.964270028913369
4.589195439739414,-9.560480181532043,-2.952292940013906,7.973253303077993
4.5971905537459286,-9.506580536544305,-3.069075504154007,7.982236577242616
4.605185667752443,-9.452680891556566,-3.1858580682941082,7.991219851407239
4.613180781758958,-9.412052117263828,-3.3135586319218064,8.016571661237764
4.6211758957654725,-9.945059717698157,-3.9131921824104268,8.749457111834966
4.629171009771987,-14.091449511400624,-7.111156351791893,10.497394136807483
4.637166123778502,-13.781929768809091,-8.465432589179311,9.332323031699373
4.645161237785016,-13.499175736871377,-8.67993564789068,9.244571780408359
4.653156351791531,-13.216421704933664,-8.894438706602049,9.156820529117343
4.661151465798046,-12.93366767299595,-9.108941765313418,9.06906927782633
4.66914657980456,-12.650913641058235,-9.323444824024786,8.981318026535314
4.677141693811075,-12.368159609120521,-9.537947882736155,8.8935667752443
4.68513680781759,-12.085405577182808,-9.752450941447524,8.805815523953285
4.693131921824104,-11.802651545245094,-9.966954000158893,8.718064272662271
4.701127035830619,-11.51989751330738,-10.181457058870263,8.630313021371256
4.709122149837134,-11.237143481369667,-10.395960117581632,8.542561770080242
4.717117263843648,-7.888534201954345,-12.805667752443036,7.347166123778482
4.725112377850163,3.6241821271774506,-3.4939544682056374,11.20483642543549
4.733107491856678,3.7979889534060307,-3.4505027616484925,11.239597790681206
4.741102605863192,3.9717957796346104,-3.4070510550913475,11.274359155926922
4.749097719869707,4.14560260586319,-3.363599348534202,11.309120521172638
4.7570928338762215,4.319409432091771,-3.3201476419770573,11.343881886418353
4.765087947882736,4.49321625832035,-3.2766959354199123,11.37864325166407
4.773083061889251,4.66702308454893,-3.2332442288627674,11.413404616909785
4.7810781758957654,4.84082991077751,-3.1897925223056225,11.448165982155501
4.78907328990228,5.01463673700609,-3.1463408157484776,11.482927347401217
4.797068403908795,5.18844356323467,-3.1028891091913327,11.517688712646933
4.805063517915309,5.3622503894632505,-3.0594374026341873,11.552450077892649
4.813058631921824,5.53605721569183,-3.0159856960770424,11.587211443138365
4.821053745928339,3.9021172638439805,3.9311074918574302,-6.993648208468057
4.829048859934853,5.22749400436698,7.8140960017181555,-1.460572001288617
4.837043973941368,4.691557790743472,7.603235852095792,-1.3024268890718442
4.845039087947883,4.155621577119963,7.392375702473428,-1.1442817768550713
4.853034201954397,3.619685363496455,7.181515552851064,-0.9861366646382983
4.861029315960912,3.083749149872947,6.9706554032287,-0.8279915524215254
4.869024429967427,2.547812936249439,6.759795253606336,-0.6698464402047525
4.877019543973941,2.0118767226259306,6.548935103983972,-0.5117013279879796
4.885014657980456,1.475940509002422,6.338074954361608,-0.35355621577120666
4.8930097719869705,0.9400042953789143,6.1272148047392445,-0.1954111035544337
4.901004885993485,0.40406808175540565,5.91635465511688,-0.03726599133766073
4.909,-0.1318681318681021,5.705494505494517,0.12087912087911201
4.9169951140065145,-30.762377850161027,-21.695317589575097,-0.959527687296883
4.924990228013029,-38.16039087947882,-34.30213269329669,37.44076461512082
4.932985342019544,-37.84058631921824,-30.834777987313522,35.09272587004969
4.940980456026058,-37.52078175895765,-27.367423281330353,32.74468712497857
4.948975570032573,-37.20097719869707,-23.90006857534718,30.39664837990744
4.956970684039088,-36.88117263843649,-20.432713869364008,28.04860963483631
4.964965798045602,-36.5613680781759,-16.96535916338084,25.70057088976518
4.972960912052117,-36.24156351791532,-13.498004457397666,23.352532144694052
4.980956026058632,-35.92175895765474,-10.030649751414497,21.004493399622923
4.988951140065146,-35.60195439739415,-6.563295045431325,18.656454654551794
4.996946254071661,-35.28214983713357,-3.0959403394481555,16.30841590948067
5.004941368078176,-34.96234527687299,0.3714143665350136,13.96037716440954
5.01293648208469,-34.6425407166124,3.8387690725181827,11.61233841933841
5.020931596091205,4.293078175894999,-15.396254071658259,18.478420195437806
5.0289267100977195,18.338131764211425,-26.09548702322162,17.07387306924453
5.036921824104234,14.882179258169607,-22.71690658821059,12.182238800742555
5.044916938110749,11.426226752127791,-19.33832615319956,7.290604532240581
5.0529120521172635,7.970274246085975,-15.959745718188532,2.3989702637386046
5.060907166123778,4.514321740044156,-12.581165283177501,-2.4926640047633697
5.068902280130293,1.0583692340023418,-9.202584848166474,-7.384298273265344
5.076897394136807,-2.3975832720394763,-5.824004413155443,-12.275932541767322
5.084892508143322,-5.853535778081291,-2.445423978144415,-17.167566810269296
5.092887622149837,-9.309488284123109,0.933156456866616,-22.05920107877127
5.100882736156351,-12.765440790164924,4.3117368918776435,-26.950835347273244
5.108877850162866,-16.22139329620674,7.690317326888675,-31.84246961577522
5.1168729641693815,-10.395765472307863,5.025732899019717,-18.129641693801254
5.124868078175896,-14.899611892715967,-0.19015870815716357,29.52333321782511
5.132863192182411,-13.50471966179214,0.11603714741148152,27.915804976089724
5.1408583061889255,-12.109827430868313,0.4222330029801266,26.308276734354337
5.14885342019544,-10.714935199944485,0.7284288585487717,24.70074849261895
5.156848534201955,-9.320042969020658,1.0346247141174167,23.09322025088356
5.164843648208469,-7.92515073809683,1.3408205696860618,21.485692009148174
5.172838762214984,-6.530258507173002,1.6470164252547068,19.87816376741279
5.180833876221499,-5.135366276249176,1.953212280823352,18.270635525677402
5.188828990228013,-3.7404740453253478,2.2594081363919973,16.66310728394202
5.196824104234528,-2.3455818144015197,2.5656039919606424,15.05557904220663
5.204819218241043,-0.9506895834776934,2.8717998475292874,13.448050800471243
5.212814332247557,0.4442026474461347,3.1779957030979324,11.840522558735856
5.220809446254072,0.2767462902641733,1.5022620340208164,4.485142960550178
5.228804560260587,-2.15456600881392,-11.95740563326305,8.372550296991744
5.236799674267101,-1.7030772178577982,-11.534134891741687,8.09977581912242
5.244794788273616,-1.2515884269016766,-11.110864150220323,7.827001341253096
5.2527899022801305,-0.8000996359455552,-10.687593408698959,7.554226863383773
5.260785016286645,-0.3486108449894336,-10.264322667177595,7.2814523855144495
5.26878013029316,0.10287794596668798,-9.841051925656231,7.008677907645126
5.2767752442996745,0.5543667369228094,-9.417781184134867,6.735903429775803
5.284770358306189,1.0058555278789312,-8.994510442613503,6.463128951906479
5.292765472312704,1.4573443188350526,-8.57123970109214,6.190354474037155
5.300760586319218,1.908833109791174,-8.147968959570775,5.917579996167833
5.308755700325733,2.3603219007472953,-7.724698218049411,5.64480551829851
5.316750814332248,-4.898588490770383,-4.173344191096026,5.550922909880904
5.324745928338762,-0.8899715850024221,0.38166193083373706,8.295606071106805
5.332741042345277,-0.7368736572180996,0.35614560953634994,8.567780164945601
5.340736156351792,-0.5837757294337771,0.33062928823896287,8.839954258784395
5.348731270358306,-0.4306778016494546,0.30511296694157575,9.112128352623191
5.356726384364821,-0.27757987386513194,0.2795966456441887,9.384302446461987
5.364721498371336,-0.12448194608080942,0.25408032434680156,9.656476540300783
5.37271661237785,0.028615981703512983,0.2285640030494145,9.92865063413958
5.380711726384365,0.18171390948783572,0.2030476817520274,10.200824727978375
5.3887068403908795,0.33481183727215824,0.1775313604546403,10.472998821817171
5.396701954397394,0.48790976505648076,0.1520150391572532,10.745172915655967
5.404697068403909,0.6410076928408033,0.1264987178598661,11.017347009494761
5.4126921824104235,0.7941056206251258,0.10098239656247898,11.289521103333557
5.420687296416938,-1.7872389346618094,-5.1943284154052485,7.388656830810498
5.428682410423453,-1.7267716858730435,-5.1674540826102415,7.334908165220483
5.436677524429967,-1.6663044370842777,-5.140579749815235,7.281159499630469
5.444672638436482,-1.6058371882955118,-5.113705417020228,7.227410834040455
5.452667752442997,-1.5453699395067457,-5.086831084225221,7.1736621684504405
5.460662866449511,-1.4849026907179799,-5.059956751430214,7.119913502860427
5.468657980456026,-1.424435441929214,-5.033082418635206,7.066164837270413
5.476653094462541,-1.3639681931404481,-5.006208085840199,7.012416171680398
5.484648208469055,-1.3035009443516823,-4.979333753045192,6.958667506090384
5.49264332247557,-1.2430336955629162,-4.952459420250185,6.90491884050037
5.500638436482085,-1.1825664467741503,-4.925585087455178,6.851170174910356
5.508633550488599,-1.1220991979853845,-4.898710754660171,6.797421509320341
5.516628664495114,-1.0616319491966184,-4.871836421865163,6.7436728437303275
5.524623778501629,-1.0011647004078528,-4.844962089070156,6.689924178140313
5.532618892508143,-0.9406974516190868,-4.818087756275149,6.636175512550299
5.540614006514658,-0.2543973941369554,-4.0157980456027165,8.878908794787776
5.5486091205211725,2.977900628526865,-0.04281781896591974,12.468784695141542
5.556604234527687,3.1130293159609144,-0.29055374592834327,12.761563517915315
5.564599348534202,3.2481580033949635,-0.5382896728907669,13.05434234068909
5.572594462540716,3.3832866908290127,-0.7860255998531904,13.347121163462862
5.580589576547231,3.518415378263062,-1.033761526815614,13.639899986236635
5.588584690553746,3.653544065697111,-1.2814974537780375,13.932678809010408
5.59657980456026,3.78867275313116,-1.529233380740461,14.225457631784181
5.604574918566775,3.9238014405652093,-1.7769693077028845,14.518236454557954
5.61257003257329,4.0589301279992585,-2.024705234665308,14.811015277331729
5.620565146579804,1.7653094462544319,-7.308794788274003,9.72182410423486
5.628560260586319,-2.8,-3.1208393303537565,7.797022952806606
5.636555374592834,-2.8,-3.185915839709109,7.787726308612984
5.644550488599348,-2.8,-3.250992349064461,7.778429664419362
5.652545602605863,-2.8,-3.316068858419813,7.769133020225741
5.660540716612378,-2.8,-3.3811453677751655,7.759836376032119
5.668535830618892,-2.8,-3.4462218771305175,7.750539731838497
5.676530944625407,-2.8,-3.51129838648587,7.741243087644876
5.6845260586319215,-2.8,-3.576374895841222,7.731946443451254
5.692521172638436,-2.8,-3.641451405196574,7.722649799257632
5.700516286644951,-2.8,-3.7065279145519265,7.71335315506401
5.7085114006514655,-2.8,-3.7716044239072786,7.704056510870389
5.71650651465798,-1.7101569440330682,-4.768359490672178,8.380989043529835
5.724501628664495,-3.0184483269173743,-4.986408054486229,7.3634290790642645
5.732496742671009,-2.9018102512261805,-4.982766108802276,7.386169455988617
5.740491856677524,-2.690445168295335,-4.964386536373508,7.478067318132463
5.748486970684039,-2.47908008536449,-4.946006963944738,7.569965180276309
5.756482084690553,-2.2677150024336443,-4.927627391515969,7.661863042420155
5.764477198697068,-2.0563499195027988,-4.9092478190871995,7.753760904564
5.772472312703583,-1.8449848365719534,-4.890868246658431,7.845658766707847
5.780467426710097,-1.633619753641108,-4.872488674229661,7.937556628851692
5.788462540716612,-1.4222546707102626,-4.854109101800892,8.029454490995539
5.796457654723127,-1.210889587779417,-4.835729529372123,8.121352353139384
5.804452768729642,-0.9995245048485479,-4.817349956943352,8.21325021528324
5.812447882736157,-0.172964169380581,-4.6208469055373085,8.255211726384328
5.820442996742671,0.5053745928339393,-4.777850162866424,7.9442996742671514
5.828438110749186,0.7786880202678288,-4.664232718060078,8.171534563879844
5.836433224755701,0.8764060803474525,-4.619815418023886,8.260369163952229
5.844428338762215,0.9741241404270762,-4.575398117987693,8.349203764024614
5.85242345276873,1.0718422005066996,-4.5309808179515,8.438038364097
5.860418566775245,1.1695602605863233,-4.486563517915307,8.526872964169385
5.868413680781759,1.267278320665947,-4.442146217879115,8.61570756424177
5.876408794788274,1.3649963807455707,-4.397728917842922,8.704542164314155
5.884403908794789,1.4627144408251942,-4.35331161780673,8.79337676438654
5.892399022801303,1.5604325009048179,-4.308894317770537,8.882211364458925
5.900394136807818,1.6581505609844416,-4.264477017734345,8.97104596453131
5.9083892508143325,1.7558686210640653,-4.2200597176981525,9.059880564603695
5.916384364820847,1.2487513572204127,-3.769055374592833,11.059066232356134
5.924379478827362,0.8402280130293087,-5.610867633994671,10.01305892804263
5.9323745928338765,0.751393412956924,-5.627019379462377,9.88384496430098
5.940369706840391,0.6625588128845391,-5.643171124930084,9.754631000559328
5.948364820846906,0.5737242128121542,-5.65932287039779,9.625417036817678
5.95635993485342,0.48488961273976955,-5.675474615865496,9.496203073076028
5.964355048859935,0.39605501266738474,-5.691626361333203,9.366989109334378
5.97235016286645,0.3072204125949999,-5.707778106800909,9.237775145592726
5.980345276872964,0.21838581252261513,-5.723929852268615,9.108561181851076
5.988340390879479,0.12955121245023038,-5.740081597736322,8.979347218109426
5.996335504885994,0.04071661237784552,-5.756233343204028,8.850133254367774
6.004330618892508,-0.04811798769453923,-5.772385088671734,8.720919290626124
6.012325732899023,-0.1369525877669241,-5.788536834139441,8.591705326884474
6.020320846905538,-0.7481270358306867,-5.216042345276896,7.7
6.028315960912052,-1.4152457972967902,-5.307622898648395,7.0114343479725925
6.036311074918567,-1.452004942154329,-5.326002471077165,7.0390037066157465
6.0443061889250815,-1.4887640870118677,-5.3443820435059335,7.0665730652589005
6.052301302931596,-1.5255232318694065,-5.362761615934703,7.0941424239020545
6.060296416938111,-1.5622823767269451,-5.381141188363473,7.1217117825452085
6.0682915309446255,-1.5990415215844838,-5.3995207607922415,7.1492811411883626
6.07628664495114,-1.6358006664420226,-5.417900333221011,7.176850499831517
6.084281758957655,-1.6725598112995614,-5.436279905649781,7.204419858474671
6.092276872964169,-1.7093189561571,-5.45465947807855,7.231989217117825
6.100271986970684,-1.7460781010146387,-5.473039050507319,7.259558575760979
6.108267100977199,-1.7828372458721775,-5.491418622936089,7.287127934404133
6.116262214983713,-1.2380456026058348,-4.883289902280105,7.954755700325729
6.124257328990228,-0.6971392154085786,-4.522857952131427,7.945715904262855
6.132252442996743,-0.5407130718028581,-4.557619317377143,8.015238634754287
6.140247557003257,-0.3842869281971376,-4.592380682622858,8.084761365245717
6.148242671009772,-0.22786078459141712,-4.627142047868574,8.154284095737149
6.156237785016287,-0.07143464098569663,-4.66190341311429,8.22380682622858
6.164232899022801,0.08499150262002386,-4.696664778360005,8.29332955672001
6.172228013029316,0.10903501628664482,-4.71807003257329,8.33614006514658
6.1802231270358305,0.11902890879478813,-4.738057817589576,8.376115635179152
6.188218241042345,0.12902280130293142,-4.758045602605863,8.416091205211726
6.19621335504886,0.13901669381107473,-4.77803338762215,8.456066775244299
6.2042084690553745,0.14901058631921804,-4.798021172638436,8.496042345276873
6.212203583061889,0.15900447882736132,-4.8180089576547225,8.536017915309445
6.220198697068404,0.16899837133550463,-4.8379967426710095,8.575993485342018
6.228193811074918,0.17899226384364791,-4.857984527687297,8.615969055374592
6.236188925081433,0.18898615635179122,-4.877972312703583,8.655944625407164
6.244184039087948,0.19898004885993453,-4.897960097719869,8.695920195439736
6.252179153094462,0.29806696214022615,-5.903866075719548,9.19033481070113
6.260174267100977,0.28496021786725134,-5.9300795642654975,9.124801089336255
6.268169381107492,0.2718534735942765,-5.956293052811447,9.059267367971382
6.276164495114006,0.2587467293213016,-5.982506541357397,8.993733646606508
6.284159609120521,0.2456399850483268,-6.008720029903347,8.928199925241634
6.292154723127036,0.23253324077535195,-6.034933518449296,8.86266620387676
6.30014983713355,0.2194264965023771,-6.061147006995245,8.797132482511884
6.308144951140065,0.20631975222940227,-6.087360495541195,8.73159876114701
6.3161400651465796,-0.21400651465797102,-5.795331161780676,7.695331161780676
6.324135179153094,-0.5,-5.688956603971841,7.60552169801408
6.332130293159609,-0.5,-5.671762810409444,7.614118594795278
6.3401254071661235,-0.5,-5.654569016847046,7.622715491576477
6.348120521172638,-0.5,-5.637375223284649,7.631312388357675
6.356115635179153,-0.5,-5.620181429722252,7.639909285138874
6.364110749185667,-0.5,-5.602987636159855,7.648506181920072
6.372105863192182,-0.5,-5.585793842597457,7.6571030787012715
6.380100977198697,-0.5,-5.5686000490350605,7.66569997548247
6.388096091205211,-0.5,-5.5514062554726635,7.674296872263668
6.396091205211726,-0.5,-5.534212461910267,7.682893769044867
6.404086319218241,-0.5,-5.51701866834787,7.691490665826065
6.412081433224755,-0.49185667752445905,-5.49592833876223,7.70407166123777
6.42007654723127,-0.19991769114917202,-5.399917691149172,8.300246926552484
6.428071661237785,-0.19132079436797347,-5.3913207943679735,8.32603761689608
6.436066775244299,-0.1827238975867749,-5.382723897586775,8.351828307239677
6.444061889250814,-0.17412700080557636,-5.374127000805577,8.377618997583271
6.452057003257329,-0.16553010402437782,-5.365530104024378,8.403409687926867
6.460052117263843,-0.15693320724317927,-5.35693320724318,8.429200378270462
6.468047231270358,-0.1483363104619807,-5.348336310461981,8.454991068614058
6.4760423452768725,-0.13973941368078216,-5.339739413680782,8.480781758957654
6.484037459283388,-0.13114251689958267,-5.3311425168995825,8.506572449301252
6.492032573289903,-0.12254562011838412,-5.322545620118384,8.532363139644847
6.500027687296417,-0.11394872333718557,-5.313948723337186,8.558153829988443
6.508022801302932,-0.10535182655598702,-5.305351826555987,8.58394452033204
6.516017915309447,-0.1,-5.2,8.6
6.524013029315961,-0.1,-5.2,8.6
6.532008143322476,0.0951020894573764,-5.7,8.792653134186065
6.540003257328991,0.0756018113927065,-5.7,8.763402717089061
6.547998371335505,0.056101533328036586,-5.7,8.734152299992056
6.55599348534202,0.036601255263366675,-5.7,8.70490188289505
6.5639885993485345,0.01710097719869677,-5.7,8.675651465798046
6.571983713355049,-0.0023993008659731335,-5.7,8.64640104870104
6.579978827361564,-0.021899578930643038,-5.7,8.617150631604035
6.5879739413680785,-0.041399856995312956,-5.7,8.58790021450703
6.595969055374593,-0.060900135059982846,-5.7,8.558649797410025
6.603964169381108,-0.08040041312465276,-5.7,8.529399380313022
6.611959283387622,-0.09990069118932268,-5.7,8.500148963216017
6.619954397394137,-0.3989737662428632,-5.598973766242863,7.898973766242864
6.627949511400652,-0.3903768694616646,-5.5903768694616645,7.890376869461665
6.635944625407166,-0.38177997268046604,-5.581779972680466,7.881779972680467
6.643939739413681,-0.3731830758992675,-5.5731830758992675,7.873183075899267
6.651934853420196,-0.36458617911806895,-5.564586179118069,7.864586179118069
6.65992996742671,-0.35598928233687044,-5.555989282336871,7.85598928233687
6.667925081433225,-0.34739238555567187,-5.547392385555671,7.847392385555672
6.67592019543974,-0.3387954887744733,-5.538795488774473,7.8387954887744735
6.683915309446254,-0.3301985919932748,-5.530198591993274,7.830198591993275
6.691910423452769,-0.3216016952120762,-5.521601695212076,7.821601695212076
6.6999055374592835,-0.3130047984308777,-5.513004798430877,7.813004798430877
6.707900651465798,-0.3044079016496791,-5.504407901649679,7.804407901649679
6.715895765472313,-0.1034744842562457,-5.4965255157437545,7.9
6.7238908794788275,-0.0917803338762216,-5.508219666123779,7.924658998371336
6.731885993485342,-0.08345209011943552,-5.516547909880565,7.949643729641694
6.739881107491857,-0.07512384636264943,-5.524876153637351,7.974628460912052
6.747876221498371,-0.06679560260586334,-5.533204397394137,7.99961319218241
6.755871335504886,-0.058467358849077264,-5.541532641150923,8.024597923452768
6.763866449511401,-0.05013911509229118,-5.549860884907709,8.049582654723126
6.771861563517915,-0.041810871335505095,-5.558189128664495,8.074567385993484
6.77985667752443,-0.033482627578719004,-5.566517372421281,8.099552117263842
6.787851791530945,-0.025154383821932927,-5.574845616178067,8.1245368485342
6.795846905537459,-0.016826140065146836,-5.583173859934853,8.149521579804558
6.803842019543974,-0.008497896308360758,-5.591502103691639,8.174506311074918
6.811837133550489,-0.0001696525515746672,-5.599830347448425,8.199491042345276
6.819832247557003,0.019462540716610383,-5.5,8.48053745928339
6.827827361563518,-0.006966695472977716,-5.5,8.5
6.8358224755700325,-0.01512497507146206,-5.5,8.5
6.843817589576547,-0.023283254669946407,-5.5,8.5
6.851812703583062,-0.03144153426843075,-5.5,8.5
6.8598078175895765,-0.0395998138669151,-5.5,8.5
6.867802931596091,-0.04775809346539944,-5.5,8.5
6.875798045602606,-0.055916373063883786,-5.5,8.5
6.88379315960912,-0.06407465266236813,-5.5,8.5
6.891788273615635,-0.07223293226085248,-5.5,8.5
6.89978338762215,-0.08039121185933683,-5.5,8.5
6.907778501628664,-0.08854949145782116,-5.5,8.5
6.915773615635179,-0.09670777105630551,-5.5,8.5
6.923768729641694,-0.11538183134274124,-5.4,8.253854505971777
6.931763843648208,-0.15979913137893423,-5.4,8.120602605863198
6.939758957654723,-0.2,-5.4,8.0
6.947754071661238,-0.2,-5.409512776987659,8.0
6.955749185667752,-0.2,-5.420773500940497,8.0
6.963744299674267,-0.2,-5.432034224893334,8.0
6.9717394136807815,-0.2,-5.443294948846172,8.0
6.979734527687296,-0.2,-5.454555672799009,8.0
6.987729641693811,-0.2,-5.465816396751847,8.0
6.9957247557003255,-0.2,-5.477077120704684,8.0
7.00371986970684,-0.2,-5.488337844657522,8.0
7.011714983713355,-0.2,-5.4995985686103595,8.0
7.019710097719869,-0.2,-5.5,7.990336590662326
7.027705211726384,-0.09471324525125353,-5.6,8.105286754748747
7.035700325732899,-0.08572997108663037,-5.6,8.114270028913369
7.043695439739413,-0.07674669692200722,-5.6,8.123253303077993
7.051690553745928,-0.06776342275738406,-5.6,8.132236577242615
7.059685667752443,-0.0587801485927609,-5.6,8.14121985140724
7.067680781758957,-0.049796874428137745,-5.6,8.150203125571862
7.075675895765472,-0.040813600263514584,-5.6,8.159186399736484
7.083671009771987,-0.03183032609889143,-5.6,8.168169673901108
7.091666123778501,-0.022847051934268267,-5.6,8.17715294806573
7.099661237785016,-0.01386377776964512,-5.6,8.186136222230354
7.1076563517915305,-0.0048805036050219575,-5.6,8.195119496394977
7.115651465798045,-0.06742671009774737,-5.632573289902252,8.232573289902252
7.12364657980456,-0.006996399794273544,-5.672014400822906,8.3
7.1316416938110745,-0.015412309274815301,-5.638350762900739,8.3
7.139636807817589,-0.023828218755357056,-5.604687124978572,8.3
7.147631921824104,-0.03224412823589881,-5.571023487056404,8.3
7.155627035830618,-0.04066003771644057,-5.537359849134238,8.3
7.163622149837133,-0.04907594719698233,-5.503696211212071,8.3
7.171617263843649,-0.05749185667752502,-5.4700325732899,8.3
7.179612377850163,-0.06590776615806677,-5.4363689353677325,8.3
7.187607491856678,-0.07432367563860853,-5.402705297445566,8.3
7.195602605863193,-0.08273958511915029,-5.369041659523399,8.3
7.203597719869707,-0.09115549459969205,-5.335378021601231,8.3
7.211592833876222,-0.09957140408023381,-5.301714383679065,8.3
7.2195879478827365,0.10818529836462125,-5.38854058228953,7.203274119345848
7.227583061889251,0.1493972262332533,-5.330843883273446,7.219758890493302
7.235578175895766,0.1906091541018853,-5.273147184257361,7.236243661640755
7.24357328990228,0.23182108197051735,-5.215450485241276,7.252728432788207
7.251568403908795,0.27303300983914935,-5.157753786225191,7.26921320393566
7.25956351791531,0.3142449377077814,-5.100057087209106,7.285697975083113
7.267558631921824,0.3554568655764134,-5.042360388193021,7.3021827462305655
7.275553745928339,0.39666879344504546,-4.984663689176936,7.318667517378018
7.283548859934854,0.4378807213136775,-4.926966990160852,7.335152288525471
7.291543973941368,0.47909264918230954,-4.869270291144767,7.351637059672924
7.299539087947883,0.5203045770509416,-4.811573592128682,7.368121830820377
7.307534201954398,0.5615165049195736,-4.753876893112597,7.38460660196783
7.315529315960912,0.5810958585388605,-4.726465798045595,7.384876686831089
7.323524429967427,0.2955560725918955,-5.126221498371347,7.156444858073517
7.331519543973942,-0.9480456026058782,-5.376547231270538,7.75724755700301
7.339514657980456,-0.8488599348534203,-3.7872964169381107,10.27328990228013
7.347509771986971,-0.90882328990228,-4.017155944625407,10.36323493485342
7.3555048859934855,-0.9687866449511398,-4.247015472312703,10.45317996742671
7.3635,-1.0287499999999996,-4.476874999999999,10.543124999999998
7.371495114006515,-1.0887133550488595,-4.706734527687295,10.633070032573288
7.3794902280130295,-1.148676710097719,-4.936594055374591,10.723015065146578
7.387485342019544,-1.208640065146579,-5.1664535830618865,10.812960097719868
7.395480456026059,-1.2686034201954388,-5.396313110749182,10.902905130293158
7.403475570032573,-1.3285667752442984,-5.626172638436478,10.992850162866448
7.411470684039088,-1.3885301302931583,-5.856032166123774,11.082795195439736
7.419465798045603,-0.3040068649084137,-5.294490560750931,7.505509439249069
7.427460912052117,-0.3727820391580021,-5.199924696157747,7.600075303842253
7.435456026058632,-0.44155721340759047,-5.105358831564563,7.694641168435437
7.443451140065147,-0.5103323876571788,-5.010792966971379,7.789207033028621
7.451446254071661,-0.5791075619067673,-4.916227102378195,7.883772897621805
7.459441368078176,-0.6478827361563557,-4.821661237785011,7.978338762214989
7.467436482084691,-0.7166579104059441,-4.727095373191827,8.072904626808173
7.475431596091205,-0.7854330846555324,-4.632529508598643,8.167470491401357
7.48342671009772,-0.8542082589051208,-4.537963644005459,8.26203635599454
7.4914218241042345,-0.9229834331547093,-4.443397779412275,8.356602220587725
7.499416938110749,-0.9917586074042977,-4.348831914819091,8.451168085180909
7.507412052117264,-1.060533781653886,-4.254266050225906,8.545733949774093
7.5154071661237785,-0.8955700325732985,-4.2,8.6
7.523402280130293,-0.10373876937394894,-3.3149550774957954,9.40373876937395
7.531397394136808,-0.11252460894154744,-3.3500984357661894,9.412524608941547
7.539392508143322,-0.12131044850914592,-3.3852417940365838,9.421310448509146
7.547387622149837,-0.13009628807674442,-3.4203851523069777,9.430096288076745
7.555382736156352,-0.1388821276443429,-3.4555285105773716,9.438882127644343
7.563377850162866,-0.14766796721194142,-3.4906718688477656,9.447667967211942
7.571372964169381,-0.1564538067795399,-3.5258152271181595,9.45645380677954
7.579368078175896,-0.1652396463471384,-3.5609585853885535,9.465239646347138
7.58736319218241,-0.17402548591473688,-3.596101943658948,9.474025485914737
7.595358306188925,-0.1828113254823354,-3.631245301929342,9.482811325482336
7.60335342019544,-0.1915971650499339,-3.6663886601997357,9.491597165049933
7.611348534201954,-0.1825732899022826,-3.734853420195435,9.447719869706848
7.619343648208469,-0.3,-4.876116798510934,9.082940570364952
7.6273387622149835,-0.3,-4.819008841321545,9.04214917237253
7.635333876221498,-0.3,-4.761900884132155,9.00135777438011
7.643328990228013,-0.3,-4.704792926942765,8.960566376387689
7.6513241042345275,-0.3,-4.647684969753375,8.919774978395267
7.659319218241042,-0.3,-4.590577012563985,8.878983580402846
7.667314332247557,-0.3,-4.533469055374595,8.838192182410424
7.675309446254071,-0.3,-4.476361098185206,8.797400784418004
7.683304560260586,-0.3,-4.419253140995815,8.756609386425582
7.691299674267101,-0.3,-4.362145183806425,8.71581798843316
7.699294788273615,-0.3,-4.305037226617036,8.675026590440739
7.70728990228013,-0.3,-4.247929269427646,8.634235192448317
7.715285016286645,-0.3642508143322189,-4.328501628664438,8.53574918566778
7.723280130293159,-0.5861931280865839,-4.686193128086584,8.88159083744878
7.731275244299674,-0.5604024377429883,-4.660402437742988,8.847203250323984
7.739270358306189,-0.5346117473993925,-4.634611747399393,8.81281566319919
7.747265472312703,-0.5088210570557969,-4.608821057055797,8.778428076074396
7.755260586319218,-0.4830303667122013,-4.583030366712202,8.744040488949603
7.7632557003257325,-0.45723967636860563,-4.557239676368606,8.709652901824807
7.771250814332247,-0.43144898602501003,-4.53144898602501,8.675265314700013
7.779245928338762,-0.40565829568141437,-4.505658295681415,8.64087772757522
7.7872410423452765,-0.3798676053378187,-4.4798676053378195,8.606490140450425
7.795236156351791,-0.3540769149942231,-4.454076914994223,8.572102553325632
7.803231270358306,-0.32828622465062746,-4.428286224650628,8.537714966200836
7.81122638436482,-0.3024955343070318,-4.402495534307032,8.503327379076042
7.819221498371335,-0.5777687296416917,-4.4333061889250756,8.855537459283383
7.82721661237785,-0.3905244665666307,-4.604737766716684,8.685786699849945
7.835211726384364,-0.3725579182373842,-4.613721040881307,8.658836877356075
7.843206840390879,-0.3545913699081377,-4.622704315045931,8.631887054862206
7.8512019543973945,-0.33662482157888923,-4.631687589210555,8.604937232368334
7.859197068403909,-0.31865827324964274,-4.6406708633751785,8.577987409874464
7.867192182410424,-0.30069172492039625,-4.649654137539802,8.551037587380595
7.8751872964169385,-0.28272517659114976,-4.658637411704425,8.524087764886724
7.883182410423453,-0.2647586282619032,-4.667620685869048,8.497137942392856
7.891177524429968,-0.24679207993265675,-4.676603960033671,8.470188119898985
7.899172638436482,-0.22882553160341026,-4.685587234198295,8.443238297405115
7.907167752442997,-0.21085898327416377,-4.694570508362919,8.416288474911246
7.915162866449512,-0.21938110749186632,-4.4193811074918665,8.877524429967465
7.923157980456026,-0.286370649751414,-4.750025715755185,8.777284416252357
7.931153094462541,-0.23587519286816347,-4.5648757071832655,8.69312532144694
7.939148208469056,-0.18537973598491292,-4.379725698611347,8.608966226641522
7.94714332247557,-0.1348842791016624,-4.194575690039429,8.524807131836104
7.955138436482085,-0.08438882221841187,-4.00942568146751,8.440648037030687
7.9631335504886,-0.03389336533516135,-3.8242756728955913,8.356488942225269
7.971128664495114,0.016602091548089226,-3.639125664323673,8.27232984741985
7.979123778501629,0.06709754843133975,-3.453975655751754,8.188170752614434
7.9871188925081436,0.11759300531459027,-3.2688256471798356,8.104011657809016
7.995114006514658,0.1680884621978408,-3.083675638607917,8.0198525630036
8.003109120521172,0.2185839190810857,-2.898525630036019,7.93569346819819
8.011104234527687,0.2690793759643419,-2.71337562146408,7.851534373392763
8.019099348534201,-0.38477198697041365,-3.928501628662718,8.945032573289941
8.027094462540717,-0.7542915309446298,-6.68826818675354,8.05429153094463
8.03508957654723,-0.6943281758957762,-6.5416910966341195,7.994328175895776
8.043084690553746,-0.6343648208469093,-6.3951140065146665,7.934364820846909
8.05107980456026,-0.5744014657980557,-6.248536916395247,7.874401465798055
8.059074918566775,-0.5144381107491888,-6.101959826275794,7.8144381107491885
8.06707003257329,-0.4544747557003352,-5.955382736156375,7.754474755700335
8.075065146579805,-0.3945114006514683,-5.808805646036922,7.694511400651468
8.083060260586318,-0.3345480456026147,-5.662228555917502,7.634548045602615
8.091055374592834,-0.2745846905537478,-5.51565146579805,7.574584690553747
8.099050488599348,-0.21462133550489426,-5.36907437567863,7.514621335504894
8.107045602605863,-0.1546579804560273,-5.222497285559178,7.454657980456028
8.115040716612377,-0.09469462540717377,-5.075920195439758,7.3946946254071735
8.123035830618893,-0.03473127035830681,-4.929343105320305,7.334731270358307
8.131030944625406,0.02523208469054672,-4.7827660152008855,7.274767915309454
8.139026058631922,0.08519543973941368,-4.6361889250814325,7.214804560260586
8.147021172638436,-1.3446719404372962,-3.357445323406216,10.872335970218648
8.155016286644951,-0.8949728555917469,-7.588859934853368,8.535190010857772
8.163011400651465,-0.8816476655808907,-7.02920195439741,8.628466340933764
8.17100651465798,-0.8683224755700316,-6.469543973941327,8.721742671009778
8.179001628664494,-0.8549972855591754,-5.909885993485369,8.815019001085771
8.18699674267101,-0.8416720955483163,-5.350228013029286,8.908295331161785
8.194991856677525,-0.8283469055374573,-4.7905700325732035,9.001571661237799
8.202986970684039,-0.8150217155266011,-4.230912052117246,9.094847991313792
8.210982084690555,-0.801696525515742,-3.6712540716611626,9.188124321389806
8.218977198697068,-1.0979404180238879,-1.3679662052117059,10.185582926167212
8.226972312703584,-1.0896121742671008,-1.642798249185677,10.127285219869703
8.234967426710098,-1.0812839305103157,-1.9176302931595872,10.068987513572209
8.242962540716613,-1.0729556867535286,-2.1924623371335583,10.0106898072747
8.250957654723127,-1.0646274429967435,-2.467294381107469,9.952392100977203
8.258952768729642,-1.0562991992399564,-2.74212642508144,9.894094394679694
8.266947882736156,-1.0479709554831713,-3.01695846905535,9.835796688382198
8.274942996742672,-1.0396427117263842,-3.2917905130293215,9.777498982084689
8.282938110749186,-1.0313144679695991,-3.5666225570032317,9.719201275787192
8.290933224755701,-1.022986224212812,-3.841454600977203,9.660903569489683
8.298928338762215,-1.014657980456027,-4.116286644951113,9.602605863192188
8.30692345276873,-1.0063297366992399,-4.391118688925085,9.54430815689468
8.314918566775244,1.5900651465801485,-5.559283387622277,7.8692182410421285
8.32291368078176,-1.6052835277223227,-2.836984694056258,9.062628279219611
8.330908794788273,-1.6138804245035203,-2.8971629715246414,8.839108962908474
8.338903908794789,-1.6224773212847197,-2.9573412489930377,8.615589646597288
8.346899022801303,-1.6310742180659172,-3.0175195264614207,8.392070330286149
8.354894136807818,-1.6396711148471168,-3.0776978039298175,8.168551013974962
8.362889250814332,-1.6482680116283144,-3.1378760813982005,7.9450316976638256
8.370884364820848,-1.656864908409514,-3.1980543588665973,7.721512381352638
8.378879478827361,-1.6654618051907115,-3.2582326363349803,7.497993065041501
8.386874592833877,-1.6740587019719109,-3.318410913803377,7.274473748730314
8.39486970684039,-1.6826555987531087,-3.37858919127176,7.050954432419177
8.402864820846906,-1.691252495534308,-3.4387674687401564,6.827435116107989
8.41085993485342,-1.6998493923155056,-3.49894574620854,6.603915799796852
8.418855048859935,-1.7977062975026865,-1.2351384364822688,12.252660152008598
8.42685016286645,-1.52247557003256,-3.189250814332254,11.290228013029322
8.434845276872965,-1.7338406529634312,-3.088163165974011,11.198330150885466
8.442840390879478,-1.9452057358942554,-2.987075517615791,11.10643228874163
8.450835504885994,-2.1565708188251262,-2.8859878692575482,11.014534426597772
8.458830618892508,-2.3679359017559505,-2.784900220899328,10.922636564453935
8.466825732899023,-2.579300984686822,-2.6838125725410853,10.830738702310079
8.474820846905537,-2.7906660676176456,-2.582724924182865,10.738840840166242
8.482815960912053,-3.002031150548517,-2.4816372758246223,10.646942978022384
8.490811074918566,-3.213396233479341,-2.380549627466402,10.555045115878547
8.498806188925082,-3.424761316410212,-2.2794619791081594,10.463147253734691
8.506801302931596,-3.636126399341036,-2.1783743307499392,10.371249391590855
8.514796416938111,-5.776058631921746,-3.8065960912051446,12.36587947882728
8.522791530944625,-4.419788273615606,3.149382464712185,4.6591883821931575
8.53078664495114,-4.619666123778495,3.732359527687276,5.425386807817563
8.538781758957654,-4.819543973941339,4.315336590662237,6.191585233441797
8.54677687296417,-5.019421824104226,4.898313653637327,6.957783659066202
8.554771986970684,-5.21929967426707,5.481290716612289,7.723982084690436
8.562767100977199,-5.4191775244299585,6.06426777958738,8.49018051031484
8.570762214983713,-5.6190553745928025,6.6472448425623405,9.256378935939075
8.578757328990228,-5.818933224755691,7.230221905537431,10.022577361563481
8.586752442996742,-6.018811074918535,7.813198968512393,10.788775787187715
8.594747557003258,-6.218688925081423,8.396176031487483,11.55497421281212
8.602742671009771,-6.418566775244267,8.979153094462443,12.321172638436355
8.610737785016287,-6.618444625407155,9.562130157437537,13.087371064060758
8.6187328990228,-7.362605863192124,8.853420195439824,8.667100977199118
8.626728013029316,-3.274304277014585,2.6672355190483144,4.953747698626254
8.63472312703583,-3.2308525704574453,3.1191332672425673,4.875534626823402
8.642718241042346,-3.187400863900296,3.5710310154369216,4.797321555020533
8.65071335504886,-3.143949157343156,4.022928763631175,4.719108483217681
8.658708469055375,-3.1004974507860066,4.474826511825528,4.640895411414812
8.666703583061889,-3.057045744228867,4.926724260019782,4.5626823396119605
8.674698697068404,-3.0135940376717176,5.378622008214135,4.484469267809091
8.682693811074918,-2.9701423311145776,5.830519756408389,4.40625619600624
8.690688925081433,-2.9266906245574282,6.282417504602742,4.328043124203371
8.698684039087947,-2.8832389180002886,6.734315252796996,4.24983005240052
8.706679153094463,-2.8397872114431393,7.18621300099135,4.17161698059765
8.714674267100976,-3.0022801302929323,10.56677524429634,5.4485342019528815
8.722669381107492,-4.073262757871655,8.300814332247382,6.244896851248545
8.730664495114006,-4.302193268186734,8.348903365906633,6.291483894317772
8.738659609120521,-4.408794788273608,8.295602605863197,6.282600434310533
8.746654723127035,-4.515396308360458,8.242301845819771,6.273716974303295
8.75464983713355,-4.621997828447332,8.189001085776335,6.264833514296056
8.762644951140064,-4.728599348534183,8.135700325732909,6.255950054288818
8.77064006514658,-4.835200868621056,8.082399565689473,6.247066594281579
8.778635179153094,-4.941802388707907,8.029098805646047,6.238183134274341
8.78663029315961,-5.048403908794781,7.97579804560261,6.229299674267102
8.794625407166123,-5.155005428881632,7.922497285559184,6.220416214259864
8.802620521172638,-5.261606948968505,7.869196525515747,6.211532754252625
8.810615635179152,-5.3682084690553555,7.815895765472322,6.202649294245387
8.818610749185668,-4.319255825607664,5.239751941869221,5.379503883738442
8.826605863192182,-3.7657479328490147,5.055249310949671,5.010498621899344
8.834600977198697,-2.781395640190512,5.258506639939839,4.641493360060162
8.84259609120521,-1.6949626095334338,5.645336514199094,4.3083956507776096
8.850591205211726,-1.627398265816401,6.253415607652391,4.421002890305998
8.85858631921824,-1.559833922099383,6.861494701105553,4.533610129834361
8.866581433224756,-1.49226957838235,7.469573794558849,4.646217369362749
8.874576547231271,-1.4247052346653173,8.077652888012146,4.758824608891138
8.882571661237785,-1.3571408909482994,8.685731981465306,4.871431848419501
8.8905667752443,-1.2895765472312664,9.293811074918604,4.984039087947889
8.898561889250814,-1.2220122035142484,9.901890168371764,5.096646327476253
8.90655700325733,-1.1544478597972154,10.509969261825063,5.209253567004641
8.914552117263844,-1.022394136807792,9.913517915309088,6.386482084690912
8.922547231270359,-3.865976341505185,8.446830104577353,3.7153951654380957
8.930542345276873,-3.630330876050044,8.17752100120005,4.0941110920624295
8.938537459283388,-3.394685410594851,7.908211897822687,4.472827018686846
8.946532573289902,-3.15903994513971,7.638902794445383,4.851542945311181
8.954527687296418,-2.923394479684517,7.369593691068019,5.230258871935598
8.962522801302931,-2.687749014229376,7.100284587690716,5.608974798559931
8.970517915309447,-2.452103548774183,6.8309754843133526,5.987690725184349
8.97851302931596,-2.2164580833190426,6.561666380936048,6.366406651808682
8.986508143322476,-1.9808126178638492,6.2923572775586845,6.7451225784331
8.99450325732899,-1.7451671524087082,6.0230481741813815,7.123838505057433
9.002498371335506,-1.5095216869535153,5.753739070804018,7.502554431681851
9.01049348534202,-1.2738762214983743,5.484429967426713,7.8812703583061845
9.018488599348535,-3.3039630836049882,4.7596634093376124,8.914766558089125
9.026483713355049,-1.7394136807817577,2.8681596091205224,8.692426710097719
9.034478827361564,-1.6003682197988787,3.0245857527262614,8.67504602747486
9.042473941368078,-1.4613227588160305,3.1810118963319653,8.657665344852003
9.050469055374593,-1.3222772978331516,3.3374380399377044,8.640284662229144
9.058464169381107,-1.1832318368503034,3.4938641835434083,8.622903979606287
9.066459283387623,-1.0441863758674246,3.6502903271491474,8.605523296983428
9.074454397394137,-0.9051409148845764,3.8067164707548513,8.588142614360573
9.082449511400652,-0.7660954539016975,3.9631426143605903,8.570761931737712
9.090444625407166,-0.6270499929188493,4.119568757966294,8.553381249114857
9.098439739413681,-0.48800453193597026,4.275994901572033,8.536000566491996
9.106434853420195,-0.3489590709531223,4.432421045177737,8.51861988386914
9.11442996742671,-0.20991360997024322,4.588847188783476,8.50123920124628
9.122425081433224,-0.07086814898739524,4.74527333238918,8.483858518623425
9.13042019543974,0.06817731199548382,4.901699475994919,8.466477836000564
9.138415309446254,0.20722277297833203,5.058125619600624,8.449097153377709
9.14641042345277,0.34626823396121087,5.214551763206362,8.431716470754848
9.154405537459283,0.48531369494405907,5.370977906812066,8.414335788131993
9.162400651465799,-2.9016286644961555,1.858306188923998,5.598697068403076
9.170395765472312,-0.8173289902279945,4.240749185667749,7.9131921824104134
9.178390879478828,-1.3290162866449815,4.336690553745934,8.179695982627594
9.186385993485342,-1.8407035830618548,4.432631921824098,8.446199782844715
9.194381107491857,-2.352390879478842,4.528573289902283,8.712703583061897
9.20237622149837,-2.8640781758957155,4.624514657980447,8.979207383279018
9.210371335504886,-3.3757654723127026,4.720456026058631,9.2457111834962
9.2183664495114,-3.887452768729576,4.8163973941367955,9.51221498371332
9.226361563517916,-4.399140065146563,4.91233876221498,9.778718783930502
9.23435667752443,-4.910827361563436,5.008280130293144,10.045222584147623
9.242351791530945,-5.338436482084774,5.056026058631981,10.22671009771997
9.250346905537459,-3.939291530944711,4.056636807817651,8.561061346362752
9.258342019543974,-4.398492112871939,3.830157742561227,6.515078871280614
9.266337133550488,-4.389508838707317,4.00982322585367,6.604911612926835
9.274332247557004,-4.380525564542692,4.189488709146153,6.694744354573077
9.282327361563517,-4.371542290378071,4.369154192438597,6.784577096219298
9.290322475570033,-4.362559016213446,4.54881967573108,6.87440983786554
9.298317589576547,-4.353575742048824,4.728485159023522,6.964242579511762
9.306312703583062,-4.344592467884199,4.908150642316006,7.054075321158003
9.314307817589576,-4.335609193719578,5.087816125608449,7.143908062804225
9.322302931596091,-4.326625919554953,5.267481608900932,7.233740804450466
9.330298045602605,-4.317642645390331,5.447147092193376,7.3235735460966875
9.33829315960912,-4.308659371225707,5.626812575485858,7.413406287742929
9.346288273615635,-4.487377850162322,5.468485342020507,7.3991042345279805
9.35428338762215,-4.654071661237811,6.120846905537455,6.200977198697086
9.362278501628664,-4.298733260948303,6.171609534150242,5.959854712786349
9.37027361563518,-3.943394860658718,6.22237216276304,5.7187322268755585
9.378268729641693,-3.588056460369211,6.273134791375827,5.477609740964822
9.386263843648209,-3.232718060079625,6.323897419988625,5.236487255054032
9.394258957654722,-2.877379659790118,6.374660048601411,4.995364769143294
9.402254071661238,-2.522041259500532,6.425422677214209,4.754242283232504
9.410249185667752,-2.166702859211025,6.476185305826997,4.513119797321767
9.418244299674267,-2.3084690553743243,5.193811074918873,5.35146579804583
9.426239413680781,-4.469193984337104,2.992657148797512,3.76955263705034
9.434234527687297,-4.4351722226072505,3.315863885231121,4.067243052186559
9.44222964169381,-4.401150460877404,3.639070621664658,4.364933467322711
9.450224755700326,-4.367128699147551,3.962277358098267,4.66262388245893
9.45821986970684,-4.333106937417705,4.285484094531803,4.960314297595082
9.466214983713355,-4.299085175687851,4.608690830965412,5.258004712731301
9.474210097719869,-4.265063413958005,4.931897567398949,5.555695127867454
9.482205211726384,-4.231041652228152,5.255104303832558,5.853385543003672
9.490200325732898,-4.197019890498305,5.578311040266096,6.151075958139824
9.498195439739414,-4.162998128768452,5.901517776699704,6.448766373276043
9.506190553745927,-4.1289763670386055,6.224724513133241,6.746456788412195
9.514185667752443,-4.514983713354949,6.144299674267186,7.770684039087764
9.522180781758957,-1.1073962286704315,5.807671159190745,9.75041239578047
9.530175895765472,-1.312775304067161,5.822341093147654,9.46434868362074
9.538171009771986,-1.5181543794638448,5.83701102710456,9.178284971461073
9.546166123778502,-1.723533454860574,5.8516809610614695,8.892221259301344
9.554161237785017,-1.9289125302573034,5.866350895018378,8.606157547141613
9.562156351791531,-2.134291605653987,5.881020828975284,8.320093834981947
9.570151465798046,-2.3396706810507166,5.895690762932194,8.034030122822216
9.57814657980456,-2.5450497564474004,5.9103606968891,7.747966410662549
9.586141693811076,-2.75042883184413,5.925030630846009,7.461902698502819
9.59413680781759,-2.955807907240813,5.939700564802915,7.175838986343153
9.602131921824105,-3.1611869826375427,5.9543704987598245,6.889775274183423
9.610127035830619,-3.3665660580342265,5.969040432716731,6.603711562023756
9.618122149837134,-3.571945133430956,5.983710366673639,6.317647849864025
9.626117263843648,-3.7773242088276398,5.998380300630545,6.031584137704359
9.634112377850164,-4.116105682229515,6.0,5.367788635540971
9.642107491856677,-2.434643701753592,6.517321850876796,6.376904198830939
9.650102605863193,-2.5660702333675482,6.583035116683774,6.289286511088301
9.658097719869707,-2.6974967649814756,6.648748382490738,6.201668823345683
9.666092833876222,-2.8289232965954323,6.714461648297716,6.114051135603045
9.674087947882736,-2.9603498282093597,6.78017491410468,6.026433447860427
9.682083061889251,-3.0917763598233163,6.8458881799116575,5.938815760117789
9.690078175895765,-3.2232028914372433,6.911601445718621,5.851198072375171
9.69807328990228,-3.3546294230512,6.977314711525599,5.763580384632533
9.706068403908795,-3.4860559546651273,7.043027977332564,5.675962696889915
9.71406351791531,-3.653175895765527,7.1,5.4404723127034185
9.722058631921824,-4.274366535230586,7.687183267615294,5.13845019715412
9.73005374592834,-4.22387107834733,7.661935539173665,5.214193382479004
9.738048859934853,-4.173375621464086,7.6366878107320435,5.289936567803871
9.746043973941369,-4.12288016458083,7.611440082290415,5.365679753128754
9.754039087947882,-4.072384707697586,7.586192353848793,5.441422938453621
9.762034201954398,-4.02188925081433,7.560944625407165,5.517166123778504
9.770029315960912,-3.9713937939310857,7.535696896965543,5.592909309103371
9.778024429967427,-3.9208983370478303,7.510449168523915,5.668652494428255
9.786019543973941,-3.870402880164586,7.485201440082293,5.744395679753121
9.794014657980457,-3.81990742328133,7.459953711640665,5.820138865078005
9.80200977198697,-3.769411966398086,7.434705983199043,5.8958820504028715
9.810004885993486,-3.71891650951483,7.409458254757415,5.971625235727755
9.818,-4.1,7.2,4.9
