accel_time_list,vertical_Accel_x,vertical_Accel_y,vertical_Accel_z
0.0,2.729,-0.631,10.36
0.00799755501222494,-0.12743219662849053,-0.45162380645991507,9.705259683438426
0.01599511002444988,-0.05654860378329686,-0.44261603397246174,9.716624630034746
0.02399266503667482,0.014334989061896813,-0.43360826148500836,9.727989576631066
0.03199022004889976,0.0852185819070905,-0.42460048899755504,9.739354523227384
0.0399877750611247,0.1561021747522842,-0.41559271651010166,9.750719469823704
0.04798533007334964,0.22698576759747788,-0.4065849440226483,9.762084416420024
0.05598288508557458,0.29786936044267154,-0.39757717153519495,9.773449363016343
0.06398044009779952,0.36875295328786517,-0.38856939904774157,9.784814309612663
0.07197799511002445,0.4396365461330588,-0.37956162656028825,9.796179256208983
0.0799755501222494,0.5105201389782524,-0.37055385407283487,9.807544202805301
0.08797310513447434,0.5814037318234462,-0.3615460815853815,9.818909149401621
0.09597066014669928,0.6522873246686398,-0.35253830909792816,9.830274095997941
0.10396821515892421,-0.07812469437652836,-0.5422850855745719,10.060981907090465
0.11196577017114916,0.10163612203678103,-0.27801679600297646,9.715094769852238
0.1199633251833741,0.04443621771021565,-0.26393414478579774,9.713269240990751
0.12796088019559904,-0.012763686616349607,-0.24985149356861908,9.711443712129265
0.13595843520782397,-0.0699635909429149,-0.23576884235144038,9.709618183267779
0.1439559902200489,-0.12716349526948018,-0.2216861911342617,9.707792654406292
0.15195354523227386,-0.18436339959604564,-0.20760353991708297,9.705967125544808
0.1599511002444988,-0.24156330392261094,-0.1935208886999043,9.704141596683321
0.16794865525672373,-0.2987632082491762,-0.1794382374827256,9.702316067821835
0.1759462102689487,-0.35596311257574165,-0.16535558626554686,9.700490538960349
0.18394376528117362,-0.41316301690230695,-0.1512729350483682,9.698665010098862
0.19194132029339855,-0.47036292122887224,-0.1371902838311895,9.696839481237376
0.1999388753056235,-0.5275628255554375,-0.12310763261401084,9.695013952375891
0.20793643031784842,-0.0177017887015828,-0.5189346802213358,9.79408184274868
0.21593398533007338,-0.014166027538283343,-0.5350981598249904,9.797028310384762
0.2239315403422983,-0.0106302663749839,-0.551261639428645,9.799974778020847
0.23192909535452325,-0.007094505211684456,-0.5674251190322996,9.802921245656929
0.2399266503667482,-0.003558744048385,-0.5835885986359542,9.805867713293011
0.24792420537897314,-2.298288508555818e-05,-0.5997520782396089,9.808814180929094
0.25592176039119807,0.003512778278213887,-0.6159155578432635,9.811760648565178
0.263919315403423,0.007048539441513329,-0.6320790374469181,9.81470711620126
0.27191687041564794,0.010584300604812774,-0.6482425170505727,9.817653583837343
0.27991442542787287,0.01412006176811222,-0.6644059966542273,9.820600051473427
0.2879119804400978,0.01765582293141166,-0.6805694762578819,9.82354651910951
0.2959095354523228,0.02119158409471113,-0.6967329558615366,9.826492986745592
0.3039070904645477,-0.05826748166259283,-0.5346508557457188,9.967873838630808
0.31190464547677266,0.04642626078078409,-0.6834787877159516,9.93309696660308
0.3199022004889976,0.061366748166259234,-0.6847970660146699,9.958144254278729
0.3278997555012225,0.07630723555173438,-0.6861153443133884,9.983191541954378
0.33589731051344746,0.09124772293720952,-0.6874336226121067,10.008238829630027
0.3438948655256724,0.10618821032268466,-0.6887519009108252,10.033286117305677
0.3518924205378974,0.12112869770815993,-0.6900701792095435,10.058333404981326
0.3598899755501223,0.13606918509363505,-0.6913884575082619,10.083380692656975
0.36788753056234724,0.1510096724791102,-0.6927067358069803,10.108427980332625
0.3758850855745722,0.16595015986458533,-0.6940250141056987,10.133475268008276
0.3838826405867971,0.1808906472500605,-0.6953432924044171,10.158522555683925
0.39188019559902204,0.19583113463553564,-0.6966615707031355,10.183569843359574
0.399877750611247,0.2107716220210108,-0.6979798490018538,10.208617131035224
0.4078753056234719,0.13605883576965094,-0.552058835769651,9.97894116423035
0.41587286063569684,0.14456687301669874,-0.5605668730166988,9.9704331269833
0.4238704156479218,0.15307491026374662,-0.5690749102637467,9.961925089736253
0.43186797066014676,0.1615829475107944,-0.5775829475107944,9.953417052489206
0.4398655256723717,0.17009098475784223,-0.5860909847578423,9.944909015242157
0.4478630806845966,0.17859902200489003,-0.59459902200489,9.93640097799511
0.45586063569682156,0.18710705925193782,-0.6031070592519379,9.927892940748063
0.4638581907090465,0.19561509649898562,-0.6116150964989856,9.919384903501014
0.4718557457212714,0.20412313374603344,-0.6201231337460335,9.910876866253966
0.4798533007334964,0.21263117099308132,-0.6286311709930813,9.90236882900692
0.48785085574572135,0.22113920824012911,-0.6371392082401292,9.89386079175987
0.4958484107579463,0.2296472454871769,-0.6456472454871769,9.885352754512823
0.5038459657701712,0.4550220048899765,-0.4899877750611249,9.822026894865525
0.5118435207823961,0.4740750997297643,-0.5032199716896153,9.71950070775962
0.5198410757946211,0.44764107579462065,-0.5065031784841076,9.63742053789731
0.527838630806846,0.4212070518594774,-0.5097863852786,9.555340368035003
0.535836185819071,0.3947730279243337,-0.5130695920730923,9.473260198172692
0.5438337408312959,0.36833900398919045,-0.5163527988675847,9.391180028310384
0.5518312958435209,0.3419049800540468,-0.519636005662077,9.309099858448075
0.5598288508557457,0.3154709561189035,-0.5229192124565694,9.227019688585766
0.5678264058679707,0.28903693218375986,-0.5262024192510617,9.144939518723458
0.5758239608801956,0.26260290824861654,-0.529485626045554,9.06285934886115
0.5838215158924206,0.23616888431347294,-0.5327688328400464,8.98077917899884
0.5918190709046456,0.20973486037832928,-0.5360520396345387,8.898699009136532
0.5998166259168705,0.12434474327627854,-0.8321687041565033,8.689031784841065
0.6078141809290954,-1.5677017114914407,-0.6390372860635704,9.502832518337408
0.6158117359413203,-1.437074979625101,-0.6894385442135292,9.542320446210269
0.6238092909535453,-1.3064482477587593,-0.7398398023634889,9.58180837408313
0.6318068459657702,-1.1758215158924197,-0.7902410605134478,9.62129630195599
0.6398044009779952,-1.0451947840260782,-0.8406423186634073,9.66078422982885
0.6478019559902202,-0.9145680521597367,-0.8910435768133669,9.700272157701713
0.655799511002445,-0.783941320293397,-0.9414448349633258,9.739760085574572
0.66379706601467,-0.6533145884270556,-0.9918460931132853,9.779248013447434
0.6717946210268949,-0.5226878565607158,-1.0422473512632442,9.818735941320295
0.6797921760391199,-0.3920611246943744,-1.0926486094132037,9.858223869193155
0.6877897310513448,-0.2614343928280347,-1.1430498675631626,9.897711797066016
0.6957872860635698,-0.13080766096169327,-1.1934511257131222,9.937199724938877
0.7037848410757948,0.1323141809290826,-1.304435941320282,10.086791442542797
0.7117823960880196,-0.45550611246944545,-0.7789965770171079,10.492267481662598
0.7197799511002446,-0.49356588820504066,-0.6505272461568715,10.549480032599837
0.7277775061124695,-0.43289478121574854,-0.5933493241154477,10.544148329258354
0.7357750611246945,-0.3722236742264555,-0.5361714020740231,10.538816625916871
0.7437726161369194,-0.3115525672371634,-0.47899348003259945,10.533484922575388
0.7517701711491444,-0.25088146024787045,-0.4218155579911748,10.528153219233904
0.7597677261613692,-0.19021035325857832,-0.36463763594975107,10.52282151589242
0.7677652811735942,-0.12953924626928537,-0.3074597139083265,10.517489812550938
0.7757628361858192,-0.06886813927999241,-0.2502817918669019,10.512158109209455
0.7837603911980441,-0.008197032290700346,-0.1931038698254781,10.50682640586797
0.7917579462102691,0.052474074698592665,-0.13592594778405354,10.501494702526488
0.799755501222494,0.11314518168788479,-0.07874802574262973,10.496162999185005
0.8077530562347189,-1.1669216043281476,0.07268979867866349,10.915063829787234
0.8157506112469438,-1.0592098527805232,-0.2797131040940541,10.810670212765958
0.8237481662591688,-0.9514981012328974,-0.6321160068667766,10.706276595744681
0.8317457212713937,-0.8437863496852729,-0.9845189096394942,10.601882978723404
0.8397432762836187,-0.7360745981376469,-1.3369218124122166,10.497489361702128
0.8477408312958437,-0.628362846590021,-1.689324715184939,10.393095744680851
0.8557383863080685,-0.5206510950423966,-2.041727617957657,10.288702127659574
0.8637359413202935,-0.41293934349477057,-2.3941305207303794,10.184308510638298
0.8717334963325184,-0.3052275919471462,-2.746533423503097,10.07991489361702
0.8797310513447434,-0.1975158403995203,-3.0989363262758194,9.975521276595744
0.8877286063569683,-0.08980408885189584,-3.451339229048537,9.871127659574467
0.8957261613691933,0.017907662695730187,-3.8037421318212594,9.76673404255319
0.9037237163814182,0.21186878565608974,-3.5506479217604032,9.157439282803564
0.9117212713936431,0.9814905021628736,-4.146115478653378,8.094858378785029
0.9197188264058681,0.9535430022300434,-4.3609948413444775,7.812307396759716
0.927716381418093,0.9255955022972137,-4.575874204035575,7.5297564147344085
0.935713936430318,0.8976480023643835,-4.790753566726675,7.247205432709097
0.9437114914425428,0.8697005024315536,-5.0056329294177715,6.964654450683789
0.9517090464547678,0.8417530024987234,-5.220512292108872,6.682103468658478
0.9597066014669928,0.8138055025658932,-5.435391654799972,6.399552486633167
0.9677041564792177,0.7858580026330635,-5.650271017491069,6.117001504607859
0.9757017114914427,0.7579105027002333,-5.865150380182169,5.8344505225825465
0.9836992665036676,0.7299630027674036,-6.080029742873266,5.5518995405572396
0.9916968215158926,0.7020155028345734,-6.294909105564366,5.269348558531927
0.9996943765281174,0.6740680029017435,-6.509788468255463,4.98679757650662
1.0076919315403423,3.7486747906154045,-8.118821151745301,1.8022222337824523
1.0156894865525674,3.477353482807045,-7.815254382770629,2.088092285283264
1.0236870415647923,3.2060321749986924,-7.511687613795965,2.373962336784068
1.0316845965770172,2.93471086719034,-7.208120844821303,2.6598323882848716
1.0396821515892423,2.6633895593819803,-6.904554075846631,2.9457024397856837
1.0476797066014671,2.392068251573628,-6.600987306871968,3.231572491286488
1.055677261613692,2.1207469437652757,-6.297420537897304,3.5174425427872915
1.063674816625917,1.8494256359569234,-5.993853768922641,3.803312594288095
1.071672371638142,1.5781043281485636,-5.69028699994797,4.089182645788907
1.0796699266503669,1.3067830203402115,-5.386720230973307,4.375052697289711
1.0876674816625918,1.035461712531859,-5.083153461998643,4.660922748790515
1.0956650366748169,0.7641404047234994,-4.779586693023972,4.946792800291327
1.1036625916870417,0.21665476772615594,-4.915489731051347,5.031512958435194
1.1116601466992666,-0.05283129584352384,-5.370283618581929,3.37941809290947
1.1196577017114915,0.055317848410756945,-5.50159413202934,2.3853276283618614
1.1276552567237166,0.19559680184357886,-5.436418654975689,1.9324086220948145
1.1356528117359415,0.33587575527639685,-5.371243177922041,1.4794896158277802
1.1436503667481663,0.4761547087092149,-5.306067700868392,1.0265706095607459
1.1516479217603912,0.616433662142033,-5.240892223814744,0.5736516032937118
1.1596454767726163,0.7567126155748548,-5.175716746761093,0.12073259702666483
1.1676430317848412,0.8969915690076729,-5.110541269707444,-0.3321864092403697
1.175640586797066,1.037270522440491,-5.045365792653795,-0.7851054155074038
1.1836381418092912,1.1775494758733127,-4.9801903156001455,-1.2380244217744503
1.191635696821516,1.3178284293061309,-4.9150148385464965,-1.6909434280414848
1.199633251833741,1.1845171149144158,-4.922757946210272,-2.4382408312958557
1.2076308068459658,1.927343520782432,-4.612608801956005,-9.015837408313079
1.215628361858191,2.058479671312982,-4.785192624706982,-9.843780026718429
1.2236259168704158,1.9855947369747673,-4.875556751443049,-10.010244599601748
1.2316234718826407,1.912709802636553,-4.965920878179116,-10.176709172485069
1.2396210268948658,1.8398248682983365,-5.056285004915185,-10.343173745368393
1.2476185819070906,1.7669399339601222,-5.146649131651252,-10.509638318251712
1.2556161369193155,1.6940549996219079,-5.237013258387318,-10.676102891135033
1.2636136919315404,1.6211700652836933,-5.327377385123385,-10.842567464018352
1.2716112469437655,1.548285130945477,-5.417741511859454,-11.009032036901678
1.2796088019559904,1.4754001966072625,-5.50810563859552,-11.175496609784997
1.2876063569682152,1.4025152622690484,-5.598469765331587,-11.341961182668317
1.2956039119804403,1.329630327930832,-5.688833892067656,-11.508425755551642
1.3036014669926652,1.2567453935926176,-5.779198018803723,-11.674890328434962
1.31159902200489,2.0692869426664067,-7.144885250405209,-13.935756600093404
1.319596577017115,1.6155829510178292,-7.109300623609242,-13.794496414933656
1.32759413202934,1.161878959369239,-7.073715996813274,-13.653236229773904
1.335591687041565,0.708174967720661,-7.0381313700173065,-13.511976044614157
1.3435892420537898,0.25447097607208335,-7.00254674322134,-13.37071585945441
1.351586797066015,-0.19923301557650674,-6.966962116425372,-13.229455674294659
1.3595843520782398,-0.6529370072250846,-6.931377489629405,-13.088195489134911
1.3675819070904647,-1.1066409988736625,-6.895792862833439,-12.946935303975163
1.3755794621026896,-1.56034499052224,-6.860208236037471,-12.805675118815417
1.3835770171149147,-2.0140489821708307,-6.824623609241503,-12.664414933655666
1.3915745721271395,-2.467752973819408,-6.789038982445537,-12.523154748495918
1.3995721271393644,-2.7219388753055926,-6.831330073349647,-12.152660146699223
1.4075696821515895,-0.8050550122249314,-8.443981742319552,-7.4017922823429325
1.4155672371638144,-0.553132029339848,-8.556034442436486,-7.300605825449131
1.4235647921760393,-0.30120904645476454,-8.66808714255342,-7.19941936855533
1.4315623471882641,-0.04928606356968113,-8.780139842670351,-7.098232911661528
1.4395599022004892,0.2026369193154094,-8.892192542787289,-6.997046454767724
1.4475574572127141,0.4545599022004927,-9.004245242904222,-6.895859997873922
1.455555012224939,0.7064828850855762,-9.116297943021156,-6.794673540980121
1.4635525672371639,0.9584058679706597,-9.228350643138088,-6.693487084086319
1.471550122249389,1.21032885085575,-9.340403343255025,-6.592300627192515
1.4795476772616138,1.4622518337408335,-9.452456043371958,-6.491114170298713
1.4875452322738387,1.714174816625917,-9.56450874348889,-6.389927713404911
1.4955427872860638,1.9660977995110076,-9.676561443605827,-6.288741256511107
1.5035403422982887,2.495738386308079,-9.697757946210269,-6.18506748166259
1.5115378973105136,3.236845150774256,-9.649772616136918,-6.079499755501221
1.5195354523227385,7.2601778360385305,-9.506523197926178,-6.744053318408109
1.5275330073349636,7.203809526615016,-9.38945055527734,-6.942257784193012
1.5355305623471884,7.147441217191504,-9.272377912628507,-7.140462249977911
1.5435281173594133,7.09107290776799,-9.155305269979673,-7.33866671576281
1.5515256723716384,7.034704598344476,-9.038232627330835,-7.536871181547713
1.5595232273838633,6.978336288920963,-8.921159984682001,-7.7350756473326125
1.5675207823960882,6.921967979497451,-8.804087342033167,-7.933280113117511
1.575518337408313,6.865599670073938,-8.687014699384333,-8.131484578902409
1.5835158924205381,6.809231360650424,-8.569942056735496,-8.329689044687314
1.591513447432763,6.752863051226911,-8.452869414086662,-8.527893510472211
1.599511002444988,6.696494741803399,-8.335796771437828,-8.72609797625711
1.607508557457213,-0.17993501479861454,-8.278505855102306,-7.674366104748414
1.6155061124694379,-0.36514155192382225,-8.456135761163301,-7.278697593617289
1.6235036674816627,-0.55034808904903,-8.633765667224296,-6.883029082486163
1.6315012224938876,-0.7355546261742378,-8.81139557328529,-6.487360571355037
1.6394987775061127,-0.9207611632994507,-8.98902547934629,-6.091692060223901
1.6474963325183376,-1.1059677004246584,-9.166655385407285,-5.696023549092775
1.6554938875305625,-1.2911742375498663,-9.34428529146828,-5.3003550379616495
1.6634914425427874,-1.476380774675074,-9.521915197529275,-4.904686526830524
1.6714889975550125,-1.6615873118002868,-9.699545103590275,-4.509018015699388
1.6794865525672373,-1.8467938489254947,-9.87717500965127,-4.113349504568262
1.6874841075794622,-2.032000386050702,-10.054804915712264,-3.7176809934371366
1.6954816625916873,-2.2172069231759153,-10.232434821773264,-3.3220124823059995
1.7034792176039122,-2.6831652811736206,-9.71932860635692,-0.40912909535431785
1.711476772616137,-0.7691152905773927,-7.792419087025446,6.23257030011553
1.719474327628362,-0.7426618393831104,-7.892168811628471,6.094854160509415
1.727471882640587,-0.7162083881888274,-7.991918536231498,5.957138020903297
1.735469437652812,-0.689754936994545,-8.091668260834522,5.819421881297183
1.7434669926650368,-0.6633014858002627,-8.191417985437548,5.681705741691069
1.751464547677262,-0.6368480346059797,-8.291167710040575,5.543989602084951
1.7594621026894868,-0.6103945834116974,-8.3909174346436,5.406273462478837
1.7674596577017117,-0.5839411322174151,-8.490667159246625,5.268557322872723
1.7754572127139365,-0.5574876810231328,-8.590416883849649,5.130841183266608
1.7834547677261616,-0.5310342298288497,-8.690166608452676,4.99312504366049
1.7914523227383865,-0.5045807786345675,-8.7899163330557,4.855408904054377
1.7994498777506114,-0.4781273274402852,-8.889666057658726,4.7176927644482625
1.8074474327628365,-1.4214427564269994,-9.413500866427706,3.5778608493365236
1.8154449877750614,-1.5785985947254766,-9.394166971301065,3.3671291570726565
1.8234425427872862,-1.7357544330239538,-9.374833076174424,3.1563974648087894
1.8314400977995111,-1.8929102713224313,-9.355499181047783,2.9456657725449222
1.8394376528117362,-2.0500661096209125,-9.336165285921142,2.734934080281049
1.847435207823961,-2.2072219479193897,-9.316831390794501,2.5242023880171818
1.855432762836186,-2.364377786217867,-9.29749749566786,2.3134706957533147
1.863430317848411,-2.5215336245163487,-9.27816360054122,2.1027390034894413
1.871427872860636,-2.678689462814826,-9.258829705414579,1.8920073112255744
1.8794254278728608,-2.835845301113303,-9.239495810287938,1.681275618961707
1.8874229828850857,-2.9930011394117804,-9.220161915161297,1.47054392669784
1.8954205378973108,-3.150156977710262,-9.200828020034656,1.259812234433967
1.9034180929095357,-3.3073128160087393,-9.181494124908015,1.0490805421701
1.9114156479217606,-3.569915647921712,-8.900418092909495,0.3314951100244804
1.9194132029339857,-2.2185602394401673,-8.73755796307226,2.1049686367085276
1.9274107579462105,-1.9312917404378371,-8.862485287918394,1.8478518393614818
1.9354083129584354,-1.6440232414355065,-8.987412612764528,1.590735042014436
1.9434058679706603,-1.356754742433176,-9.112339937610662,1.3336182446673903
1.9514034229828854,-1.0694862434308376,-9.237267262456797,1.0765014473203371
1.9594009779951103,-0.7822177444285072,-9.36219458730293,0.8193846499732913
1.9673985330073351,-0.4949492454261766,-9.487121912149064,0.5622678526262455
1.97539608801956,-0.20768074642384615,-9.612049236995198,0.3051510552791996
1.9833936430317851,0.07958775257849204,-9.736976561841335,0.04803425793214666
1.99139119804401,0.3668562515808227,-9.861903886687468,-0.20908253941489896
1.9993887530562349,0.6541247505831533,-9.986831211533602,-0.466199336761945
2.00738630806846,0.9784002794271873,-9.913468389800903,0.46640377226690133
2.0153838630806846,0.31304298446249723,-9.916813234482216,-1.074482582748377
2.0233814180929097,0.41004558719142103,-9.89746431106554,-1.2552445250677013
2.031378973105135,0.5070481899203448,-9.878115387648867,-1.4360064673870256
2.0393765281173595,0.6040507926492633,-9.858766464232195,-1.61676840970634
2.0473740831295846,0.701053395378187,-9.839417540815521,-1.7975303520256645
2.0553716381418097,0.7980559981071109,-9.820068617398848,-1.9782922943449888
2.0633691931540343,0.8950586008360293,-9.800719693982176,-2.159054236664303
2.0713667481662594,0.9920612035649531,-9.781370770565502,-2.339816178983628
2.0793643031784845,1.089063806293877,-9.762021847148828,-2.520578121302952
2.087361858190709,1.1860664090227953,-9.742672923732155,-2.701340063622266
2.0953594132029343,1.2830690117517192,-9.72332400031548,-2.8821020059415905
2.103356968215159,1.3800716144806375,-9.703975076898809,-3.0628639482609046
2.111354523227384,1.103196297589938,-9.604792928343052,-2.6463222816303436
2.119352078239609,1.033503318197691,-9.63309196915554,-2.4651908433864325
2.127349633251834,0.9638103388054475,-9.661391009968028,-2.2840594051425316
2.135347188264059,0.8941173594132005,-9.689690050780516,-2.102927966898621
2.143344743276284,0.8244243800209533,-9.717989091593005,-1.9217965286547098
2.1513422982885086,0.75473140062871,-9.746288132405493,-1.740665090410809
2.1593398533007337,0.6850384212364629,-9.77458717321798,-1.5595336521668979
2.167337408312959,0.6153454418442157,-9.80288621403047,-1.378402213922987
2.1753349633251835,0.5456524624519724,-9.831185254842957,-1.1972707756790861
2.1833325183374086,0.47595948305972535,-9.859484295655447,-1.0161393374351753
2.1913300733496337,0.4062665036674782,-9.887783336467935,-0.8350078991912644
2.1993276283618584,0.3365735242752349,-9.916082377280421,-0.6538764609473633
2.2073251833740835,0.007478385267647986,-9.80606861572075,-0.07557519637933659
2.215322738386308,0.004330411486240403,-9.794412604692296,-0.06094137231441485
2.223320293398533,0.0011824377048326468,-9.782756593663839,-0.046307548249492306
2.2313178484107583,-0.0019655360765751095,-9.771100582635384,-0.03167372418456976
2.239315403422983,-0.005113509857982692,-9.75944457160693,-0.01703990011964803
2.247312958435208,-0.00826148363939045,-9.747788560578472,-0.002406076054725495
2.255310513447433,-0.011409457420798207,-9.736132549550018,0.012227748010197048
2.263308068459658,-0.01455743120220579,-9.724476538521563,0.026861572075118786
2.271305623471883,-0.017705404983613546,-9.712820527493106,0.04149539614004133
2.279303178484108,-0.020853378765021302,-9.701164516464651,0.05612922020496387
2.2873007334963327,-0.024001352546428885,-9.689508505436196,0.0707630442698856
2.2952982885085578,-0.02714932632783664,-9.67785249440774,0.08539686833480815
2.3032958435207824,-0.071,-9.729,0.306
2.3112933985330075,-0.07624449877750615,-9.736866748166259,0.29970660146699263
2.3192909535452326,-0.08290912795436042,-9.74686369193154,0.2917090464547675
2.3272885085574573,-0.08957375713121433,-9.756860635696821,0.2837114914425428
2.3352860635696824,-0.09623838630806861,-9.766857579462103,0.27571393643031766
2.3432836185819075,-0.10290301548492288,-9.776854523227383,0.2677163814180925
2.351281173594132,-0.10956764466177679,-9.786851466992665,0.25971882640586785
2.3592787286063572,-0.11623227383863105,-9.796848410757946,0.2517212713936427
2.3672762836185823,-0.12289690301548534,-9.806845354523228,0.2437237163814176
2.375273838630807,-0.12956153219233923,-9.816842298288508,0.2357261613691929
2.383271393643032,-0.13622616136919352,-9.82683924205379,0.2277286063569678
2.391268948655257,-0.1428907905460478,-9.836836185819072,0.21973105134474263
2.399266503667482,-0.1495554197229017,-9.846833129584352,0.21173349633251795
2.407264058679707,0.18421638141809488,-9.884216381418094,0.06800611246942795
2.4152616136919316,0.19858862408984665,-9.904370617157902,-0.03220000537359934
2.4232591687041567,0.1934033961148875,-9.9079739111744,-0.050743786775571884
2.431256723716382,0.18821816813992834,-9.911577205190897,-0.06928756817754442
2.4392542787286065,0.1830329401649695,-9.915180499207393,-0.08783134957951594
2.4472518337408316,0.17784771219001033,-9.918783793223891,-0.10637513098148847
2.4552493887530566,0.1726624842150512,-9.922387087240388,-0.124918912383461
2.4632469437652813,0.16747725624009235,-9.925990381256884,-0.1434626937854325
2.4712444987775064,0.1622920282651332,-9.92959367527338,-0.16200647518740505
2.4792420537897315,0.15710680029017404,-9.93319696928988,-0.18055025658937757
2.487239608801956,0.1519215723152152,-9.936800263306376,-0.1990940379913491
2.4952371638141813,0.14673634434025604,-9.940403557322872,-0.21763781939332164
2.5032347188264064,0.11799755501218556,-10.041469437652813,-0.21645965770171913
2.511232273838631,0.016812229878243982,-10.016812229878242,-0.12691375861302448
2.519229828850856,0.005825689659429725,-10.00582568965943,-0.11455390086685845
2.5272273838630808,-0.005160850559383919,-9.994839149440615,-0.1021940431206931
2.535224938875306,-0.016147390778198177,-9.9838526092218,-0.08983418537452706
2.543222493887531,-0.02713393099701243,-9.972866069002986,-0.07747432762836103
2.5512200488997556,-0.03812047121582608,-9.961879528784173,-0.06511446988219567
2.5592176039119807,-0.04910701143464034,-9.950892988565359,-0.05275461213602964
2.567215158924206,-0.0600935516534546,-9.939906448346544,-0.040394754389863605
2.5752127139364305,-0.07108009187226824,-9.928919908127732,-0.02803489664369825
2.5832102689486556,-0.0820666320910825,-9.917933367908917,-0.015675038897532217
2.5912078239608807,-0.09305317230989676,-9.906946827690103,-0.00331518115136617
2.5992053789731053,-0.10403971252871042,-9.89596028747129,0.009044676594799184
2.6072029339853304,-0.23102933985330246,-9.868970660146697,0.10374083129585175
2.615200488997555,-0.2627788644390115,-9.837221135560988,0.2561385493072551
2.62319804400978,-0.2699928848108569,-9.82416661630175,0.29049718414329306
2.6311955990220053,-0.2715205076783606,-9.813652976566576,0.29741641713139794
2.63919315403423,-0.2730481305458642,-9.803139336831405,0.30433565011950237
2.647190709046455,-0.2745757534133678,-9.792625697096232,0.31125488310760724
2.65518826405868,-0.2761033762808715,-9.782112057361061,0.3181741160957121
2.663185819070905,-0.2776309991483751,-9.771598417625889,0.3250933490838166
2.67118337408313,-0.27915862201587877,-9.761084777890717,0.33201258207192147
2.679180929095355,-0.28068624488338245,-9.750571138155545,0.33893181506002634
2.6871784841075796,-0.282213867750886,-9.740057498420374,0.3458510480481308
2.6951760391198047,-0.28374149061838966,-9.7295438586852,0.35277028103623564
2.70317359413203,-0.28526911348589334,-9.719030218950028,0.3596895140243406
2.7111711491442545,-0.3462151589242114,-9.85378484107579,0.37916259168703914
2.7191687041564796,-0.38463069695887475,-9.82342402681245,0.3567978626960796
2.7271662591687043,-0.3831030740913711,-9.833937666547621,0.3498786297079751
2.7351638141809294,-0.3815754512238675,-9.844451306282794,0.34295939671987025
2.7431613691931545,-0.3800478283563638,-9.854964946017967,0.3360401637317654
2.751158924205379,-0.37852020548886023,-9.865478585753138,0.3291209307436609
2.759156479217604,-0.37699258262135654,-9.87599222548831,0.32220169775555607
2.7671540342298293,-0.37546495975385286,-9.886505865223484,0.3152824647674512
2.775151589242054,-0.3739373368863493,-9.897019504958655,0.3083632317793467
2.783149144254279,-0.3724097140188456,-9.907533144693828,0.30144399879124184
2.791146699266504,-0.3708820911513419,-9.918046784428999,0.29452476580313697
2.799144254278729,-0.36935446828383833,-9.928560424164171,0.2876055328150325
2.807141809290954,-0.369,-9.931,0.286
2.815139364303179,-0.3280545151669807,-9.927498455090142,0.33750659609339806
2.8231369193154037,-0.26433773072892697,-9.922049571455439,0.4176579166554739
2.8311344743276288,-0.20062094629086966,-9.916600687820736,0.49780923721755427
2.8391320293398534,-0.13690416185281593,-9.911151804186034,0.5779605577796301
2.8471295843520785,-0.07318737741475861,-9.905702920551331,0.6581118783417105
2.8551271393643036,-0.00947059297670133,-9.900254036916628,0.7382631989037908
2.8631246943765283,0.0542461914613524,-9.894805153281926,0.8184145194658667
2.8711222493887534,0.11796297589940968,-9.889356269647223,0.898565840027947
2.8791198044009785,0.1816797603374669,-9.88390738601252,0.9787171605900273
2.887117359413203,0.24539654477552064,-9.878458502377818,1.0588684811521032
2.8951149144254282,0.3091133292135779,-9.873009618743115,1.1390198017141835
2.9031124694376533,0.2514376528117338,-9.852002852485727,1.2202220863895796
2.911110024449878,0.14431642440688872,-9.862585265590155,1.2801346624036112
2.919107579462103,0.12498167602568512,-9.85959716811306,1.2955145758886595
2.9271051344743277,0.10564692764448261,-9.856609070635965,1.3108944893737071
2.935102689486553,0.08631217926327903,-9.85362097315887,1.3262744028587554
2.943100244498778,0.06697743088207543,-9.850632875681775,1.3416543163438037
2.9510977995110026,0.04764268250087292,-9.84764477820468,1.3570342298288511
2.9590953545232277,0.028307934119669323,-9.844656680727585,1.3724141433138994
2.967092909535453,0.008973185738465728,-9.84166858325049,1.3877940567989477
2.9750904645476774,-0.010361562642736771,-9.838680485773395,1.4031739702839952
2.9830880195599025,-0.02969631102394038,-9.8356923882963,1.4185538837690435
2.9910855745721276,-0.04903105940514396,-9.832704290819205,1.4339337972540918
2.9990831295843523,-0.06836580778634646,-9.829716193342112,1.4493137107391394
3.0070806845965774,-0.13658875305623525,-9.51428215158924,1.8272665036674862
3.0150782396088025,-0.07562175758087424,-9.456908608043165,1.999116825450362
3.023075794621027,-0.16267560351853783,-9.433467498524575,2.0803793384481386
3.0310733496332523,-0.24972944945620623,-9.410026389005983,2.16164185144592
3.039070904645477,-0.3367832953938698,-9.386585279487395,2.242904364443697
3.047068459657702,-0.4238371413315382,-9.363144169968804,2.324166877441478
3.055066014669927,-0.5108909872692067,-9.339703060450214,2.4054293904392594
3.0630635696821518,-0.5979448332068702,-9.316261950931624,2.4866919034370363
3.071061124694377,-0.6849986791445387,-9.292820841413032,2.5679544164348176
3.079058679706602,-0.7720525250822071,-9.269379731894443,2.649216929432599
3.0870562347188266,-0.8591063710198706,-9.245938622375853,2.7304794424303758
3.0950537897310517,-0.946160216957539,-9.222497512857263,2.811741955428157
3.103051344743277,-1.1000523925951804,-9.208088543485855,2.861922982885085
3.1110488997555015,-1.1082131630158176,-9.221880245496733,2.849926650366748
3.1190464547677266,-1.1163739334364555,-9.23567194750761,2.8379303178484103
3.1270440097799512,-1.124534703857093,-9.249463649518487,2.8259339853300736
3.1350415647921763,-1.1326954742777309,-9.263255351529365,2.813937652811736
3.1430391198044014,-1.1408562446983688,-9.277047053540244,2.8019413202933983
3.151036674816626,-1.149017015119006,-9.290838755551121,2.789944987775061
3.159034229828851,-1.157177785539644,-9.304630457561998,2.7779486552567234
3.1670317848410763,-1.1653385559602818,-9.318422159572878,2.7659523227383858
3.175029339853301,-1.1734993263809192,-9.332213861583755,2.7539559902200486
3.183026894865526,-1.1816600968015571,-9.346005563594632,2.741959657701711
3.191024449877751,-1.1898208672221948,-9.35979726560551,2.7299633251833733
3.199022004889976,-1.1979816376428323,-9.373588967616387,2.7179669926650365
3.207019559902201,-1.1019559902200813,-9.311715158924276,3.009025672371597
3.215017114914426,-1.1142523979687744,-9.528552003009215,2.8499144254278708
3.2230146699266506,-1.0165240334237873,-9.534879738843063,2.8099266503667475
3.2310122249388757,-0.9187956688787946,-9.541207474676913,2.7699388753056216
3.2390097799511004,-0.8210673043338073,-9.54753521051076,2.7299511002444983
3.2470073349633255,-0.7233389397888146,-9.553862946344609,2.6899633251833728
3.2550048899755506,-0.6256105752438219,-9.560190682178458,2.6499755501222473
3.2630024449877753,-0.5278822106988347,-9.566518418012306,2.609987775061124
3.2710000000000004,-0.430153846153842,-9.572846153846154,2.5699999999999985
3.2789975550122255,-0.3324254816088493,-9.579173889680003,2.530012224938873
3.28699511002445,-0.2346971170638621,-9.585501625513851,2.4900244498777493
3.294992665036675,-0.13696875251886942,-9.591829361347699,2.450036674816624
3.3029902200489003,-0.11299388753053143,-9.647922982884996,2.6069633251834388
3.310987775061125,-0.0690714965898855,-9.661907811092522,2.5430874790889204
3.31898533007335,-0.07050263801312578,-9.66712726804787,2.5271765538540722
3.3269828850855747,-0.07193377943636599,-9.672346725003218,2.5112656286192254
3.3349804400978,-0.07336492085960628,-9.677566181958564,2.4953547033843777
3.342977995110025,-0.07479606228284656,-9.682785638913911,2.4794437781495295
3.3509755501222496,-0.07622720370608677,-9.688005095869258,2.4635328529146827
3.3589731051344747,-0.07765834512932705,-9.693224552824605,2.447621927679835
3.3669706601466998,-0.07908948655256734,-9.698444009779951,2.431711002444987
3.3749682151589244,-0.08052062797580754,-9.703663466735298,2.41580007721014
3.3829657701711495,-0.08195176939904782,-9.708882923690645,2.399889151975292
3.3909633251833746,-0.0833829108222881,-9.714102380645992,2.383978226740444
3.3989608801955993,-0.08481405224552832,-9.719321837601338,2.3680673015055973
3.4069584352078244,-0.2766699266503629,-9.559804400977978,2.3185476772616216
3.4149559902200495,-0.20539608801955508,-9.258364303178467,2.5368190709046963
3.422953545232274,-0.20339035394108737,-9.251129526138083,2.5588954767726166
3.4309511002444992,-0.20177180114099422,-9.245226568867155,2.576889975550123
3.438948655256724,-0.20015324834090112,-9.239323611596227,2.5948844743276287
3.446946210268949,-0.19853469554080794,-9.2334206543253,2.612878973105135
3.454943765281174,-0.19691614274071478,-9.227517697054372,2.6308734718826416
3.4629413202933987,-0.19529758994062169,-9.221614739783444,2.648867970660147
3.470938875305624,-0.19367903714052853,-9.215711782512516,2.6668624694376533
3.478936430317849,-0.19206048434043535,-9.209808825241588,2.68485696821516
3.4869339853300736,-0.19044193154034228,-9.20390586797066,2.7028514669926653
3.4949315403422987,-0.1888233787402491,-9.198002910699731,2.720845965770172
3.502929095354524,-0.24955582722087322,-9.097427465362658,2.841979217603929
3.5109266503667484,0.6792628633523489,-8.738458679706602,3.7045687041564785
3.5189242053789735,0.6554479217603897,-8.732060635696822,3.6861743276283607
3.5269217603911986,0.6316329801684306,-8.72566259168704,3.667779951100243
3.5349193154034233,0.6078180385764729,-8.71926454767726,3.6493855745721264
3.5429168704156484,0.5840030969845137,-8.712866503667481,3.6309911980440086
3.550914425427873,0.560188155392556,-8.706468459657701,3.612596821515892
3.558911980440098,0.5363732138005968,-8.700070415647922,3.5942024449877743
3.5669095354523233,0.5125582722086377,-8.693672371638142,3.5758080684596565
3.574907090464548,0.4887433306166799,-8.687274327628362,3.55741369193154
3.582904645476773,0.4649283890247208,-8.68087628361858,3.539019315403422
3.590902200488998,0.4411134474327617,-8.674478239608801,3.5206249388753044
3.5988997555012228,0.4172985058408039,-8.668080195599021,3.502230562347188
3.606897310513448,0.29784347088469043,-8.814119505014716,4.602197844418945
3.614894865525673,0.36884217354423987,-8.768255975250732,4.6662598922209515
3.6228924205378976,0.43984087620378537,-8.722392445486749,4.7303219400229555
3.6308899755501227,0.5108395788633349,-8.676528915722765,4.794383987824963
3.6388875305623474,0.5818382815228803,-8.630665385958782,4.858446035626966
3.6468850855745725,0.6528369841824297,-8.584801856194797,4.922508083428974
3.6548826405867976,0.7238356868419792,-8.538938326430813,4.986570131230981
3.6628801955990222,0.7948343895015247,-8.49307479666683,5.050632179032985
3.6708777506112473,0.8658330921610742,-8.447211266902846,5.114694226834992
3.6788753056234724,0.9368317948206236,-8.401347737138861,5.178756274636999
3.686872860635697,1.007830497480169,-8.355484207374879,5.242818322439003
3.694870415647922,1.0788292001397184,-8.309620677610894,5.30688037024101
3.7028679706601473,1.149827902799268,-8.26375714784691,5.370942418043017
3.710865525672372,-0.6110798329716133,-6.263333672151863,4.9713568033845235
3.718863080684597,-0.40853501277436177,-6.229456388560752,5.011614158951679
3.726860635696822,-0.20599019257711032,-6.195579104969641,5.051871514518835
3.734858190709047,-0.003445372379870082,-6.161701821378532,5.092128870085988
3.742855745721272,0.19909944781738143,-6.127824537787421,5.132386225653144
3.7508533007334965,0.4016442680146215,-6.093947254196312,5.1726435812202975
3.7588508557457216,0.604189088211873,-6.060069970605201,5.212900936787453
3.7668484107579467,0.8067339084091245,-6.02619268701409,5.253158292354608
3.7748459657701714,1.0092787286063647,-5.992315403422982,5.293415647921762
3.7828435207823965,1.2118235488036162,-5.958438119831871,5.333673003488918
3.7908410757946216,1.4143683690008677,-5.92456083624076,5.373930359056073
3.7988386308068463,1.6169131891981081,-5.890683552649651,5.4141877146232265
3.8068361858190713,2.042016892642833,-6.449931095799097,5.773327406090262
3.8148337408312964,3.4825223744811686,-5.822294194575538,6.229313072155566
3.822831295843521,3.80753929038495,-5.8148546085176545,6.173981150850058
3.830828850855746,4.13255620628875,-5.807415022459771,6.118649229544547
3.8388264058679713,4.457573122192549,-5.799975436401887,6.063317308239037
3.846823960880196,4.782590038096331,-5.792535850344004,6.0079853869335285
3.854821515892421,5.107606954000131,-5.7850962642861194,5.952653465628018
3.8628190709046457,5.432623869903912,-5.777656678228237,5.89732154432251
3.870816625916871,5.7576407858077125,-5.770217092170353,5.841989623016999
3.878814180929096,6.082657701711511,-5.762777506112469,5.786657701711488
3.8868117359413206,6.407674617615293,-5.755337920054585,5.73132578040598
3.8948092909535457,6.732691533519093,-5.747898333996702,5.675993859100469
3.9028068459657708,0.5744596577022609,-6.699354523228213,5.551479217605071
3.9108044009779954,4.632735310355703,-7.913915634776644,10.520488392880631
3.9188019559902205,4.58552393721902,-7.5652050372005935,10.77881801929702
3.9267995110024456,4.538312564082337,-7.216494439624544,11.037147645713407
3.9347970660146703,4.491101190945656,-6.867783842048514,11.295477272129782
3.9427946210268954,4.443889817808972,-6.519073244472464,11.55380689854617
3.95079217603912,4.3966784446722915,-6.170362646896434,11.812136524962543
3.958789731051345,4.349467071535608,-5.821652049320384,12.070466151378932
3.9667872860635702,4.302255698398925,-5.472941451744334,12.32879577779532
3.974784841075795,4.255044325262244,-5.124230854168303,12.587125404211694
3.98278239608802,4.20783295212556,-4.775520256592253,12.84545503062808
3.990779951100245,4.160621578988877,-4.426809659016204,13.10378465704447
3.9987775061124697,5.401662591687314,-3.620097799510898,13.442222493887552
4.006775061124695,-1.5885048899745997,-7.327957212712867,15.020688264059594
4.01477261613692,2.1339630027674095,-3.209460114457669,18.001711679518476
4.022770171149145,2.2083138988151285,-3.204099116042881,17.36252247507987
4.030767726161369,2.282664794862839,-3.198738117628093,16.723333270641337
4.038765281173594,2.3570156909105577,-3.193377119213305,16.084144066202732
4.0467628361858194,2.431366586958277,-3.1880161207985167,15.44495486176413
4.0547603911980445,2.5057174830059954,-3.1826551223837285,14.805765657325525
4.06275794621027,2.5800683790537144,-3.1772941239689403,14.16657645288692
4.070755501222495,2.654419275101433,-3.171933125554152,13.527387248448315
4.078753056234719,2.7287701711491437,-3.1665721271393643,12.888198044009782
4.086750611246944,2.8031210671968627,-3.161211128724576,12.249008839571177
4.094748166259169,2.8774719632445818,-3.155850130309788,11.609819635132572
4.102745721271394,2.818674816625895,-1.5367212713932878,4.6278997554997625
4.110743276283619,3.006276336198975,3.746639640350142,1.6494882614296615
4.118740831295844,3.102848962851962,3.359919157662268,1.6570558403659597
4.126738386308069,3.1994215895049596,2.973198674974351,1.6646234193022587
4.134735941320294,3.2959942161579576,2.586478192286434,1.6721909982385577
4.142733496332519,3.392566842810955,2.199757709598517,1.6797585771748567
4.150731051344744,3.489139469463953,1.8130372269105997,1.6873261561111557
4.158728606356969,3.585712096116951,1.426316744222683,1.6948937350474549
4.166726161369193,3.682284722769938,1.0395962615348089,1.702461313983753
4.174723716381418,3.7788573494229354,0.6528757788468917,1.710028892920052
4.1827212713936435,3.8754299760759334,0.26615529615897504,1.717596471856351
4.190718826405869,3.972002602728931,-0.12056518652894255,1.72516405079265
4.198716381418094,4.068575229381929,-0.5072856692168592,1.732731629728949
4.206713936430318,4.095141809290954,1.6115527895088082,-0.1877701711491695
4.214711491442543,-3.8045669528629205,-3.5998497185421137,-0.9466095411383465
4.222709046454768,-4.587583385455189,-4.248674617615303,-1.3700149826576575
4.230706601466993,-5.370599818047458,-4.897499516688493,-1.7934204241769685
4.238704156479218,-6.153616250639727,-5.546324415761683,-2.2168258656962796
4.246701711491443,-6.936632683231995,-6.195149314834873,-2.6402313072155907
4.254699266503668,-7.719649115824177,-6.843974213907991,-3.0636367487348544
4.262696821515893,-8.502665548416445,-7.49279911298118,-3.4870421902541655
4.270694376528118,-9.285681981008715,-8.14162401205437,-3.9104476317734767
4.278691931540343,-10.068698413600982,-8.79044891112756,-4.333853073292788
4.286689486552568,-10.851714846193252,-9.43927381020075,-4.757258514812099
4.294687041564793,-11.634731278785521,-10.08809870927394,-5.18066395633141
4.302684596577017,-11.163325183376617,-5.433222493887613,38.65556723716378
4.310682151589242,-1.7786336553753999,-4.715001732855378,35.77176563723958
4.3186797066014675,-1.607812092007486,-4.237866047902728,33.135212452821
4.326677261613693,-1.4369905286395726,-3.7607303629500786,30.498659268402424
4.334674816625918,-1.266168965271659,-3.2835946779974288,27.862106083983843
4.342672371638142,-1.0953474019037643,-2.8064589930448323,25.225552899565557
4.350669926650367,-0.9245258385358506,-2.3293233080921825,22.588999715146976
4.358667481662592,-0.7537042751679368,-1.8521876231395327,19.952446530728395
4.366665036674817,-0.5828827118000233,-1.3750519381868829,17.315893346309814
4.374662591687042,-0.4120611484321095,-0.8979162532342331,14.679340161891233
4.382660146699267,-0.24123958506419596,-0.4207805682815833,12.042786977472652
4.390657701711492,-0.07041802169630129,0.05635511667101323,9.406233793054366
4.398655256723717,0.10040354167161247,0.533490801623663,6.769680608635785
4.406652811735942,0.2712251050395258,1.0106264865763128,4.133127424217207
4.414650366748167,-1.5028117359418103,0.5369914425384881,-3.972501222492868
4.422647921760392,-1.857996740016306,-2.5884213528932905,-3.05126976365115
4.430645476772616,-1.9186448655256734,-3.1315886308068537,-2.734699877750607
4.438643031784841,-1.9792929910350472,-3.6747559087204777,-2.4181299918500283
4.446640586797066,-2.039941116544421,-4.217923186634101,-2.10156010594945
4.4546381418092915,-2.100589242053795,-4.761090464547725,-1.784990220048872
4.462635696821517,-2.161237367563169,-5.304257742461349,-1.4684203341482938
4.470633251833742,-2.2218854930725427,-5.847425020374972,-1.1518504482477154
4.478630806845966,-2.28253361858191,-6.390592298288536,-0.8352805623471724
4.486628361858191,-2.343181744091284,-6.93375957620216,-0.5187106764465943
4.494625916870416,-2.4038298696006577,-7.476926854115784,-0.2021407905460162
4.502623471882641,-4.9503520782446815,-4.448136919321313,3.8537726161396275
4.510621026894866,0.6062772037752192,-3.380497936220051,14.169913084628233
4.5186185819070905,0.14568683124325266,-3.8635330599153566,15.115946446880692
4.526616136919316,-0.31490354128876497,-4.3465681836107155,16.061979809133256
4.534613691931541,-0.7754939138207827,-4.8296033073060745,17.008013171385816
4.542611246943766,-1.2360842863528,-5.312638431001433,17.95404653363838
4.550608801955991,-1.696674658884818,-5.795673554696792,18.900079895890944
4.558606356968216,-2.1572650314168356,-6.278708678392151,19.846113258143504
4.56660391198044,-2.617855403948802,-6.761743802087457,20.79214662039596
4.574601466992665,-3.07844577648082,-7.244778925782816,21.738179982648525
4.58259902200489,-3.5390361490128375,-7.727814049478175,22.68421334490109
4.5905965770171155,-3.999626521544855,-8.210849173173534,23.630246707153653
4.598594132029341,-4.88986858190776,-8.292014669926122,23.583610024448546
4.606591687041565,1.3889975550122047,-4.435400977995123,7.570623471882661
4.61458924205379,1.8361726739753286,-4.151014801377613,7.111495018008792
4.622586797066015,2.2833477929384527,-3.8666286247601036,6.652366564134923
4.63058435207824,2.7305229119015766,-3.5822424481425936,6.1932381102610545
4.638581907090465,3.1776980308647005,-3.2978562715250836,5.734109656387186
4.64657946210269,3.624873149827825,-3.013470094907574,5.274981202513317
4.654577017114915,4.0720482687908985,-2.7290839182900957,4.815852748639498
4.66257457212714,4.519223387754023,-2.444697741672586,4.356724294765629
4.670572127139365,4.966398506717147,-2.160311565055076,3.89759584089176
4.67856968215159,5.413573625680271,-1.8759253884375666,3.438467387017891
4.686567237163815,5.860748744643395,-1.5915392118200566,2.979338933144022
4.69456479217604,6.3079238636065185,-1.3071530352025467,2.520210479270153
4.702562347188264,-1.0363129584353143,-1.1218777506113788,3.413850855746158
4.710559902200489,-0.09333638299550293,3.8911010332044786,15.911621105765443
4.7185574572127145,-0.05498251702289651,3.0152397665430524,16.01464337355733
4.72655501222494,-0.016628651050290114,2.1393784998816257,16.11766564134922
4.734552567237165,0.0217252149223163,1.2635172332201994,16.22068790914111
4.742550122249389,0.06007908089491845,0.3876559665588708,16.323710176932988
4.750547677261614,0.09843294686752485,-0.4882053001025559,16.426732444724877
4.758545232273839,0.13678681284013128,-1.3640665667639817,16.529754712516766
4.766542787286064,0.17514067881273765,-2.2399278334254085,16.632776980308655
4.774540342298289,0.21349454478534408,-3.1157891000868343,16.735799248100545
4.782537897310514,0.25184841075795045,-3.991650366748262,16.83882151589243
4.790535452322739,0.2902022767305526,-4.86751163340959,16.94184378368431
4.798533007334964,0.5130855745722314,-5.011811735940945,15.941781581091485
4.806530562347189,-0.2442293194784033,-1.3179145273023611,6.116476365118163
4.814528117359414,-0.2538097239201313,-1.2860076151181716,5.952193255908705
4.822525672371639,-0.26339012836185927,-1.254100702933982,5.787910146699248
4.830523227383863,-0.27297053280358613,-1.2221937907497957,5.623627037489809
4.838520782396088,-0.2825509372453141,-1.190286878565606,5.459343928280353
4.846518337408313,-0.2921313416870421,-1.1583799663814163,5.295060819070895
4.8545158924205385,-0.30171174612877005,-1.1264730541972265,5.130777709861438
4.862513447432764,-0.311292150570498,-1.0945661420130368,4.966494600651981
4.870511002444989,-0.320872555012226,-1.062659229828847,4.802211491442524
4.878508557457213,-0.3304529594539529,-1.030752317644661,4.637928382233085
4.886506112469438,-0.3400333638956809,-0.9988454054604714,4.473645273023628
4.894503667481663,-0.34961376833740887,-0.9669384932762817,4.30936216381417
4.902501222493888,0.8456992665034679,-2.8205778321118866,8.645758761207693
4.910498777506113,-0.018508557457209876,-5.254097799511007,12.313973105134465
4.9184963325183375,0.001919979802275762,-5.289826007228661,12.241038880620811
4.926493887530563,0.02234851706176367,-5.325554214946319,12.16810465610715
4.934491442542788,0.042777054321251576,-5.361282422663976,12.09517043159349
4.942488997555013,0.06320559158073949,-5.397010630381634,12.022236207079828
4.950486552567238,0.08363412884022739,-5.432738838099291,11.949301982566167
4.958484107579463,0.10406266609971529,-5.468467045816949,11.876367758052506
4.966481662591687,0.12449120335920094,-5.504195253534602,11.803433533538852
4.974479217603912,0.14491974061868884,-5.539923461252259,11.730499309025191
4.982476772616137,0.16534827787817677,-5.575651668969917,11.65756508451153
4.9904743276283625,0.18577681513766467,-5.611379876687574,11.58463085999787
4.998471882640588,0.143078511274028,-5.609294213528885,11.434993480032492
5.006469437652813,-0.9063784297746852,-5.004145884270483,10.062079869600433
5.014466992665037,0.7974188889520643,-3.804338090635122,7.1646560243361685
5.022464547677262,0.7663586171603994,-3.7308721783135197,7.302939330187084
5.030462102689487,0.7352983453687346,-3.6574062659919173,7.441222636037999
5.038459657701712,0.7042380735770698,-3.583940353670315,7.579505941888914
5.046457212713937,0.673177801785405,-3.5104744413487126,7.717789247739828
5.0544547677261615,0.6421175299937436,-3.437008529027118,7.856072553590728
5.062452322738387,0.6110572582020788,-3.363542616705516,7.994355859441643
5.070449877750612,0.579996986410414,-3.2900767043839134,8.132639165292558
5.078447432762837,0.5489367146187492,-3.216610792062311,8.270922471143473
5.086444987775062,0.5178764428270843,-3.143144879740708,8.409205776994387
5.094442542787287,0.4868161710354195,-3.0696789674191063,8.547489082845303
5.102440097799511,1.848957620212024,-1.208543602281767,10.963384678076805
5.110437652811736,1.8916804208675622,-0.6881332930413977,10.046935963297706
5.118435207823961,1.9622206532787607,-0.6443713908958515,9.929758303343306
5.1264327628361865,2.0327608856899593,-0.6006094887503054,9.812580643388907
5.134430317848412,2.103301118101158,-0.5568475866047593,9.695402983434509
5.142427872860636,2.173841350512349,-0.513085684459218,9.578225323480124
5.150425427872861,2.2443815829235474,-0.4693237823136719,9.461047663525726
5.158422982885086,2.314921815334746,-0.42556188016812574,9.343870003571325
5.166420537897311,2.3854620477459445,-0.38179997802257964,9.226692343616927
5.174418092909536,2.456002280157143,-0.3380380758770335,9.109514683662528
5.182415647921761,2.5265425125683416,-0.29427617373148734,8.99233702370813
5.190413202933986,2.5970827449795326,-0.2505142715859461,8.875159363753745
5.198410757946211,2.6023863080684544,-0.1473863080684541,8.640772616136907
5.206408312958436,1.8071888073892302,-0.8673988046727572,8.532834012496648
5.214405867970661,1.0791602578350694,-2.081511335852413,9.039540675705718
5.222403422982886,1.0249949988886358,-2.0969611580351204,9.09497827294955
5.23040097799511,0.9708297399422083,-2.1124109802178266,9.150415870193378
5.238398533007335,0.9166644809957747,-2.127860802400534,9.20585346743721
5.24639608801956,0.8624992220493412,-2.1433106245832416,9.261291064681043
5.2543936430317855,0.8083339631029076,-2.158760446765949,9.316728661924877
5.262391198044011,0.754168704156474,-2.1742102689486567,9.37216625916871
5.270388753056236,0.7000034452100404,-2.189660091131364,9.427603856412542
5.27838630806846,0.6458381862636129,-2.20510991331407,9.48304145365637
5.286383863080685,0.5916729273171792,-2.2205597354967774,9.538479050900202
5.29438141809291,0.5375076683707457,-2.236009557679485,9.593916648144035
5.302378973105135,0.14615158924202565,-3.575602689486696,9.669572127139322
5.31037652811736,0.06456955990219472,-3.7740770171149216,9.436522004889955
5.318374083129585,0.003388264058674123,-3.8500537897310583,9.224586797065996
5.32637163814181,-0.019367595762021465,-3.876692257538713,9.090536430317849
5.334369193154035,0.010596577017115527,-3.8356381418092904,9.063344743276284
5.34236674816626,0.040560749796252515,-3.7945840260798676,9.036153056234717
5.350364303178485,0.07052492257538952,-3.753529910350445,9.008961369193152
5.35836185819071,0.10048909535452652,-3.7124757946210223,8.981769682151587
5.366359413202934,0.13045326813366018,-3.6714216788916043,8.954577995110023
5.374356968215159,0.16041744091279717,-3.630367563162182,8.927386308068458
5.382354523227384,0.19038161369193415,-3.589313447432759,8.900194621026893
5.3903520782396095,0.22034578647107114,-3.5482593317033366,8.873002933985326
5.398349633251835,0.2369376528116999,-3.4724633251832646,8.828294621026838
5.40634718826406,0.1324136919315456,-2.84832273838622,9.156236674816684
5.414344743276284,0.1544779951100243,-2.6608585982070094,9.28268174409128
5.422342298288509,0.17020651996740035,-2.6266468350991574,9.306230100516164
5.430339853300734,0.1859350448247764,-2.5924350719913054,9.32977845694105
5.438337408312959,0.20166356968215246,-2.558223308883454,9.353326813365934
5.446334963325184,0.2173920945395285,-2.524011545775602,9.37687516979082
5.4543325183374085,0.23312061939690282,-2.489799782667754,9.400423526215702
5.462330073349634,0.2488491442542789,-2.455588019559902,9.423971882640586
5.470327628361859,0.2645776691116549,-2.42137625645205,9.447520239065472
5.478325183374084,0.280306193969031,-2.3871644933441982,9.471068595490356
5.486322738386309,0.2960347188264071,-2.352952730236346,9.494616951915242
5.494320293398534,0.3117632436837831,-2.318740967128494,9.518165308340127
5.502317848410758,0.4725920363255416,-2.544182675515208,9.69739608801957
5.510315403422983,0.8932457744233003,-2.6791234187307325,9.737675613904536
5.518312958435208,0.8741211863505882,-2.6822528967789947,9.678737110662267
5.5263105134474335,0.8549965982778761,-2.6853823748272565,9.61979860742
5.534308068459659,0.835872010205164,-2.6885118528755183,9.560860104177733
5.542305623471883,0.8167474221324541,-2.69164133092378,9.501921600935471
5.550303178484108,0.797622834059742,-2.694770808972042,9.442983097693205
5.558300733496333,0.7784982459870299,-2.697900287020304,9.384044594450938
5.566298288508558,0.7593736579143178,-2.701029765068566,9.32510609120867
5.574295843520783,0.7402490698416058,-2.704159243116828,9.266167587966402
5.582293398533008,0.7211244817688937,-2.70728872116509,9.207229084724135
5.5902909535452325,0.7019998936961837,-2.710418199213352,9.148290581481875
5.598288508557458,0.6828753056234715,-2.7135476772616136,9.089352078239607
5.606286063569683,0.3154083129584089,-3.044677261613737,8.908097799511037
5.614283618581908,0.22125455039391442,-3.3530290681879937,9.296310513447434
5.622281173594133,0.219033007334963,-3.3632481662591704,9.31070611246944
5.630278728606358,0.2168114642760116,-3.3734672643303467,9.325101711491445
5.638276283618582,0.21458992121706047,-3.383686362401522,9.339497310513448
5.646273838630807,0.21236837815810908,-3.3939054604726984,9.353892909535453
5.654271393643032,0.21014683509915766,-3.4041245585438746,9.368288508557457
5.6622689486552575,0.20792529204020627,-3.4143436566150513,9.382684107579463
5.670266503667483,0.20570374898125487,-3.4245627546862276,9.397079706601469
5.678264058679707,0.20348220592230373,-3.434781852757403,9.41147530562347
5.686261613691932,0.20126066286335234,-3.4450009508285793,9.425870904645477
5.694259168704157,0.19903911980440092,-3.4552200488997555,9.44026650366748
5.702256723716382,0.11499388753054675,-3.442973105134471,9.357608801955973
5.710254278728607,0.13899422093799627,-3.2318830851299936,9.123705934652111
5.718251833740832,0.24971450263801617,-2.9866544588855977,9.172108351563507
5.726249388753057,0.2670565692961022,-2.9716695663363777,9.185577917899884
5.734246943765282,0.28439863595419024,-2.956684673787156,9.199047484236264
5.742244498777507,0.3017407026122782,-2.941699781237934,9.212517050572643
5.750242053789732,0.3190827692703662,-2.9267148886887124,9.225986616909022
5.758239608801957,0.3364248359284542,-2.911729996139491,9.239456183245402
5.766237163814181,0.3537669025865403,-2.8967451035902707,9.25292574958178
5.774234718826406,0.3711089692446283,-2.8817602110410494,9.266395315918158
5.782232273838631,0.38845103590271624,-2.8667753184918277,9.279864882254538
5.7902298288508565,0.40579310256080425,-2.851790425942606,9.293334448590915
5.798227383863082,0.42313516921889227,-2.836805533393384,9.306804014927295
5.806224938875307,0.44047723587698023,-2.821820640844163,9.320273581263674
5.814222493887531,0.713931540342323,-2.61687286063567,9.594144254278737
5.822220048899756,0.8764557638322915,-2.3994585710404785,9.560208276736393
5.830217603911981,0.8701367080201631,-2.4080485375350906,9.540856168311748
5.838215158924206,0.8638176522080346,-2.4166385040297027,9.521504059887105
5.846212713936431,0.8574985963959062,-2.425228470524315,9.502151951462462
5.8542102689486555,0.8511795405837784,-2.433818437018926,9.48279984303782
5.862207823960881,0.84486048477165,-2.442408403513538,9.463447734613178
5.870205378973106,0.8385414289595216,-2.4509983700081506,9.444095626188535
5.878202933985331,0.8322223731473931,-2.4595883365027627,9.424743517763892
5.886200488997556,0.8259033173352647,-2.4681783029973747,9.405391409339249
5.894198044009781,0.8195842615231362,-2.476768269491987,9.386039300914605
5.902195599022005,0.6159336360460906,-2.5846063569682327,9.16577121900104
5.91019315403423,0.2468595243387417,-2.9894126472549463,9.170228272949545
5.918190709046455,0.2410431206934871,-3.0064983329628814,9.179679928873083
5.9261882640586805,0.23522671704823248,-3.023584018670817,9.189131584796622
5.934185819070906,0.22941031340297788,-3.0406697043787525,9.198583240720161
5.94218337408313,0.22359390975772392,-3.057755390086686,9.208034896643698
5.950180929095355,0.2177775061124693,-3.0748410757946214,9.217486552567237
5.95817848410758,0.21196110246721467,-3.091926761502557,9.226938208490775
5.966176039119805,0.20614469882196007,-3.109012447210492,9.236389864414313
5.97417359413203,0.20032829517670545,-3.1260981329184276,9.245841520337853
5.982171149144255,0.19451189153145085,-3.143183818626363,9.255293176261391
5.9901687041564795,0.1886954878861969,-3.1602695043342965,9.26474483218493
5.998166259168705,0.17668215158922984,-3.1889706601467225,9.264523227383844
6.00616381418093,0.28877248608437894,-3.1536852208292134,9.183647219476669
6.014161369193155,0.29532367476460586,-3.1414336471934643,9.193431462310775
6.02215892420538,0.3018748634448328,-3.129182073557715,9.20321570514488
6.030156479217605,0.3084260521250597,-3.116930499921966,9.212999947978984
6.038154034229829,0.3149772408052859,-3.1046789262862187,9.222784190813089
6.046151589242054,0.3215284294855128,-3.0924273526504695,9.232568433647193
6.054149144254279,0.3280796181657397,-3.0801757790147204,9.2423526764813
6.0621466992665045,0.33463080684596663,-3.0679242053789713,9.252136919315404
6.07014425427873,0.34118199552619355,-3.055672631743222,9.261921162149509
6.078141809290954,0.34773318420641974,-3.0434210581074748,9.271705404983614
6.086139364303179,0.3542843728866467,-3.0311694844717256,9.281489647817718
6.094136919315404,0.36083556156687363,-3.0189179108359765,9.291273890651823
6.102134474327629,0.5214813569682295,-2.955120568459645,9.361344743276295
6.110132029339854,0.6244498777506275,-2.865647921760377,9.441320293398546
6.118129584352079,0.7,-2.8,9.5
6.1261271393643035,0.6998604998641673,-2.7998304808475956,9.499879923933713
6.134124694376529,0.6910854047813092,-2.7891670741646286,9.49232667753328
6.142122249388754,0.6823103096984511,-2.778503667481662,9.484773431132844
6.150119804400979,0.6735352146155931,-2.767840260798695,9.47722018473241
6.158117359413204,0.664760119532735,-2.7571768541157287,9.469666938331974
6.166114914425428,0.6559850244498778,-2.746513447432763,9.46211369193154
6.174112469437653,0.6472099293670197,-2.735850040749796,9.454560445531106
6.182110024449878,0.6384348342841617,-2.7251866340668296,9.44700719913067
6.190107579462103,0.6296597392013036,-2.7145232273838626,9.439453952730236
6.1981051344743285,0.6176356968214992,-2.7085733496332747,9.421696821515841
6.206102689486554,0.24793669321976056,-2.990138260115152,9.170806267581566
6.214100244498778,0.2547303152193919,-2.9983938007729316,9.17665394221416
6.222097799511003,0.26152393721902395,-3.0066493414307125,9.182501616846755
6.230095354523228,0.268317559218656,-3.0149048820884934,9.18834929147935
6.238092909535453,0.2751111812182881,-3.0231604227462743,9.194196966111944
6.246090464547678,0.28190480321792016,-3.0314159634040547,9.200044640744538
6.2540880195599025,0.2886984252175515,-3.0396715040618347,9.205892315377133
6.2620855745721276,0.2954920472171836,-3.0479270447196156,9.211739990009727
6.270083129584353,0.30228566921681566,-3.056182585377396,9.217587664642322
6.278080684596578,0.3090792912164477,-3.064438126035177,9.223435339274916
6.286078239608803,0.3158729132160798,-3.072693666692958,9.229283013907512
6.294075794621028,0.32266653521571187,-3.0809492073507383,9.235130688540107
6.302073349633252,0.3612469437652885,-2.9951548492257354,9.2221043194784
6.310070904645477,0.37909450409269724,-2.9510314659296264,9.218141756139046
6.318068459657702,0.3823978420325293,-2.9447725098331023,9.223096763048794
6.3260660146699275,0.3857011799723614,-2.9385135537365783,9.228051769958542
6.334063569682153,0.3890045179121935,-2.9322545976400547,9.23300677686829
6.342061124694378,0.3923078558520256,-2.9259956415435306,9.237961783778038
6.350058679706602,0.3956111937918573,-2.919736685447007,9.242916790687786
6.358056234718827,0.3989145317316894,-2.9134777293504834,9.247871797597535
6.366053789731052,0.40221786967152146,-2.9072187732539594,9.252826804507283
6.374051344743277,0.4055212076113536,-2.9009598171574353,9.257781811417031
6.382048899755502,0.40882454555118564,-2.8947008610609113,9.262736818326779
6.3900464547677265,0.41212788349101737,-2.888441904964388,9.267691825236525
6.398044009779952,0.49591075794623757,-2.8574217603911896,9.367526894865557
6.406041564792177,0.5814167065762607,-2.779999924381822,9.371625059864392
6.414039119804402,0.5782836437879663,-2.785936253875432,9.36692546568195
6.422036674816627,0.575150580999672,-2.7918725833690425,9.362225871499508
6.430034229828852,0.5720175182113776,-2.7978089128626533,9.357526277317067
6.438031784841076,0.5688844554230835,-2.8037452423562628,9.352826683134627
6.446029339853301,0.5657513926347891,-2.8096815718498735,9.348127088952184
6.454026894865526,0.5626183298464947,-2.815617901343484,9.343427494769742
6.4620244498777515,0.5594852670582005,-2.8215542308370942,9.338727900587301
6.470022004889977,0.5563522042699061,-2.8274905603307046,9.334028306404859
6.478019559902201,0.553219141481612,-2.8334268898243145,9.329328712222418
6.486017114914426,0.5500860786933176,-2.839363219317925,9.324629118039976
6.494014669926651,0.5469530159050232,-2.845299548811535,9.319929523857535
6.502012224938876,0.5347376528117317,-2.87515892420539,9.321628117359415
6.510009779951101,0.4936185819070451,-2.978921760391189,9.33959250203744
6.518007334963326,0.37470251689917966,-2.9593004170861508,9.211583230260318
6.5260048899755505,0.3710330504818062,-2.966168905508414,9.206126075075506
6.534002444987776,0.3673635840644323,-2.973037393930678,9.200668919890694
6.542000000000001,0.36369411764705845,-2.979905882352942,9.195211764705881
6.549997555012226,0.3600246512296846,-2.9867743707752057,9.189754609521069
6.557995110024451,0.3563551848123107,-2.9936428591974695,9.184297454336257
6.565992665036675,0.3526857183949373,-3.000511347619733,9.178840299151446
6.5739902200489,0.34901625197756336,-3.0073798360419968,9.173383143966634
6.581987775061125,0.3453467855601895,-3.0142483244642606,9.16792598878182
6.58998533007335,0.3416773191428156,-3.0211168128865244,9.162468833597007
6.5979828850855755,0.33800785272544176,-3.0279853013087887,9.157011678412195
6.605980440097801,0.37740060993243446,-2.954240949601703,9.215600914898651
6.613977995110025,0.3806684281094723,-2.9480492941083685,9.220502642164208
6.62197555012225,0.3839362462865106,-2.9418576386150326,9.225404369429766
6.629973105134475,0.38720406446354877,-2.935665983121697,9.230306096695323
6.6379706601467,0.39047188264058696,-2.9294743276283617,9.23520782396088
6.645968215158925,0.39373970081762516,-2.923282672135026,9.240109551226437
6.653965770171149,0.397007518994663,-2.9170910166416912,9.245011278491994
6.6619633251833745,0.4002753371717012,-2.9108993611483553,9.249913005757552
6.6699608801956,0.40354315534873947,-2.90470770565502,9.254814733023109
6.677958435207825,0.40681097352577766,-2.8985160501616845,9.259716460288667
6.68595599022005,0.41007879170281586,-2.892324394668349,9.264618187554223
6.693953545232275,0.4133466098798541,-2.886132739175013,9.269519914819782
6.701951100244499,0.45050611246945904,-2.8173080684596035,9.331124694376518
6.709948655256724,0.5314929706601522,-2.905390281173601,9.397563569682156
6.717946210268949,0.532,-2.906,9.398
6.725943765281174,0.532,-2.906,9.398
6.7339413202933995,0.532,-2.906,9.398
6.741938875305625,0.532,-2.906,9.398
6.749936430317849,0.532,-2.906,9.398
6.757933985330074,0.532,-2.906,9.398
6.765931540342299,0.532,-2.906,9.398
6.773929095354524,0.532,-2.906,9.398
6.781926650366749,0.532,-2.906,9.398
6.7899242053789735,0.532,-2.906,9.398
6.7979217603911986,0.532,-2.906,9.398
6.805919315403424,0.40148626492161604,-2.9409869121242638,9.352229397382423
6.813916870415649,0.3970170430030197,-2.949572522652094,9.345525564504529
6.821914425427874,0.3925478210844234,-2.9581581331799236,9.338821731626634
6.829911980440099,0.388078599165827,-2.9667437437077533,9.33211789874874
6.837909535452323,0.38360937724723115,-2.975329354235582,9.325414065870847
6.845907090464548,0.3791401553286348,-2.983914964763412,9.318710232992952
6.853904645476773,0.37467093341003843,-2.992500575291242,9.312006400115058
6.8619022004889985,0.3702017114914421,-3.0010861858190716,9.305302567237163
6.869899755501224,0.36573248957284576,-3.0096717963469013,9.298598734359269
6.877897310513448,0.37036650366748197,-2.9845955990220037,9.256331784841073
6.885894865525673,0.377,-2.955,9.215
6.893892420537898,0.4013276283618616,-2.940403422982883,9.349288508557475
6.901889975550123,0.402,-2.94,9.353
6.909887530562348,0.402,-2.94,9.353
6.917885085574573,0.402,-2.94,9.353
6.9258826405867975,0.402,-2.94,9.353
6.933880195599023,0.402,-2.94,9.353
6.941877750611248,0.402,-2.94,9.353
6.949875305623473,0.402,-2.94,9.353
6.957872860635698,0.402,-2.94,9.353
6.965870415647922,0.402,-2.94,9.353
6.973867970660147,0.402,-2.94,9.353
6.981865525672372,0.402,-2.94,9.353
6.989863080684597,0.402,-2.94,9.353
6.9978606356968225,0.402,-2.94,9.353
7.005858190709048,0.4390056209512763,-2.868596627429234,9.405471252489097
7.013855745721272,0.43694439543266184,-2.869833362740403,9.394010838605599
7.021853300733497,0.43488316991404713,-2.8710700980515718,9.382550424722101
7.029850855745722,0.4328219443954324,-2.8723068333627406,9.371090010838603
7.037848410757947,0.4307607188768177,-2.8735435686739095,9.359629596955106
7.045845965770172,0.428699493358203,-2.8747803039850783,9.348169183071608
7.053843520782397,0.4266382678395883,-2.8760170392962467,9.33670876918811
7.0618410757946215,0.4245770423209738,-2.8772537746074156,9.325248355304614
7.069838630806847,0.4225158168023591,-2.8784905099185845,9.313787941421117
7.077836185819072,0.4204545912837444,-2.8797272452297533,9.302327527537619
7.085833740831297,0.4183933657651297,-2.880963980540922,9.290867113654121
7.093831295843522,0.416332140246515,-2.882200715852091,9.279406699770623
7.101828850855746,0.4401271393643263,-2.9561625916870513,9.34761246943765
7.109826405867971,0.4087888141809225,-2.9615207823960867,9.248962408312952
7.117823960880196,0.377,-2.955,9.215
7.125821515892421,0.377,-2.955,9.215
7.1338190709046465,0.377,-2.955,9.215
7.141816625916872,0.377,-2.955,9.215
7.149814180929096,0.377,-2.955,9.215
7.157811735941321,0.377,-2.955,9.215
7.165809290953546,0.377,-2.955,9.215
7.173806845965771,0.377,-2.955,9.215
7.181804400977996,0.377,-2.955,9.215
7.18980195599022,0.377,-2.955,9.215
7.1977995110024455,0.377,-2.955,9.215
7.205797066014671,0.40331907090464314,-2.934216381418103,9.344781173594146
7.213794621026896,0.4565959657701721,-2.813887669482108,9.321772866192486
7.221792176039121,0.4625941320293409,-2.818704378750834,9.308049788841963
7.229789731051346,0.46859229828850973,-2.823521088019561,9.29432671149144
7.23778728606357,0.4745904645476779,-2.828337797288287,9.280603634140919
7.245784841075795,0.4805886308068467,-2.833154506557013,9.266880556790396
7.25378239608802,0.4865867970660155,-2.8379712158257395,9.253157479439874
7.261779951100245,0.4925849633251843,-2.8427879250944663,9.239434402089351
7.2697775061124705,0.49858312958435314,-2.8476046343631927,9.225711324738828
7.277775061124695,0.5045812958435213,-2.8524213436319186,9.211988247388307
7.28577261613692,0.5105794621026901,-2.857238052900645,9.198265170037786
7.293770171149145,0.5165776283618589,-2.8620547621693713,9.184542092687263
7.30176772616137,0.5822451100244538,-2.7803099022004716,9.37870354523225
7.309765281173595,0.5933583767407242,-2.8257335494844282,9.595191320293399
7.31776283618582,0.5889249495056865,-2.8370344424364853,9.597190709046455
7.3257603911980445,0.5844915222706492,-2.8483353353885414,9.59919009779951
7.3337579462102696,0.5800580950356113,-2.8596362283405985,9.601189486552567
7.341755501222495,0.5756246678005735,-2.8709371212926555,9.603188875305623
7.34975305623472,0.5711912405655358,-2.8822380142447126,9.60518826405868
7.357750611246945,0.566757813330498,-2.8935389071967696,9.607187652811737
7.36574816625917,0.5623243860954602,-2.9048398001488267,9.609187041564793
7.373745721271394,0.5578909588604228,-2.916140693100883,9.611186430317849
7.381743276283619,0.5534575316253851,-2.92744158605294,9.613185819070905
7.389740831295844,0.5490241043903473,-2.938742479004997,9.615185207823961
7.3977383863080695,0.5785965770171531,-2.9261100244498515,9.501442542787155
7.405735941320295,0.7683892525698679,-3.049752109787836,9.956298419959518
7.413733496332519,0.7793966401135743,-3.03478894234561,9.989922549096933
7.421731051344744,0.790404027657282,-3.0198257749033823,10.023546678234354
7.429728606356969,0.8014114152009897,-3.0048626074611544,10.057170807371772
7.437726161369194,0.8124188027446974,-2.989899440018927,10.090794936509193
7.445723716381419,0.823426190288405,-2.9749362725766995,10.124419065646611
7.453721271393644,0.8344335778321127,-2.959973105134472,10.158043194784032
7.4617188264058685,0.8454409653758191,-2.945009937692246,10.191667323921447
7.469716381418094,0.8564483529195268,-2.9300467702500184,10.225291453058867
7.477713936430319,0.8674557404632345,-2.9150836028077904,10.258915582196286
7.485711491442544,0.8784631280069422,-2.900120435365563,10.292539711333706
7.493709046454769,0.8894705155506498,-2.8851572679233355,10.326163840471125
7.501706601466993,1.3029413202934206,-2.669962510187457,9.92770089649556
7.509704156479218,1.5190353222702022,-2.5058286947926556,10.430574832232248
7.517701711491443,1.5583424543515636,-2.1803111897206007,10.631874993497402
7.525699266503668,1.5976495864329252,-1.8547936846485462,10.833175154762557
7.5336968215158935,1.6369567185142868,-1.5292761795764915,11.034475316027711
7.541694376528119,1.6762638505956482,-1.203758674504437,11.235775477292865
7.549691931540343,1.7155709826770054,-0.8782411694324186,11.437075638557998
7.557689486552568,1.754878114758367,-0.5527236643603639,11.638375799823152
7.565687041564793,1.7941852468397286,-0.22720615928830945,11.839675961088307
7.573684596577018,1.83349237892109,0.09831134578374501,12.040976122353461
7.581682151589243,1.8727995110024516,0.4238288508557999,12.242276283618615
7.589679706601467,1.9121066430838087,0.7493463559278184,12.443576444883748
7.5976772616136925,1.9514137751651703,1.0748638609998729,12.644876606148902
7.605674816625918,6.338485885752381,4.041891086908197,11.501522116025608
7.613672371638143,6.204687856560737,3.9261261206193847,8.074431132844335
7.621669926650368,6.545916870415676,3.7135244498777333,8.055770171149144
7.629667481662593,6.887145884270615,3.500922779136082,8.037109209453952
7.637665036674817,7.228374898125516,3.288321108394454,8.01844824775876
7.645662591687042,7.5696039119804555,3.0757194376528023,7.999787286063569
7.653660146699267,7.910832925835394,2.863117766911151,7.981126324368377
7.661657701711492,8.252061939690334,2.6505160961694996,7.962465362673185
7.6696552567237175,8.593290953545273,2.4379144254278478,7.943804400977993
7.677652811735943,8.934519967400211,2.225312754686197,7.925143439282801
7.685650366748167,9.275748981255113,2.012711083944569,7.906482477587611
7.693647921760392,9.616977995110052,1.8001094132029172,7.887821515892419
7.701645476772617,12.274740831293741,-5.690726161370643,3.2437946210250863
7.709643031784842,7.799038147067224,-8.5729796251019,-0.34582125299053945
7.717640586797067,7.154246023608473,-8.73026487367566,-0.5312269369298654
7.725638141809291,6.5094539001497935,-8.887550122249403,-0.7166326208691709
7.7336356968215165,5.864661776691044,-9.044835370823163,-0.9020383048084969
7.741633251833742,5.219869653232292,-9.202120619396924,-1.087443988747823
7.749630806845967,4.575077529773543,-9.359405867970684,-1.272849672687149
7.757628361858192,3.930285406314791,-9.516691116544445,-1.458255356626475
7.765625916870417,3.2854932828560406,-9.673976365118206,-1.6436610405658012
7.773623471882641,2.640701159397362,-9.831261613691948,-1.8290667245051067
7.781621026894866,1.9959090359386114,-9.988546862265709,-2.0144724084444325
7.789618581907091,1.3511169124798608,-10.14583211083947,-2.1998780923837584
7.797616136919316,0.42421026894794484,-10.259345965770104,-2.38039608801958
7.8056136919315415,-2.630848410756043,-10.031581907090779,-2.393581907090259
7.813611246943766,-0.4901710148042692,-9.95305739004272,-2.441199145597663
7.821608801955991,-0.5305103307450528,-9.953233160482549,-2.196790349015268
7.829606356968216,-0.5708496466858365,-9.953408930922379,-1.9523815524328727
7.837603911980441,-0.6111889626266203,-9.953584701362207,-1.7079727558504776
7.845601466992666,-0.6515282785674039,-9.953760471802036,-1.4635639592680827
7.853599022004891,-0.6918675945081876,-9.953936242241866,-1.2191551626856876
7.8615965770171155,-0.7322069104489667,-9.954112012681694,-0.9747463661033196
7.8695941320293405,-0.7725462263897503,-9.954287783121524,-0.7303375695209247
7.877591687041566,-0.812885542330534,-9.954463553561354,-0.48592877293852954
7.885589242053791,-0.8532248582713178,-9.954639324001182,-0.24151997635613442
7.893586797066016,-0.8935641742121014,-9.954815094441011,0.002888820226260691
7.90158435207824,-0.9339034901528805,-9.954990864880841,0.24729761680862872
7.909581907090465,-1.2488205378973414,-11.6876332518341,-0.23443520782414273
7.91757946210269,-1.1586570348966339,-11.905700711269162,0.18740831295848337
7.925577017114915,-1.033786119137574,-11.7903723327406,0.807218826405928
7.9335745721271405,-0.908915203378514,-11.675043954212034,1.4270293398533727
7.9415721271393656,-0.784044287619454,-11.55971557568347,2.0468398533008174
7.94956968215159,-0.6591733718604079,-11.444387197154919,2.6666503667481933
7.957567237163815,-0.534302456101348,-11.329058818626354,3.2864608801956376
7.96556479217604,-0.409431540342288,-11.213730440097791,3.9062713936430824
7.973562347188265,-0.28456062458322806,-11.098402061569226,4.526081907090527
7.98155990220049,-0.15968970882416822,-10.983073683040661,5.1458924205379715
7.989557457212714,-0.03481879306512203,-10.86774530451211,5.765702933985347
7.9975550122249395,0.09005212269393792,-10.752416925983546,6.385513447432792
8.005552567237165,-1.57146037681597,-9.173416654681155,6.323465985905228
8.01355012224939,-2.4558958722854065,-7.988367179634607,5.7410558032503545
8.021547677261614,-2.9934461947943367,-7.022327999752444,5.475514221163064
8.02954523227384,-3.095895886849689,-6.3309950481259625,5.607423261428009
8.037542787286064,-3.1983455789050184,-5.639662096499634,5.739332301692924
8.04554034229829,-3.3007952709603705,-4.948329144873152,5.871241341957868
8.053537897310514,-3.4032449630157,-4.256996193246824,6.003150382222783
8.061535452322738,-3.505694655071029,-3.5656632416204954,6.135059422487698
8.069533007334964,-3.608144347126381,-2.874330289994014,6.266968462752643
8.077530562347189,-3.7105940391817107,-2.1829973383676853,6.398877503017558
8.085528117359415,-3.813043731237063,-1.4916643867412036,6.5307865432825025
8.093525672371639,-3.915493423292392,-0.8003314351148756,6.662695583547418
8.101523227383863,-5.639070904645463,-2.5409360810338666,8.34653161019908
8.109520782396089,-5.319168704156425,-2.230826805049596,8.065801107729108
8.117518337408313,-4.999266503667459,-1.9207175290653942,7.785070605259199
8.12551589242054,-4.6793643031784224,-1.6106082530811237,7.504340102789228
8.133513447432763,-4.359462102689456,-1.3004989770969217,7.223609600319319
8.14151100244499,-4.039559902200419,-0.9903897011126512,6.942879097849348
8.149508557457214,-3.719657701711453,-0.6802804251284496,6.662148595379438
8.157506112469438,-3.3997555012224874,-0.37017114914424765,6.381418092909529
8.165503667481664,-3.07985330073345,-0.06006187315997735,6.100687590439558
8.173501222493888,-2.7599511002444843,0.25004740282422455,5.81995708796965
8.181498777506114,-2.440048899755447,0.5601566788084953,5.539226585499678
8.189496332518338,-2.1201466992664812,0.8702659547926967,5.258496083029769
8.197493887530563,-1.800244498777515,1.1803752307768987,4.9777655805598595
8.205491442542789,-3.2658805448829384,4.22810967516604,6.037828152287674
8.213488997555013,-2.845296658516708,5.237451114296148,4.9189586319309795
8.221486552567239,-2.8719551752241284,5.013979203552223,4.957383666357536
8.229484107579463,-2.8986136919315424,4.790507292808348,4.995808700784085
8.237481662591687,-2.9252722086389564,4.567035382064473,5.034233735210634
8.245479217603913,-2.9519307253463762,4.343563471320548,5.072658769637191
8.253476772616137,-2.9785892420537907,4.1200915605766735,5.11108380406374
8.261474327628363,-3.0052477587612105,3.8966196498327488,5.149508838490297
8.269471882640588,-3.0319062754686246,3.673147739088874,5.187933872916846
8.277469437652814,-3.0585647921760444,3.449675828344949,5.2263589073434025
8.285466992665038,-3.0852233088834584,3.2262039176010746,5.264783941769951
8.293464547677262,-3.111881825590873,3.0027320068571997,5.303208976196499
8.301462102689488,3.0058080684600186,11.296853300730627,9.111550122247392
8.309459657701712,3.742400797838113,7.129799639686012,6.028693501479864
8.317457212713938,4.004131308711911,7.13821811864625,5.8066982112983885
8.325454767726162,4.265861819585652,7.146636597606486,5.584702921116962
8.333452322738387,4.527592330459393,7.155055076566723,5.362707630935536
8.341449877750613,4.789322841333192,7.16347355552696,5.14071234075406
8.349447432762837,5.0510533522069325,7.171892034487196,4.918717050572634
8.357444987775063,5.312783863080732,7.180310513447434,4.696721760391158
8.365442542787287,5.574514373954472,7.18872899240767,4.474726470209732
8.373440097799511,5.836244884828213,7.197147471367907,4.252731180028306
8.381437652811737,6.0979753957020115,7.205565950328144,4.030735889846831
8.389435207823961,6.359705906575752,7.213984429288381,3.808740599665404
8.397432762836187,6.6214364174495515,7.222402908248618,3.5867453094839283
8.405430317848412,6.098226568867247,7.697470252648748,3.5135427872860276
8.413427872860636,6.470846570149175,7.717471965055906,3.3967696491854595
8.421425427872862,6.15085450949146,7.606584516908863,3.5898791516716795
8.429422982885086,5.830862448833817,7.495697068761845,3.7829886541578563
8.437420537897312,5.5108703881761025,7.384809620614802,3.9760981566440763
8.445418092909536,5.190878327518458,7.273922172467784,4.169207659130254
8.453415647921762,4.870886266860744,7.163034724320741,4.362317161616473
8.461413202933986,4.5508942062031,7.052147276173722,4.55542666410265
8.46941075794621,4.230902145545457,6.941259828026704,4.748536166588828
8.477408312958437,3.910910084887742,6.830372379879661,4.941645669075047
8.48540586797066,3.5909180242300986,6.719484931732643,5.134755171561224
8.493403422982887,3.270925963572384,6.6085974835856,5.327864674047444
8.501400977995111,2.7351129584351512,7.316840097799654,5.323743276283594
8.509398533007335,1.5306002444987277,10.856724938875546,4.836969437652801
8.517396088019561,-0.31948982202760334,16.862614800704993,6.264906607153071
8.525393643031785,-0.00749218172513666,16.12395689998294,6.8694659691817845
8.533391198044011,0.3045054585773994,15.385298999260721,7.474025331210633
8.541388753056236,0.6165030988798661,14.646641098538666,8.078584693239346
8.54938630806846,0.9285007391823328,13.907983197816613,8.68314405526806
8.557383863080686,1.240498379484869,13.169325297094392,9.28770341729691
8.56538141809291,1.5524960197873356,12.430667396372339,9.892262779325623
8.573378973105136,1.8644936600898718,11.692009495650119,10.496822141354471
8.58137652811736,2.176491300392338,10.953351594928066,11.101381503383188
8.589374083129586,2.4884889406948743,10.214693694205845,11.705940865412035
8.59737163814181,2.800486580997341,9.476035793483792,12.310500227440748
8.605369193154035,3.999978810105876,4.2659604726976115,4.360763243683541
8.61336674816626,3.7160969845150476,4.2294381418093,3.961688508557533
8.621364303178485,3.601909671284957,4.265160554197235,4.251466585167124
8.62936185819071,3.4877223580548415,4.300882966585178,4.54124466177678
8.637359413202935,3.373535044824751,4.336605378973113,4.831022738386371
8.64535696821516,3.259347731594661,4.372327791361047,5.120800814995961
8.653354523227385,3.145160418364545,4.40805020374899,5.410578891605617
8.66135207823961,3.030973105134455,4.4437726161369255,5.700356968215209
8.669349633251835,2.916785791904339,4.479495028524868,5.990135044824864
8.67734718826406,2.802598478674249,4.515217440912803,6.279913121434454
8.685344743276284,2.6884111654441583,4.550939853300737,6.569691198044046
8.69334229828851,2.574223852214043,4.58666226568868,6.859469274653701
8.701339853300734,2.3436882640586076,4.2211393643032595,8.346394865525653
8.70933740831296,2.4613850040749945,6.767389350719913,7.883417929910343
8.717334963325184,2.606407334963327,6.775564629176854,7.809573838630806
8.725332518337408,2.75142966585166,6.7837399076337945,7.735729747351269
8.733330073349634,2.8964519967400246,6.791915186090736,7.661885656071716
8.741327628361859,3.0414743276283573,6.800090464547677,7.588041564792179
8.749325183374085,3.186496658516722,6.808265743004619,7.514197473512625
8.757322738386309,3.3315189894050548,6.81644102146156,7.440353382233088
8.765320293398535,3.4765413202934194,6.824616299918501,7.366509290953535
8.773317848410759,3.621563651181752,6.832791578375442,7.292665199673998
8.781315403422983,3.766585982070085,6.840966856832383,7.218821108394461
8.78931295843521,3.9116083129584496,6.849142135289324,7.144977017114908
8.797310513447433,4.013156173594121,6.807473105134459,7.089059902200494
8.80530806845966,3.1209779951103114,5.593014669926728,7.520729050900574
8.813305623471884,4.288621026894939,5.9049193154034425,9.045353856412632
8.821303178484108,2.868938875305622,3.152689486552566,8.649393643031784
8.829300733496334,2.7591724327628206,2.9941379584351857,8.674286033007338
8.837298288508558,2.6494059902200435,2.8355864303178406,8.699178422982886
8.845295843520784,2.539639547677242,2.6770349022004605,8.72407081295844
8.853293398533008,2.429873105134465,2.518483374083116,8.748963202933988
8.861290953545232,2.3201066625916877,2.3599318459657708,8.773855592909534
8.869288508557458,2.210340220048886,2.2013803178483906,8.798747982885088
8.877286063569683,2.100573777506109,2.042828789731046,8.823640372860636
8.885283618581909,1.9908073349633075,1.8842772616136658,8.84853276283619
8.893281173594133,1.8810408924205302,1.725725733496321,8.873425152811738
8.901278728606359,1.242190709051548,5.36104156479266,8.255188264059116
8.909276283618583,3.0346612644079967,5.507150052392593,8.384694795668874
8.917273838630807,3.1782745022703653,5.4941254628012555,8.370070695075094
8.925271393643033,3.3218877401327656,5.4811008732099165,8.35544659448131
8.933268948655257,3.4655009779951342,5.46807628361858,8.340822493887528
8.941266503667483,3.6091142158575344,5.45505169402724,8.326198393293744
8.949264058679708,3.7527274537199027,5.442027104435904,8.311574292699962
8.957261613691932,3.8963406915822714,5.4290025148445675,8.29695019210618
8.965259168704158,4.039953929444671,5.4159779252532285,8.282326091512395
8.973256723716382,3.655168704156203,5.641264058679836,8.051330073349513
8.981254278728608,2.3319980583920503,4.709110024449873,8.262588307205522
8.989251833740832,2.269958201495752,4.681118581907088,8.25241494678556
8.997249388753056,2.2079183445994532,4.653127139364304,8.242241586365598
9.005246943765282,2.145878487703141,4.625135696821512,8.232068225945634
9.013244498777507,2.083838630806843,4.597144254278727,8.221894865525673
9.021242053789733,2.0217987739105303,4.569152811735936,8.211721505105709
9.029239608801957,1.959758917014232,4.541161369193151,8.201548144685747
9.037237163814181,1.8977190601179335,4.513169926650367,8.191374784265784
9.045234718826407,1.8356792032216211,4.485178484107575,8.18120142384582
9.053232273838631,1.7736393463253228,4.45718704156479,8.17102806342586
9.061229828850857,1.7115994894290105,4.429195599021999,8.160854703005896
9.069227383863081,1.649559632532712,4.401204156479214,8.150681342585933
9.077224938875307,1.5875197756364,4.373212713936423,8.14050798216597
9.085222493887532,1.5254799187401014,4.345221271393639,8.130334621746007
9.093220048899756,1.4634400618438028,4.317229828850853,8.120161261326047
9.101217603911982,1.4014002049474907,4.289238386308062,8.109987900906082
9.109215158924206,1.3393603480511922,4.261246943765277,8.09981454048612
9.117212713936432,2.4590635696825047,5.36033251833732,8.217486552566639
9.125210268948656,2.575960497245702,5.38311058414588,7.9185409609096515
9.13320782396088,2.5226755825257023,5.454221374495536,7.8969571979850945
9.141205378973106,2.469390667805691,5.525332164845208,7.875373435060533
9.14920293398533,2.416105753085691,5.596442955194865,7.853789672135976
9.157200488997557,2.3628208383656797,5.667553745544536,7.832205909211415
9.16519804400978,2.30953592364568,5.738664535894193,7.810622146286858
9.173195599022005,2.25625100892568,5.809775326243849,7.789038383362301
9.181193154034231,2.2029660942056686,5.880886116593521,7.767454620437739
9.189190709046455,2.1496811794856687,5.951996906943177,7.745870857513182
9.197188264058681,2.096396264765657,6.023107697292849,7.724287094588621
9.205185819070905,1.9098459657701548,5.794130562347162,7.899431784841095
9.21318337408313,1.7000359762486896,5.46892455466294,8.212208173244846
9.221180929095356,2.2931158548053445,5.322217227760012,8.354956084258038
9.22917848410758,2.341306250391824,5.276282552818006,8.341114162121496
9.237176039119806,2.3894966459783147,5.23034787787599,8.327272239984952
9.24517359413203,2.437687041564794,5.1844132029339836,8.31343031784841
9.253171149144256,2.4858774371512844,5.138478527991968,8.299588395711865
9.26116870415648,2.534067832737764,5.092543853049961,8.285746473575323
9.269166259168705,2.5822582283242435,5.046609178107955,8.27190455143878
9.27716381418093,2.6304486239107336,5.000674503165939,8.258062629302236
9.285161369193155,2.678639019497213,4.954739828223933,8.244220707165693
9.29315892420538,2.7268294150837034,4.908805153281917,8.23037878502915
9.301156479217605,2.420114914427333,3.4000635696825863,7.365136919316091
9.30915403422983,1.0259538508557458,5.579484209453953,7.216920639771801
9.317151589242055,1.0057100397310486,5.555408236552564,7.351796072738404
9.32514914425428,0.9854662286063561,5.531332263651181,7.486671505704977
9.333146699266505,0.9652224174816592,5.507256290749792,7.621546938671579
9.34114425427873,0.9449786063569666,5.483180317848409,7.756422371638152
9.349141809290954,0.9247347952322742,5.459104344947026,7.891297804604725
9.35713936430318,0.9044909841075771,5.435028372045637,8.026173237571328
9.365136919315404,0.8842471729828847,5.410952399144254,8.1610486705379
9.37313447432763,0.8640033618581876,5.386876426242865,8.295924103504504
9.381132029339854,0.8437595507334952,5.362800453341482,8.430799536471076
9.38912958435208,0.8235157396087981,5.338724480440093,8.56567496943768
9.397127139364304,0.8032719284841057,5.31464850753871,8.700550402404252
9.405124694376529,2.0685427872861517,3.6257408312957145,8.175022004889993
9.413122249388755,2.5221097321143633,2.8507504783671864,8.383744073562253
9.421119804400979,2.3650273200807836,2.9560226427128784,8.487886148612741
9.429117359413205,2.207944908047169,3.0612948070585935,8.59202822366325
9.437114914425429,2.0508624960135893,3.1665669714042854,8.696170298713737
9.445112469437653,1.8937800839800092,3.2718391357499774,8.800312373764223
9.45311002444988,1.7366976719463945,3.3771113000956925,8.904454448814732
9.461107579462103,1.5796152599128148,3.4823834644413845,9.008596523865219
9.46910513447433,1.4225328478792,3.5876556287870995,9.112738598915728
9.477102689486554,1.2654504358456202,3.6929277931327915,9.216880673966214
9.485100244498778,1.1083680238120404,3.7981999574784835,9.3210227490167
9.493097799511004,0.9512856117784256,3.9034721218241986,9.42516482406721
9.501095354523228,1.155632029339975,4.854217603912235,8.782679706601142
9.509092909535454,1.3779171825417496,5.273433907298543,8.224324455079854
9.517090464547678,1.3909344795297316,5.241188446132234,8.233938537169017
9.525088019559902,1.4039517765177134,5.208942984965925,8.243552619258182
9.533085574572128,1.4169690735056983,5.17669752379961,8.253166701347347
9.541083129584353,1.4299863704936804,5.1444520626333015,8.26278078343651
9.549080684596579,1.4430036674816653,5.112206601466986,8.272394865525674
9.557078239608803,1.4560209644696473,5.079961140300677,8.282008947614838
9.565075794621029,1.4690382614576323,5.047715679134361,8.291623029704002
9.573073349633253,1.4820555584456143,5.015470217968053,8.301237111793167
9.581070904645477,1.4950728554335964,4.983224756801745,8.31085119388233
9.589068459657703,1.5080901524215813,4.950979295635429,8.320465275971495
9.597066014669927,1.5437750611250967,4.931014669926863,8.33075916870417
9.605063569682153,2.6176606560717097,6.200927974735119,9.00523808068457
9.613061124694378,2.577589573145878,6.173519687245309,8.901519789119789
9.621058679706602,2.5375184902200463,6.146111399755499,8.797801497555005
9.629056234718828,2.4974474072942057,6.118703112265683,8.6940832059902
9.637053789731052,2.457376324368374,6.091294824775873,8.590364914425416
9.645051344743278,2.4173052414425333,6.063886537286057,8.486646622860611
9.653048899755502,2.3772341585167016,6.036478249796247,8.382928331295828
9.661046454767726,2.33716307559087,6.0090699623064365,8.279210039731046
9.669044009779952,2.2970919926650293,5.981661674816621,8.175491748166241
9.677041564792177,2.2570209097391976,5.95425338732681,8.071773456601457
9.685039119804403,2.216949826813357,5.926845099836995,7.968055165036652
9.693036674816627,2.1768787438875252,5.899436812347185,7.864336873471869
9.701034229828853,1.2781532192340743,5.035470252648551,7.749458027710126
9.709031784841077,1.3336831723122944,5.477926721579977,8.672666104873356
9.717029339853301,1.337021957414485,5.430174330002133,8.65216751726921
9.725026894865527,1.3403607425166764,5.3824219384242795,8.631668929665057
9.733024449877751,1.3436995276188672,5.334669546846436,8.611170342060909
9.741022004889977,1.3470383127210586,5.286917155268581,8.590671754456757
9.749019559902202,1.3503770978232492,5.239164763690738,8.570173166852609
9.757017114914426,1.3537158829254399,5.191412372112894,8.549674579248462
9.765014669926652,1.3570546680276314,5.143659980535039,8.52917599164431
9.773012224938876,1.360393453129822,5.095907588957195,8.508677404040162
9.781009779951102,1.3637322382320136,5.048155197379342,8.48817881643601
9.789007334963326,1.3670710233342043,5.000402805801498,8.467680228831863
9.79700488997555,1.370409808436395,4.952650414223654,8.447181641227715
9.805002444987776,1.3737485935385862,4.904898022645799,8.426683053623563
9.813,1.457,4.715,8.264
