gyro_time_list,gyro_x_list,gyro_y_list,gyro_z_list
0.0,0.0,0.2,-0.1
0.007999399038461539,-0.10761446886446888,0.1,-0.3961927655677656
0.015998798076923077,-0.16856227106227106,0.1,-0.3657188644688645
0.023998197115384617,-0.2295100732600733,0.1,-0.33524496336996334
0.031997596153846154,-0.2904578754578755,0.1,-0.30477106227106227
0.03999699519230769,-0.35140567765567765,0.1,-0.2742971611721612
0.047996394230769235,-0.4123534798534799,0.1,-0.24382326007326008
0.05599579326923077,-0.4733012820512821,0.1,-0.21334935897435897
0.06399519230769231,-0.5342490842490842,0.1,-0.1828754578754579
0.07199459134615385,-0.5951968864468865,0.1,-0.15240155677655678
0.07999399038461538,-0.6561446886446886,0.1,-0.12192765567765573
0.08799338942307693,-0.7170924908424908,0.1,-0.0914537545787546
0.09599278846153847,-0.7780402930402931,0.1,-0.06097985347985346
0.1039921875,-0.8389880952380953,0.1,-0.030505952380952384
0.11199158653846154,-0.8999358974358974,0.1,-3.205128205130414e-05
0.11999098557692307,-0.29909855769230775,0.19981971153846156,0.10054086538461532
0.12799038461538462,-0.26965676728334953,0.18988558909444986,0.1
0.13598978365384615,-0.23927930258033106,0.17975976752677703,0.1
0.1439891826923077,-0.2089018378773125,0.1696339459591042,0.1
0.15198858173076923,-0.17852437317429404,0.15950812439143136,0.1
0.15998798076923076,-0.14814690847127557,0.14938230282375853,0.1
0.16798737980769232,-0.11776944376825701,0.1392564812560857,0.1
0.17598677884615385,-0.08739197906523855,0.12913065968841286,0.1
0.18398617788461538,-0.057014514362220076,0.11900483812074003,0.1
0.19198557692307694,-0.026637049659201495,0.10887901655306718,0.1
0.19998497596153847,-0.09849759615384582,0.1,0.1
0.207984375,-0.003758844339622653,0.1,0.0
0.21598377403846153,-0.011305447206095793,0.1,0.0
0.2239831730769231,-0.01885205007256896,0.1,0.0
0.23198257211538462,-0.0263986529390421,0.1,0.0
0.23998197115384615,-0.03394525580551524,0.1,0.0
0.2479813701923077,-0.04149185867198841,0.1,0.0
0.25598076923076923,-0.04903846153846155,0.1,0.0
0.26398016826923076,-0.05658506440493469,0.1,0.0
0.2719795673076923,-0.06413166727140783,0.1,0.0
0.2799789663461538,-0.07167827013788097,0.1,0.0
0.2879783653846154,-0.07922487300435416,0.1,0.0
0.29597776442307694,-0.0867714758708273,0.1,0.0
0.30397716346153847,-0.09431807873730044,0.1,0.0
0.3119765625,-0.1,0.1,-0.09882812499999996
0.31997596153846153,-0.1,0.0,0.0
0.32797536057692306,-0.11876555429864247,0.0,0.009382777149321236
0.33597475961538464,-0.13758766968325797,0.0,0.01879383484162898
0.3439741586538462,-0.1564097850678733,0.0,0.028204892533936664
0.3519735576923077,-0.17523190045248868,0.0,0.037615950226244345
0.35997295673076923,-0.19405401583710402,0.0,0.04702700791855202
0.36797235576923076,-0.2128761312217194,0.0,0.056438065610859706
0.3759717548076923,-0.23169824660633476,0.0,0.06584912330316739
0.3839711538461539,-0.25052036199095024,0.0,0.07526018099547513
0.3919705528846154,-0.2693424773755656,0.0,0.08467123868778281
0.39996995192307694,-0.2881645927601809,0.0,0.0940822963800905
0.40796935096153847,-0.49693509615384945,0.0,0.19693509615384946
0.41596875,-0.669404069767442,0.0,0.31388081395348844
0.42396814903846153,-0.7624203376565296,0.0,0.33248406753130594
0.43196754807692306,-0.8554366055456172,0.0,0.35108732110912344
0.43996694711538464,-0.9484528734347053,0.0,0.36969057468694105
0.4479663461538462,-1.0414691413237929,0.0,0.38829382826475856
0.4559657451923077,-1.1344854092128804,0.0,0.4068970818425761
0.46396514423076923,-1.227501677101968,0.0,0.42550033542039356
0.47196454326923076,-1.3205179449910553,0.0,0.4441035889982111
0.4799639423076923,-1.4135342128801431,0.0,0.4627068425760286
0.4879633413461539,-1.5065504807692314,0.0,0.48131009615384623
0.4959627403846154,-1.5995667486583187,0.0,0.4999133497316638
0.5039621394230769,-1.9,-0.1,0.6993689903846146
0.5119615384615385,-1.7259197324414715,-0.1,0.9129598662207358
0.5199609375,-1.7606997282608698,-0.1,0.930349864130435
0.5279603365384615,-1.7954797240802676,-0.1,0.9477398620401338
0.5359597355769231,-1.8302597198996657,-0.1,0.9651298599498329
0.5439591346153846,-1.8650397157190635,-0.1,0.9825198578595318
0.5519585336538462,-1.8998197115384616,-0.1,0.9999098557692309
0.5599579326923076,-1.9345997073578594,-0.1,1.0172998536789297
0.5679573317307692,-1.9693797031772577,-0.1,1.034689851588629
0.5759567307692308,-2.0041596989966557,-0.1,1.052079849498328
0.5839561298076923,-2.0389396948160536,-0.1,1.0694698474080269
0.5919555288461539,-2.0737196906354516,-0.1,1.086859845317726
0.5999549278846154,-2.2954927884615373,-0.1,1.2954927884615375
0.6079543269230769,-2.509527551775148,0.104763775887574,1.509527551775148
0.6159537259615385,-2.5249110114644973,0.1124555057322486,1.5249110114644973
0.623953125,-2.5402944711538464,0.12014723557692311,1.5402944711538462
0.6319525240384616,-2.5556779308431956,0.1278389654215977,1.5556779308431954
0.6399519230769231,-2.5710613905325443,0.1355306952662722,1.5710613905325443
0.6479513221153846,-2.5864448502218935,0.1432224251109468,1.5864448502218935
0.6559507211538461,-2.6018283099112427,0.1509141549556213,1.6018283099112425
0.6639501201923077,-2.617211769600592,0.15860588480029592,1.6172117696005919
0.6719495192307693,-2.632595229289941,0.1662976146449705,1.632595229289941
0.6799489182692308,-2.6479786889792902,0.173989344489645,1.64797868897929
0.6879483173076923,-2.6633621486686394,0.18168107433431963,1.6633621486686392
0.6959477163461538,-2.678745608357988,0.1893728041789941,1.6787456083579881
0.7039471153846154,-2.6941290680473378,0.1970645340236687,1.6941290680473373
0.7119465144230769,-2.338930288461538,0.6389302884615383,1.6
0.7199459134615385,-2.49891826923077,0.7989182692307699,1.6
0.7279453125,-2.529068216463415,0.809689405487805,1.5903105945121951
0.7359447115384615,-2.5583343105065666,0.8194447701688555,1.5805552298311445
0.7439441105769231,-2.5876004045497187,0.8292001348499063,1.5707998651500938
0.7519435096153846,-2.6168664985928705,0.8389554995309568,1.5610445004690432
0.7599429086538462,-2.6461325926360226,0.8487108642120076,1.5512891357879925
0.7679423076923078,-2.6753986866791744,0.8584662288930582,1.541533771106942
0.7759417067307692,-2.704664780722326,0.8682215935741088,1.5317784064258912
0.7839411057692308,-2.7339308747654782,0.8779769582551595,1.5220230417448406
0.7919405048076923,-2.76319696880863,0.8877323229362101,1.51226767706379
0.7999399038461539,-2.792463062851782,0.8974876876172608,1.5025123123827393
0.8079393028846154,-3.5911940354567315,0.8009784405048076,1.598043118990385
0.8159387019230769,-3.5161996694711544,0.8093111478365385,1.5813777043269233
0.8239381009615385,-3.4412053034855767,0.8176438551682693,1.5647122896634615
0.8319375,-3.3662109375000004,0.8259765625,1.548046875
0.8399368990384616,-3.2912165715144233,0.8343092698317308,1.5313814603365385
0.8479362980769231,-3.216222205528847,0.8426419771634615,1.514716045673077
0.8559356971153846,-3.1412278395432693,0.8509746844951923,1.4980506310096153
0.8639350961538461,-3.066233473557693,0.8593073918269231,1.481385216346154
0.8719344951923077,-2.991239107572116,0.8676400991586538,1.4647198016826923
0.8799338942307693,-2.9162447415865382,0.8759728064903847,1.4480543870192306
0.8879332932692308,-2.841250375600962,0.8843055138221154,1.4313889723557693
0.8959326923076923,-2.7662560096153848,0.8926382211538462,1.4147235576923076
0.9039320913461538,-2.420372596153862,0.9,1.4
0.9119314903846154,-2.1,1.0030857793522268,1.29074266194332
0.9199308894230769,-2.1,1.0115061993927126,1.2654814018218625
0.9279302884615385,-2.1,1.0199266194331984,1.240220141700405
0.9359296875,-2.1,1.0283470394736842,1.2149588815789474
0.9439290865384615,-2.1,1.03676745951417,1.18969762145749
0.9519284855769231,-2.1,1.0451878795546559,1.1644363613360325
0.9599278846153846,-2.1,1.0536082995951417,1.139175101214575
0.9679272836538462,-2.1,1.0620287196356275,1.1139138410931175
0.9759266826923078,-2.1,1.0704491396761135,1.0886525809716598
0.9839260817307692,-2.1,1.0788695597165994,1.0633913208502024
0.9919254807692308,-2.1,1.0872899797570852,1.038130060728745
0.9999248798076923,-2.1,1.095710399797571,1.0128688006072875
1.0079242788461538,2.4978966346154916,1.1689302884615327,1.6469951923077082
1.0159236778846155,7.38352691409058,0.7252903711358692,2.2252903711358694
1.023923076923077,7.248957584471602,0.5234363767074026,2.0234363767074024
1.0319224759615384,7.114388254852624,0.3215823822789359,1.8215823822789359
1.039921875,6.9798189252336424,0.11972838785046347,1.6197283878504636
1.0479212740384616,6.845249595614664,-0.08212560657800327,1.4178743934219968
1.055920673076923,6.710680265995687,-0.28397960100647,1.21602039899353
1.0639200721153845,6.576110936376709,-0.48583359543493676,1.0141664045650634
1.0719194711538462,6.441541606757728,-0.687687589863409,0.8123124101365911
1.0799188701923077,6.306972277138749,-0.8895415842918758,0.6104584157081243
1.0879182692307692,6.172402947519772,-1.0913955787203427,0.40860442127965757
1.0959176682692309,6.03783361790079,-1.293249573148815,0.2067504268511855
1.1039170673076923,5.903264288281813,-1.4951035675772815,0.004896432422718533
1.1119164663461538,5.768694958662834,-1.6969575620057484,-0.196957562005748
1.1199158653846153,-0.4322355769230261,-0.13177884615386776,-0.7658894230769339
1.127915264423077,-3.072037259615442,0.9881370192307936,-0.20593149038460323
1.1359146634615385,-3.012059294871795,1.2638221153846156,-0.11205929487179479
1.1439140625,-2.680095615671645,1.2277635261194038,-0.06904151119403015
1.1519134615384616,-2.309974167623417,1.144187715269804,-0.03322330654420162
1.159912860576923,-1.939852719575199,1.0606119044202063,0.002594898105625909
1.1679122596153846,-1.569731271526981,0.9770360935706086,0.03841310275545343
1.175911658653846,-1.1996098234787633,0.8934602827210111,0.07423130740528097
1.1839110576923078,-0.8294883754305351,0.8098844718714112,0.11004951205510949
1.1919104567307692,-0.4593669273823173,0.7263086610218137,0.145867716704937
1.1999098557692307,-0.08924547933409954,0.642732850172216,0.18168592135476455
1.2079092548076924,0.4254447115384565,0.4,0.24181490384615217
1.2159086538461539,-0.3318146243291597,0.3954550536672629,0.2863651610017887
1.2239080528846153,-0.3969260118515205,0.38615342687835424,0.25846028063506266
1.231907451923077,-0.46203739937388305,0.3768518000894453,0.23055540026833582
1.2399068509615385,-0.5271487868962439,0.36755017330053663,0.20265051990160976
1.24790625,-0.5922601744186047,0.3582485465116279,0.17474563953488373
1.2559056490384615,-0.6573715619409655,0.34894691972271924,0.14684075916815767
1.2639050480769232,-0.722482949463328,0.3396452929338103,0.11893587880143086
1.2719044471153846,-0.7875943369856888,0.3303436661449016,0.0910309984347048
1.2799038461538461,-0.8527057245080496,0.3210420393559929,0.06312611806797874
1.2879032451923078,-0.9178171120304122,0.31174041256708396,0.035221237701251906
1.2959026442307693,-0.982928499552773,0.3024387857781753,0.0073163573345259025
1.3039020432692308,-0.10085908882783888,-0.2,-0.29914091117216113
1.3119014423076922,-0.1084775641025641,-0.2,-0.29152243589743587
1.319900841346154,-0.11609603937728953,-0.2,-0.28390396062271045
1.3279002403846154,-0.12371451465201475,-0.2,-0.27628548534798525
1.3358996394230769,-0.13133298992673997,-0.2,-0.26866701007326005
1.3438990384615386,-0.1389514652014654,-0.2,-0.2610485347985346
1.3518984375,-0.1465699404761906,-0.2,-0.2534300595238094
1.3598978365384615,-0.1541884157509158,-0.2,-0.2458115842490842
1.367897235576923,-0.16180689102564103,-0.2,-0.23819310897435897
1.3758966346153847,-0.16942536630036648,-0.2,-0.23057463369963355
1.3838960336538462,-0.17704384157509168,-0.2,-0.22295615842490835
1.3918954326923076,-0.18466231684981688,-0.2,-0.21533768315018315
1.3998948317307693,-0.1922807921245423,-0.2,-0.20771920787545772
1.4078942307692308,-0.19989926739926753,-0.2,-0.2001007326007325
1.4158936298076923,-0.29438130134428686,-0.1,0.0
1.4238930288461538,-0.27884848767737136,-0.1,0.0
1.4318924278846155,-0.26331567401045547,-0.1,0.0
1.439891826923077,-0.24778286034353997,-0.1,0.0
1.4478912259615384,-0.2322500466766245,-0.1,0.0
1.455890625,-0.21671723300970858,-0.1,0.0
1.4638900240384616,-0.20118441934279307,-0.1,0.0
1.471889423076923,-0.1856516056758776,-0.1,0.0
1.4798888221153845,-0.17011879200896213,-0.1,0.0
1.4878882211538462,-0.1545859783420462,-0.1,0.0
1.4958876201923077,-0.1390531646751307,-0.1,0.0
1.5038870192307692,-0.12352035100821523,-0.1,0.0
1.5118864182692309,-0.10798753734129932,-0.1,0.0
1.5198858173076923,-0.06114182692307674,-0.1,0.0
1.5278852163461538,-0.04426081730769523,-0.055739182692304774,0.0
1.5358846153846155,-0.1,0.0,0.0
1.543884014423077,-0.1,0.0,0.0
1.5518834134615385,-0.1,0.0,0.0
1.5598828125,-0.1,0.0,0.0
1.5678822115384616,-0.1,0.0,0.0
1.575881610576923,-0.1,0.0,0.0
1.5838810096153846,-0.1,0.0,0.0
1.5918804086538463,-0.1,0.0,0.0
1.5998798076923078,-0.1,0.0,0.0
1.6078792067307692,0.0,0.0,0.0
1.6158786057692307,0.0,0.0,0.0
1.6238780048076924,0.0,0.0,0.0
1.6318774038461539,0.0,0.0,0.0
1.6398768028846153,0.0,0.0,0.0
1.647876201923077,0.0,0.0,0.0
1.6558756009615385,0.0,0.0,0.0
1.663875,0.0,0.0,0.0
1.6718743990384615,0.0,0.0,0.0
1.6798737980769232,0.0,0.0,0.0
1.6878731971153846,0.0,0.0,0.0
1.6958725961538461,0.0,0.0,0.0
1.7038719951923078,0.0,0.0,0.0
1.7118713942307693,0.0,0.0,0.0
1.7198707932692308,0.0,0.0,0.0
1.7278701923076922,0.0,0.0,0.0
1.735869591346154,0.0,0.0,0.0
1.7438689903846154,0.0,0.0,0.0
1.7518683894230769,0.0,0.0,0.0
1.7598677884615386,0.0,0.0,0.0
1.7678671875,0.0,0.0,0.0
1.7758665865384615,0.0,0.0,0.0
1.783865985576923,0.0,0.0,0.0
1.7918653846153847,0.0,0.0,0.0
1.7998647836538462,0.0,0.0,0.0
1.8078641826923076,0.0,0.0,0.0
1.8158635817307693,0.0,0.0,0.0
1.8238629807692308,0.0,0.0,0.0
1.8318623798076923,0.0,0.0,0.0
1.8398617788461538,0.0,0.0,0.0
1.8478611778846155,0.0,0.0,0.0
1.855860576923077,0.0,0.0,0.0
1.8638599759615384,0.0,0.0,0.0
1.871859375,0.0,0.0,0.0
1.8798587740384616,0.0,0.0,0.0
1.887858173076923,0.0,0.0,0.0
1.8958575721153847,0.0,0.0,0.0
1.9038569711538462,0.0,0.0,0.0
1.9118563701923077,0.0,0.0,0.0
1.9198557692307692,0.0,0.0,0.0
1.9278551682692309,0.0,0.0,0.0
1.9358545673076923,0.0,0.0,0.0
1.9438539663461538,0.0,0.0,0.0
1.9518533653846155,0.0,0.0,0.0
1.959852764423077,0.0,0.0,0.0
1.9678521634615385,0.0,0.0,0.0
1.9758515625,0.0,0.0,0.0
1.9838509615384616,0.0,0.0,0.0
1.991850360576923,0.0,0.0,0.0
1.9998497596153846,0.0,0.0,0.0
2.0078491586538463,-0.004051745951417123,0.0,0.0
2.0158485576923075,-0.012472165991902635,0.0,0.0
2.0238479567307692,-0.020892586032388614,0.0,0.0
2.031847355769231,-0.029313006072874594,0.0,0.0
2.039846754807692,-0.037733426113360106,0.0,0.0
2.047846153846154,-0.04615384615384609,0.0,0.0
2.0558455528846156,-0.05457426619433207,0.0,0.0
2.063844951923077,-0.06299468623481758,0.0,0.0
2.0718443509615385,-0.07141510627530356,0.0,0.0
2.07984375,-0.07983552631578954,0.0,0.0
2.0878431490384615,-0.08825594635627505,0.0,0.0
2.095842548076923,-0.09667636639676103,0.0,0.0
2.103841947115385,-0.1,0.0,0.0
2.111841346153846,0.0,0.0,0.0
2.119840745192308,0.0,0.0,0.0
2.127840144230769,0.0,0.0,0.0
2.1358395432692308,0.0,0.0,0.0
2.1438389423076925,0.0,0.0,0.0
2.1518383413461537,0.0,0.0,0.0
2.1598377403846154,0.0,0.0,0.0
2.167837139423077,0.0,0.0,0.0
2.1758365384615383,0.0,0.0,0.0
2.1838359375,0.0,0.0,0.0
2.1918353365384617,0.0,0.0,0.0
2.199834735576923,0.0,0.0,0.0
2.2078341346153847,0.0,0.0,0.0
2.2158335336538464,0.0,0.0,0.0
2.2238329326923076,0.0,0.0,0.0
2.2318323317307693,0.0,0.0,0.0
2.2398317307692306,0.0,0.0,0.0
2.2478311298076923,0.0,0.0,0.0
2.255830528846154,0.0,0.0,0.0
2.2638299278846152,0.0,0.0,0.0
2.271829326923077,0.0,0.0,0.0
2.2798287259615386,0.0,0.0,0.0
2.287828125,0.0,0.0,0.0
2.2958275240384616,0.0,0.0,0.0
2.3038269230769233,0.0,0.0,0.0
2.3118263221153845,-0.1,0.0,0.00550881410256383
2.319825721153846,-0.1,0.0,0.05883814102564137
2.327825120192308,-0.09774676519468167,0.0,0.09774676519468167
2.335824519230769,-0.08787096391263075,0.0,0.08787096391263075
2.343823918269231,-0.07799516263057926,0.0,0.07799516263057926
2.351823317307692,-0.06811936134852832,0.0,0.06811936134852832
2.359822716346154,-0.05824356006647684,0.0,0.05824356006647684
2.3678221153846155,-0.04836775878442536,0.0,0.04836775878442536
2.3758215144230768,-0.03849195750237443,0.0,0.03849195750237443
2.3838209134615385,-0.028616156220322944,0.0,0.028616156220322944
2.3918203125,-0.01874035493827146,0.0,0.01874035493827146
2.3998197115384614,-0.008864553656220533,0.0,0.008864553656220533
2.407819110576923,0.04095552884615834,0.0,0.0
2.415818509615385,0.0,0.0,0.0
2.423817908653846,0.0,0.0,0.0
2.4318173076923078,0.0,0.0,0.0
2.4398167067307694,0.0,0.0,0.0
2.4478161057692307,0.0,0.0,0.0
2.4558155048076924,0.0,0.0,0.0
2.463814903846154,0.0,0.0,0.0
2.4718143028846153,0.0,0.0,0.0
2.479813701923077,0.0,0.0,0.0
2.4878131009615383,0.0,0.0,0.0
2.4958125,0.0,0.0,0.0
2.5038118990384617,0.0,0.0,0.0
2.511811298076923,0.0,0.0,0.0
2.5198106971153846,0.0,0.0,0.0
2.5278100961538463,0.0,0.0,0.0
2.5358094951923076,0.0,0.0,0.0
2.5438088942307693,0.0,0.0,0.0
2.551808293269231,0.0,0.0,0.0
2.5598076923076922,0.0,0.0,0.0
2.567807091346154,0.0,0.0,0.0
2.5758064903846156,0.0,0.0,0.0
2.583805889423077,0.0,0.0,0.0
2.5918052884615386,0.0,0.0,0.0
2.5998046875,0.0,0.0,0.0
2.6078040865384615,0.0,0.0,0.0
2.615803485576923,0.0,0.0,0.0
2.6238028846153845,0.06802884615384619,0.0,0.06802884615384619
2.631802283653846,0.1,0.0,0.09333016159188004
2.639801682692308,0.1,0.0,0.08221988514957213
2.647801081730769,0.1,0.0,0.07110960870726485
2.655800480769231,0.1,0.0,0.05999933226495694
2.6637998798076925,0.1,0.0,0.04888905582264904
2.6717992788461538,0.1,0.0,0.03777877938034176
2.6797986778846155,0.1,0.0,0.026668502938033856
2.687798076923077,0.1,0.0,0.015558226495725955
2.6957974759615384,0.1,0.0,0.0044479500534186645
2.703796875,0.0,0.0,0.0
2.7117962740384614,0.0,0.0,0.0
2.719795673076923,0.0,0.0,0.0
2.7277950721153847,0.0,0.0,0.0
2.735794471153846,0.0,0.0,0.0
2.7437938701923077,0.0,0.0,0.0
2.7517932692307694,0.0,0.0,0.0
2.7597926682692306,0.0,0.0,0.0
2.7677920673076923,0.0,0.0,0.0
2.775791466346154,0.0,0.0,0.0
2.7837908653846153,0.0,0.0,0.0
2.791790264423077,0.0,0.0,0.0
2.7997896634615387,0.0,0.0,0.0
2.8077890625,0.09601151315789463,0.0,0.0
2.8157884615384616,0.08759109311740866,0.0,0.0
2.8237878605769233,0.07917067307692267,0.0,0.0
2.8317872596153846,0.07075025303643717,0.0,0.0
2.8397866586538463,0.062329832995951184,0.0,0.0
2.8477860576923075,0.053909412955465676,0.0,0.0
2.8557854567307692,0.045488992914979695,0.0,0.0
2.863784855769231,0.03706857287449371,0.0,0.0
2.871784254807692,0.028648152834008206,0.0,0.0
2.879783653846154,0.02022773279352222,0.0,0.0
2.8877830528846156,0.011807312753036245,0.0,0.0
2.895782451923077,0.003386892712550729,0.0,0.0
2.9037818509615385,0.0,0.0,0.0
2.91178125,0.0,0.0,0.0
2.9197806490384615,0.0,0.0,0.0
2.927780048076923,0.0,0.0,0.0
2.935779447115385,0.0,0.0,0.0
2.943778846153846,0.0,0.0,0.0
2.951778245192308,0.0,0.0,0.0
2.959777644230769,0.0,0.0,0.0
2.9677770432692308,0.0,0.0,0.0
2.9757764423076924,0.0,0.0,0.0
2.9837758413461537,0.0,0.0,0.0
2.9917752403846154,0.0,0.0,0.0
2.999774639423077,0.0,0.0,0.0
3.0077740384615383,0.0,0.0,0.0
3.0157734375,0.0,0.0,0.0
3.0237728365384617,0.0,0.0,0.0
3.031772235576923,0.0,0.0,0.0
3.0397716346153847,0.0,0.0,0.0
3.0477710336538464,0.0,0.0,0.0
3.0557704326923076,0.0,0.0,0.0
3.0637698317307693,0.0,0.0,0.0
3.071769230769231,0.0,0.0,0.0
3.0797686298076923,0.0,0.0,0.0
3.087768028846154,0.0,0.0,0.0
3.0957674278846152,0.0,0.0,0.0
3.103766826923077,0.0,0.0,0.0
3.1117662259615386,0.0,0.0,0.0
3.119765625,0.0,0.0,0.0
3.1277650240384616,0.0,0.0,0.0
3.1357644230769233,0.0,0.0,0.0
3.1437638221153845,0.0,0.0,0.0
3.151763221153846,0.0,0.0,0.0
3.159762620192308,0.0,0.0,0.0
3.167762019230769,0.0,0.0,0.0
3.175761418269231,0.0,0.0,0.0
3.1837608173076926,0.0,0.0,0.0
3.191760216346154,0.0,0.0,0.0
3.1997596153846155,0.0,0.0,0.0
3.2077590144230768,0.0,0.0,0.0
3.2157584134615385,0.0,0.0,0.0
3.2237578125,0.0,0.0,0.0
3.2317572115384614,0.0,0.0,0.0
3.239756610576923,0.0,0.0,0.0
3.247756009615385,0.0,0.0,0.0
3.255755408653846,0.0,0.0,0.0
3.2637548076923077,0.0,0.0,0.0
3.2717542067307694,0.0,0.0,0.0
3.2797536057692307,0.0,0.0,0.0
3.2877530048076924,0.0,0.0,0.0
3.295752403846154,0.0,0.0,0.0
3.3037518028846153,0.0,0.0,0.0
3.311751201923077,0.0,0.0,0.0
3.3197506009615383,0.0,0.0,0.0
3.32775,0.0,0.0,0.0
3.3357493990384617,0.0,0.0,0.0
3.343748798076923,0.0,0.0,0.0
3.3517481971153846,0.0,0.0,0.0
3.3597475961538463,0.0,0.0,0.0
3.3677469951923076,0.0,0.0,0.0
3.3757463942307693,0.0,0.0,0.0
3.383745793269231,0.0,0.0,0.0
3.3917451923076922,0.0,0.0,0.0
3.399744591346154,0.0,0.0,0.0
3.4077439903846156,0.0,0.0,0.0
3.415743389423077,0.0,0.0,0.0
3.4237427884615386,0.0,0.0,0.0
3.4317421875000003,0.0,0.0,0.0
3.4397415865384615,0.0,0.0,0.0
3.447740985576923,0.0,0.0,0.0
3.4557403846153845,0.0,0.0,0.0
3.463739783653846,0.0,0.0,0.0
3.471739182692308,0.0,0.0,0.0
3.479738581730769,0.0,0.0,0.0
3.487737980769231,0.0,0.0,0.0
3.4957373798076925,0.0,0.0,0.0
3.5037367788461538,0.0,0.0,0.0
3.5117361778846155,0.0,0.0,0.0
3.519735576923077,0.0,0.0,0.0
3.5277349759615384,0.0,0.0,0.0
3.535734375,0.0,0.0,0.0
3.543733774038462,0.0,0.0,0.0
3.551733173076923,0.0,0.0,0.0
3.5597325721153847,0.0,0.0,0.0
3.567731971153846,0.0,0.0,0.0
3.5757313701923077,0.0,0.0,0.0
3.5837307692307694,0.0,0.0,0.0
3.5917301682692306,0.0,0.0,0.0
3.5997295673076923,0.0,0.0,0.0
3.607728966346154,0.0,0.0,0.0
3.6157283653846153,0.0,0.0,0.0
3.623727764423077,0.0,0.0,0.0
3.6317271634615387,0.0,0.0,0.0
3.6397265625,0.0,0.0,0.0
3.6477259615384616,0.0,0.0,0.0
3.6557253605769233,0.0,0.0,0.0
3.6637247596153846,0.0,0.0,0.0
3.6717241586538463,0.0,0.0,0.0
3.6797235576923075,0.0,0.0,0.0
3.687722956730769,0.0,0.0,0.0
3.695722355769231,0.0,0.0,0.0
3.703721754807692,0.0,0.0,0.0
3.711721153846154,0.0,0.0,0.0
3.7197205528846156,0.0,0.0,0.0
3.727719951923077,0.0,0.0,0.0
3.7357193509615385,0.0,0.0,0.0
3.74371875,0.0,0.0,0.0
3.7517181490384615,0.0,0.0,0.0
3.759717548076923,0.0,0.0,0.0
3.767716947115385,0.0,0.0,0.0
3.775716346153846,0.0,0.0,0.0
3.783715745192308,0.0,0.0,0.0
3.7917151442307695,0.0,0.0,0.0
3.7997145432692307,0.0,0.0,0.0
3.8077139423076924,0.0,0.0,0.0
3.8157133413461537,0.0,0.0,0.0
3.8237127403846154,0.0,0.0,0.0
3.831712139423077,0.0,0.0,0.0
3.8397115384615383,0.0,0.0,0.0
3.8477109375,0.0,0.0,0.0
3.8557103365384617,0.0,0.0,0.0
3.863709735576923,0.0,0.0,0.0
3.8717091346153847,0.0,0.0,0.0
3.8797085336538464,0.0,0.0,0.0
3.8877079326923076,0.0,0.0,0.0
3.8957073317307693,0.0,0.0,0.0
3.903706730769231,-0.0006997334348821825,0.0,0.0
3.9117061298076923,-0.008619930502665638,0.0,0.0
3.919705528846154,-0.016540127570449533,0.0,0.0
3.9277049278846152,-0.02446032463823299,0.0,0.0
3.935704326923077,-0.032380521706016886,0.0,0.0
3.9437037259615386,-0.04030071877380078,0.0,0.0
3.951703125,-0.048220915841584236,0.0,0.0
3.9597025240384616,-0.05614111290936813,0.0,0.0
3.9677019230769233,-0.06406130997715202,0.0,0.0
3.9757013221153845,-0.07198150704493549,0.0,0.0
3.983700721153846,-0.07990170411271938,0.0,0.0
3.991700120192308,-0.08782190118050327,0.0,0.0
3.999699519230769,-0.09574209824828672,0.0,0.0
4.007698918269231,0.0,0.0,0.0
4.0156983173076926,0.0,0.0,0.0
4.023697716346154,0.0,0.0,0.0
4.031697115384615,0.0,0.0,0.0
4.039696514423077,0.0,0.0,0.0
4.0476959134615385,0.0,0.0,0.0
4.0556953125,0.0,0.0,0.0
4.063694711538462,0.0,0.0,0.0
4.0716941105769235,0.0,0.0,0.0
4.079693509615384,0.0,0.0,0.0
4.087692908653846,0.0,0.0,0.0
4.095692307692308,0.0,0.0,0.0
4.103691706730769,0.0,0.0,0.0
4.111691105769231,0.0,0.0,0.0
4.119690504807692,-0.0027454130690734236,0.0,0.0
4.127689903846154,-0.01090806514913639,0.0,0.0
4.135689302884615,-0.019070717229199355,0.0,0.0
4.143688701923077,-0.02723336930926232,0.0,0.0
4.151688100961539,-0.03539602138932529,0.0,0.0
4.1596875,-0.04355867346938826,0.0,0.0
4.167686899038461,-0.05172132554945032,0.0,0.0
4.175686298076923,-0.05988397762951328,0.0,0.0
4.183685697115385,-0.06804662970957624,0.0,0.0
4.191685096153846,-0.07620928178963922,0.0,0.0
4.199684495192308,-0.08437193386970218,0.0,0.0
4.20768389423077,-0.09253458594976514,0.0,0.0
4.2156832932692305,-0.1,0.0,0.0
4.223682692307692,-0.1,0.0,0.0
4.231682091346154,-0.1,0.0,0.0
4.239681490384616,-0.08902644230769219,0.0,0.0
4.247680889423077,-0.07759872939560394,0.0,0.0
4.255680288461538,-0.06617101648351698,0.0,0.0
4.2636796875,-0.05474330357142874,0.0,0.0
4.2716790865384615,-0.0433155906593405,0.0,0.0
4.279678485576923,-0.03188787774725227,0.0,0.0
4.287677884615385,-0.020460164835164024,0.0,0.0
4.295677283653847,-0.009032451923075793,0.0,0.0
4.303676682692307,0.0,0.0,0.0
4.311676081730769,0.0,0.0,0.0
4.319675480769231,0.0,0.0,0.0
4.3276748798076925,0.0,0.0,0.0
4.335674278846154,0.0,0.0,0.0
4.343673677884615,0.0,0.0,0.0
4.351673076923077,0.0,0.0,0.0
4.359672475961538,0.0,0.0,0.0
4.367671875,0.0,0.0,0.0
4.375671274038462,0.0,0.0,0.0
4.3836706730769235,0.0,0.0,0.0
4.391670072115384,0.0,0.0,0.0
4.399669471153846,0.0,0.0,0.0
4.407668870192308,-0.1,0.0,0.0
4.415668269230769,-0.1,0.0,0.0
4.423667668269231,-0.1,0.0,0.0
4.431667067307693,-0.1,0.0,0.0
4.439666466346154,-0.1,0.0,0.0
4.447665865384615,-0.1,0.0,0.0
4.455665264423077,-0.1,0.0,0.0
4.463664663461539,-0.1,0.0,0.0
4.4716640625,-0.1,0.0,0.0
4.479663461538461,-0.1,0.0,0.0
4.487662860576923,-0.1,0.0,0.0
4.495662259615385,-0.1,0.0,0.0
4.503661658653846,-0.1,0.0,0.0
4.511661057692308,-0.1,0.0,0.0
4.51966045673077,-0.1,0.0,0.0
4.5276598557692305,-0.08866185897435999,0.0,0.0
4.535659254807692,-0.1,0.0,0.1
4.543658653846154,-0.1,0.0,0.1
4.551658052884616,-0.1,0.0,0.1
4.559657451923077,-0.1,0.0,0.1
4.567656850961539,-0.1,0.0,0.1
4.57565625,-0.1,0.0,0.1
4.5836556490384615,-0.1,0.0,0.1
4.591655048076923,-0.1,0.0,0.1
4.599654447115385,-0.1,0.0,0.1
4.6076538461538465,-0.1,0.0,0.1
4.615653245192307,-0.1,0.0,0.1
4.623652644230769,-0.1,0.0,0.1
4.631652043269231,-0.1,0.0,0.1
4.639651442307692,-0.1,0.0,0.1
4.647650841346154,-0.1,0.0,0.1
4.655650240384616,-0.09918719951923052,0.0,0.0
4.663649639423077,-0.08918795072115453,0.0,0.0
4.671649038461538,-0.0791887019230774,0.0,0.0
4.6796484375,-0.0691894531250003,0.0,0.0
4.687647836538462,-0.059190204326923186,0.0,0.0
4.695647235576923,-0.04919095552884608,0.0,0.0
4.703646634615384,-0.039191706730770076,0.0,0.0
4.711646033653846,-0.02919245793269297,0.0,0.0
4.719645432692308,-0.01919320913461585,0.0,0.0
4.727644831730769,-0.009193960336538742,0.0,0.0
4.735644230769231,0.0,0.0,0.0
4.743643629807693,-0.1,0.0,0.0
4.7516430288461535,-0.1,0.0,0.0
4.759642427884615,-0.1,0.0,0.0
4.767641826923077,-0.1,0.0,0.0
4.775641225961539,-0.1,0.0,0.0
4.783640625,-0.1,0.0,0.0
4.791640024038462,-0.1,0.0,0.0
4.799639423076923,-0.1,0.0,0.0
4.8076388221153845,-0.1,0.0,0.0
4.815638221153846,-0.1,0.0,0.0
4.823637620192308,-0.1,0.0,0.0
4.83163701923077,-0.1,0.0,0.0
4.83963641826923,-0.1,0.0,0.0
4.847635817307692,-0.1,0.0,0.0
4.855635216346154,-0.1,0.0,0.0
4.8636346153846155,-0.1,0.0,0.0
4.871634014423077,-0.1,0.0,0.0
4.879633413461539,-0.1,0.0,0.0
4.8876328125,-0.1,0.0,0.0
4.895632211538461,-0.1,0.0,0.0
4.903631610576923,-0.1,0.0,0.0
4.911631009615385,-0.1,0.0,0.0
4.9196304086538465,-0.1,0.0,0.0
4.927629807692308,-0.1,0.0,0.0
4.935629206730769,-0.1,0.0,0.0
4.943628605769231,-0.1,0.0,0.0
4.951628004807692,-0.1,0.0,0.0
4.959627403846154,-0.1,0.0,0.0
4.967626802884616,-0.1,0.0,0.0
4.975626201923077,-0.1,0.0,0.0
4.983625600961538,-0.1,0.0,0.0
4.991625,-0.1,0.0,0.0
4.999624399038462,-0.1,0.0,0.0
5.007623798076923,-0.1,0.0,0.0
5.015623197115385,-0.1,0.0,0.0
5.023622596153846,-0.1,0.0,0.0
5.031621995192308,-0.1,0.0,0.0
5.039621394230769,-0.1,0.0,0.0
5.047620793269231,-0.1,0.0,0.0
5.055620192307693,-0.1,0.0,0.0
5.0636195913461535,-0.1,0.0,0.0
5.071618990384615,-0.1,0.0,0.0
5.079618389423077,-0.1,0.0,0.0
5.087617788461539,-0.1,0.0,0.0
5.0956171875,-0.1,0.0,0.0
5.103616586538462,-0.1,0.0,0.0
5.111615985576923,-0.1,0.0,0.0
5.1196153846153845,-0.1,0.0,0.0
5.127614783653846,-0.1,0.0,0.0
5.135614182692308,-0.1,0.0,0.0
5.1436135817307695,-0.1,0.0,0.0
5.151612980769231,-0.1,0.0,0.0
5.159612379807692,-0.1,0.0,0.0
5.167611778846154,-0.1,0.0,0.0
5.175611177884615,-0.1,0.0,0.0
5.183610576923077,-0.1,0.0,0.0
5.191609975961539,-0.1,0.0,0.0
5.199609375,-0.1,0.0,0.0
5.207608774038461,-0.1,0.0,0.0
5.215608173076923,-0.1,0.0,0.0
5.223607572115385,-0.1,0.0,0.0
5.231606971153846,-0.1,0.02023237179488451,0.0
5.239606370192308,-0.1,0.1,0.0
5.247605769230769,-0.1,0.1,0.0
5.255605168269231,-0.1,0.1,0.0
5.263604567307692,-0.1,0.1,0.0
5.271603966346154,-0.1,0.1,0.0
5.279603365384616,-0.1,0.1,0.0
5.287602764423077,-0.1,0.1,0.0
5.295602163461538,-0.1,0.1,0.0
5.3036015625,-0.1,0.1,0.0
5.311600961538462,-0.1,0.1,0.0
5.319600360576923,-0.1,0.1,0.0
5.327599759615385,-0.1,0.1,0.0
5.335599158653846,-0.1,0.1,0.0
5.3435985576923075,-0.1,0.1,0.0
5.351597956730769,-0.1,0.1,0.0
5.359597355769231,-0.1,0.1,0.0
5.367596754807693,-0.1,0.1,0.0
5.375596153846154,-0.1,0.1,0.0
5.383595552884615,-0.1,0.1,0.0
5.391594951923077,-0.1,0.1,0.0
5.3995943509615385,-0.1,0.1,0.0
5.40759375,-0.1,0.1,0.0
5.415593149038462,-0.1,0.1,0.0
5.423592548076923,-0.1,0.1,0.0
5.431591947115384,-0.1,0.1,0.0
5.439591346153846,-0.2,0.1,0.0
5.447590745192308,-0.2,0.1,0.0
5.4555901442307695,-0.2,0.1,0.0
5.463589543269231,-0.2,0.1,0.0
5.471588942307692,-0.2,0.1,0.0
5.479588341346154,-0.2,0.1,0.0
5.487587740384615,-0.2,0.1,0.0
5.495587139423077,-0.2,0.1,0.0
5.503586538461539,-0.2,0.1,0.0
5.5115859375000005,-0.2,0.1,0.0
5.519585336538461,-0.2,0.1,0.0
5.527584735576923,-0.2,0.1,0.0
5.535584134615385,-0.2,0.1,0.0
5.543583533653846,-0.2,0.1,0.0
5.551582932692308,-0.2,0.1,0.0
5.559582331730769,-0.2,0.1,0.0
5.567581730769231,-0.2,0.1,0.0
5.575581129807692,-0.2,0.1,0.0
5.583580528846154,-0.2,0.1,0.0
5.591579927884616,-0.2,0.1,0.0
5.599579326923077,-0.2,0.1,0.0
5.607578725961538,-0.2,0.1,0.0
5.615578125,-0.2,0.1,0.0
5.623577524038462,-0.2,0.1,0.0
5.631576923076923,-0.28589743589745337,0.1,0.0
5.639576322115385,-0.2,0.1,0.0
5.647575721153847,-0.2,0.1,0.0
5.6555751201923075,-0.2,0.1,0.0
5.663574519230769,-0.2,0.1,0.0
5.671573918269231,-0.2,0.1,0.0
5.6795733173076925,-0.2,0.1,0.0
5.687572716346154,-0.2,0.1,0.0
5.695572115384615,-0.2,0.1,0.0
5.703571514423077,-0.2,0.1,0.0
5.7115709134615384,-0.2,0.1,0.0
5.7195703125,-0.2,0.1,0.0
5.727569711538462,-0.2,0.1,0.0
5.7355691105769235,-0.22974258814102883,0.1,0.0
5.743568509615384,-0.29640424679487126,0.1,0.0
5.751567908653846,-0.3,0.1,-0.006010406123481741
5.759567307692308,-0.3,0.1,-0.016535931174089167
5.767566706730769,-0.3,0.1,-0.02706145622469659
5.775566105769231,-0.3,0.1,-0.037586981275304014
5.783565504807692,-0.3,0.1,-0.04811250632591027
5.791564903846154,-0.3,0.1,-0.0586380313765177
5.799564302884615,-0.3,0.1,-0.06916355642712513
5.807563701923077,-0.3,0.1,-0.07968908147773254
5.815563100961539,-0.3,0.1,-0.09021460652833997
5.8235625,-0.3,0.1,-0.08124999999999445
5.831561899038461,-0.4,0.2,-0.1
5.839561298076923,-0.4,0.2,-0.1
5.847560697115385,-0.4,0.2,-0.1
5.855560096153846,-0.4,0.2,-0.1
5.863559495192308,-0.4,0.2,-0.1
5.87155889423077,-0.4,0.2,-0.1
5.8795582932692305,-0.4,0.2,-0.1
5.887557692307692,-0.4,0.2,-0.1
5.895557091346154,-0.4,0.2,-0.1
5.903556490384616,-0.4,0.2,-0.1
5.911555889423077,-0.4,0.2,-0.1
5.919555288461538,-0.4,0.2,-0.1
5.9275546875,-0.4,0.2,-0.1
5.9355540865384615,-0.5,0.2,-0.2554086538461512
5.943553485576923,-0.6,0.2,-0.2923796679338105
5.951552884615385,-0.6,0.2,-0.2830780411449015
5.959552283653847,-0.6,0.2,-0.2737764143559925
5.967551682692307,-0.6,0.2,-0.2644747875670845
5.975551081730769,-0.6,0.2,-0.2551731607781755
5.983550480769231,-0.6,0.2,-0.24587153398926648
5.9915498798076925,-0.6,0.2,-0.23656990720035748
5.999549278846154,-0.6,0.2,-0.22726828041144845
6.007548677884616,-0.6,0.2,-0.21796665362253945
6.015548076923077,-0.6,0.2,-0.20866502683363147
6.023547475961538,-0.6,0.2,-0.181750801282044
6.031546875,-0.8,0.2,-0.2
6.039546274038462,-0.8,0.2,-0.2
6.0475456730769235,-0.8,0.2,-0.2
6.055545072115384,-0.8,0.2,-0.2
6.063544471153846,-0.8,0.2,-0.2
6.071543870192308,-0.8,0.2,-0.2
6.079543269230769,-0.8,0.2,-0.2
6.087542668269231,-0.8,0.2,-0.2
6.095542067307693,-0.8,0.2,-0.2
6.103541466346154,-0.8,0.2,-0.2
6.111540865384615,-0.8,0.2,-0.2
6.119540264423077,-0.8,0.2,-0.2
6.127539663461539,-0.8,0.2,-0.2
6.1355390625,-0.8,0.2,-0.2
6.143538461538462,-0.8,0.2,-0.2
6.151537860576923,-0.8,0.2,-0.2
6.159537259615385,-0.8594296328671356,0.2,-0.14057036713286444
6.167536658653846,-0.9,0.3,-0.11536658653845924
6.175536057692308,-0.9,0.3,-0.1953605769230779
6.18353545673077,-0.9,0.3,-0.21345617273351697
6.1915348557692305,-0.9,0.3,-0.22774081387362552
6.199534254807692,-0.9,0.3,-0.24202545501373568
6.207533653846154,-0.9,0.3,-0.2563100961538458
6.2155330528846156,-0.9,0.3,-0.270594737293956
6.223532451923077,-0.9,0.3,-0.28487937843406613
6.231531850961539,-0.9,0.3,-0.2991640195741763
6.23953125,-0.9506249999999942,0.4,-0.5506249999999941
6.2475306490384614,-1.0062848284527972,0.4062848284527971,-0.5874303430944058
6.255530048076923,-1.0153750546328673,0.4153750546328672,-0.5692498907342656
6.263529447115385,-1.0244652808129373,0.42446528081293733,-0.5510694383741254
6.2715288461538465,-1.0335555069930074,0.43355550699300743,-0.5328889860139852
6.279528245192307,-1.0426457331730765,0.44264573317307654,-0.5147085336538471
6.287527644230769,-1.0517359593531466,0.4517359593531466,-0.4965280812937068
6.295527043269231,-1.0608261855332168,0.4608261855332167,-0.4783476289335666
6.303526442307692,-1.0699164117132869,0.4699164117132868,-0.46016717657342643
6.311525841346154,-1.079006637893357,0.4790066378933569,-0.4419867242132862
6.319525240384616,-1.0880968640734272,0.488096864073427,-0.423806271853146
6.327524639423077,-1.0971870902534961,0.4971870902534961,-0.4056258194930078
6.335524038461538,-1.1475961538461807,0.6,-0.04759615384618075
6.3435234375,-1.0919102822580649,0.6080897177419352,0.008089717741935197
6.351522836538462,-1.083308777915633,0.6166912220843671,0.01669122208436713
6.359522235576923,-1.074707273573201,0.625292726426799,0.025292726426799066
6.367521634615385,-1.0661057692307692,0.633894230769231,0.033894230769231
6.375521033653846,-1.0575042648883382,0.6424957351116619,0.04249573511166198
6.383520432692308,-1.048902760545906,0.6510972394540939,0.05109723945409392
6.391519831730769,-1.0403012562034741,0.6596987437965258,0.05969874379652585
6.399519230769231,-1.0316997518610422,0.6683002481389577,0.06830024813895778
6.407518629807693,-1.0230982475186103,0.6769017524813896,0.07690175248138972
6.4155180288461535,-1.0144967431761793,0.6855032568238206,0.08550325682382069
6.423517427884615,-1.0058952388337474,0.6941047611662526,0.09410476116625263
6.431516826923077,-0.9720352564102578,0.7279647435897422,0.15592948717948435
6.439516225961539,-0.8,0.7,0.42581129807693047
6.447515625,-0.807082201086957,0.692917798913043,0.5
6.455515024038462,-0.8157772000418066,0.6842227999581934,0.5
6.463514423076923,-0.8244721989966552,0.6755278010033448,0.5
6.4715138221153845,-0.833167197951505,0.666832802048495,0.5
6.479513221153846,-0.8418621969063546,0.6581378030936454,0.5
6.487512620192308,-0.8505571958612042,0.6494428041387958,0.5
6.49551201923077,-0.8592521948160537,0.6407478051839463,0.5
6.503511418269231,-0.8679471937709033,0.6320528062290967,0.5
6.511510817307692,-0.8766421927257521,0.6233578072742479,0.5
6.519510216346154,-0.8853371916806017,0.6146628083193983,0.5
6.5275096153846155,-0.8940321906354513,0.6059678093645487,0.5
6.535509014423077,-0.9,0.5498197115384623,0.4498197115384624
6.543508413461539,-0.8055867165242188,0.4,0.3
6.5515078125,-0.8352141203703698,0.4,0.3
6.559507211538461,-0.864841524216524,0.4,0.3
6.567506610576923,-0.8944689280626783,0.4,0.3
6.575506009615385,-0.9240963319088327,0.4,0.3
6.5835054086538465,-0.9537237357549869,0.4,0.3
6.591504807692308,-0.9833511396011412,0.4,0.3
6.599504206730769,-1.0584034455128128,0.34159655448718723,0.41680689102562557
6.607503605769231,-1.5012962118700266,0.29870378812997345,0.6987037881299734
6.615503004807692,-1.5081922455238728,0.29180775447612717,0.6918077544761272
6.623502403846154,-1.5150882791777192,0.28491172082228094,0.6849117208222809
6.631501802884616,-1.5219843128315653,0.27801568716843467,0.6780156871684346
6.639501201923077,-1.5288803464854108,0.27111965351458917,0.6711196535145891
6.647500600961538,-1.5357763801392572,0.26422361986074294,0.6642236198607429
6.6555,-1.5426724137931034,0.25732758620689666,0.6573275862068966
6.663499399038462,-1.5495684474469495,0.2504315525530504,0.6504315525530504
6.671498798076923,-1.556464481100796,0.24353551889920416,0.6435355188992041
6.679498197115385,-1.563360514754642,0.23663948524535788,0.6366394852453579
6.687497596153846,-1.5702565484084876,0.2297434515915124,0.6297434515915123
6.695496995192308,-1.577152582062334,0.22284741793766616,0.6228474179376662
6.703496394230769,-1.5840486157161802,0.21595138428381988,0.6159513842838199
6.711495793269231,-1.5909446493700266,0.20905535062997366,0.6090553506299736
6.719495192307693,-1.5978406830238727,0.20215931697612738,0.6021593169761273
6.727494591346154,-1.096162653348805,-0.4017054874005312,1.1004263718501328
6.735493990384615,-1.034098350464195,-0.42928962201591336,1.1073224055039783
6.743493389423077,-0.9720340475795782,-0.4568737566312986,1.1142184391578247
6.7514927884615386,-0.9099697446949614,-0.48445789124668387,1.121114472811671
6.7594921875,-0.8479054418103447,-0.5120420258620692,1.1280105064655173
6.767491586538462,-0.7858411389257278,-0.5396261604774544,1.1349065401193636
6.775490985576923,-0.7237768360411179,-0.5672102950928365,1.1418025737732092
6.7834903846153844,-0.661712533156501,-0.5947944297082217,1.1486986074270555
6.791489783653846,-0.5996482302718843,-0.622378564323607,1.1555946410809017
6.799489182692308,-0.5375839273872675,-0.6499626989389923,1.162490674734748
6.8074885817307695,-0.47551962450265073,-0.6775468335543775,1.1693867083885943
6.815487980769231,-0.4134553216180339,-0.7051309681697627,1.1762827420424407
6.823487379807692,-0.35139101873342393,-0.732715102785145,1.1831787756962862
6.831486778846154,-0.2893267158488072,-0.7602992374005302,1.1900748093501325
6.839486177884615,-0.22726241296419036,-0.7878833720159154,1.1969708430039787
6.847485576923077,-1.4190705128205268,-1.0971153846153678,2.548557692307684
6.855484975961539,-0.45226060326659534,-1.5809042413066383,3.6238696983667023
6.8634843750000005,-0.342679794520544,-1.5370719178082177,3.678660102739728
6.871483774038461,-0.23309898577450477,-1.493239594309802,3.7334505071127477
6.879483173076923,-0.12351817702845341,-1.4494072708113814,3.788240911485773
6.887482572115385,-0.013937368282401996,-1.4055749473129608,3.843031315858799
6.895481971153846,0.09564344046364937,-1.3617426238145403,3.8978217202318244
6.903481370192308,0.20522424920970073,-1.3179103003161197,3.9526121246048502
6.911480769230769,0.31480505795574,-1.274077976817704,4.007402528977869
6.919480168269231,0.42438586670179135,-1.2302456533192834,4.062192933350896
6.927479567307692,-0.47584134615399015,-0.6520432692307299,4.37992788461545
6.935478966346154,-1.4016328398164355,-0.5983671601835645,4.70272139969406
6.943478365384616,-1.4289035183566456,-0.5710964816433541,4.74817253059441
6.951477764423077,-1.456174196896856,-0.5438258031031439,4.7936236614947605
6.959477163461538,-1.4834448754370633,-0.5165551245629366,4.839074792395106
6.9674765625,-1.5107155539772736,-0.4892844460227263,4.884525923295456
6.975475961538462,-1.537986232517484,-0.462013767482516,4.929977054195807
6.983475360576923,-1.5652569110576942,-0.43474308894230573,4.975428185096157
6.991474759615385,-1.5925275895979045,-0.40747241040209536,5.020879315996508
6.999474158653846,-1.6197982681381118,-0.3802017318618881,5.0663304468968535
7.0074735576923075,-1.6470689466783222,-0.35293105332167785,5.1117815777972035
7.015472956730769,-1.6743396252185323,-0.32566037478146753,5.1572327086975545
7.023472355769231,-1.6527644230768943,-0.3,5.03467548076913
7.031471754807693,-2.794350961538476,0.023587740384619027,3.9175420673076857
7.039471153846154,-4.207340060929171,0.1706397562833144,4.377979817212486
7.047470552884615,-4.23110065213252,0.07559739146991863,4.306698043602439
7.055469951923077,-4.254861243335872,-0.01944497334348766,4.235416269992385
7.0634693509615385,-4.278621834539224,-0.11448733815689399,4.16413449638233
7.07146875,-4.302382425742575,-0.20952970297030027,4.092852722772275
7.079468149038462,-4.3261430169459265,-0.30457206778370655,4.0215709491622205
7.087467548076924,-4.349903608149278,-0.3996144325971129,3.9502891755521654
7.095466947115384,-4.3736641993526275,-0.49465679741050866,3.8790074019421183
7.103466346153846,-4.397424790555979,-0.5896991622239149,3.8077256283320637
7.111465745192308,-4.42118538175933,-0.6847415270373212,3.736443854722009
7.1194651442307695,-4.444945972962682,-0.7797838918507276,3.665162081111954
7.127464543269231,-4.468706564166034,-0.874826256664134,3.5938803075018995
7.135463942307692,-4.492467155369383,-0.9698686214775296,3.522598533891853
7.143463341346154,-4.363416466346155,-1.2048753004807666,3.5
7.151462740384615,-4.168369644595898,-0.997071263388509,7.900585747322299
7.159462139423077,-3.621575279941558,-0.9464421555501442,7.910711568889972
7.167461538461539,-3.0747809152872185,-0.8958130477117795,7.920837390457645
7.1754609375000005,-2.527986550632879,-0.8451839398734147,7.9309632120253175
7.183460336538461,-1.9811921859786001,-0.7945548320350555,7.941089033592989
7.191459735576923,-1.4343978213242603,-0.7439257241966908,7.951214855160662
7.199459134615385,-0.8876034566699209,-0.6932966163583261,7.961340676728335
7.207458533653846,-0.3408090920155815,-0.6426675085199612,7.9714664982960075
7.215457932692308,0.20598527263875788,-0.5920384006815964,7.9815923198636805
7.22345733173077,0.7527796372930977,-0.5414092928432317,7.991718141431353
7.231456730769231,1.2145673076923016,0.009855769230560307,7.504711538461741
7.239456129807692,1.2945612980769203,2.809645432692214,4.784915865384706
7.247455528846154,5.2905649038460085,-1.4638822115385652,-5.127223557692287
7.255454927884616,2.925287487006201,-3.121627306392942,-4.8
7.263454326923077,2.5145075363824967,-3.2405372920998037,-4.8
7.271453725961538,2.1037275857588376,-3.3594472778066526,-4.8
7.279453125,1.6929476351351327,-3.4783572635135145,-4.8
7.2874525240384616,1.282167684511428,-3.5972672492203763,-4.8
7.295451923076923,0.8713877338877234,-3.716177234927238,-4.8
7.303451322115385,0.46060778326401897,-3.8350872206341,-4.8
7.311450721153847,0.049827832640314096,-3.953997206340962,-4.8
7.3194501201923075,-0.36095211798334503,-4.07290719204781,-4.8
7.327449519230769,-0.7717320686070495,-4.191817177754673,-4.8
7.335448918269231,-1.3939102564103643,-4.318369391025648,-1.6571714743590686
7.3434483173076925,-1.7239769677996404,-3.479630199016097,-2.2366474731663666
7.351447716346154,-1.6123574463327333,-3.302899290026828,-2.1436312052772775
7.359447115384615,-1.5007379248658386,-3.126168381037578,-2.050614937388199
7.367446514423077,-1.3891184033989317,-2.9494374720483085,-1.9575986694991097
7.375445913461538,-1.2774988819320248,-2.772706563059039,-1.8645824016100205
7.3834453125,-1.1658793604651176,-2.5959756540697696,-1.7715661337209314
7.391444711538462,-1.0542598389982105,-2.4192447450805004,-1.678549865831842
7.3994441105769235,-0.9426403175313036,-2.2425138360912307,-1.585533597942753
7.407443509615384,-0.8310207960644089,-2.065782927101981,-1.4925173300536743
7.415442908653846,-0.719401274597502,-1.8890520181127115,-1.3995010621645851
7.423442307692308,-0.6077817531305949,-1.712321109123442,-1.3064847942754958
7.431441706730769,-2.3015842931107358,0.10316858622147189,0.09049424133558436
7.439441105769231,-2.31037484150465,0.12074968300929975,0.03775095097210076
7.447440504807693,-2.3191653898985636,0.13833077979712763,-0.014992339391382836
7.455439903846154,-2.327955938292477,0.15591187658495353,-0.06773562975486058
7.463439302884615,-2.3367464866863905,0.1734929733727814,-0.12047892011834416
7.471438701923077,-2.3455370350803046,0.1910740701606093,-0.17322221048182776
7.479438100961539,-2.3543275834742183,0.20865516694843714,-0.2259655008453114
7.4874375,-2.3631181318681325,0.22623626373626501,-0.278708791208795
7.495436899038461,-2.3719086802620453,0.24381736052409092,-0.3314520815722727
7.503436298076923,-2.3806992286559594,0.2613984573119188,-0.38419537193575626
7.511435697115385,-2.389489777049873,0.2789795540997466,-0.43693866229923994
7.519435096153846,-2.398280325443787,0.29656065088757455,-0.4896819526627235
7.527434495192308,-3.321834935897283,-0.5498898237181243,0.5455228365386678
7.53543389423077,-1.6708351711361866,-2.312601446718421,2.59369927664079
7.5434332932692305,-1.3699403449188534,-2.341957039520112,2.5790214802399443
7.551432692307692,-1.069045518701487,-2.371312632321806,2.564343683839097
7.559432091346154,-0.7681506924841204,-2.4006682251235003,2.5496658874382496
7.567431490384616,-0.46725586626675364,-2.4300238179251945,2.5349880910374027
7.575430889423077,-0.16636104004938712,-2.459379410726889,2.5203102946365554
7.583430288461539,0.1345337861679794,-2.4887350035285833,2.505632498235708
7.5914296875,0.4354286123853124,-2.5180905963302744,2.4909547018348626
7.5994290865384615,0.7363234386026793,-2.5474461891319686,2.4762769054340157
7.607428485576923,1.0372182648200459,-2.5768017819336633,2.4615991090331684
7.615427884615385,1.3381130910374124,-2.6061573747353575,2.4469213126323215
7.623427283653847,1.639007917254779,-2.6355129675370517,2.432243516231474
7.631426682692307,1.9399027434721121,-2.6648685603387428,2.4175657198306286
7.639426081730769,2.2407975696894784,-2.6942241531404374,2.4028879234297813
7.647425480769231,-7.495753205128241,-1.1510737179487593,0.6957532051282409
7.6554248798076925,-6.162520032051264,0.3954767628205351,-0.6374799679487366
7.663424278846154,-3.015521449704124,1.2947318786982245,-0.17365939349112258
7.671423677884616,-2.3509559911242235,1.2824251109467448,-0.11212555473372446
7.679423076923077,-1.6863905325443975,1.2701183431952667,-0.05059171597633316
7.687422475961538,-1.0218250739644978,1.257811575443787,0.010942122781064989
7.695421875,-0.35725961538459794,1.2455048076923074,0.07247596153846314
7.703421274038462,0.30730584319530196,1.2331980399408278,0.13400980029586124
7.7114206730769235,0.9718713017752023,1.2208912721893481,0.1955436390532594
7.719420072115384,1.6364367603550285,1.2085845044378698,0.2570774778106507
7.727419471153846,3.8699118589742745,0.913982371794855,0.4118589743588392
7.735418870192308,4.0,1.109302884615385,0.17674278846153785
7.743418269230769,4.0,1.126143724696357,0.13464068825910774
7.751417668269231,4.0,1.1429845647773291,0.09253858805667767
7.759417067307693,4.0,1.159825404858301,0.050436487854247564
7.767416466346154,4.0,1.1766662449392713,0.00833438765182215
7.775415865384615,4.0,1.1935070850202432,-0.033767712550607926
7.783415264423077,4.0,1.2103479251012152,-0.075869812753038
7.791414663461539,4.0,1.2271887651821873,-0.1179719129554681
7.7994140625,4.0,1.2440296052631594,-0.1600740131578982
7.807413461538462,4.0,1.2608704453441315,-0.2021761133603283
7.815412860576923,4.0,1.2777112854251016,-0.2442782135627537
7.823412259615385,4.0,1.2945521255060737,-0.2863803137651838
7.831411658653846,1.7662109375000847,0.6691256009615579,-0.3
7.839411057692308,0.5418322062552794,0.39030536770921326,-0.2903053677092132
7.84741045673077,0.43634562552831224,0.3727242709213854,-0.27272427092138535
7.8554098557692305,0.33085904480135675,0.3551431741335595,-0.25514317413355947
7.863409254807692,0.22537246407438954,0.3375620773457316,-0.2375620773457316
7.871408653846154,0.1198858833474224,0.31998098055790375,-0.21998098055790372
7.8794080528846155,0.01439930262045519,0.3023998837700759,-0.20239988377007584
7.887407451923077,-0.09108727810651207,0.284818786982248,-0.18481878698224796
7.895406850961539,-0.19657385883347922,0.2672376901944201,-0.1672376901944201
7.90340625,-0.3020604395604347,0.24965659340659424,-0.1496565934065942
7.911405649038461,-0.407547020287402,0.23207549661876636,-0.13207549661876633
7.919405048076923,-0.5130336010143691,0.21449439983093851,-0.11449439983093848
7.927404447115385,-1.5831129807693822,0.059555288461516837,-0.029777644230758418
7.9354038461538465,-3.206303418803419,-0.4094551282051283,0.6936965811965811
7.943403245192308,-3.2211171207264964,-0.4316756810897444,0.6788828792735038
7.951402644230769,-3.235930822649572,-0.45389623397435797,0.6640691773504279
7.959402043269231,-3.2507445245726494,-0.4761167868589741,0.6492554754273506
7.967401442307692,-3.265558226495727,-0.4983373397435901,0.6344417735042732
7.975400841346154,-3.280371928418804,-0.5205578926282062,0.6196280715811958
7.983400240384616,-3.2951856303418814,-0.5427784455128223,0.6048143696581184
7.991399639423077,-3.3099993322649572,-0.5649989983974358,0.5900006677350427
7.999399038461538,-3.324813034188035,-0.5872195512820519,0.5751869658119653
8.007398437500001,-3.339626736111114,-0.6094401041666705,0.5603732638888863
8.015397836538462,-3.3544404380341892,-0.6316606570512842,0.5455595619658106
8.023397235576923,-3.369254139957265,-0.6538812099358977,0.5307458600427348
8.031396634615385,-3.384067841880344,-0.6761017628205162,0.5159321581196558
8.039396033653846,-3.39888154380342,-0.6983223157051298,0.50111845619658
8.047395432692309,-1.7774500739643773,-0.49248335798812576,0.10947670118337616
8.05539483173077,-0.38671874999924083,-0.12103365384603706,-0.37896634615396296
8.06339423076923,0.45207204767063947,0.010414409534127889,-0.5624864572047673
8.071393629807693,0.5084058437161494,0.02168116874322988,-0.6300870124593794
8.079393028846154,0.5647396397616469,0.03294792795232938,-0.6976875677139762
8.087392427884616,0.6210734358071568,0.044214687161431364,-0.7652881229685882
8.095391826923077,0.6774072318526543,0.05548144637053086,-0.8328886782231852
8.103391225961538,0.7337410278981518,0.06674820557963035,-0.9004892334777821
8.111390625,0.7900748239436617,0.07801496478873234,-0.968089788732394
8.119390024038461,0.8464086199891592,0.08928172399783184,-1.0356903439869911
8.127389423076924,0.8221153846153522,0.11947115384616197,-1.1778846153846478
8.135388822115384,0.5638882211538507,0.26388822115385074,-1.244447115384597
8.143388221153847,0.6,0.2971568795787535,-0.888627518315014
8.151387620192308,0.6,0.2876337854853477,-0.8505351419413909
8.159387019230769,0.6,0.27811069139194194,-0.8124427655677677
8.167386418269231,0.6,0.26858759729853404,-0.7743503891941362
8.175385817307692,0.6,0.2590645032051283,-0.7362580128205132
8.183385216346155,0.6,0.24954140911172043,-0.6981656364468817
8.191384615384615,0.6,0.24001831501831467,-0.6600732600732586
8.199384014423076,0.6,0.2304952209249089,-0.6219808836996356
8.207383413461539,0.6,0.22097212683150103,-0.5838885073260041
8.2153828125,0.6,0.21144903273809523,-0.5457961309523809
8.223382211538462,0.6,0.20192593864468739,-0.5077037545787495
8.231381610576923,-0.10659054487162056,-0.038161057692260164,0.13026842948710024
8.239381009615384,-1.2059131973795427,-0.3059131973795428,0.5059131973795428
8.247380408653846,-1.2147037457734577,-0.3147037457734578,0.5147037457734578
8.255379807692307,-1.2234942941673708,-0.32349429416737085,0.5234942941673708
8.26337920673077,-1.2322848425612858,-0.3322848425612858,0.5322848425612858
8.27137860576923,-1.2410753909551988,-0.3410753909551989,0.5410753909551989
8.279378004807693,-1.2498659393491138,-0.34986593934911386,0.5498659393491139
8.287377403846154,-1.2586564877430269,-0.35865648774302694,0.5586564877430269
8.295376802884615,-1.2674470361369399,-0.36744703613693996,0.5674470361369399
8.303376201923077,-1.276237584530855,-0.376237584530855,0.5762375845308549
8.311375600961538,-1.2850281329247681,-0.385028132924768,0.585028132924768
8.319375,-1.293818681318683,-0.39381868131868303,0.593818681318683
8.327374399038462,-1.2208533653845908,-0.4395733173077047,0.5604266826922953
8.335373798076922,-0.9957944956828892,-0.5,0.0
8.343373197115385,-0.9713065394426978,-0.5,0.0
8.351372596153846,-0.946818583202512,-0.5,0.0
8.359371995192308,-0.9223306269623206,-0.5,0.0
8.36737139423077,-0.8978426707221345,-0.5,0.0
8.37537079326923,-0.8733547144819487,-0.5,0.0
8.383370192307693,-0.8488667582417573,-0.5,0.0
8.391369591346153,-0.8243788020015712,-0.5,0.0
8.399368990384616,-0.7998908457613798,-0.5,0.0
8.407368389423077,-0.775402889521194,-0.5,0.0
8.41536778846154,-0.7509149332810026,-0.5,0.0
8.4233671875,-0.7264269770408165,-0.5,0.0
8.431366586538461,-0.7019390208006306,-0.5,0.0
8.439365985576924,-0.4131911057692218,-0.3710637019230739,-0.2
8.447365384615384,-0.3041083916083938,-0.33470279720279794,-0.2
8.455364783653847,-0.17081730769224807,-0.285408653846124,-0.19270432692306202
8.463364182692308,0.20542610111662424,-0.08914779776675157,-0.1
8.471363581730769,0.2183283576302708,-0.06334328473945838,-0.1
8.479362980769231,0.23123061414392027,-0.03753877171215947,-0.1
8.487362379807692,0.24413287065756686,-0.011734258684866286,-0.1
8.495361778846155,0.2570351271712163,0.014070254342432628,-0.1
8.503361177884615,0.2699373836848629,0.03987476736972581,-0.1
8.511360576923076,0.2828396401985095,0.06567928039701901,-0.1
8.519359975961539,0.29574189671215895,0.09148379342431792,-0.1
8.527359375,0.4,0.2,-0.027343750000003705
8.535358774038462,0.3,0.2,0.2
8.543358173076923,0.3,0.2,0.2
8.551357572115386,0.3,0.2,0.2
8.559356971153846,0.3,0.2,0.2
8.567356370192307,0.3,0.2,0.2
8.57535576923077,0.3,0.2,0.2
8.58335516826923,0.3,0.2,0.2
8.591354567307693,0.3,0.2,0.2
8.599353966346154,0.3,0.2,0.2
8.607353365384615,0.3,0.2,0.2
8.615352764423077,0.3,0.2,0.2
8.623352163461538,0.3,0.2,0.2
8.6313515625,-0.15677083333340983,0.0,0.2
8.639350961538462,-0.2,-0.007820171849427487,0.2
8.647350360576922,-0.2,-0.01633017082651335,0.2
8.655349759615385,-0.2,-0.024840169803601098,0.2
8.663349158653846,-0.2,-0.03335016878068696,0.2
8.671348557692308,-0.2,-0.04186016775777471,0.2
8.67934795673077,-0.2,-0.05037016673486056,0.2
8.68734735576923,-0.2,-0.058880165711946424,0.2
8.695346754807693,-0.2,-0.06739016468903418,0.2
8.703346153846153,-0.2,-0.07590016366612003,0.2
8.711345552884616,-0.2,-0.08441016264320778,0.2
8.719344951923077,-0.2,-0.09292016162029364,0.2
8.72734435096154,-0.2,-0.1,0.2
8.73534375,-0.01875000000000951,-0.009375000000004755,0.10937500000000476
8.743343149038461,0.0,0.0,0.09300652472527578
8.751342548076924,0.0,0.0,0.08538804945054941
8.759341947115384,0.0,0.0,0.07776957417582474
8.767341346153847,0.0,0.0,0.07015109890109837
8.775340745192308,0.0,0.0,0.06253262362637368
8.783340144230769,0.0,0.0,0.05491414835164901
8.791339543269231,0.0,0.0,0.047295673076922645
8.799338942307692,0.0,0.0,0.039677197802197965
8.807338341346155,0.0,0.0,0.03205872252747159
8.815337740384615,0.0,0.0,0.02444024725274692
8.823337139423076,0.0,0.0,0.016821771978022246
8.831336538461539,0.0,0.0,0.009203296703295866
8.8393359375,0.0,0.0,0.0015848214285711926
8.847335336538462,0.048733357988176185,0.0,0.0
8.855334735576923,0.19721053685897894,0.1,-0.1
8.863334134615386,0.13054887820512662,0.1,-0.1
8.871333533653846,0.1,0.1,-0.09252839025199054
8.879332932692307,0.1,0.1,-0.07873632294429944
8.88733233173077,0.1,0.1,-0.0649442556366053
8.89533173076923,0.1,0.1,-0.0511521883289142
8.903331129807693,0.1,0.1,-0.03736012102122005
8.911330528846154,0.1,0.1,-0.023568053713528964
8.919329927884615,0.1,0.1,-0.009775986405837864
8.927329326923077,0.0,0.1,0.0
8.935328725961538,-0.1,0.0,0.1
8.943328125,-0.1,0.0,0.1
8.951327524038462,-0.1,0.0,0.1
8.959326923076922,-0.1,0.0,0.1
8.967326322115385,-0.1,0.0,0.1
8.975325721153846,-0.1,0.0,0.1
8.983325120192308,-0.1,0.0,0.1
8.99132451923077,-0.1,0.0,0.1
8.999323918269232,-0.1,0.0,0.1
9.007323317307693,-0.1,0.0,0.1
9.015322716346153,-0.1,0.0,0.1
9.023322115384616,-0.1,-0.1,0.0
9.031321514423077,-0.1,-0.1,0.0
9.03932091346154,-0.09221179418985177,-0.1,-0.007788205810148231
9.0473203125,-0.08370179521276576,-0.1,-0.01629820478723425
9.055319711538461,-0.07519179623567973,-0.1,-0.02480820376432027
9.063319110576924,-0.06668179725859183,-0.1,-0.033318202741408176
9.071318509615384,-0.05817179828150581,-0.1,-0.0418282017184942
9.079317908653847,-0.0496617993044179,-0.1,-0.050338200695582105
9.087317307692308,-0.04115180032733188,-0.1,-0.058848199672668126
9.095316706730769,-0.03264180135024586,-0.1,-0.06735819864975415
9.103316105769231,-0.024131802373157957,-0.1,-0.07586819762684205
9.111315504807692,-0.015621803396071929,-0.1,-0.08437819660392808
9.119314903846155,-0.007111804418984027,-0.1,-0.09288819558101598
9.127314302884615,0.0157151442307411,0.0,-0.1
9.135313701923078,0.09668629807692176,0.003313701923078239,0.0
9.143313100961539,0.08868689903846093,0.011313100961539075,0.0
9.1513125,0.08068750000000009,0.019312499999999913,0.0
9.159311899038462,0.07268810096153748,0.027311899038462525,0.0
9.167311298076923,0.06468870192307664,0.03531129807692336,0.0
9.175310697115385,0.05668930288461403,0.043310697115385974,0.0
9.183310096153846,0.048689903846153196,0.05131009615384681,0.0
9.191309495192307,0.04069050480769236,0.059309495192307646,0.0
9.19930889423077,0.03269110576922975,0.06730889423077026,0.0
9.20730829326923,0.02469170673076891,0.0753082932692311,0.0
9.215307692307693,0.0166923076923063,0.0833076923076937,0.0
9.223307091346154,0.008692908653845463,0.09130709134615454,0.0
9.231306490384615,0.0006935096153846271,0.09930649038461538,0.0
9.239305889423077,0.1,0.1,0.0
9.247305288461538,0.1,0.09591939696106377,0.004080603038936229
9.2553046875,0.1,0.08604359567901114,0.013956404320988861
9.263304086538461,0.1,0.0761677943969607,0.0238322056030393
9.271303485576924,0.1,0.06629199311490808,0.033708006885091936
9.279302884615385,0.1,0.05641619183285763,0.04358380816714238
9.287302283653846,0.1,0.04654039055080719,0.05345960944919281
9.295301682692308,0.1,0.03666458926875456,0.06333541073124545
9.303301081730769,0.1,0.026788787986704116,0.07321121201329589
9.311300480769232,0.1,0.01691298670465148,0.08308701329534852
9.319299879807692,0.1,0.007037185422601039,0.09296281457739897
9.327299278846153,0.023357371794869713,0.0,0.1
9.335298677884616,0.0,0.0,0.1
9.343298076923077,0.0,0.0,0.09383944543828202
9.35129747596154,0.0,0.0,0.08453781864937207
9.359296875,0.0,0.0,0.07523619186046418
9.36729627403846,0.0,0.0,0.06593456507155629
9.375295673076923,0.0,0.0,0.056632938282646345
9.383295072115384,0.0,0.0,0.04733131149373846
9.391294471153847,0.0,0.0,0.03802968470482851
9.399293870192308,0.0,0.0,0.02872805791592062
9.407293269230768,0.0,0.0,0.01942643112701274
9.415292668269231,0.0,0.0,0.010124804338102783
9.423292067307692,0.0,0.0,0.0008231775491949062
9.431291466346154,0.0,0.0,0.0
9.439290865384615,0.0,0.0,0.0
9.447290264423078,0.0,0.0,0.0
9.455289663461539,0.0,0.0,0.0
9.4632890625,0.0,0.0,0.0
9.471288461538462,0.0,0.0,0.0
9.479287860576923,0.0,0.0,0.0
9.487287259615385,0.0,0.0,0.0
9.495286658653846,0.0,0.0,0.0
9.503286057692307,0.0,0.0,0.0
9.51128545673077,0.0,0.0,0.0
9.51928485576923,0.0,0.0,0.0
9.527284254807693,0.0,0.0,0.0
9.535283653846154,0.0,0.0,0.0
9.543283052884615,0.0,0.0,0.0
9.551282451923077,0.0,0.0,0.0
9.559281850961538,0.0,0.0,0.0
9.56728125,0.0,0.0,0.0
9.575280649038461,0.0,0.0,0.0
9.583280048076924,0.0,0.0,0.0
9.591279447115385,0.0,0.0,0.0
9.599278846153846,0.0,0.0,0.0
9.607278245192308,0.0,0.0,0.0
9.615277644230769,0.0,0.0,0.0
9.623277043269232,0.0,0.0,0.0
9.631276442307692,0.0,0.0,-0.1
9.639275841346153,0.0,0.0,-0.1
9.647275240384616,0.0,0.0,-0.1
9.655274639423077,0.0,0.0,-0.1
9.66327403846154,0.0,0.0,-0.1
9.6712734375,0.0,0.0,-0.1
9.67927283653846,0.0,0.0,-0.1
9.687272235576923,0.0,0.0,-0.1
9.695271634615384,0.0,0.0,-0.1
9.703271033653847,0.0,0.0,-0.1
9.711270432692308,0.0,0.0,-0.1
9.71926983173077,0.0,0.0,-0.1
9.727269230769231,0.0,0.0,-0.1
9.735268629807692,0.0,0.0,0.0
9.743268028846154,0.0,0.0,0.0
9.751267427884615,0.0,0.0,0.0
9.759266826923078,0.0,0.0,0.0
9.767266225961539,0.0,0.0,0.0
9.775265625,0.0,0.0,0.0
9.783265024038462,0.0,0.0,0.0
9.791264423076923,0.0,0.0,0.0
9.799263822115385,0.0,0.0,0.0
9.807263221153846,0.0,0.0,0.0
9.815262620192307,0.0,0.0,0.0
9.82326201923077,0.0,0.0,0.0
9.83126141826923,0.0,0.0,0.0
9.839260817307693,0.0,0.0,0.0
9.847260216346154,0.0,0.0,0.0
9.855259615384616,0.0,0.0,0.0
9.863259014423077,0.0,0.0,0.0
9.871258413461538,0.0,0.0,0.0
9.8792578125,0.0,0.0,0.0
9.887257211538461,0.0,0.0,0.0
9.895256610576924,0.0,0.0,0.0
9.903256009615385,0.0,0.0,0.0
9.911255408653846,0.0,0.0,0.0
9.919254807692308,0.0,0.0,0.0
9.927254206730769,0.0,0.0,0.0
9.935253605769232,0.0,0.0,0.0
9.943253004807692,0.0,0.0,0.0
9.951252403846153,0.0,0.0,0.0
9.959251802884616,0.0,0.0,0.0
9.967251201923077,0.0,0.0,0.0
9.97525060096154,0.0,0.0,0.0
9.98325,0.0,0.0,0.0
9.991249399038463,0.0,0.0,0.0
9.999248798076923,0.0,0.0,0.0
10.007248197115384,0.0,0.0,0.0
10.015247596153847,0.0,0.0,0.0
10.023246995192308,0.0,0.0,0.0
10.03124639423077,0.0,0.0,0.0
10.039245793269231,0.0,0.0,0.0
10.047245192307692,0.0,0.0,0.0
10.055244591346154,0.0,0.0,0.0
10.063243990384615,0.0,0.0,0.0
10.071243389423078,0.0,0.0,0.0
10.079242788461539,0.0,0.0,0.0
10.0872421875,0.0,0.0,0.0
10.095241586538462,0.0,0.0,0.0
10.103240985576923,0.0,0.0,0.0
10.111240384615385,0.0,0.0,0.0
10.119239783653846,0.0,0.0,0.0
10.127239182692307,0.0,0.0,0.0
10.13523858173077,0.0,0.0,0.0
10.14323798076923,0.0,0.0,0.0
10.151237379807693,0.0,0.0,0.0
10.159236778846154,0.0,0.0,0.0
10.167236177884616,0.0,0.0,0.0
10.175235576923077,0.0,0.0,0.0
10.183234975961538,0.0,0.0,0.0
10.191234375,0.0,0.0,0.0
10.199233774038461,0.0,0.0,0.0
10.207233173076924,0.0,0.0,0.0
10.215232572115385,0.0,0.0,0.0
10.223231971153846,0.0,0.0,0.0
10.231231370192308,0.0,0.0,0.0
10.239230769230769,0.0,0.0,0.0
10.247230168269231,0.0,0.0,0.0
10.255229567307692,0.0,0.0,0.0
10.263228966346153,0.0,0.0,0.0
10.271228365384616,0.0,0.0,0.0
10.279227764423077,0.0,0.0,0.0
10.287227163461539,0.0,0.0,0.0
10.2952265625,0.0,0.0,0.0
10.303225961538462,0.0,0.0,0.0
10.311225360576923,0.0,0.0,0.0
10.319224759615384,0.0,0.0,0.0
10.327224158653847,0.0,0.0,0.0
10.335223557692307,0.0,0.0,0.0
10.34322295673077,0.0,0.0,0.0
10.35122235576923,0.0017104289940770936,0.0,0.0
10.359221754807692,0.06324426775146841,0.0,0.0
10.367221153846154,0.0944462864721491,0.0,0.0
10.375220552884615,0.08065421916445802,0.0,0.0
10.383219951923078,0.06686215185676386,0.0,0.0
10.391219350961538,0.05307008454907277,0.0,0.0
10.39921875,0.03927801724138168,0.0,0.0
10.407218149038462,0.025485949933687524,0.0,0.0
10.415217548076923,0.011693882625996438,0.0,0.0
10.423216947115385,0.0,0.0,0.0
10.431216346153846,0.1,0.0,0.0
10.439215745192309,0.1,0.0,0.0
10.44721514423077,0.1,0.0,0.0
10.45521454326923,0.1,0.0,0.0
10.463213942307693,0.1,0.0,0.0
10.471213341346154,0.1,0.0,0.0
10.479212740384616,0.1,0.0,0.0
10.487212139423077,0.1,0.0,0.0
10.495211538461538,0.1,0.0,0.0
10.5032109375,0.1,0.0,0.0
10.511210336538461,0.1,0.0,0.0
10.519209735576924,0.1,0.0,0.0
10.527209134615385,0.0,0.0,0.0
10.535208533653845,0.0,0.0,0.0
10.543207932692308,0.0,0.0,0.0
10.551207331730769,0.0,0.0,0.0
10.559206730769231,0.0,0.0,0.0
10.567206129807692,0.0,0.0,0.0
10.575205528846155,0.0,0.0,0.0
10.583204927884616,0.0,0.0,0.0
10.591204326923076,0.0,0.0,0.0
10.599203725961539,0.0,0.0,0.0
10.607203125,0.0,0.0,0.0
10.615202524038462,0.0,0.0,0.0
10.623201923076923,0.0,0.0,0.0
10.631201322115384,0.0,0.0,0.0
10.639200721153847,0.0,0.0,0.0
10.647200120192307,0.0,0.0,0.0
10.65519951923077,0.0,0.0,0.0
10.66319891826923,0.0,0.0,0.0
10.671198317307692,0.0,0.0,0.0
10.679197716346154,0.0,0.0,0.0
10.687197115384615,0.0,0.0,0.0
10.695196514423078,0.0,0.0,0.0
10.703195913461538,0.0,0.0,0.0
10.711195312500001,0.0,0.0,0.0
10.719194711538462,0.0,0.0,0.0
10.727194110576923,0.0,0.0,0.0
10.735193509615385,0.0,0.0,0.0
10.743192908653846,0.0,0.0,0.0
10.751192307692309,0.0,0.0,0.0
10.75919170673077,0.0,0.0,0.0
10.76719110576923,0.0,0.0,0.0
10.775190504807693,0.0,0.0,0.0
10.783189903846154,0.0,0.0,0.0
10.791189302884616,0.0,0.0,0.0
10.799188701923077,0.0,0.0,0.0
10.807188100961538,0.0,0.0,0.0
10.8151875,0.0,0.0,0.0
10.823186899038461,0.0,0.0,0.0
10.831186298076924,0.0,0.0,0.0
10.839185697115385,0.0,0.0,0.0
10.847185096153845,0.0,0.0,0.0
10.855184495192308,0.0,0.0,0.0
10.863183894230769,0.0,0.0,0.0
10.871183293269231,0.0,0.0,0.0
10.879182692307692,0.0,0.0,0.0
10.887182091346155,0.0,0.0,0.0
10.895181490384616,0.0,0.0,0.0
10.903180889423076,0.0,0.0,0.0
10.911180288461539,0.0,0.0,0.0
10.9191796875,0.0,0.0,0.0
10.927179086538462,0.0,0.0,0.0
10.935178485576923,0.0,0.0,0.0
10.943177884615384,0.0,0.0,0.0
10.951177283653847,0.0,0.0,0.0
10.959176682692307,0.0,0.0,0.0
10.96717608173077,0.0,0.0,0.0
10.97517548076923,0.0,0.0,0.0
10.983174879807692,0.0,0.0,0.0
10.991174278846154,0.0,0.0,0.0
10.999173677884615,0.0,0.0,0.0
11.007173076923078,0.0,0.0,0.0
11.015172475961538,0.0,0.0,0.0
11.023171875000001,0.0,0.0,0.0
11.031171274038462,0.0,0.0,0.0
11.039170673076923,0.0,0.0,0.0
11.047170072115385,0.0,0.0,0.0
11.055169471153846,0.0,0.0,0.0
11.063168870192309,0.0,0.0,0.0
11.07116826923077,0.0,0.0,0.0
11.07916766826923,0.0,0.0,0.0
11.087167067307693,0.0,0.0,0.0
11.095166466346154,0.0,0.0,0.0
11.103165865384616,0.0,0.0,0.0
11.111165264423077,0.0,0.0,0.0
11.119164663461538,0.0,0.0,0.0
11.1271640625,0.0,0.0,0.0
11.135163461538461,0.0,0.0,0.0
11.143162860576924,0.0,0.0,0.0
11.151162259615385,0.0,0.0,0.0
11.159161658653847,0.0,0.0,0.0
11.167161057692308,0.0,0.0,0.0
11.175160456730769,0.0,0.0,0.0
11.183159855769231,0.0,0.0,0.0
11.191159254807692,0.0,0.0,0.0
11.199158653846155,0.0,0.0,0.0
11.207158052884616,0.0,0.0,0.0
11.215157451923076,0.0,0.0,0.0
11.223156850961539,0.0,0.0,0.0
11.23115625,0.0,0.0,0.0
11.239155649038462,0.0,0.0,0.0
11.247155048076923,0.0,0.0,0.0
11.255154447115384,0.0,0.0,0.0
11.263153846153847,0.0,0.0,0.0
11.271153245192307,0.0,0.0,0.0
11.27915264423077,0.0,0.0,0.0
11.28715204326923,0.0,0.0,0.0
11.295151442307693,0.0,0.0,0.0
11.303150841346154,0.0,0.0,0.0
11.311150240384615,0.0,0.0,0.0
11.319149639423078,0.0,0.0,0.0
11.327149038461538,0.0,0.0,0.0
11.335148437500001,0.0,0.0,0.0
11.343147836538462,0.0,0.0,0.0
11.351147235576923,0.0,0.0,0.0
11.359146634615385,0.0,0.0,0.0
11.367146033653846,0.0,0.0,0.0
11.375145432692308,0.0,0.0,0.0
11.38314483173077,0.0,0.0,0.0
11.39114423076923,0.0,0.0,0.0
11.399143629807693,0.0,0.0,0.0
11.407143028846153,0.0,0.0,0.0
11.415142427884616,0.0,0.0,0.0
11.423141826923077,0.0,0.0,0.0
11.43114122596154,0.0,0.0,0.0
11.439140625,0.0,0.0,0.0
11.447140024038461,0.0,0.0,0.0
11.455139423076924,0.0,0.0,0.0
11.463138822115384,0.0,0.0,0.0
11.471138221153847,0.0,0.0,0.0
11.479137620192308,0.0,0.0,0.0
11.487137019230769,0.0,0.0,0.0
11.495136418269231,0.0,0.0,0.0
11.503135817307692,0.0,0.0,0.0
11.511135216346155,0.0,0.0,0.0
11.519134615384615,0.0,0.0,0.0
11.527134014423076,0.0,0.0,0.0
11.535133413461539,0.0,0.0,0.0
11.5431328125,0.0,0.0,0.0
11.551132211538462,0.0,0.0,0.0
11.559131610576923,0.0,0.0,0.0
11.567131009615384,0.0,0.0,0.0
11.575130408653846,0.0,0.0,0.0
11.583129807692307,0.0,0.0,0.0
11.59112920673077,0.0,0.0,0.0
11.59912860576923,0.0,0.0,0.0
11.607128004807693,0.0,0.0,0.0
11.615127403846154,0.0,0.0,0.0
11.623126802884615,0.0,0.0,0.0
11.631126201923077,-0.0021262019230778935,0.0,0.0
11.639125600961538,-0.01012560096153873,0.0,0.0
11.647125,-0.018125000000001345,0.0,0.0
11.655124399038462,-0.02612439903846218,0.0,0.0
11.663123798076922,-0.03412379807692301,0.0,0.0
11.671123197115385,-0.04212319711538563,0.0,0.0
11.679122596153846,-0.05012259615384647,0.0,0.0
11.687121995192308,-0.05812199519230908,0.0,0.0
11.69512139423077,-0.06612139423076992,0.0,0.0
11.70312079326923,-0.07412079326923075,0.0,0.0
11.711120192307693,-0.08212019230769337,0.0,0.0
11.719119591346153,-0.0901195913461542,0.0,0.0
11.727118990384616,-0.09811899038461681,0.0,0.0
11.735118389423077,0.0,0.0,0.0
11.74311778846154,0.0,0.0,0.0
11.7511171875,0.0,0.0,0.0
11.759116586538461,0.0,0.0,0.0
11.767115985576924,0.0,0.0,0.0
11.775115384615384,0.0,0.0,0.0
11.783114783653847,0.0,0.0,0.0
11.791114182692308,0.0,0.0,0.0
11.799113581730769,0.0,0.0,0.0
11.807112980769231,0.0,0.0,0.0
11.815112379807692,0.0,0.0,0.0
11.823111778846155,0.0,0.0,0.0
11.831111177884615,0.0,0.0,0.0
11.839110576923076,0.0,0.0,0.0
11.847109975961539,0.0,0.0,0.0
11.855109375,0.0,0.0,0.0
11.863108774038462,0.0,0.0,0.0
11.871108173076923,0.0,0.0,0.0
11.879107572115386,0.0,0.0,0.0
11.887106971153846,0.0,0.0,0.0
11.895106370192307,0.0,0.0,0.0
11.90310576923077,0.0,0.0,0.0
11.91110516826923,0.0,0.0,0.0
11.919104567307693,0.0,0.0,0.0
11.927103966346154,0.0,0.0,0.0
11.935103365384615,0.0,0.0,0.0
11.943102764423077,0.0,0.0,0.0
11.951102163461538,0.0,0.0,0.0
11.9591015625,0.0,0.0,0.0
11.967100961538462,0.0,0.0,0.0
11.975100360576922,0.0,0.0,0.0
11.983099759615385,0.0,0.0,0.0
11.991099158653846,0.0,0.0,0.0
11.999098557692308,0.0,0.0,0.0
12.00709795673077,0.0,0.0,0.0
12.015097355769232,0.0,0.0,0.0
12.023096754807693,0.0,0.0,0.0
12.031096153846153,0.0,0.0,0.0
12.039095552884616,0.0012172809829063505,0.0,0.0012172809829063505
12.047094951923077,0.010105502136751708,0.0,0.010105502136751708
12.05509435096154,0.01899372329059904,0.0,0.01899372329059904
12.06309375,0.027881944444444397,0.0,0.027881944444444397
12.071093149038461,0.03677016559828975,0.0,0.03677016559828975
12.079092548076924,0.045658386752137084,0.0,0.045658386752137084
12.087091947115384,0.05454660790598244,0.0,0.05454660790598244
12.095091346153847,0.06343482905982978,0.0,0.06343482905982978
12.103090745192308,0.07232305021367513,0.0,0.07232305021367513
12.111090144230769,0.08121127136752049,0.0,0.08121127136752049
12.119089543269231,0.09009949252136781,0.0,0.09009949252136781
12.127088942307692,0.09898771367521317,0.0,0.09898771367521317
12.135088341346155,0.7551637336720294,-0.003940266690859243,-0.003940266690859243
12.143087740384615,0.966468613933255,-0.01903347242380393,-0.01903347242380393
12.151087139423078,1.1777734941945275,-0.034126678156751966,-0.034126678156751966
12.159086538461539,1.389078374455753,-0.049219883889696656,-0.049219883889696656
12.1670859375,1.6003832547169785,-0.06431308962264135,-0.06431308962264135
12.175085336538462,1.8116881349782512,-0.07940629535558938,-0.07940629535558938
12.183084735576923,2.022993015239477,-0.09449950108853407,-0.09449950108853407
12.191084134615386,2.2342978955007493,-0.1095927068214821,-0.1095927068214821
12.199083533653846,2.4456027757619747,-0.12468591255442679,-0.12468591255442679
12.207082932692307,2.6569076560232006,-0.13977911828737147,-0.13977911828737147
12.21508233173077,2.8682125362844726,-0.15487232402031953,-0.15487232402031953
12.22308173076923,3.0795174165456984,-0.1699655297532642,-0.1699655297532642
12.231081129807693,3.2908222968069714,-0.18505873548621224,-0.18505873548621224
12.239080528846154,3.544290865384269,-0.20805288461532165,-0.20402644230766082
12.247079927884615,4.054916958042032,-0.6741805069929946,-0.7112707604894919
12.255079326923077,3.3210258491508657,-0.807008616383622,-0.9014017232767244
12.263078725961538,3.47685829795205,-0.8589527659840168,-0.9117905531968034
12.271078125,3.632690746753269,-0.9108969155844233,-0.9221793831168846
12.279077524038462,3.788523195554454,-0.9628410651848182,-0.9325682130369637
12.287076923076924,3.9443556443556735,-1.0147852147852245,-0.942957042957045
12.295076322115385,4.1001880931568575,-1.0667293643856195,-0.9533458728771239
12.303075721153846,4.256020541958042,-1.1186735139860144,-0.9637347027972029
12.311075120192308,4.411852990759262,-1.1706176635864207,-0.9741235327172841
12.31907451923077,4.567685439560447,-1.2225618131868157,-0.9845123626373631
12.327073918269232,4.723517888361666,-1.274505962787222,-0.9949011925574445
12.335073317307693,5.089002403846243,-1.989002403846244,-1.081670673077073
12.343072716346153,4.862107326267479,-1.6792975579108402,-0.5792975579108403
12.351072115384616,4.943919361888118,-1.6520268793706272,-0.5520268793706272
12.359071514423077,5.025731397508739,-1.6247562008304202,-0.5247562008304202
12.36707091346154,5.107543433129378,-1.5974855222902071,-0.49748552229020715
12.3750703125,5.18935546875,-1.57021484375,-0.4702148437500001
12.383069711538461,5.27116750437062,-1.542944165209793,-0.4429441652097932
12.391069110576924,5.35297953999126,-1.51567348666958,-0.4156734866695801
12.399068509615384,5.4347915756118805,-1.488402808129373,-0.3884028081293731
12.407067908653847,5.51660361123252,-1.46113212958916,-0.3611321295891601
12.415067307692308,5.598415646853141,-1.433861451048953,-0.33386145104895304
12.423066706730769,5.680227682473762,-1.4065907725087459,-0.30659077250874606
12.431066105769231,4.5933894230769114,-0.0547115384615291,0.0
12.439065504807692,4.4,0.1391322890818844,0.006522048180314066
12.447064903846154,4.4,0.19074131513648174,0.015123552522746955
12.455064302884615,4.4,0.2423503411910676,0.023725056865177934
12.463063701923078,4.4,0.29395936724566496,0.03232656120761083
12.471063100961539,4.4,0.3455683933002508,0.0409280655500418
12.4790625,4.4,0.39717741935483664,0.049529569892472786
12.487061899038462,4.4,0.448786445409434,0.058131074234905676
12.495061298076923,4.4,0.5003954714640199,0.06673257857733665
12.503060697115385,4.4,0.5520044975186172,0.07533408291976955
12.511060096153846,4.4,0.6036135235732031,0.08393558726220052
12.519059495192307,4.4,0.6552225496277889,0.0925370916046315
12.52705889423077,4.135276442307618,0.8058894230769527,0.1
12.53505829326923,3.1664911564925973,1.2925535903316883,0.2
12.543057692307693,3.1004410726887777,1.2778757939308396,0.2
12.551057091346154,3.0343909888849727,1.263197997529994,0.2
12.559056490384615,2.9683409050811678,1.2485202011291485,0.2
12.567055889423077,2.9022908212773486,1.2338424047282996,0.2
12.575055288461538,2.8362407374735437,1.219164608327454,0.2
12.5830546875,2.770190653669724,1.2044868119266054,0.2
12.591054086538461,2.704140569865919,1.18980901552576,0.2
12.599053485576924,2.6380904860620995,1.175131219124911,0.2
12.607052884615385,2.5720404022582946,1.1604534227240655,0.2
12.615052283653846,2.50599031845449,1.14577562632322,0.2
12.623051682692308,2.4399402346506704,1.1310978299223713,0.2
12.631051081730769,2.3738901508468655,1.1164200335215257,0.2
12.639050480769232,2.307840067043046,1.101742237120677,0.2
12.647049879807692,1.986672008546977,0.9433360042734885,0.27833199786325574
12.655049278846153,1.7991786858974348,0.8495893429487175,0.3
12.663048677884616,1.4950062957875474,0.6950062957875472,0.29833543192918244
12.671048076923077,1.4569139194139238,0.6569139194139236,0.28563797313797457
12.67904747596154,1.4188215430402917,0.6188215430402916,0.27294051434676386
12.687046875,1.3807291666666681,0.5807291666666681,0.260243055555556
12.69504627403846,1.3426367902930445,0.5426367902930445,0.24754559676434815
12.703045673076923,1.3045444139194124,0.5045444139194124,0.23484813797313747
12.711045072115384,1.2664520375457888,0.4664520375457888,0.2221506791819296
12.719044471153847,1.2283596611721568,0.42835966117215674,0.2094532203907189
12.727043870192308,1.097806490384632,0.29780649038463186,0.1
12.73504326923077,0.9814925899788264,0.2,0.1
12.743042668269231,0.9521369971771353,0.2,0.1
12.751042067307692,0.9227814043754443,0.2,0.1
12.759041466346154,0.8934258115737468,0.2,0.1
12.767040865384615,0.8640702187720557,0.2,0.1
12.775040264423078,0.8347146259703582,0.2,0.1
12.783039663461539,0.8053590331686671,0.2,0.1
12.7910390625,0.776003440366976,0.2,0.1
12.799038461538462,0.7466478475652785,0.2,0.1
12.807037860576923,0.7172922547635874,0.2,0.1
12.815037259615385,0.6879366619618899,0.2,0.1
12.823036658653846,0.6585810691601988,0.2,0.1
12.831036057692307,0.6292254763585078,0.2,0.1
12.83903545673077,0.6,0.2,0.1
12.84703485576923,0.38978517526777107,0.09489258763388554,0.09489258763388554
12.855034254807693,0.3695335321324229,0.08476676606621146,0.08476676606621146
12.863033653846154,0.3492818889970793,0.07464094449853963,0.07464094449853963
12.871033052884616,0.32903024586173113,0.06451512293086556,0.06451512293086556
12.879032451923077,0.30877860272638746,0.05438930136319372,0.05438930136319372
12.887031850961538,0.2885269595910438,0.04426347979552189,0.04426347979552189
12.89503125,0.26827531645569563,0.03413765822784781,0.03413765822784781
12.903030649038461,0.24802367332035197,0.024011836660175978,0.024011836660175978
12.911030048076924,0.22777203018500383,0.01388601509250191,0.01388601509250191
12.919029447115385,0.20752038704966017,0.003760193524830077,0.003760193524830077
12.927028846153846,0.2,-0.1,-0.1
12.935028245192308,0.2,-0.1,-0.1
12.943027644230769,0.2,-0.1,-0.1
12.951027043269232,0.2,-0.1,-0.1
12.959026442307692,0.2,-0.1,-0.1
12.967025841346153,0.2,-0.1,-0.1
12.975025240384616,0.2,-0.1,-0.1
12.983024639423077,0.2,-0.1,-0.1
12.99102403846154,0.2,-0.1,-0.1
12.9990234375,0.2,-0.1,-0.1
13.007022836538463,0.2,-0.1,-0.1
13.015022235576923,0.2,-0.1,-0.1
13.023021634615384,0.2,-0.1,-0.1
13.031021033653847,0.2,-0.1,-0.1
13.039020432692308,0.0946293016194351,-0.2,-0.19462930161943512
13.04701983173077,0.05252720141700073,-0.2,-0.15252720141700074
13.055019230769231,0.01042510121457571,-0.2,-0.11042510121457572
13.063018629807692,0.02616795568561519,-0.2,-0.07383204431438481
13.071018028846154,0.0609479515050182,-0.2,-0.039052048494981804
13.079017427884615,0.0957279473244135,-0.2,-0.004272052675586502
13.087016826923078,0.0904227716727679,-0.09521138583638396,0.0
13.095016225961539,0.06502785409035289,-0.08251392704517645,0.0
13.103015625,0.039632936507937866,-0.06981646825396894,0.0
13.111015024038462,0.01423801892551721,-0.05711900946275861,0.0
13.119014423076923,-0.011156898656897812,-0.0444215506715511,0.0
13.127013822115385,-0.03655181623931847,-0.03172409188034077,0.0
13.135013221153846,-0.06194673382173349,-0.019026633089133257,0.0
13.143012620192307,-0.08734165140414851,-0.0063291742979257465,0.0
13.15101201923077,-0.0987980769230227,0.0,0.0
13.15901141826923,-0.015242213628762944,-0.015242213628762944,0.0
13.167010817307693,-0.03263221153846378,-0.03263221153846378,0.0
13.175010216346154,-0.05002220944816076,-0.05002220944816076,0.0
13.183009615384616,-0.06741220735786159,-0.06741220735786159,0.0
13.191009014423077,-0.08480220526755856,-0.08480220526755856,0.0
13.199008413461538,-0.1,-0.1,0.0
13.2070078125,-0.1,-0.1,0.0
13.215007211538461,-0.1,-0.1,0.0
13.223006610576924,-0.1,-0.1,0.0
13.231006009615385,-0.1,-0.1,0.0
13.239005408653846,-0.1,-0.1,0.0
13.247004807692308,-0.1,-0.1,0.0
13.255004206730769,-0.1,-0.1,0.0
13.263003605769232,-0.1,-0.1,0.0
13.271003004807692,-0.1,-0.1,0.0
13.279002403846153,-0.1,-0.1,0.0
13.287001802884616,-0.1,-0.1,0.0
13.295001201923077,-0.1,-0.1,0.0
13.30300060096154,-0.08749248798075725,-0.1,0.0
13.311,0.0,-0.1,-0.1
