accel_time_list,vertical_Accel_x,vertical_Accel_y,vertical_Accel_z
0.0,-0.693,-8.633,4.853
0.007997043606799705,-0.4532025815103512,-9.172192378905981,5.187866748958023
0.01599408721359941,-0.43506495683513535,-9.097993005234644,5.1021252504933665
0.023991130820399116,-0.41692733215991956,-9.023793631563306,5.016383752028711
0.03198817442719882,-0.3987897074847037,-8.94959425789197,4.930642253564054
0.03998521803399852,-0.38065208280948787,-8.875394884220633,4.844900755099397
0.04798226164079823,-0.3625144581342721,-8.801195510549295,4.7591592566347405
0.055979305247597935,-0.34437683345905623,-8.726996136877958,4.673417758170084
0.06397634885439764,-0.3262392087838404,-8.65279676320662,4.587676259705427
0.07197339246119734,-0.3081015841086246,-8.578597389535283,4.50193476124077
0.07997043606799704,-0.2899639594334088,-8.504398015863945,4.416193262776114
0.08796747967479675,-0.27182633475819296,-8.430198642192607,4.330451764311457
0.09596452328159646,-0.2536887100829771,-8.35599926852127,4.2447102658468
0.10396156688839617,-1.0873968957871465,-8.180344419807835,4.556620842572065
0.11195861049519587,-0.6926960194277264,-8.301831591173054,4.031021433850702
0.11995565410199557,-0.5544248337028824,-8.303784035476719,3.87029889135255
0.12795269770879528,-0.49054256771444715,-8.323635520194774,3.8545870527368375
0.13594974131559498,-0.4266603017260119,-8.343487004912829,3.838875214121125
0.14394678492239468,-0.36277803573757667,-8.363338489630886,3.8231633755054126
0.15194382852919439,-0.2988957697491414,-8.38318997434894,3.8074515368897006
0.1599408721359941,-0.23501350376070612,-8.403041459066998,3.791739698273988
0.1679379157427938,-0.17113123777227085,-8.422892943785053,3.7760278596582757
0.1759349593495935,-0.10724897178383563,-8.442744428503108,3.7603160210425632
0.1839320029563932,-0.04336670579540036,-8.462595913221165,3.744604182426851
0.19192904656319293,0.02051556019303513,-8.48244739793922,3.7288923438111383
0.19992609016999263,0.22239615668884144,-8.612519955654104,3.933557280118259
0.20792313377679233,0.42599867905835703,-8.631045886996587,3.906921230991807
0.21592017738359204,0.3553014105769682,-8.639553380195311,3.877485304524225
0.22391722099039174,0.2846041420955793,-8.648060873394034,3.8480493780566434
0.23191426459719144,0.21390687361419047,-8.656568366592756,3.8186134515890613
0.23991130820399115,0.14320960513280162,-8.665075859791479,3.7891775251214797
0.24790835181079085,0.07251233665141277,-8.673583352990203,3.7597415986538976
0.25590539541759055,0.0018150681700239146,-8.682090846188926,3.7303056721863155
0.26390243902439026,-0.068882200311365,-8.690598339387648,3.700869745718734
0.27189948263118996,-0.1395794687927538,-8.69910583258637,3.6714338192511518
0.27989652623798966,-0.2102767372741427,-8.707613325785095,3.64199789278357
0.28789356984478937,-0.2809740057555315,-8.716120818983818,3.612561966315988
0.29589061345158907,-0.3516712742369204,-8.72462831218254,3.5831260398484064
0.30388765705838877,0.09651355961112003,-7.884214452214451,3.8403300358178414
0.3118847006651885,-0.24120774347603635,-7.10234965034965,4.19466058331912
0.3198817442719882,-0.4264221440647008,-6.654757601243724,4.339788796289216
0.3278787878787879,-0.44995367467781255,-6.561550679205852,4.263127481713688
0.3358758314855876,-0.47348520529092436,-6.46834375716798,4.18646616713816
0.3438728750923873,-0.4970167359040361,-6.375136835130107,4.1098048525626325
0.351869918699187,-0.5205482665171479,-6.281929913092235,4.033143537987104
0.3598669623059867,-0.5440797971302597,-6.188722991054362,3.9564822234115757
0.3678640059127864,-0.5676113277433714,-6.09551606901649,3.879820908836048
0.3758610495195861,-0.5911428583564832,-6.002309146978617,3.80315959426052
0.38385809312638586,-0.6146743889695951,-5.909102224940744,3.726498279684991
0.39185513673318556,-0.6382059195827069,-5.815895302902872,3.649836965109463
0.39985218033998526,-0.6617374501958186,-5.722688380865,3.5731756505339347
0.40784922394678497,-1.851060975609764,-5.182141906873612,-0.3044689578714215
0.41584626755358467,-2.20662536851109,-5.038870691015387,-1.7681406362888978
0.4238433111603844,-2.118568034413745,-5.001760814502935,-1.9940346545753524
0.4318403547671841,-2.0305107003163996,-4.964650937990482,-2.219928672861807
0.4398373983739838,-1.9424533662190546,-4.92754106147803,-2.4458226911482615
0.4478344419807835,-1.8543960321217097,-4.8904311849655775,-2.6717167094347163
0.4558314855875832,-1.7663386980243647,-4.853321308453125,-2.8976107277211707
0.4638285291943829,-1.6782813639270198,-4.816211431940673,-3.123504746007625
0.4718255728011826,-1.5902240298296746,-4.77910155542822,-3.3493987642940795
0.4798226164079823,-1.5021666957323296,-4.741991678915767,-3.575292782580534
0.487819660014782,-1.4141093616349845,-4.704881802403315,-3.8011868008669882
0.4958167036215817,-1.3260520275376395,-4.667771925890862,-4.027080819153443
0.5038137472283813,-1.574421286031047,-5.741644124168512,-5.577152993348111
0.5118107908351811,-1.5573826065533325,-8.73956935205716,-5.667546440009853
0.5198078344419809,0.856658290219289,-9.82850012318306,-5.109086228135003
0.5278048780487805,3.2706991869918767,-10.917430894308946,-4.550626016260161
0.5358019216555803,5.684740083764498,-12.006361665434847,-3.992165804385311
0.5437989652623799,8.098780980537086,-13.095292436560733,-3.433705592510469
0.5517960088691797,10.512821877309708,-14.184223207686633,-2.875245380635619
0.5597930524759793,12.926862774082295,-15.27315397881252,-2.316785168760777
0.5677900960827791,15.340903670854917,-16.36208474993842,-1.758324956885927
0.5757871396895787,17.754944567627504,-17.451015521064306,-1.1998647450110846
0.5837841832963785,20.168985464400127,-18.53994629219021,-0.6414045331362352
0.5917812269031781,22.583026361172713,-19.628877063316093,-0.08294432126139295
0.5997782705099779,24.997067257945336,-20.71780783444199,0.47551589061345734
0.6077753141167775,-6.281198817442689,-5.51284515890615,-14.053444013303675
0.6157723577235773,-2.607893549122406,-7.380685358255452,-3.004574120507562
0.623769401330377,-2.4937675155935923,-7.368428207306712,-3.193214663157677
0.6317664449371767,-2.3796414820647773,-7.356171056357972,-3.3818552058077946
0.6397634885439764,-2.2655154485359636,-7.343913905409233,-3.57049574845791
0.6477605321507761,-2.151389415007148,-7.331656754460493,-3.7591362911080277
0.6557575757575758,-2.0372633814783345,-7.319399603511753,-3.9477768337581427
0.6637546193643755,-1.9231373479495193,-7.3071424525630135,-4.136417376408261
0.6717516629711752,-1.8090113144207056,-7.294885301614274,-4.325057919058375
0.6797487065779749,-1.6948852808918904,-7.282628150665534,-4.513698461708493
0.6877457501847746,-1.5807592473630767,-7.2703709997167945,-4.702339004358608
0.6957427937915743,-1.4666332138342615,-7.258113848768055,-4.890979547008726
0.703739837398374,-1.3525071803054476,-7.245856697819315,-5.0796200896588415
0.7117368810051737,-1.2383811467766324,-7.233599546870575,-5.268260632308959
0.7197339246119734,2.257294900221769,-7.81873614190688,-4.425062084257195
0.7277309682187731,4.551164818920932,-9.536595713229874,-4.636355506282339
0.7357280118255728,2.5830279177585163,-9.269639655983337,-6.15665700239647
0.7437250554323726,2.5274121144930453,-9.036998387421889,-5.9328609487334525
0.7517220990391722,2.471796311227575,-8.804357118860445,-5.709064895070439
0.759719142645972,2.416180507962104,-8.571715850298999,-5.4852688414074215
0.7677161862527717,2.360564704696633,-8.33907458173755,-5.261472787744404
0.7757132298595714,2.3049489014311626,-8.106433313176106,-5.03767673408139
0.7837102734663711,2.2493330981656916,-7.873792044614659,-4.8138806804183725
0.7917073170731708,2.1937172949002215,-7.641150776053215,-4.590084626755359
0.7997043606799705,2.060237620103468,-7.311723946784915,-3.979231707317046
0.8077014042867702,4.274418329637838,-6.945828529194382,-5.828310421286023
0.8156984478935699,4.577121782512291,-6.854154728622384,-6.50159850091584
0.8236954915003696,4.571297848581253,-6.728983611298563,-6.615730221086795
0.8316925351071693,4.565473914650213,-6.603812493974742,-6.729861941257753
0.839689578713969,4.559649980719175,-6.478641376650921,-6.8439936614287085
0.8476866223207687,4.553826046788136,-6.353470259327098,-6.958125381599666
0.8556836659275684,4.548002112857096,-6.228299142003277,-7.072257101770623
0.8636807095343682,4.542178178926058,-6.103128024679456,-7.18638882194158
0.8716777531411678,4.536354244995019,-5.977956907355635,-7.300520542112536
0.8796747967479676,4.53053031106398,-5.852785790031812,-7.414652262283493
0.8876718403547672,4.524706377132941,-5.7276146727079915,-7.528783982454449
0.895668883961567,4.518882443201902,-5.60244355538417,-7.642915702625407
0.9036659275683666,3.7898543976348873,-4.241232815964525,-8.374307464892832
0.9116629711751664,3.514774152676592,-4.468260057016159,-8.592333544504278
0.919660014781966,3.5148303387109103,-4.562456210549566,-8.565605448938502
0.9276570583887658,3.5115212172184416,-4.626616399486879,-8.528653592272601
0.9356541019955654,3.508212095725973,-4.690776588424192,-8.491701735606698
0.9436511456023652,3.504902974233504,-4.754936777361505,-8.454749878940795
0.9516481892091648,3.5015938527410353,-4.819096966298817,-8.417798022274894
0.9596452328159646,3.4982847312485665,-4.883257155236129,-8.380846165608991
0.9676422764227642,3.494975609756098,-4.9474173441734415,-8.34389430894309
0.975639320029564,3.4916664882636286,-5.011577533110755,-8.306942452277188
0.9836363636363636,3.48835736677116,-5.075737722048067,-8.269990595611285
0.9916334072431634,3.485048245278691,-5.13989791098538,-8.233038738945384
0.999630450849963,3.3890084996304455,-5.408624907612725,-7.967309312638567
1.0076274944567627,2.769080508377717,-6.580822136375065,-6.580822136375065
1.0156245380635625,2.779303533194657,-6.584861880052728,-6.584861880052728
1.0236215816703622,2.789526558011597,-6.588901623730389,-6.588901623730389
1.031618625277162,2.799749582828537,-6.592941367408051,-6.592941367408051
1.0396156688839617,2.8099726076454767,-6.596981111085713,-6.596981111085713
1.0476127124907613,2.8201956324624162,-6.601020854763374,-6.601020854763374
1.055609756097561,2.830418657279356,-6.605060598441036,-6.605060598441036
1.0636067997043608,2.840641682096296,-6.609100342118698,-6.609100342118698
1.0716038433111605,2.850864706913236,-6.613140085796359,-6.613140085796359
1.07960088691796,2.861087731730176,-6.617179829474021,-6.617179829474021
1.0875979305247598,2.871310756547116,-6.6212195731516825,-6.6212195731516825
1.0955949741315596,2.881533781364056,-6.625259316829344,-6.625259316829344
1.1035920177383594,2.882442652690987,-6.653165087683941,-6.615491231606526
1.111589061345159,2.766849022374523,-6.97958986763421,-6.433013236578649
1.1195861049519586,3.0835846267553575,-6.811281596452332,-6.75954471544715
1.1275831485587584,3.09,-6.768802155547448,-6.807197844452553
1.1355801921655582,3.09,-6.748556475530233,-6.827443524469768
1.1435772357723577,3.09,-6.728310795513019,-6.847689204486982
1.1515742793791575,3.09,-6.708065115495804,-6.867934884504196
1.1595713229859572,3.09,-6.687819435478589,-6.888180564521411
1.167568366592757,3.09,-6.667573755461375,-6.908426244538625
1.1755654101995565,3.09,-6.647328075444161,-6.9286719245558395
1.1835624538063563,3.09,-6.627082395426946,-6.9489176045730545
1.191559497413156,3.09,-6.606836715409732,-6.969163284590269
1.1995565410199558,3.09,-6.560172949002214,-7.015827050997786
1.2075535846267553,3.014,-6.380572308450354,-6.973427691549646
1.215550628233555,3.017606525656676,-6.472436641005839,-6.872436641005838
1.2235476718403548,3.0220093923615434,-6.466865666807843,-6.8668656668078425
1.2315447154471546,3.0264122590664106,-6.461294692609847,-6.861294692609848
1.2395417590539541,3.030815125771278,-6.4557237184118526,-6.855723718411852
1.247538802660754,3.0352179924761455,-6.450152744213857,-6.850152744213857
1.2555358462675537,3.0396208591810128,-6.444581770015862,-6.8445817700158615
1.2635328898743534,3.04402372588588,-6.439010795817866,-6.839010795817867
1.271529933481153,3.048426592590747,-6.433439821619871,-6.833439821619871
1.2795269770879527,3.0528294592956144,-6.427868847421876,-6.827868847421876
1.2875240206947525,3.0572323260004817,-6.42229787322388,-6.822297873223881
1.2955210643015522,3.061635192705349,-6.4167268990258854,-6.816726899025886
1.303518107908352,3.125736052319201,-6.384448938759359,-6.893649592749371
1.3115151515151515,3.129613406795225,-6.355207223752678,-6.91287480869299
1.3195121951219513,3.1334907612712493,-6.3259655087459965,-6.93210002463661
1.327509238728751,3.137368115747273,-6.296723793739314,-6.951325240580229
1.3355062823355508,3.1412454702232973,-6.267482078732632,-6.970550456523849
1.3435033259423503,3.1451228246993215,-6.238240363725951,-6.989775672467468
1.35150036954915,3.1490001791753457,-6.208998648719269,-7.009000888411088
1.3594974131559499,3.1528775336513695,-6.1797569337125875,-7.028226104354707
1.3674944567627496,3.1567548881273937,-6.150515218705905,-7.047451320298327
1.3754915003695491,3.160632242603418,-6.121273503699224,-7.066676536241946
1.383488543976349,3.164509597079442,-6.092031788692542,-7.085901752185566
1.3914855875831487,3.168386951555466,-6.06279007368586,-7.105126968129186
1.3994826311899484,3.17226430603149,-6.0335483586791785,-7.124352184072805
1.407479674796748,3.309586327476178,-6.309263397150101,-7.109263397150101
1.4154767184035477,3.307350594854922,-6.294473165963331,-7.094473165963331
1.4234737620103475,3.3051148622336664,-6.279682934776562,-7.079682934776562
1.4314708056171472,3.3028791296124105,-6.264892703589792,-7.064892703589792
1.4394678492239468,3.3006433969911546,-6.250102472403023,-7.050102472403023
1.4474648928307465,3.2984076643698987,-6.235312241216254,-7.035312241216254
1.4554619364375463,3.296171931748643,-6.220522010029485,-7.0205220100294845
1.463458980044346,3.293936199127387,-6.205731778842715,-7.005731778842716
1.4714560236511456,3.291700466506131,-6.190941547655946,-6.990941547655946
1.4794530672579453,3.2894647338848753,-6.176151316469176,-6.976151316469177
1.487450110864745,3.2872290012636194,-6.161361085282407,-6.961361085282407
1.4954471544715449,3.2849932686423635,-6.146570854095637,-6.946570854095638
1.5034441980783444,3.284,-6.184441980783443,-6.895558019216557
1.5114412416851442,3.345,-6.314,-6.814
1.519438285291944,3.3408961184596175,-6.310751093780531,-6.827850600198792
1.5274353288987437,3.336483956469659,-6.307258132205146,-6.842741646914902
1.5354323725055434,3.3320717944797003,-6.303765170629763,-6.857632693631012
1.543429416112343,3.327659632489742,-6.300272209054379,-6.8725237403471215
1.5514264597191427,3.3232474704997834,-6.296779247478995,-6.887414787063231
1.5594235033259425,3.318835308509825,-6.293286285903611,-6.902305833779341
1.5674205469327422,3.3144231465198666,-6.289793324328228,-6.917196880495451
1.5754175905395418,3.310010984529908,-6.2863003627528435,-6.932087927211561
1.5834146341463415,3.3055988225399497,-6.28280740117746,-6.946978973927671
1.5914116777531413,3.301186660549991,-6.279314439602076,-6.96187002064378
1.599408721359941,3.306809312638586,-6.263329637841826,-6.963329637841826
1.6074057649667406,3.4047772902322326,-6.186311238184152,-6.989896253938616
1.6154028085735403,3.399558167036216,-6.1799977827051,-6.9920007390983
1.62339985218034,3.394339043840199,-6.173684327226048,-6.994105224257984
1.6313968957871399,3.3891199206441827,-6.167370871746995,-6.996209709417668
1.6393939393939394,3.383900797448166,-6.161057416267942,-6.998314194577352
1.6473909830007392,3.3786816742521495,-6.15474396078889,-7.000418679737036
1.655388026607539,3.3734625510561327,-6.148430505309838,-7.002523164896721
1.6633850702143387,3.368243427860116,-6.1421170498307855,-7.004627650056405
1.6713821138211382,3.3630243046640995,-6.135803594351733,-7.006732135216089
1.679379157427938,3.3578051814680827,-6.12949013887268,-7.0088366203757735
1.6873762010347377,3.352586058272066,-6.123176683393628,-7.010941105535458
1.6953732446415375,3.3473669350760495,-6.116863227914576,-7.013045590695142
1.703370288248337,3.322412416851443,-6.123627494456762,-6.986598669623063
1.7113673318551368,3.284,-6.14,-6.94
1.7193643754619365,3.284,-6.14,-6.94
1.7273614190687363,3.284,-6.14,-6.94
1.7353584626755358,3.284,-6.14,-6.94
1.7433555062823356,3.284,-6.14,-6.94
1.7513525498891354,3.284,-6.14,-6.94
1.7593495934959351,3.284,-6.14,-6.94
1.7673466371027347,3.284,-6.14,-6.94
1.7753436807095344,3.284,-6.14,-6.94
1.7833407243163342,3.284,-6.14,-6.94
1.791337767923134,3.284,-6.14,-6.94
1.7993348115299337,3.275797117516623,-6.150379157427946,-6.950379157427947
1.8073318551367332,3.2991744738787103,-6.175123196016649,-7.078630411950052
1.815328898743533,3.3043935970747267,-6.173018710856965,-7.0849438674291045
1.8233259423503327,3.3096127202707435,-6.170914225697281,-7.091257322908157
1.8313229859571325,3.3148318434667603,-6.168809740537597,-7.09757077838721
1.839320029563932,3.3200509666627767,-6.166705255377913,-7.103884233866262
1.8473170731707318,3.3252700898587935,-6.164600770218229,-7.1101976893453145
1.8553141167775316,3.3304892130548103,-6.162496285058545,-7.116511144824367
1.8633111603843313,3.3357083362508266,-6.16039179989886,-7.122824600303419
1.8713082039911308,3.3409274594468434,-6.158287314739176,-7.129138055782471
1.8793052475979306,3.34614658264286,-6.156182829579492,-7.1354515112615235
1.8873022912047304,3.3513657058388766,-6.1540783444198075,-7.141764966740577
1.8952993348115301,3.3565848290348934,-6.151973859260123,-7.148078422219629
1.9032963784183297,3.3020790835181097,-6.032294161123429,-7.061932002956396
1.9112934220251294,3.340316855331233,-6.015996094448983,-7.108318808106741
1.9192904656319292,3.3351819115416035,-6.018184759015054,-7.102089532034076
1.927287509238729,3.330046967751974,-6.020373423581126,-7.095860255961411
1.9352845528455285,3.324912023962345,-6.022562088147198,-7.089630979888746
1.9432815964523282,3.3197770801727158,-6.024750752713269,-7.083401703816081
1.951278640059128,3.3146421363830862,-6.0269394172793405,-7.077172427743416
1.9592756836659277,3.3095071925934567,-6.029128081845412,-7.070943151670751
1.9672727272727273,3.3043722488038276,-6.031316746411483,-7.064713875598086
1.975269770879527,3.2992373050141985,-6.033505410977555,-7.058484599525421
1.9832668144863268,3.294102361224569,-6.035694075543626,-7.052255323452756
1.9912638580931266,3.2889674174349395,-6.037882740109698,-7.046026047380091
1.999260901699926,3.284,-6.04,-7.04
2.007257945306726,3.394,-6.049534100737525,-6.956465899262475
2.0152549889135254,3.394,-6.041026607538803,-6.964973392461197
2.0232520325203254,3.394,-6.032519114340079,-6.973480885659921
2.031249076127125,3.394,-6.024011621141357,-6.981988378858643
2.039246119733925,3.394,-6.015504127942633,-6.990495872057367
2.0472431633407244,3.394,-6.00699663474391,-6.99900336525609
2.055240206947524,3.394,-5.998489141545187,-7.007510858454813
2.063237250554324,3.394,-5.989981648346464,-7.016018351653536
2.0712342941611235,3.394,-5.981474155147741,-7.024525844852259
2.0792313377679235,3.394,-5.972966661949018,-7.033033338050982
2.087228381374723,3.394,-5.964459168750295,-7.041540831249705
2.0952254249815225,3.394,-5.955951675551572,-7.050048324448428
2.1032224685883225,3.4557427706947523,-6.0269698740453315,-7.0272016121581675
2.111219512195122,3.44649618902439,-6.0258869410569105,-7.034448932926829
2.1192165558019216,3.4372496073540284,-6.02480400806849,-7.041696253695491
2.1272135994087216,3.4280030256836658,-6.023721075080069,-7.048943574464154
2.135210643015521,3.418756444013304,-6.022638142091648,-7.056190895232816
2.143207686622321,3.4095098623429414,-6.021555209103227,-7.063438216001479
2.1512047302291206,3.400263280672579,-6.020472276114806,-7.0706855367701404
2.15920177383592,3.3910166990022175,-6.019389343126386,-7.077932857538802
2.16719881744272,3.381770117331855,-6.018306410137965,-7.085180178307465
2.1751958610495197,3.372523535661493,-6.017223477149544,-7.092427499076127
2.183192904656319,3.363276953991131,-6.016140544161123,-7.09967481984479
2.191189948263119,3.3540303723207683,-6.015057611172703,-7.1069221406134515
2.1991869918699187,3.3392967479674747,-6.016430894308946,-7.107081300813002
2.2071840354767187,3.222,-5.966,-7.066
2.2151810790835182,3.222,-5.966,-7.066
2.223178122690318,3.222,-5.966,-7.066
2.2311751662971178,3.222,-5.966,-7.066
2.2391722099039173,3.222,-5.966,-7.066
2.247169253510717,3.222,-5.966,-7.066
2.255166297117517,3.222,-5.966,-7.066
2.2631633407243164,3.222,-5.966,-7.066
2.2711603843311163,3.222,-5.966,-7.066
2.279157427937916,3.222,-5.966,-7.066
2.2871544715447154,3.222,-5.966,-7.066
2.2951515151515154,3.222,-5.966,-7.066
2.303148558758315,3.137394678492235,-5.885503325942345,-7.242931263858095
2.311145602365115,3.1156634457540755,-5.852044361457969,-7.2595660481580895
2.3191426459719144,3.120882568950092,-5.849855696891897,-7.265795324230754
2.327139689578714,3.1261016921461082,-5.847667032325826,-7.2720246003034195
2.335136733185514,3.131320815342125,-5.845478367759754,-7.278253876376084
2.3431337767923135,3.136539938538142,-5.843289703193682,-7.284483152448749
2.351130820399113,3.141759061734158,-5.841101038627611,-7.290712428521414
2.359127864005913,3.146978184930175,-5.83891237406154,-7.296941704594079
2.3671249076127125,3.1521973081261914,-5.836723709495469,-7.303170980666745
2.3751219512195125,3.157416431322208,-5.834535044929397,-7.30940025673941
2.383118994826312,3.162635554518225,-5.832346380363325,-7.315629532812075
2.3911160384331116,3.1678546777142413,-5.830157715797254,-7.321858808884739
2.3991130820399116,3.1667804878048633,-5.832919068736154,-7.327264966740575
2.407110125646711,3.060970233788462,-5.812577375812036,-7.415851192282258
2.4151071692535107,3.0557511105924458,-5.806348099739371,-7.4180398568483294
2.4231042128603106,3.050531987396429,-5.800118823666706,-7.420228521414401
2.43110125646711,3.0453128642004126,-5.79388954759404,-7.422417185980472
2.43909830007391,3.0400937410043953,-5.787660271521375,-7.424605850546544
2.4470953436807097,3.034874617808379,-5.78143099544871,-7.426794515112615
2.4550923872875092,3.0296554946123626,-5.775201719376046,-7.428983179678687
2.463089430894309,3.024436371416346,-5.76897244330338,-7.4311718442447585
2.4710864745011087,3.019217248220329,-5.762743167230715,-7.433360508810829
2.4790835181079083,3.0139981250243126,-5.7565138911580505,-7.435549173376901
2.4870805617147083,3.008779001828296,-5.750284615085385,-7.437737837942973
2.495077605321508,3.003559878632279,-5.74405533901272,-7.439926502509044
2.5030746489283078,2.9283569844789126,-5.80601699926094,-7.244819660014759
2.5110716925351073,2.8862304197300346,-5.866797518185708,-7.22634861321819
2.519068736141907,2.8966686661220677,-5.837166367137356,-7.264060987279729
2.527065779748707,2.9071069125141014,-5.807535216089002,-7.30177336134127
2.5350628233555064,2.9175451589061345,-5.777904065040651,-7.339485735402809
2.543059866962306,2.9279834052981673,-5.748272913992299,-7.377198109464347
2.551056910569106,2.938421651690201,-5.718641762943945,-7.4149104835258886
2.5590539541759054,2.948859898082234,-5.689010611895593,-7.452622857587427
2.5670509977827054,2.9592981444742676,-5.65937946084724,-7.4903352316489675
2.575048041389505,2.969736390866301,-5.629748309798888,-7.528047605710507
2.5830450849963045,2.980174637258334,-5.600117158750536,-7.565759979772046
2.5910421286031045,2.9906128836503676,-5.570486007702183,-7.603472353833586
2.599039172209904,3.0022143385070175,-5.540490761271251,-7.642449371766441
2.607036215816704,2.8406229120473085,-5.787815077605325,-7.187090761271245
2.6150332594235035,2.92477972322043,-5.834416774982797,-7.137903280067284
2.623030303030303,2.9215625217694186,-5.843424939045629,-7.1561034482758625
2.631027346637103,2.918345320318407,-5.852433103108461,-7.174303616484441
2.6390243902439026,2.9151281188673956,-5.861441267171293,-7.192503784693019
2.647021433850702,2.9119109174163844,-5.870449431234125,-7.210703952901598
2.655018477457502,2.9086937159653727,-5.879457595296957,-7.228904121110177
2.6630155210643016,2.9054765145143615,-5.888465759359788,-7.247104289318756
2.6710125646711016,2.90225931306335,-5.897473923422621,-7.265304457527335
2.679009608277901,2.8990421116123386,-5.906482087485452,-7.283504625735913
2.6870066518847007,2.8958249101613274,-5.915490251548284,-7.3017047939444915
2.6950036954915007,2.8926077087103157,-5.924498415611116,-7.31990496215307
2.7030007390983,2.85293643754619,-5.623467849223945,-7.523541759053956
2.7109977827050997,2.767,-5.587366087057999,-7.572633912942001
2.7189948263118997,2.767,-5.5957840276967366,-7.564215972303264
2.7269918699186992,2.767,-5.604201968335473,-7.555798031664527
2.734988913525499,2.767,-5.612619908974209,-7.547380091025791
2.7429859571322988,2.767,-5.621037849612946,-7.5389621503870545
2.7509830007390983,2.767,-5.629455790251682,-7.530544209748318
2.7589800443458983,2.767,-5.637873730890419,-7.522126269109581
2.766977087952698,2.767,-5.646291671529156,-7.513708328470845
2.7749741315594973,2.767,-5.654709612167892,-7.505290387832108
2.7829711751662973,2.767,-5.663127552806628,-7.496872447193372
2.790968218773097,2.767,-5.671545493445365,-7.4884545065546355
2.798965262379897,2.767,-5.679963434084102,-7.480036565915898
2.8069623059866964,2.683433949756559,-5.620853178503667,-7.420853178503668
2.814959349593496,2.7925894728019465,-5.590761210292515,-7.390761210292515
2.822956393200296,2.90174499584734,-5.56066924208136,-7.360669242081361
2.8309534368070954,3.010900518892728,-5.5305772738702075,-7.330577273870207
2.8389504804138954,3.1200560419381214,-5.500485305659052,-7.300485305659053
2.846947524020695,3.2292115649835087,-5.4703933374478995,-7.2703933374479
2.8549445676274945,3.3383670880288965,-5.440301369236747,-7.2403013692367475
2.8629416112342945,3.44752261107429,-5.410209401025592,-7.210209401025592
2.870938654841094,3.5566781341196774,-5.38011743281444,-7.1801174328144395
2.8789356984478935,3.665833657165065,-5.350025464603287,-7.150025464603287
2.8869327420546935,3.7749891802104587,-5.3199334963921325,-7.119933496392132
2.894929785661493,3.8841447032558465,-5.289841528180979,-7.089841528180979
2.902926829268293,3.97278048780488,-5.27278048780488,-7.090297117516636
2.9109238728750926,3.996771618625278,-5.296771618625278,-7.186988644762485
2.918920916481892,3.9252515221905466,-5.239254795340161,-7.229919279907085
2.926917960088692,3.9094478407771085,-5.252011983951008,-7.223635888501741
2.9349150036954916,3.8936441593636713,-5.264769172561856,-7.2173524970964
2.942912047302291,3.877840477950234,-5.277526361172702,-7.211069105691057
2.950909090909091,3.862036796536796,-5.29028354978355,-7.2047857142857135
2.9589061345158907,3.846233115123359,-5.3030407383943965,-7.198502322880372
2.9669031781226907,3.830429433709921,-5.315797927005244,-7.192218931475028
2.97490022172949,3.8146257522964837,-5.3285551156160915,-7.1859355400696865
2.9828972653362897,3.7988220708830465,-5.341312304226938,-7.179652148664344
2.9908943089430897,3.7830183894696083,-5.354069492837786,-7.173368757259001
2.9988913525498893,3.7672147080561715,-5.366826681448632,-7.167085365853659
3.006888396156689,3.8881843311160362,-5.405952254249817,-7.214836215816706
3.0148854397634888,3.781823651145599,-5.459532446415374,-7.348386844050263
3.0228824833702883,3.684699002217296,-5.287476552106426,-7.3091114190687385
3.0308795269770883,3.7136882852919455,-5.157224704360671,-7.378085920177388
3.038876570583888,3.742677568366594,-5.026972856614924,-7.447060421286034
3.0468736141906874,3.771666851441242,-4.896721008869177,-7.51603492239468
3.0548706577974873,3.8006561345158922,-4.766469161123422,-7.58500942350333
3.062867701404287,3.8296454175905406,-4.636217313377675,-7.653983924611976
3.070864745011087,3.85863470066519,-4.50596546563192,-7.722958425720625
3.0788617886178864,3.8876239837398385,-4.375713617886173,-7.791932926829271
3.086858832224686,3.916613266814487,-4.245461770140426,-7.860907427937917
3.094855875831486,3.945602549889137,-4.115209922394671,-7.929881929046567
3.1028529194382855,3.769114876992924,-4.328098828001269,-7.9313237250554325
3.110849963045085,3.6396050128733055,-4.469007732105293,-7.914996133947353
3.118847006651885,3.6249291196608264,-4.46039553129797,-7.919302234351015
3.1268440502586845,3.6102532264483482,-4.451783330490648,-7.923608334754676
3.1348410938654845,3.595577333235869,-4.443171129683325,-7.927914435158337
3.142838137472284,3.580901440023391,-4.434558928876002,-7.932220535561999
3.1508351810790836,3.5662255468109127,-4.42594672806868,-7.93652663596566
3.1588322246858835,3.5515496535984337,-4.417334527261357,-7.940832736369321
3.166829268292683,3.5368737603859555,-4.408722326454034,-7.945138836772983
3.1748263118994826,3.5221978671734773,-4.4001101256467114,-7.9494449371766445
3.1828233555062826,3.507521973960998,-4.391497924839388,-7.9537510375803055
3.190820399113082,3.49284608074852,-4.382885724032066,-7.9580571379839675
3.198817442719882,3.478170187536041,-4.374273523224743,-7.962363238387629
3.2068144863266816,3.387746489283072,-4.454904656319283,-7.992909830007398
3.214811529933481,3.2900873273068396,-4.524397748592871,-8.040471260446871
3.222808573540281,3.28358423690131,-4.535031180201912,-8.039592464446123
3.2308056171470807,3.2770811464957808,-4.545664611810953,-8.038713668445377
3.2388026607538802,3.2705780560902515,-4.556298043419995,-8.037834872444629
3.24679970436068,3.264074965684722,-4.566931475029036,-8.036956076443882
3.2547967479674798,3.2575718752791927,-4.577564906638077,-8.036077280443134
3.2627937915742797,3.251068784873663,-4.588198338247119,-8.035198484442388
3.2707908351810793,3.2445656944681334,-4.598831769856161,-8.03431968844164
3.278787878787879,3.238062604062604,-4.609465201465201,-8.033440892440893
3.286784922394679,3.2315595136570745,-4.620098633074243,-8.032562096440145
3.2947819660014783,3.2250564232515453,-4.630732064683285,-8.031683300439399
3.302779009608278,2.981671101256467,-4.737914264597191,-7.980737620103474
3.310776053215078,2.8942167287823746,-4.6124045383780725,-8.095444779921687
3.3187730968218774,2.875840543473133,-4.616573210045447,-8.110332893019452
3.3267701404286774,2.8574643581638903,-4.620741881712821,-8.125221006117219
3.334767184035477,2.8390881728546487,-4.624910553380196,-8.140109119214983
3.3427642276422764,2.8207119875454074,-4.62907922504757,-8.154997232312748
3.3507612712490764,2.802335802236165,-4.633247896714944,-8.169885345410515
3.358758314855876,2.783959616926923,-4.637416568382318,-8.18477345850828
3.366755358462676,2.7655834316176806,-4.641585240049692,-8.199661571606045
3.3747524020694755,2.7472072463084394,-4.645753911717067,-8.21454968470381
3.382749445676275,2.7288310609991977,-4.649922583384441,-8.229437797801577
3.390746489283075,2.710454875689955,-4.654091255051815,-8.244325910899342
3.3987435328898745,2.692078690380714,-4.6582599267191895,-8.259214023997107
3.406740576496674,2.686577383592018,-4.6683995565410195,-8.306545898004435
3.414737620103474,2.7257597930524824,-4.732994826311912,-8.420383592017743
3.4227346637102736,2.7606508606488034,-4.803367135949562,-8.451771048718154
3.4307317073170736,2.7573749632677047,-4.7941175433441074,-8.461213341169557
3.438728750923873,2.754099065886606,-4.7848679507386525,-8.470655633620959
3.4467257945306726,2.7508231685055073,-4.7756183581331975,-8.48009792607236
3.4547228381374726,2.7475472711244087,-4.7663687655277425,-8.489540218523763
3.462719881744272,2.74427137374331,-4.7571191729222875,-8.498982510975164
3.4707169253510717,2.7409954763622117,-4.7478695803168325,-8.508424803426566
3.4787139689578717,2.7377195789811126,-4.7386199877113775,-8.517867095877968
3.486711012564671,2.7344436816000144,-4.7293703951059225,-8.527309388329371
3.494708056171471,2.7311677842189157,-4.7201208025004675,-8.536751680780773
3.5027050997782707,2.5614501108647283,-4.74513968957873,-8.442175166297092
3.5107021433850703,2.4287248505338335,-4.686540558933943,-8.301112262445756
3.5186991869918702,2.4143143363116795,-4.690103598164695,-8.291452467197939
3.5266962305986698,2.3999038220895255,-4.693666637395447,-8.281792671950122
3.5346932742054693,2.385493307867372,-4.6972296766262,-8.272132876702305
3.5426903178122693,2.3710827936452175,-4.700792715856952,-8.262473081454486
3.550687361419069,2.356672279423064,-4.704355755087704,-8.252813286206669
3.558684405025869,2.3422617652009095,-4.707918794318457,-8.243153490958852
3.5666814486326683,2.327851250978756,-4.711481833549209,-8.233493695711035
3.574678492239468,2.3134407367566023,-4.715044872779961,-8.223833900463216
3.582675535846268,2.299030222534448,-4.718607912010714,-8.214174105215399
3.5906725794530674,2.2846197083122943,-4.722170951241466,-8.204514309967582
3.5986696230598674,2.27020919409014,-4.725733990472218,-8.194854514719763
3.606666666666667,2.1929999999999716,-4.720666666666663,-8.22333333333335
3.6146637102734664,2.024948703256185,-4.517920833437139,-8.195176694320569
3.6226607538802664,2.011740103141583,-4.5395757492712825,-8.193379605869604
3.630657797487066,1.9985315030269815,-4.561230665105425,-8.191582517418636
3.6386548410938655,1.9853229029123798,-4.582885580939568,-8.18978542896767
3.6466518847006655,1.9721143027977777,-4.604540496773711,-8.187988340516704
3.654648928307465,1.9589057026831762,-4.626195412607854,-8.186191252065738
3.662645971914265,1.9456971025685739,-4.647850328441998,-8.184394163614773
3.6706430155210645,1.9324885024539724,-4.669505244276141,-8.182597075163805
3.678640059127864,1.9192799023393707,-4.691160160110283,-8.18079998671284
3.686637102734664,1.9060713022247686,-4.712815075944427,-8.179002898261873
3.6946341463414636,1.8928627021101672,-4.734469991778569,-8.177205809810907
3.702631189948263,1.9440768662232162,-4.430257206208412,-8.153311899482633
3.710628233555063,1.9758028200423092,-4.1952671203201035,-8.124744176415119
3.7186252771618626,2.066458960929735,-4.0990268369141365,-8.13432684073706
3.7266223207686626,2.1571151018171655,-4.002786553508165,-8.143909505059002
3.734619364375462,2.2477712427045913,-3.906546270102198,-8.153492169380941
3.7426164079822617,2.338427383592017,-3.810305986696231,-8.163074833702883
3.7506134515890617,2.4290835244794478,-3.714065703290259,-8.172657498024824
3.758610495195861,2.5197396653668735,-3.6178254198842925,-8.182240162346764
3.7666075388026607,2.6103958062542993,-3.5215851364783255,-8.191822826668705
3.7746045824094607,2.70105194714173,-3.4253448530723536,-8.201405490990647
3.7826016260162603,2.7917080880291554,-3.329104569666387,-8.210988155312588
3.7905986696230602,2.8823642289165865,-3.2328642862604147,-8.22057081963453
3.79859571322986,2.9730203698040123,-3.1366240028544476,-8.23015348395647
3.8065927568366593,3.0636765106914376,-3.040383719448481,-8.23973614827841
3.8145898004434593,3.1543326515788683,-2.944143436042509,-8.249318812600352
3.822586844050259,3.0580011086474337,-2.8400236511456,-7.95629305247595
3.8305838876570584,2.511731656693902,-3.062090564853345,-7.654397999372272
3.8385809312638584,2.477662059958083,-3.0511357105974546,-7.648591926616651
3.846577974870658,2.4435924632222656,-3.0401808563415647,-7.642785853861029
3.854575018477458,2.4095228664864465,-3.0292260020856743,-7.636979781105407
3.8625720620842574,2.375453269750629,-3.0182711478297843,-7.6311737083497855
3.870569105691057,2.3413836730148123,-3.0073162935738944,-7.625367635594164
3.878566149297857,2.3073140762789928,-2.996361439318004,-7.619561562838542
3.8865631929046565,2.273244479543176,-2.9854065850621145,-7.61375549008292
3.8945602365114564,2.2391748828073568,-2.974451730806224,-7.607949417327299
3.902557280118256,1.876512934220213,-3.1227280118255902,-7.246825572801142
3.9105543237250555,1.6704623059866957,-3.3766324833702894,-7.038609940872135
3.9185513673318555,1.5762938567888327,-3.3831391243858855,-7.007836963610281
3.926548410938655,1.5094009390896035,-3.1199893482891996,-7.07952810747359
3.9345454545454546,1.4425080213903745,-2.8568395721925137,-7.151219251336898
3.9425424981522545,1.3756151036911417,-2.5936897960958127,-7.222910395200211
3.950539541759054,1.3087221859919125,-2.330540019999127,-7.29460153906352
3.958536585365854,1.2418292682926797,-2.067390243902426,-7.366292682926833
3.9665336289726536,1.1749363505934507,-1.8042404678057402,-7.437983826790142
3.974530672579453,1.1080434328942215,-1.541090691709054,-7.5096749706534505
3.982527716186253,1.0411505151949887,-1.2779409156123536,-7.581366114516763
3.9905247597930527,0.9742575974957597,-1.0147911395156672,-7.6530572583800724
3.998521803399852,0.9073646797965306,-0.7516413634189814,-7.724748402243382
4.006518847006652,1.6276467110126076,-1.011013303769415,-7.56945158906134
4.014515890613452,0.2709371766444905,-1.3874929785661492,-7.798875092387288
4.022512934220251,0.1911368904404699,-1.3812825085310814,-7.821675174159865
4.030509977827051,0.11133660423644925,-1.3750720384960136,-7.844475255932442
4.038507021433851,0.03153631803241974,-1.3688615684609453,-7.867275337705022
4.046504065040651,-0.04826396817160089,-1.3626510984258775,-7.8900754194776
4.05450110864745,-0.12806425437562152,-1.35644062839081,-7.912875501250178
4.06249815225425,-0.20786454057964215,-1.3502301583557421,-7.935675583022755
4.070495195861049,-0.28766482678366284,-1.3440196883206745,-7.9584756647953325
4.07849223946785,-0.3674651129876923,-1.337809218285606,-7.9812757465679125
4.086489283074649,-0.447265399191713,-1.3315987482505385,-8.00407582834049
4.094486326681449,-0.5270656853957336,-1.3253882782154707,-8.026875910113066
4.102483370288248,-0.6068659715997542,-1.3191778081804029,-8.049675991885644
4.110480413895048,-0.6464840525328336,-2.45505223232052,-8.84631751987849
4.118477457501848,-0.6058836772983084,-2.844270981051498,-9.290988296256621
4.126474501108648,-0.5652833020637877,-3.2334897297824328,-9.735659072634705
4.134471544715447,-0.5246829268292672,-3.622708478513368,-10.180329849012788
4.142468588322247,-0.4840825515947465,-4.0119272272443025,-10.625000625390872
4.1504656319290465,-0.44348217636022585,-4.401145975975238,-11.069671401768954
4.158462675535847,-0.4028818011257007,-4.790364724706215,-11.514342178147087
4.1664597191426465,-0.36228142589118006,-5.17958347343715,-11.959012954525171
4.174456762749446,-0.3216810506566594,-5.5688022221680855,-12.403683730903253
4.1824538063562455,-0.28108067542213877,-5.958020970899021,-12.848354507281336
4.190450849963045,-0.24048030018761812,-6.347239719629956,-13.29302528365942
4.198447893569845,-0.19987992495309748,-6.73645846836089,-13.737696060037504
4.206444937176645,-3.4651394432127907,-10.599563439270886,-17.017259423503265
4.214441980783445,-1.3313507432043417,-14.003432536749603,-13.587525909501487
4.222439024390244,-0.15276422764223896,-13.881788617886174,-12.922349593495914
4.230436067997044,1.0258222879198635,-13.760144699022746,-12.257173277490343
4.238433111603843,2.204408803481966,-13.638500780159317,-11.59199696148477
4.246430155210644,3.3829953190441993,-13.516856861295874,-10.926820645479125
4.254427198817443,4.561581834606303,-13.395212942432446,-10.261644329473555
4.262424242424243,5.740168350168405,-13.273569023569017,-9.596468013467984
4.270421286031042,6.918754865730507,-13.151925104705589,-8.931291697462413
4.278418329637842,8.097341381292608,-13.03028118584216,-8.26611538145684
4.286415373244642,9.275927896854842,-12.908637266978719,-7.600939065451195
4.294412416851442,10.454514412416945,-12.78699334811529,-6.935762749445623
4.302409460458241,8.970613451586766,-9.498356245376584,3.000195861048719
4.310406504065041,7.6291643437861705,-1.5877177700348721,-1.8398321718931943
4.31840354767184,5.264242703289664,-2.139024163989339,-2.7300336893072377
4.32640059127864,2.899321062793157,-2.6903305579438057,-3.620235206721281
4.33439763488544,0.5343994222963868,-3.241636951898334,-4.510436724135424
4.34239467849224,-1.8305222182001195,-3.792943345852801,-5.400638241549467
4.350391722099039,-4.195443858696628,-4.3442497398072675,-6.290839758963511
4.358388765705839,-6.560365499193134,-4.895556133761734,-7.181041276377554
4.366385809312638,-8.925287139689642,-5.446862527716201,-8.071242793791598
4.374382852919439,-11.29020878018641,-5.998168921670729,-8.96144431120574
4.382379896526238,-13.655130420682918,-6.5494753156251955,-9.851645828619784
4.390376940133038,-16.020052061179427,-7.100781709579662,-10.741847346033827
4.3983739837398375,-18.384973701675932,-7.652088103534129,-11.63204886344787
4.406371027346637,-6.6840764966769655,-10.45957575757662,-30.016127124908742
4.414368070953437,20.88199995474901,17.056642517760864,19.066163491560552
4.422365114560237,18.539927010271928,13.273714481801541,14.325711887415661
4.4303621581670365,16.19785406579485,9.49078644584222,9.58526028327077
4.438359201773836,13.855781121317769,5.707858409882899,4.8448086791258795
4.446356245380636,11.513708176840689,1.92493037392358,0.10435707498098878
4.454353288987436,9.171635232363348,-1.857997662036162,-4.636094529164431
4.4623503325942355,6.829562287886269,-5.640925697995485,-9.376546133309319
4.470347376201035,4.487489343409187,-9.423853733954804,-14.116997737454213
4.478344419807835,2.1454163989321096,-13.206781769914127,-18.8574493415991
4.486341463414634,-0.1966565455449718,-16.989709805873442,-23.597900945743994
4.494338507021434,-2.5387294900220496,-20.772637841832765,-28.33835254988889
4.502335550628234,-4.88080243449939,-24.555565877792507,-33.0788041540343
4.510332594235034,-0.9970862527716009,-11.592249445676282,-12.55823015521063
4.518329637841833,1.378835402808592,-12.49991389504805,-10.789284109386536
4.526326681448633,1.5788722239819801,-12.134044108330698,-10.01465595854011
4.534323725055432,1.5798242529827897,-11.651651013620537,-9.331003933058827
4.542320768662233,1.580776281983599,-11.169257918910324,-8.64735190757747
4.550317812269032,1.5817283109844087,-10.686864824200164,-7.963699882096186
4.558314855875832,1.582680339985218,-10.204471729490004,-7.280047856614905
4.566311899482631,1.5836323689860277,-9.722078634779844,-6.596395831133622
4.574308943089431,1.584584397986837,-9.239685540069685,-5.912743805652339
4.582305986696231,1.5855364269876466,-8.757292445359472,-5.2290917801709815
4.590303030303031,1.5864884559884562,-8.274899350649312,-4.545439754689699
4.59830007390983,1.5874404849892656,-7.792506255939151,-3.861787729208417
4.60629711751663,-0.4001245261426249,-3.721907374293683,-8.62332296211524
4.614294161123429,-0.4842224685883233,-3.6924988913525496,-8.309030549396399
4.62229120473023,-0.568320411034031,-3.663090408411412,-7.9947381366775225
4.630288248337029,-0.6524183534797294,-3.6336819254702784,-7.68044572395868
4.638285291943829,-0.7365162959254278,-3.604273442529145,-7.366153311239838
4.646282335550628,-0.8206142383711261,-3.574864959588011,-7.051860898520996
4.654279379157428,-0.9047121808168245,-3.5454564766468772,-6.737568485802154
4.6622764227642275,-0.9888101232625229,-3.5160479937057434,-6.423276073083311
4.670273466371028,-1.0729080657082306,-3.4866395107646064,-6.108983660364435
4.6782705099778275,-1.157006008153929,-3.4572310278234726,-5.794691247645593
4.686267553584627,-1.2411039505996273,-3.4278225448823387,-5.480398834926751
4.6942645971914265,-1.3252018930453258,-3.398414061941205,-5.166106422207909
4.702261640798226,-1.871075388026615,-0.6676674057649767,-6.217348115299322
4.7102586844050265,-0.07725267521449448,0.10647522092612505,-7.833510659082876
4.718255728011826,0.010367106912178542,0.15772583951926633,-7.835318686333109
4.726252771618626,0.09798688903885157,0.20897645811240761,-7.837126713583341
4.734249815225425,0.1856066711655246,0.2602270767055489,-7.838934740833574
4.742246858832225,0.2732264532921976,0.3114776952986902,-7.840742768083808
4.750243902439025,0.36084623541888033,0.36272831389183713,-7.8425507953340405
4.758240946045825,0.4484660175455534,0.4139789324849784,-7.844358822584273
4.766237989652624,0.5360857996722264,0.4652295510781197,-7.846166849834506
4.774235033259424,0.6237055817988995,0.516480169671261,-7.847974877084739
4.782232076866223,0.7113253639255724,0.5677307882644023,-7.8497829043349725
4.790229120473023,0.7989451460522454,0.6189814068575435,-7.851590931585205
4.798226164079823,0.8865649281789282,0.6702320254506905,-7.853398958835438
4.806223207686623,0.9741847103056013,0.7214826440438318,-7.855206986085671
4.814220251293422,1.061804492432274,0.7727332626369731,-7.8570150133359045
4.822217294900222,1.1494242745589471,0.8239838812301143,-7.858823040586137
4.830214338507021,6.710506219876545,-0.2939789096738624,-7.423721203793336
4.838211382113822,7.043115653269242,-0.4518923623039201,-6.94772815756322
4.846208425720621,7.375725086661901,-0.6098058149339602,-6.471735111333156
4.854205469327421,7.70833452005456,-0.7677192675640004,-5.995742065103092
4.86220251293422,8.04094395344722,-0.9256327201940405,-5.519749018873028
4.87019955654102,8.373553386839879,-1.0835461728240807,-5.043755972642963
4.87819660014782,8.706162820232576,-1.2414596254541386,-4.567762926412846
4.88619364375462,9.038772253625234,-1.3993730780841787,-4.091769880182782
4.894190687361419,9.371381687017895,-1.5572865307142187,-3.615776833952718
4.902187730968219,9.634148066026118,-0.6277230845034045,-4.795577728504803
4.9101847745750185,10.339148388197179,1.5192797202797093,-6.897543237250547
4.918181818181819,10.021363636363843,1.8896363636363656,-7.090636363636235
4.926178861788618,10.1874390243902,1.8330731707317016,-6.656918699186989
4.934175905395418,9.543466565526874,1.7516295950519278,-6.630928307464892
4.9421729490022175,8.899494106663546,1.6701860193721543,-6.604937915742793
4.950169992609017,8.255521647800219,1.5887424436923805,-6.578947524020695
4.958167036215817,7.611549188936893,1.507298868012607,-6.552957132298596
4.966164079822617,6.967576730073494,1.4258552923328243,-6.526966740576495
4.9741611234294165,6.323604271210168,1.3444117166530507,-6.500976348854397
4.982158167036216,5.679631812346841,1.262968140973277,-6.474985957132299
4.990155210643016,5.0356593534835135,1.1815245652935031,-6.4489955654102005
4.998152254249815,4.431328898743538,-1.5589641537325583,-6.335919807834474
5.0061492978566156,4.501512687854157,-2.2789324135665687,-6.5090734917542
5.014146341463415,4.546829268292687,-2.3526829268292753,-6.4946141906873605
5.022143385070215,4.592145848731218,-2.426433440091982,-6.480154889620521
5.030140428677014,4.637462429169749,-2.500183953354689,-6.4656955885536815
5.038137472283814,4.6827790096082795,-2.5739344666173953,-6.451236287486841
5.046134515890614,4.728095590046815,-2.6476849798801103,-6.436776986420001
5.054131559497414,4.773412170485345,-2.721435493142817,-6.4223176853531605
5.062128603104213,4.818728750923876,-2.7951860064055234,-6.407858384286321
5.070125646711013,4.864045331362407,-2.8689365196682304,-6.393399083219482
5.078122690317812,4.9093619118009375,-2.942687032930937,-6.378939782152642
5.086119733924612,4.954678492239468,-3.0164375461936435,-6.364480481085803
5.094116777531412,4.999995072678003,-3.0901880594563584,-6.350021180018961
5.102113821138212,4.114012195121823,-5.096955284553207,-5.7958739837399
5.110110864745011,3.191196254186915,-6.133479643345755,-6.86865023352361
5.118107908351811,3.113267616486613,-6.218724725196958,-6.941644525168654
5.12610495195861,3.0353389787863105,-6.303969807048163,-7.014638816813696
5.134101995565411,2.9574103410859993,-6.389214888899376,-7.087633108458747
5.14209903917221,2.879481703385697,-6.474459970750581,-7.16062740010379
5.15009608277901,2.8015530656853946,-6.559705052601784,-7.233621691748834
5.158093126385809,2.7236244279850923,-6.644950134452989,-7.306615983393876
5.166090169992609,2.64569579028479,-6.7301952163041925,-7.379610275038919
5.174087213599409,2.567767152584479,-6.815440298155407,-7.452604566683971
5.182084257206209,2.489838514884177,-6.90068538000661,-7.525598858329014
5.1900813008130084,2.4119098771838745,-6.985930461857815,-7.598593149974056
5.198078344419808,2.333981239483572,-7.071175543709019,-7.671587441619099
5.2060753880266075,0.6594536585365176,-7.620144567627516,-7.916317960088701
5.214072431633408,-0.28277266157509984,-7.826155842982673,-6.45716682269853
5.2220694752402075,-0.27362048944731815,-7.834774878870001,-6.458410807259588
5.230066518847007,-0.26446831731953646,-7.84339391475733,-6.459654791820645
5.2380635624538066,-0.2553161451917548,-7.852012950644658,-6.460898776381703
5.246060606060606,-0.24616397306397303,-7.8606319865319865,-6.462142760942761
5.254057649667406,-0.23701180093619134,-7.869251022419315,-6.4633867455038185
5.262054693274206,-0.22785962880840863,-7.8778700583066446,-6.464630730064877
5.270051736881006,-0.2187074566806269,-7.886489094193973,-6.465874714625934
5.278048780487805,-0.20955528455284522,-7.895108130081301,-6.467118699186992
5.286045824094605,-0.2004031124250635,-7.903727165968629,-6.468362683748049
5.294042867701404,-0.1912509402972818,-7.912346201855958,-6.469606668309107
5.302039911308205,-0.1820987681694991,-7.920965237743287,-6.4708506528701655
5.310036954915004,0.3099053954176028,-8.036363932002951,-6.949837102734686
5.318033998521804,0.5670641237942886,-7.748946635231598,-7.885901447322872
5.326031042128603,0.5821471554071129,-7.7363943136209254,-7.862720143703162
5.334028085735403,0.5972301870199374,-7.723841992010253,-7.839538840083452
5.342025129342203,0.6123132186327633,-7.711289670399579,-7.816357536463739
5.350022172949003,0.6273962502455876,-7.698737348788907,-7.79317623284403
5.358019216555802,0.642479281858412,-7.686185027178234,-7.76999492922432
5.366016260162602,0.6575623134712363,-7.673632705567561,-7.74681362560461
5.374013303769401,0.6726453450840606,-7.661080383956889,-7.7236323219849
5.382010347376202,0.6877283766968866,-7.648528062346215,-7.700451018365188
5.390007390983001,0.7028114083097109,-7.635975740735542,-7.677269714745478
5.398004434589801,0.7210221729490032,-7.567460247069992,-7.609935064935056
5.4060014781966,0.642036954915017,-7.03686991869914,-7.270578713968806
5.4139985218034,0.6660002111709429,-6.9351567700592085,-6.979386012361622
5.4219955654101994,0.6648577763699716,-6.91933844204576,-6.971828366755196
5.429992609017,0.663715341569,-6.903520114032308,-6.964270721148769
5.437989652623799,0.6625729067680287,-6.887701786018859,-6.956713075542344
5.445986696230599,0.6614304719670573,-6.871883458005409,-6.949155429935917
5.4539837398373985,0.660288037166086,-6.8560651299919595,-6.941597784329492
5.461980783444198,0.6591456023651147,-6.84024680197851,-6.9340401387230655
5.469977827050998,0.6580031675641431,-6.8244284739650585,-6.926482493116639
5.477974870657798,0.6568607327631718,-6.808610145951609,-6.918924847510214
5.4859719142645975,0.6557182979622004,-6.792791817938159,-6.911367201903787
5.493968957871397,0.6545758631612291,-6.77697348992471,-6.903809556297362
5.501966001478197,0.5203728750924075,-6.426481892091665,-7.062300073909818
5.509963045084997,0.47618952814410703,-6.214703364842261,-7.173508989769321
5.5179600886917965,0.6333524798693138,-6.219669949819116,-7.156757287898236
5.525957132298596,0.7905154315945204,-6.2246365347959705,-7.140005586027151
5.533954175905396,0.9476783833197271,-6.2296031197728245,-7.123253884156066
5.541951219512195,1.1048413350449338,-6.2345697047496795,-7.10650218228498
5.549948263118995,1.2620042867701404,-6.239536289726534,-7.089750480413895
5.557945306725795,1.4191672384953646,-6.244502874703389,-7.072998778542808
5.565942350332595,1.5763301902205713,-6.249469459680243,-7.056247076671723
5.573939393939394,1.733493141945778,-6.254436044657097,-7.039495374800637
5.581936437546194,1.8906560936709846,-6.259402629633952,-7.022743672929552
5.589933481152993,2.0478190453961913,-6.264369214610806,-7.005991971058467
5.597930524759794,2.2049819971214157,-6.269335799587661,-6.98924026918738
5.605927568366593,2.2131345158906126,-6.1858795269770805,-7.191858093126403
5.613924611973393,2.1827255089699658,-6.23221608546664,-7.362619330780085
5.621921655580192,2.178090858697843,-6.2285810656453675,-7.374069643217093
5.629918699186992,2.173456208425721,-6.224946045824095,-7.385519955654101
5.637915742793792,2.168821558153598,-6.221311026002822,-7.396970268091112
5.645912786400592,2.1641869078814753,-6.2176760061815495,-7.408420580528119
5.653909830007391,2.159552257609353,-6.214040986360277,-7.419870892965128
5.661906873614191,2.1549176073372305,-6.210405966539004,-7.431321205402137
5.66990391722099,2.150282957065108,-6.206770946717731,-7.4427715178391445
5.677900960827791,2.145648306792985,-6.203135926896459,-7.454221830276154
5.68589800443459,2.1410136565208626,-6.199500907075186,-7.465672142713163
5.69389504804139,2.13637900624874,-6.195865887253913,-7.477122455150171
5.701892091648189,2.1474454075119267,-6.178077806893771,-7.5116599475912125
5.709889135254989,2.172,-6.149,-7.564
5.7178861788617885,2.238,-6.055,-7.481
5.725883222468589,2.238,-6.055,-7.481
5.7338802660753885,2.238,-6.055,-7.481
5.741877309682188,2.238,-6.055,-7.481
5.7498743532889875,2.238,-6.055,-7.481
5.757871396895787,2.238,-6.055,-7.481
5.7658684405025875,2.238,-6.055,-7.481
5.773865484109387,2.238,-6.055,-7.481
5.781862527716187,2.238,-6.055,-7.481
5.789859571322986,2.238,-6.055,-7.481
5.797856614929786,2.238,-6.055,-7.481
5.805853658536586,2.255468135326515,-6.002376344086022,-7.070852609493835
5.813850702143386,2.2598536108528244,-6.00590192245031,-7.0601038949685675
5.821847745750185,2.264239086379134,-6.009427500814597,-7.049355180443299
5.829844789356985,2.2686245619054435,-6.012953079178886,-7.038606465918031
5.837841832963784,2.2730100374317526,-6.016478657543174,-7.027857751392763
5.845838876570584,2.277395512958062,-6.020004235907462,-7.017109036867494
5.853835920177384,2.281780988484372,-6.02352981427175,-7.006360322342225
5.861832963784184,2.2861664640106816,-6.027055392636038,-6.995611607816957
5.869830007390983,2.290551939536991,-6.030580971000326,-6.984862893291689
5.877827050997783,2.2949374150633006,-6.034106549364614,-6.9741141787664205
5.885824094604582,2.2993228905896097,-6.0376321277289025,-6.963365464241153
5.893821138211383,2.3037083661159197,-6.04115770609319,-6.952616749715883
5.901818181818182,2.3117272727272735,-6.184909090909115,-6.944454545454545
5.909815225424982,2.350863118994833,-6.402585070214363,-7.00099142645973
5.917812269031781,2.363800944686563,-6.45196887291757,-7.021975473829974
5.925809312638581,2.365915105640085,-6.460149756607285,-7.025468435405357
5.933806356245381,2.3680292665936067,-6.468330640296999,-7.028961396980741
5.941803399852181,2.3701434275471285,-6.476511523986714,-7.032454358556126
5.94980044345898,2.37225758850065,-6.4846924076764285,-7.035947320131509
5.95779748706578,2.3743717494541716,-6.492873291366143,-7.039440281706892
5.9657945306725795,2.3764859104076934,-6.501054175055857,-7.042933243282277
5.97379157427938,2.378600071361215,-6.509235058745572,-7.046426204857661
5.981788617886179,2.380714232314737,-6.517415942435287,-7.049919166433044
5.989785661492979,2.382828393268259,-6.5255968261250015,-7.053412128008428
5.9977827050997785,2.38494255422178,-6.533777709814715,-7.056905089583812
6.005779748706578,2.3641510224193105,-6.6889342202513,-7.178593249568859
6.013776792313378,2.381,-6.672,-7.26
6.021773835920178,2.381,-6.672,-7.26
6.0297708795269775,2.381,-6.672,-7.26
6.037767923133777,2.381,-6.672,-7.26
6.045764966740577,2.381,-6.672,-7.26
6.053762010347376,2.381,-6.672,-7.26
6.061759053954177,2.381,-6.672,-7.26
6.069756097560976,2.381,-6.672,-7.26
6.077753141167776,2.381,-6.672,-7.26
6.085750184774575,2.381,-6.672,-7.26
6.093747228381375,2.381,-6.672,-7.26
6.101744271988175,2.3571728146207027,-6.580775918833548,-7.22085533830544
6.109741315594975,2.311,-6.404,-7.145
6.117738359201774,2.2936485587583038,-6.338286031042086,-7.116573170731688
6.125735402808574,2.2652472968164026,-6.214774328652377,-7.071575584207021
6.133732446415373,2.2667282308176615,-6.201445922641044,-7.075820928343964
6.141729490022174,2.268209164818921,-6.188117516629711,-7.080066272480907
6.149726533628973,2.2696900988201802,-6.174789110618378,-7.08431161661785
6.157723577235773,2.271171032821439,-6.1614607046070455,-7.088556960754793
6.165720620842572,2.2726519668226985,-6.148132298595713,-7.092802304891736
6.173717664449372,2.2741329008239575,-6.13480389258438,-7.097047649028679
6.181714708056171,2.275613834825217,-6.121475486573048,-7.101292993165622
6.189711751662972,2.277094768826476,-6.108147080561714,-7.105538337302565
6.197708795269771,2.278575702827735,-6.094818674550382,-7.109783681439508
6.205705838876571,2.279,-6.091,-7.111
6.21370288248337,2.279,-6.091,-7.111
6.22169992609017,2.279,-6.091,-7.111
6.22969696969697,2.279,-6.091,-7.111
6.23769401330377,2.279,-6.091,-7.111
6.2456910569105695,2.279,-6.091,-7.111
6.253688100517369,2.279,-6.091,-7.111
6.2616851441241685,2.279,-6.091,-7.111
6.269682187730969,2.279,-6.091,-7.111
6.2776792313377685,2.279,-6.091,-7.111
6.285676274944568,2.279,-6.091,-7.111
6.293673318551368,2.279,-6.091,-7.111
6.301670362158167,2.2997728504557773,-6.257836659275693,-7.261471051983261
6.309667405764967,2.298,-6.319,-7.351
6.317664449371767,2.298,-6.319,-7.351
6.325661492978567,2.298,-6.319,-7.351
6.333658536585366,2.298,-6.319,-7.351
6.341655580192166,2.298,-6.319,-7.351
6.349652623798965,2.298,-6.319,-7.351
6.357649667405766,2.298,-6.319,-7.351
6.365646711012565,2.298,-6.319,-7.351
6.373643754619365,2.298,-6.319,-7.351
6.381640798226164,2.298,-6.319,-7.351
6.389637841832964,2.298,-6.319,-7.351
6.397634885439764,2.298,-6.319,-7.351
6.405631929046564,2.3304950902755768,-6.2875894836870385,-7.1946221095977165
6.413628972653363,2.285803748640142,-6.310371027346637,-7.104023584709799
6.421626016260163,2.2837370969215307,-6.302373983739837,-7.100609116652964
6.429623059866962,2.2816704452029195,-6.294376940133038,-7.097194648596128
6.437620103473763,2.2796037934843083,-6.286379896526237,-7.093780180539292
6.445617147080562,2.277537141765697,-6.278382852919438,-7.090365712482456
6.453614190687362,2.275470490047086,-6.270385809312638,-7.08695124442562
6.461611234294161,2.273403838328475,-6.262388765705839,-7.083536776368785
6.469608277900961,2.271337186609864,-6.254391722099039,-7.080122308311949
6.4776053215077605,2.2692705348912527,-6.24639467849224,-7.076707840255113
6.485602365114561,2.2672038831726415,-6.238397634885439,-7.073293372198277
6.49359940872136,2.2651372314540303,-6.23040059127864,-7.069878904141441
6.50159645232816,2.264,-6.226,-7.068
6.5095934959349595,2.264,-6.226,-7.068
6.517590539541759,2.264,-6.226,-7.068
6.5255875831485595,2.287,-6.315,-7.106
6.533584626755359,2.287,-6.315,-7.106
6.5415816703621585,2.287,-6.315,-7.106
6.549578713968958,2.287,-6.315,-7.106
6.557575757575758,2.287,-6.315,-7.106
6.565572801182558,2.287,-6.315,-7.106
6.573569844789358,2.287,-6.315,-7.106
6.581566888396157,2.287,-6.315,-7.106
6.589563932002957,2.287,-6.315,-7.106
6.597560975609756,2.287,-6.315,-7.106
6.605558019216556,2.300259423503324,-6.3144106922887415,-7.099517615176152
6.613555062823356,2.4088169735531335,-6.268366939811691,-7.141212718917703
6.621552106430156,2.3999159163212176,-6.271774375783284,-7.138639757061601
6.629549150036955,2.3910148590893017,-6.2751818117548765,-7.136066795205501
6.637546193643755,2.3821138018573857,-6.27858924772647,-7.133493833349401
6.645543237250554,2.37321274462547,-6.281996683698062,-7.1309208714932995
6.653540280857355,2.3643116873935526,-6.285404119669656,-7.128347909637198
6.661537324464154,2.3554106301616367,-6.2888115556412485,-7.125774947781098
6.669534368070954,2.3465095729297207,-6.292218991612842,-7.1232019859249975
6.677531411677753,2.337608515697805,-6.295626427584434,-7.120629024068896
6.685528455284553,2.328707458465889,-6.299033863556027,-7.118056062212796
6.693525498891353,2.3198064012339716,-6.3024412995276204,-7.115483100356695
6.701522542498153,2.3109053440020557,-6.305848735499214,-7.112910138500594
6.709519586104952,2.30200428677014,-6.309256171470806,-7.110337176644493
6.717516629711752,2.293103229538224,-6.312663607442399,-7.107764214788393
6.725513673318551,2.326,-6.27,-7.187
6.733510716925352,2.326,-6.27,-7.187
6.741507760532151,2.326,-6.27,-7.187
6.749504804138951,2.326,-6.27,-7.187
6.7575018477457505,2.326,-6.27,-7.187
6.76549889135255,2.326,-6.27,-7.187
6.7734959349593495,2.326,-6.27,-7.187
6.78149297856615,2.326,-6.27,-7.187
6.7894900221729495,2.326,-6.27,-7.187
6.797487065779749,2.326,-6.27,-7.187
6.805484109386549,2.303768767817548,-6.1875591806567405,-7.151800549044451
6.813481152993348,2.292571618625277,-6.192165188470067,-7.128902660753879
6.8214781966001485,2.2641466469573786,-6.22656745996551,-7.068242286277409
6.829475240206948,2.266599073663464,-6.236057285045579,-7.072294121704854
6.837472283813748,2.269051500369549,-6.2455471101256474,-7.076345957132299
6.845469327420547,2.2715039270756345,-6.255036935205716,-7.080397792559744
6.853466371027347,2.2739563537817196,-6.2645267602857855,-7.084449627987189
6.861463414634147,2.276408780487805,-6.274016585365855,-7.088501463414635
6.869460458240947,2.27886120719389,-6.2835064104459235,-7.09255329884208
6.877457501847746,2.2813136338999755,-6.292996235525993,-7.096605134269525
6.885454545454546,2.2837660606060606,-6.3024860606060615,-7.10065696969697
6.893451589061345,2.2862184873121456,-6.31197588568613,-7.104708805124415
6.901448632668145,2.287,-6.315,-7.106
6.909445676274945,2.287,-6.315,-7.106
6.917442719881745,2.287,-6.315,-7.106
6.925439763488544,2.287,-6.315,-7.106
6.933436807095344,2.287,-6.315,-7.106
6.941433850702143,2.287,-6.315,-7.106
6.949430894308944,2.287,-6.315,-7.106
6.957427937915743,2.287,-6.315,-7.106
6.965424981522543,2.287,-6.315,-7.106
6.973422025129342,2.287,-6.315,-7.106
6.981419068736142,2.287,-6.315,-7.106
6.989416112342942,2.287,-6.315,-7.106
6.997413155949742,2.287,-6.315,-7.106
7.005410199556541,2.287,-6.315,-7.106
7.013407243163341,2.287,-6.315,-7.106
7.0214042867701405,2.287,-6.315,-7.106
7.029401330376941,2.287,-6.315,-7.106
7.0373983739837405,2.287,-6.315,-7.106
7.04539541759054,2.287,-6.315,-7.106
7.0533924611973395,2.287,-6.315,-7.106
7.061389504804139,2.287,-6.315,-7.106
7.069386548410939,2.287,-6.315,-7.106
7.077383592017739,2.287,-6.315,-7.106
7.085380635624539,2.287,-6.315,-7.106
7.093377679231338,2.287,-6.315,-7.106
7.101374722838138,2.287,-6.315,-7.106
7.109371766444937,2.324570664224429,-6.271649233587198,-7.184031379543045
7.117368810051738,2.3211806131302417,-6.275560831003567,-7.176990504193579
7.125365853658537,2.317790562036055,-6.279472428419936,-7.1699496288441145
7.133362897265337,2.3144005109418684,-6.283384025836305,-7.16290875349465
7.141359940872136,2.3110104598476813,-6.2872956232526755,-7.155867878145185
7.149356984478936,2.3076204087534946,-6.291207220669045,-7.14882700279572
7.157354028085736,2.3042303576593075,-6.295118818085414,-7.141786127446254
7.165351071692536,2.300840306565121,-6.299030415501783,-7.134745252096789
7.173348115299335,2.297450255470934,-6.3029420129181535,-7.1277043767473245
7.181345158906135,2.294060204376747,-6.306853610334523,-7.12066350139786
7.189342202512934,2.2906701532825604,-6.310765207750892,-7.113622626048395
7.197339246119735,2.2872801021883733,-6.314676805167262,-7.106581750698929
7.205336289726534,2.2728779009608293,-6.215486696230597,-7.086923946784926
7.213333333333334,2.3020930232558143,-6.181344961240311,-7.149147286821705
7.221330376940133,2.304324756355386,-6.1896209714845565,-7.152680864229361
7.229327420546933,2.306556489454958,-6.197896981728802,-7.156214441637017
7.237324464153732,2.30878822255453,-6.206172991973048,-7.159748019044672
7.245321507760533,2.311019955654102,-6.214449002217295,-7.163281596452329
7.253318551367332,2.3132516887536743,-6.222725012461542,-7.166815173859984
7.261315594974132,2.315483421853246,-6.2310010227057875,-7.17034875126764
7.2693126385809315,2.317715154952818,-6.239277032950033,-7.173882328675296
7.277309682187731,2.31994688805239,-6.247553043194279,-7.177415906082951
7.285306725794531,2.3221786211519624,-6.255829053438526,-7.180949483490607
7.293303769401331,2.324410354251534,-6.264105063682772,-7.184483060898263
7.3013008130081305,2.267730081300816,-6.228647154471547,-7.075159349593502
7.30929785661493,2.287,-6.315,-7.106
7.31729490022173,2.287,-6.315,-7.106
7.32529194382853,2.287,-6.315,-7.106
7.3332889874353295,2.287,-6.315,-7.106
7.341286031042129,2.287,-6.315,-7.106
7.349283074648929,2.287,-6.315,-7.106
7.357280118255728,2.287,-6.315,-7.106
7.365277161862528,2.287,-6.315,-7.106
7.373274205469328,2.287,-6.315,-7.106
7.381271249076128,2.287,-6.315,-7.106
7.389268292682927,2.287,-6.315,-7.106
7.397265336289727,2.287,-6.315,-7.106
7.405262379896526,2.287,-6.315,-7.106
7.413259423503327,2.287,-6.315,-7.106
7.421256467110126,2.287,-6.315,-7.106
7.429253510716926,2.287,-6.315,-7.106
7.437250554323725,2.287,-6.315,-7.106
7.445247597930525,2.287,-6.315,-7.106
7.453244641537325,2.287,-6.315,-7.106
7.461241685144125,2.287,-6.315,-7.106
7.469238728750924,2.287,-6.315,-7.106
7.477235772357724,2.287,-6.315,-7.106
7.485232815964523,2.287,-6.315,-7.106
7.493229859571324,2.287,-6.315,-7.106
7.501226903178123,2.264,-6.226,-7.068
7.509223946784923,2.2870981339844043,-6.314886768479534,-7.10620381673684
7.517220990391722,2.2906024564637884,-6.31084331946486,-7.113482024963252
7.525218033998522,2.2941067789431724,-6.3067998704501855,-7.1207602331896656
7.5332150776053215,2.2976111014225564,-6.302756421435512,-7.128038441416079
7.541212121212122,2.301115423901941,-6.298712972420837,-7.135316649642493
7.5492091648189215,2.304619746381325,-6.294669523406164,-7.142594857868906
7.557206208425721,2.308124068860709,-6.290626074391489,-7.149873066095319
7.5652032520325205,2.3116283913400935,-6.286582625376815,-7.157151274321732
7.57320029563932,2.3151327138194775,-6.282539176362142,-7.164429482548146
7.5811973392461205,2.318637036298862,-6.278495727347467,-7.171707690774559
7.58919438285292,2.322141358778246,-6.2744522783327925,-7.178985899000972
7.59719142645972,2.32564568125763,-6.270408829318119,-7.186264107227386
7.605188470066519,2.287,-6.315,-7.106
7.613185513673319,2.287,-6.315,-7.106
7.621182557280119,2.287,-6.315,-7.106
7.629179600886919,2.287,-6.315,-7.106
7.637176644493718,2.287,-6.315,-7.106
7.645173688100518,2.287,-6.315,-7.106
7.653170731707317,2.287,-6.315,-7.106
7.661167775314117,2.287,-6.315,-7.106
7.669164818920917,2.287,-6.315,-7.106
7.677161862527717,2.287,-6.315,-7.106
7.685158906134516,2.287,-6.315,-7.106
7.693155949741316,2.287,-6.315,-7.106
7.701152993348115,2.287,-6.315,-7.106
7.709150036954916,2.264792247680053,-6.22656224028907,-7.069520604418166
7.717147080561715,2.270301322164737,-6.230471906052394,-7.080094473187156
7.725144124168515,2.275810396649421,-6.234381571815718,-7.090668341956147
7.733141167775314,2.2813194711341054,-6.238291237579042,-7.101242210725138
7.741138211382114,2.2868285456187896,-6.242200903342367,-7.111816079494128
7.749135254988914,2.292337620103474,-6.246110569105691,-7.12238994826312
7.757132298595714,2.2978466945881584,-6.250020234869015,-7.132963817032111
7.765129342202513,2.3033557690728426,-6.25392990063234,-7.143537685801101
7.773126385809313,2.3088648435575267,-6.257839566395663,-7.1541115545700915
7.7811234294161125,2.314373918042211,-6.261749232158988,-7.164685423339082
7.789120473022913,2.3198829925268956,-6.265658897922313,-7.175259292108074
7.797117516629712,2.3253920670115797,-6.269568563685636,-7.185833160877064
7.805114560236512,2.271842466476609,-6.231565621370497,-7.083052475979298
7.8131116038433115,2.2856790237258857,-6.309888396156689,-7.1038175174601585
7.821108647450111,2.2836123720072745,-6.301891352549889,-7.100403049403323
7.829105691056911,2.2815457202886633,-6.29389430894309,-7.096988581346487
7.837102734663711,2.279479068570052,-6.285897265336289,-7.093574113289652
7.8450997782705105,2.277412416851441,-6.27790022172949,-7.0901596452328155
7.85309682187731,2.2753457651328297,-6.26990317812269,-7.086745177175979
7.86109386548411,2.2732791134142185,-6.261906134515891,-7.083330709119144
7.869090909090909,2.2712124616956078,-6.253909090909091,-7.079916241062308
7.87708795269771,2.269145809976996,-6.245912047302291,-7.0765017730054725
7.885084996304509,2.2670791582583854,-6.237915003695491,-7.073087304948636
7.893082039911309,2.265012506539774,-6.229917960088692,-7.069672836891801
7.901079083518108,2.298971914264595,-6.301186252771621,-7.130864745011082
7.909076127124908,2.287,-6.315,-7.106
7.917073170731708,2.287,-6.315,-7.106
7.925070214338508,2.287,-6.315,-7.106
7.933067257945307,2.287,-6.315,-7.106
7.941064301552107,2.287,-6.315,-7.106
7.949061345158906,2.287,-6.315,-7.106
7.957058388765707,2.287,-6.315,-7.106
7.965055432372506,2.287,-6.315,-7.106
7.973052475979306,2.287,-6.315,-7.106
7.981049519586105,2.287,-6.315,-7.106
7.989046563192905,2.287,-6.315,-7.106
7.997043606799704,2.287,-6.315,-7.106
8.005040650406505,2.3072926829268456,-6.291585365853639,-7.148146341463448
8.013037694013304,2.326,-6.27,-7.187
8.021034737620104,2.326,-6.27,-7.187
8.029031781226903,2.326,-6.27,-7.187
8.037028824833703,2.326,-6.27,-7.187
8.045025868440502,2.326,-6.27,-7.187
8.053022912047302,2.326,-6.27,-7.187
8.061019955654102,2.326,-6.27,-7.187
8.069016999260903,2.326,-6.27,-7.187
8.077014042867702,2.326,-6.27,-7.187
8.085011086474502,2.326,-6.27,-7.187
8.093008130081301,2.326,-6.27,-7.187
8.101005173688101,2.325932742054698,-6.270077605321502,-7.186860310421296
8.1090022172949,2.287,-6.315,-7.106
8.1169992609017,2.287,-6.315,-7.106
8.1249963045085,2.287,-6.315,-7.106
8.1329933481153,2.287,-6.315,-7.106
8.140990391722099,2.287,-6.315,-7.106
8.1489874353289,2.287,-6.315,-7.106
8.1569844789357,2.287,-6.315,-7.106
8.164981522542499,2.287,-6.315,-7.106
8.172978566149299,2.287,-6.315,-7.106
8.180975609756098,2.287,-6.315,-7.106
8.188972653362898,2.287,-6.315,-7.106
8.196969696969697,2.287,-6.315,-7.106
8.204966740576497,2.3165742793791617,-6.280875831485583,-7.167423503325951
8.212963784183296,2.287,-6.315,-7.106
8.220960827790096,2.287,-6.315,-7.106
8.228957871396895,2.287,-6.315,-7.106
8.236954915003697,2.287,-6.315,-7.106
8.244951958610496,2.287,-6.315,-7.106
8.252949002217296,2.287,-6.315,-7.106
8.260946045824095,2.287,-6.315,-7.106
8.268943089430895,2.287,-6.315,-7.106
8.276940133037694,2.287,-6.315,-7.106
8.284937176644494,2.287,-6.315,-7.106
8.292934220251293,2.287,-6.315,-7.106
8.300931263858093,2.287,-6.315,-7.106
8.308928307464893,2.287,-6.315,-7.106
8.316925351071694,2.287,-6.315,-7.106
8.324922394678493,2.287,-6.315,-7.106
8.332919438285293,2.324349882708313,-6.271903981490408,-7.183572833317265
8.340916481892092,2.3198298145827305,-6.277119444712234,-7.174184999517979
8.348913525498892,2.3153097464571477,-6.28233490793406,-7.164797165718692
8.356910569105692,2.3107896783315653,-6.287550371155886,-7.155409331919405
8.364907612712491,2.306269610205983,-6.292765834377712,-7.146021498120119
8.37290465631929,2.3017495420804006,-6.297981297599538,-7.136633664320832
8.38090169992609,2.2972294739548182,-6.303196760821364,-7.127245830521546
8.38889874353289,2.292709405829236,-6.30841222404319,-7.117857996722259
8.39689578713969,2.2881893377036535,-6.313627687265016,-7.1084701629229725
8.40489283074649,2.315727549889142,-6.281852827050989,-7.165664911308219
8.41288987435329,2.326,-6.27,-7.187
8.42088691796009,2.269392461197329,-6.272515890613452,-7.215303769401336
8.42888396156689,2.326,-6.27,-7.187
8.436881005173689,2.326,-6.27,-7.187
8.444878048780488,2.326,-6.27,-7.187
8.452875092387288,2.326,-6.27,-7.187
8.460872135994087,2.326,-6.27,-7.187
8.468869179600887,2.326,-6.27,-7.187
8.476866223207686,2.326,-6.27,-7.187
8.484863266814488,2.326,-6.27,-7.187
8.492860310421287,2.326,-6.27,-7.187
8.500857354028087,2.3401158906134576,-6.253655284552838,-7.217089135255002
8.508854397634886,2.3613939549539027,-6.223904944178628,-7.274438464231534
8.516851441241686,2.3571008052281472,-6.220453588516746,-7.285045069436341
8.524848484848485,2.352807655502392,-6.217002232854864,-7.2956516746411495
8.532845528455285,2.3485145057766363,-6.213550877192982,-7.306258279845957
8.540842572062084,2.344221356050881,-6.210099521531101,-7.316864885050765
8.548839615668884,2.3399282063251254,-6.206648165869218,-7.327471490255572
8.556836659275683,2.33563505659937,-6.203196810207336,-7.33807809546038
8.564833702882483,2.3313419068736145,-6.199745454545455,-7.348684700665188
8.572830746489284,2.327048757147858,-6.1962940988835715,-7.3592913058699985
8.580827790096084,2.3227556074221023,-6.19284274322169,-7.369897911074806
8.588824833702883,2.318462457696347,-6.189391387559808,-7.380504516279614
8.596821877309683,2.3141693079705914,-6.185940031897926,-7.391111121484421
8.604818920916482,2.3459053954175872,-6.203321507760498,-7.300864745011052
8.612815964523282,2.340666779138147,-6.152595391882774,-7.2297036537163795
8.620813008130082,2.341449098621421,-6.17206645457759,-7.229355956168257
8.628810051736881,2.342231418104695,-6.1915375172724065,-7.229008258620136
8.63680709534368,2.343013737587969,-6.211008579967222,-7.228660561072014
8.64480413895048,2.3437960570712426,-6.230479642662039,-7.228312863523892
8.65280118255728,2.3445783765545167,-6.249950705356855,-7.22796516597577
8.660798226164081,2.3453606960377904,-6.269421768051675,-7.227617468427649
8.66879526977088,2.3461430155210645,-6.288892830746492,-7.227269770879527
8.67679231337768,2.346925335004338,-6.3083638934413075,-7.226922073331405
8.68478935698448,2.3477076544876123,-6.327834956136124,-7.226574375783284
8.69278640059128,2.348489973970886,-6.34730601883094,-7.226226678235162
8.700783444198079,2.338266814486311,-6.534121212121216,-7.460691796008813
8.708780487804878,2.190265243902431,-6.321256097560961,-6.918100609756068
8.716777531411678,2.1907576837157543,-6.342701993904517,-6.93038125015571
8.724774575018477,2.194621423885332,-6.371185845852331,-6.955450634046688
8.732771618625277,2.198485164054909,-6.399669697800144,-6.980520017937666
8.740768662232078,2.202348904224487,-6.4281535497479645,-7.00558940182865
8.748765705838878,2.2062126443940646,-6.456637401695779,-7.030658785719628
8.756762749445677,2.2100763845636417,-6.485121253643593,-7.055728169610607
8.764759793052477,2.213940124733219,-6.513605105591406,-7.080797553501585
8.772756836659276,2.2178038649027965,-6.54208895753922,-7.1058669373925625
8.780753880266076,2.2216676050723736,-6.570572809487034,-7.130936321283541
8.788750923872875,2.225531345241951,-6.599056661434848,-7.156005705174519
8.796747967479675,2.2293950854115283,-6.6275405133826615,-7.181075089065497
8.804745011086474,2.35066075388026,-6.66572505543237,-7.4240731707316945
8.812742054693274,2.0792600096847353,-5.871957353178547,-6.960989406257699
8.820739098300074,2.0605083212274122,-5.87149775297126,-6.971652131066765
8.828736141906875,2.041756632770085,-5.871038152763973,-6.982314855875834
8.836733185513674,2.023004944312762,-5.870578552556685,-6.9929775806849
8.844730229120474,2.004253255855439,-5.870118952349398,-7.003640305493966
8.852727272727273,1.9855015673981158,-5.8696593521421105,-7.014303030303032
8.860724316334073,1.9667498789407927,-5.869199751934823,-7.024965755112098
8.868721359940873,1.9479981904834696,-5.868740151727536,-7.035628479921164
8.876718403547672,1.9292465020261464,-5.8682805515202485,-7.04629120473023
8.884715447154472,1.9104948135688233,-5.867820951312961,-7.056953929539296
8.892712490761271,1.8917431251115002,-5.867361351105674,-7.067616654348362
8.90070953436807,1.9279441241685236,-5.794857649667392,-7.138568957871408
8.908706577974872,2.2634406081723095,-5.526256995037447,-7.62962137049947
8.916703621581672,2.2332063668039277,-5.35071953859149,-7.893407243163343
8.924700665188471,2.2314927146024703,-5.354432451694647,-7.909401330376942
8.93269770879527,2.2297790624010134,-5.358145364797804,-7.925395417590541
8.94069475240207,2.2280654101995565,-5.361858277900962,-7.94138950480414
8.94869179600887,2.2263517579980996,-5.365571191004118,-7.957383592017739
8.95668883961567,2.2246381057966422,-5.369284104107275,-7.973377679231339
8.964685883222469,2.2229244535951853,-5.372997017210432,-7.989371766444938
8.972682926829268,2.2212108013937284,-5.376709930313589,-8.005365853658537
8.980679970436068,2.2194971491922715,-5.380422843416746,-8.021359940872136
8.988677014042867,2.217783496990814,-5.384135756519902,-8.037354028085735
8.996674057649669,2.2160698447893568,-5.38784866962306,-8.053348115299338
9.004671101256468,2.4882927143778213,-4.508064741865986,-8.46024273875234
9.012668144863268,2.4917807865892976,-4.496919925775659,-8.463135286439906
9.020665188470067,2.4952688588007743,-4.485775109685331,-8.466027834127472
9.028662232076867,2.4987569310122506,-4.474630293595005,-8.468920381815037
9.036659275683666,2.502245003223727,-4.463485477504678,-8.471812929502603
9.044656319290466,2.505733075435203,-4.452340661414351,-8.474705477190168
9.052653362897265,2.5092211476466795,-4.441195845324025,-8.477598024877734
9.060650406504065,2.5127092198581558,-4.430051029233697,-8.4804905725653
9.068647450110864,2.516197292069632,-4.41890621314337,-8.483383120252865
9.076644493717666,2.5196853642811092,-4.407761397053041,-8.486275667940433
9.084641537324465,2.5231734364925855,-4.396616580962714,-8.489168215627998
9.092638580931265,2.526661508704062,-4.3854717648723875,-8.492060763315564
9.100635624538064,2.5711699926090166,-4.456190194629219,-8.741748706577974
9.108632668144864,2.8169481317237675,-4.3513853987024635,-8.68177531411676
9.116629711751663,2.9685365360926563,-4.304291697462422,-8.577813747228365
9.124626755358463,3.1201249404615456,-4.25719799622238,-8.473852180339971
9.132623798965263,3.271713344830435,-4.210104294982338,-8.369890613451577
9.140620842572062,3.4233017491993243,-4.163010593742296,-8.265929046563183
9.148617886178862,3.574890153568213,-4.115916892502255,-8.16196747967479
9.156614929785661,3.7264785579371025,-4.068823191262213,-8.058005912786395
9.164611973392462,3.8780669623060255,-4.02172949002216,-7.9540443458979775
9.172609016999262,4.029655366674914,-3.974635788782119,-7.8500827790095835
9.180606060606062,4.181243771043804,-3.927542087542077,-7.7461212121211895
9.188603104212861,4.332832175412693,-3.8804483863020356,-7.642159645232796
9.19660014781966,4.484420579781583,-3.8333546850619937,-7.538198078344402
9.20459719142646,4.901067695046451,-3.151213647092482,-7.385809638477615
9.21259423503326,4.928756383663542,-3.167465703454688,-7.450215935913023
9.22059127864006,4.9564450722806335,-3.183717759816893,-7.51462223334843
9.228588322246859,4.984133760897724,-3.199969816179099,-7.5790285307838365
9.236585365853658,5.011822449514815,-3.216221872541304,-7.6434348282192435
9.24458240946046,5.039511138131912,-3.2324739289035134,-7.707841125654665
9.25257945306726,5.067199826749003,-3.248725985265719,-7.7722474230900715
9.260576496674059,5.094888515366094,-3.2649780416279244,-7.836653720525479
9.268573540280858,5.122577203983185,-3.28123009799013,-7.901060017960886
9.276570583887658,5.150265892600276,-3.2974821543523354,-7.965466315396293
9.284567627494457,5.177954581217366,-3.313734210714541,-8.029872612831701
9.292564671101257,5.205643269834457,-3.3299862670767464,-8.094278910267107
9.300561714708056,4.379747597930472,-3.0920022172948696,-8.284135994087212
9.308558758314856,5.898858213631544,-2.58730622770654,-7.855163115781353
9.316555801921655,5.9187638982615125,-2.435188550403289,-7.767891031202801
9.324552845528455,5.938669582891481,-2.2830708731000375,-7.68061894662425
9.332549889135256,5.958575267521454,-2.130953195796753,-7.59334686204568
9.340546932742056,5.978480952151422,-1.9788355184935016,-7.506074777467129
9.348543976348855,5.998386636781389,-1.8267178411902503,-7.418802692888578
9.356541019955655,6.018292321411358,-1.6746001638869994,-7.331530608310027
9.364538063562454,6.038198006041326,-1.522482486583748,-7.244258523731476
9.372535107169254,6.058103690671294,-1.370364809280497,-7.1569864391529245
9.380532150776054,6.078009375301263,-1.2182471319772459,-7.069714354574374
9.388529194382853,6.097915059931231,-1.0661294546739946,-6.982442269995823
9.396526237989653,6.117820744561199,-0.9140117773707435,-6.895170185417272
9.404523281596452,8.084642461197513,-0.8466158536586592,-6.646948447893452
9.412520325203252,8.313651025097208,-0.9437610463061136,-6.40640464828561
9.420517368810053,8.328167397731294,-0.883957068029165,-6.306876225135747
9.428514412416853,8.342683770365376,-0.8241530897522297,-6.207347801985906
9.436511456023652,8.357200142999456,-0.7643491114752943,-6.107819378836064
9.444508499630452,8.371716515633539,-0.704545133198359,-6.008290955686222
9.452505543237251,8.386232888267621,-0.6447411549214237,-5.9087625325363815
9.46050258684405,8.400749260901701,-0.5849371766444884,-5.80923410938654
9.46849963045085,8.415265633535784,-0.5251331983675531,-5.709705686236698
9.47649667405765,8.429782006169866,-0.4653292200906177,-5.6101772630868565
9.48449371766445,8.444298378803946,-0.40552524181368244,-5.510648839937016
9.492490761271249,8.458814751438029,-0.34572126353674715,-5.411120416787174
9.50048780487805,8.695422764227539,0.5230487804879344,-4.885910569105628
9.50848484848485,8.062989898989832,1.3107575757576586,-4.507383838383799
9.51648189209165,7.850962905960619,1.6215666884048474,-4.31547957914873
9.524478935698449,7.968660571279517,1.558343002478149,-4.269943472022953
9.532475979305248,8.086358236598414,1.495119316551451,-4.224407364897176
9.540473022912048,8.204055901917313,1.4318956306247528,-4.1788712577714
9.548470066518847,8.321753567236211,1.3686719446980544,-4.133335150645623
9.556467110125647,8.43945123255511,1.3054482587713563,-4.087799043519846
9.564464153732446,8.557148897874008,1.2422245728446581,-4.042262936394069
9.572461197339246,8.674846563192904,1.1790008869179598,-3.996726829268293
9.580458240946045,8.792544228511803,1.1157772009912617,-3.951190722142516
9.588455284552847,8.910241893830726,1.0525535150645493,-3.9056546150167293
9.596452328159646,9.027939559149624,0.9893298291378513,-3.860118507890953
9.604449371766446,7.810465548113793,2.266135323565062,-3.4731334262920504
9.612446415373245,7.920940171135561,2.374219077879642,-3.2379214117539146
9.620443458980045,8.031414794157328,2.4823028321942218,-3.0027093972157783
9.628440502586844,8.141889417179096,2.5903865865088016,-2.7674973826776426
9.636437546193644,8.252364040200863,2.6984703408233814,-2.5322853681395063
9.644434589800444,8.36283866322263,2.806554095137961,-2.2970733536013705
9.652431633407243,8.473313286244398,2.914637849452541,-2.0618613390632348
9.660428677014043,8.583787909266166,3.0227216037671205,-1.8266493245250985
9.668425720620844,8.694262532287956,3.1308053580817248,-1.5914373099869104
9.676422764227643,8.804737155309724,3.238889112396304,-1.3562252954487741
9.684419807834443,8.915211778331491,3.3469728667108845,-1.1210132809106383
9.692416851441243,9.025686401353259,3.455056621025464,-0.8858012663725026
9.700413895048042,8.701078344419924,4.3041736881005335,-0.17133850702135564
9.708410938654842,8.860361745827985,4.269675730345815,-0.018945664604967015
9.716407982261641,8.877029268292683,4.2019113082039885,0.04848203991131071
9.72440502586844,8.893696790757382,4.134146886062162,0.11590974442758846
9.73240206947524,8.910364313222079,4.066382463920334,0.18333744894386617
9.74039911308204,8.927031835686776,3.998618041778507,0.2507651534601439
9.74839615668884,8.943699358151475,3.9308536196366797,0.31819285797642166
9.75639320029564,8.960366880616176,3.8630891974948374,0.38562056249271437
9.76439024390244,8.977034403080875,3.79532477535301,0.4530482670089921
9.77238728750924,8.993701925545572,3.7275603532111834,0.5204759715252699
9.78038433111604,9.01036944801027,3.6597959310693557,0.5879036760415476
9.788381374722839,9.027036970474969,3.592031508927529,0.6553313805578254
9.796378418329638,9.043704492939666,3.5242670867857018,0.7227590850741031
9.804375461936438,9.074248687128017,2.9217583148558877,1.1150790990780781
9.812372505543237,9.05152024740343,3.0657050997782784,1.186042338662625
9.820369549150037,9.028791807678841,3.209651884700669,1.257005578247172
9.828366592756836,9.006063367954253,3.35359866962306,1.327968817831719
9.836363636363638,8.98333492822966,3.4975454545454827,1.3989320574162818
9.844360679970437,8.960606488505073,3.6414922394678735,1.4698952970008288
9.852357723577237,8.937878048780485,3.7854390243902643,1.5408585365853757
9.860354767184036,8.915149609055897,3.929385809312655,1.6118217761699227
9.868351810790836,8.892421169331309,4.073332594235046,1.6827850157544697
9.876348854397635,8.86969272960672,4.217279379157437,1.7537482553390167
9.884345898004435,8.846964289882132,4.361226164079827,1.8247114949235637
9.892342941611235,8.824235850157544,4.505172949002217,1.8956747345081106
9.900339985218034,8.715342941611258,5.610865484109431,0.9463732446414005
9.908337028824834,8.35111357217878,5.001737262224298,2.8071211576613355
9.916334072431633,8.308350433734,5.010239382269421,2.7807730034620906
9.924331116038434,8.26558729528921,5.018741502314547,2.7544248492628403
9.932328159645234,8.22282415684443,5.027243622359671,2.7280766950635957
9.940325203252034,8.18006101839965,5.035745742404794,2.701728540864351
9.948322246858833,8.137297879954868,5.044247862449918,2.6753803866651067
9.956319290465633,8.094534741510088,5.052749982495041,2.6490322324658617
9.964316334072432,8.051771603065308,5.061252102540165,2.622684078266617
9.972313377679232,8.009008464620528,5.0697542225852885,2.5963359240673727
9.980310421286031,7.9662453261757475,5.078256342630413,2.569987769868128
9.98830746489283,7.923482187730968,5.086758462675536,2.5436396156688836
9.99630450849963,7.880719049286187,5.09526058272066,2.517291461469639
10.004301552106432,7.518725794530639,4.971490761271389,2.1209940872136213
10.012298595713231,7.995249787158352,6.071969687614021,2.1840969247897872
10.02029563932003,7.740559132541802,6.064377557607566,2.4755334886375806
10.02829268292683,7.485868477925251,6.056785427601111,2.766970052485374
10.03628972653363,7.231177823308701,6.049193297594655,3.0584066163331673
10.04428677014043,6.976487168692151,6.0416011675882,3.349843180180961
10.052283813747229,6.7217965140756,6.034009037581745,3.6412797440287545
10.060280857354028,6.46710585945905,6.02641690757529,3.9327163078765484
10.068277900960828,6.212415204842499,6.018824777568835,4.224152871724342
10.076274944567627,5.957724550225949,6.011232647562379,4.515589435572135
10.084271988174427,5.7030338956093996,6.003640517555924,4.8070259994199285
10.092269031781228,7.216816094952387,6.102632520325196,4.877069796965353
10.100266075388028,7.151898917438366,6.03225853658536,4.908869805660626
10.108263118994827,7.0869817399243455,5.961884552845523,4.940669814355901
10.116260162601627,7.022064562410326,5.891510569105686,4.972469823051174
10.124257206208426,6.957147384896305,5.821136585365849,5.0042698317464485
10.132254249815226,6.892230207382284,5.750762601626013,5.036069840441722
10.140251293422025,6.827313029868264,5.680388617886176,5.067869849136995
10.148248337028825,6.762395852354244,5.6100146341463395,5.09966985783227
10.156245380635625,6.697478674840223,5.539640650406502,5.131469866527543
10.164242424242424,6.632561497326202,5.469266666666666,5.163269875222817
10.172239467849224,6.567644319812182,5.39889268292683,5.195069883918091
10.180236511456025,5.789512195122073,6.30243458979997,3.914430894309253
10.188233555062824,5.904240982394917,5.7172336519937454,4.355043546217885
10.196230598669624,5.864780160663004,5.6893095489077075,4.4474683944604045
10.204227642276424,5.8253193389310916,5.6613854458216695,4.539893242702924
10.212224685883223,5.78585851719918,5.633461342735632,4.632318090945443
10.220221729490023,5.746397695467267,5.605537239649594,4.724742939187962
10.228218773096822,5.706936873735355,5.577613136563556,4.817167787430481
10.236215816703622,5.667476052003442,5.549689033477518,4.909592635673001
10.244212860310421,5.628015230271529,5.521764930391481,5.0020174839155205
10.25220990391722,5.5885544085396175,5.493840827305443,5.09444233215804
10.260206947524022,5.549093586807696,5.465916724219399,5.186867180400579
10.268203991130822,5.509632765075783,5.437992621133361,5.279292028643098
10.276201034737621,5.470171943343871,5.410068518047324,5.371716876885618
10.28419807834442,5.430711121611958,5.382144414961286,5.464141725128137
10.29219512195122,5.391250299880046,5.354220311875248,5.556566573370656
10.30019216555802,5.351789478148134,5.32629620878921,5.648991421613175
10.30818920916482,7.510905691056912,5.571530376940133,4.671280044345897
10.316186252771619,8.707263414634149,5.830634589800444,4.256233481152993
10.324183296378418,8.66757760947375,5.8440862087579,4.2043146565684255
10.332180339985218,8.487868764377131,5.8297095011501705,4.193532125862628
10.340177383592017,8.308159919280513,5.815332793542441,4.182749595156831
10.348174427198819,8.128451074183856,5.8009560859347085,4.171967064451032
10.356171470805618,7.948742229087237,5.786579378326979,4.161184533745234
10.364168514412418,7.769033383990619,5.77220267071925,4.150402003039438
10.372165558019217,7.589324538894002,5.75782596311152,4.13961947233364
10.380162601626017,7.409615693797384,5.743449255503791,4.128836941627843
10.388159645232816,7.229906848700765,5.729072547896061,4.1180544109220465
10.396156688839616,7.050198003604147,5.714695840288332,4.107271880216249
10.404153732446416,6.87048915850753,5.700319132680603,4.096489349510452
10.412150776053215,6.472080153936334,4.864704437138414,5.899061931340317
10.420147819660015,6.528151379225388,4.904505815089498,5.8621100746744155
10.428144863266816,6.584222604514456,4.944307193040589,5.825158218008506
10.436141906873615,6.64029382980351,4.984108570991672,5.7882063613426045
10.444138950480415,6.696365055092564,5.023909948942754,5.751254504676703
10.452135994087214,6.752436280381619,5.063711326893838,5.7143026480108015
10.460133037694014,6.808507505670673,5.1035127048449205,5.6773507913449
10.468130081300814,6.864578730959727,5.143314082796003,5.640398934678999
10.476127124907613,6.920649956248782,5.183115460747086,5.603447078013097
10.484124168514413,6.976721181537837,5.222916838698169,5.566495221347196
10.492121212121212,7.032792406826891,5.262718216649252,5.529543364681294
10.500118255728012,6.734334072431638,5.0681670362158195,5.276316334072426
10.508115299334811,6.656109184268879,5.043377266892286,5.338691585949353
10.516112342941613,6.630097747695178,5.049101466526627,5.330442004123389
10.524109386548412,6.604086311121482,5.054825666160968,5.3221924222974275
10.532106430155212,6.578074874547786,5.060549865795309,5.313942840471466
10.540103473762011,6.552063437974091,5.06627406542965,5.305693258645504
10.54810051736881,6.526052001400395,5.071998265063991,5.297443676819543
10.55609756097561,6.5000405648266995,5.077722464698332,5.289194094993581
10.56409460458241,6.474029128253004,5.083446664332673,5.280944513167619
10.57209164818921,6.448017691679308,5.089170863967013,5.272694931341658
10.580088691796009,6.422006255105613,5.094895063601354,5.264445349515696
10.588085735402808,6.395994818531917,5.100619263235695,5.256195767689734
10.59608277900961,6.369983381958216,5.106343462870037,5.24794618586377
10.60407982261641,6.582037390594,4.695925895670442,4.9877288598436245
10.612076866223209,6.566800918037887,4.714866262107599,5.005911611623295
10.620073909830008,6.551564445481774,4.733806628544756,5.024094363402965
10.628070953436808,6.536327972925661,4.752746994981913,5.042277115182636
10.636067997043607,6.521091500369548,4.771687361419071,5.060459866962307
10.644065040650407,6.5058550278134355,4.7906277278562275,5.078642618741978
10.652062084257206,6.490618555257322,4.809568094293384,5.096825370521649
10.660059127864006,6.475382082701209,4.828508460730542,5.11500812230132
10.668056171470806,6.460145610145096,4.847448827167699,5.133190874080991
10.676053215077605,6.444909137588983,4.866389193604856,5.151373625860661
10.684050258684406,6.429672665032867,4.885329560042017,5.169556377640336
10.692047302291206,6.414436192476754,4.9042699264791745,5.187739129420007
10.700044345898005,6.498733185513704,5.291893569844821,5.129713229859576
10.708041389504805,6.70793052475976,5.515311160384384,5.160483370288288
10.716038433111605,6.611707839667929,5.6450405309562735,5.284953347219422
10.724035476718404,6.613969629778943,5.609336558489552,5.29416206409998
10.732032520325204,6.6162314198899566,5.57363258602283,5.303370780980536
10.740029563932003,6.61849321000097,5.537928613556109,5.312579497861094
10.748026607538803,6.620755000111985,5.502224641089387,5.321788214741651
10.756023651145602,6.623016790222999,5.466520668622666,5.330996931622209
10.764020694752404,6.6252785803340135,5.430816696155936,5.340205648502768
10.772017738359203,6.627540370445027,5.3951127236892145,5.349414365383325
10.780014781966003,6.629802160556041,5.359408751222492,5.3586230822638825
10.788011825572802,6.632063950667055,5.323704778755771,5.367831799144439
10.796008869179602,6.63432574077807,5.288000806289049,5.377040516024997
10.804005912786401,6.636587530889083,5.252296833822328,5.386249232905554
10.8120029563932,6.595358019216546,5.192162749445667,5.2568669623059545
10.82,6.462,5.01,5.288
