accel_time_list,accel_x_list,accel_y_list,accel_z_list
0.0,0.9,5.7,6.8
0.007997860199714693,1.0957917261055636,5.978958630527817,9.428459343794579
0.015995720399429387,1.0873729258953375,5.936864629476688,9.285339740220737
0.023993580599144082,1.0789541256851116,5.894770628425557,9.142220136646895
0.031991440798858774,1.0705353254748855,5.852676627374428,8.999100533073053
0.039989300998573465,1.0621165252646596,5.810582626323297,8.855980929499212
0.047987161198288164,1.0536977250544335,5.768488625272168,8.71286132592537
0.055985021398002856,1.0452789248442076,5.7263946242210375,8.569741722351528
0.06398288159771755,1.0368601246339815,5.684300623169908,8.426622118777686
0.07198074179743225,1.0284413244237556,5.642206622118778,8.283502515203844
0.07997860199714693,1.0200225242135297,5.600112621067648,8.140382911630002
0.08797646219686163,1.0116037240033036,5.558018620016518,7.99726330805616
0.09597432239657633,1.0031849237930777,5.515924618965387,7.854143704482318
0.10397218259629101,0.9041726105563475,5.616690442225389,7.809736091298143
0.11197004279600571,0.9,5.6,7.807590516948577
0.1199679029957204,0.9,5.6,7.815207526662591
0.1279657631954351,0.9,5.6,7.822824536376605
0.13596362339514978,0.9,5.6,7.8304415460906185
0.1439614835948645,0.9,5.6,7.838058555804633
0.15195934379457918,0.9,5.6,7.845675565518647
0.15995720399429386,0.9,5.6,7.853292575232661
0.16795506419400857,0.9,5.6,7.860909584946675
0.17595292439372326,0.9,5.6,7.868526594660689
0.18395078459343794,0.9,5.6,7.876143604374703
0.19194864479315266,0.9,5.6,7.883760614088717
0.19994650499286734,0.9,5.6,7.8913776238027316
0.20794436519258203,0.9,5.6,7.898994633516745
0.2159422253922967,0.3017037064844708,5.301703706484471,8.296592587031059
0.22394008559201142,0.3087193733263258,5.308719373326325,8.28256125334735
0.2319379457917261,0.31573504016818077,5.315735040168181,8.268529919663639
0.2399358059914408,0.3227507070100358,5.3227507070100355,8.25449858597993
0.2479336661911555,0.3297663738518908,5.329766373851891,8.240467252296218
0.2559315263908702,0.3367820406937458,5.336782040693746,8.22643591861251
0.2639293865905849,0.3437977075356008,5.343797707535601,8.212404584928798
0.27192724679029956,0.35081337437745574,5.350813374377456,8.198373251245089
0.27992510699001427,0.35782904121931075,5.357829041219311,8.184341917561378
0.287922967189729,0.36484470806116576,5.364844708061166,8.170310583877669
0.29592082738944364,0.37186037490302076,5.3718603749030205,8.156279250193958
0.30391868758915835,0.37887604174487577,5.378876041744876,8.142247916510248
0.31191654778887307,0.3858917085867308,5.385891708586731,8.12821658282654
0.3199144079885877,0.3929073754285857,5.392907375428586,8.114185249142828
0.32791226818830244,0.39992304227044073,5.399923042270441,8.100153915459119
0.33591012838801715,0.6782025677603425,5.656405135520686,7.856405135520685
0.3439079885877318,0.6452832587110353,5.7205187779833615,7.913679185322241
0.3519058487874465,0.5819338709905227,5.744274798378554,7.92951653225237
0.35990370898716123,0.5185844832700102,5.768030818773746,7.945353879182497
0.3679015691868759,0.45523509554949804,5.791786839168938,7.961191226112626
0.3758994293865906,0.39188570782898546,5.815542859564131,7.9770285730427535
0.3838972895863053,0.32853632010847283,5.839298879959323,7.992865919972882
0.39189514978601997,0.2651869323879607,5.8630549003545145,8.00870326690301
0.3998930099857347,0.20183754466744813,5.886810920749707,8.024540613833137
0.40789087018544934,0.13848815694693595,5.910566941144899,8.040377960763266
0.41588873038516405,0.07513876922642337,5.934322961540091,8.056215307693394
0.42388659058487876,0.011789381505910801,5.958078981935284,8.072052654623523
0.4318844507845934,-0.05156000621460133,5.981835002330476,8.08789000155365
0.43988231098430813,-3.6763908701854495,7.223502139800285,8.194115549215406
0.44788017118402285,0.06740106725841341,4.990220320177524,8.085330480266286
0.4558780313837375,-0.22881597717546284,4.901355206847361,7.952032810271041
0.4638758915834522,-0.5250330216093412,4.812490093517198,7.8187351402757965
0.47187375178316693,-0.8212500660432195,4.723624980187035,7.685437470280551
0.4798716119828816,-1.1174671104770957,4.6347598668568715,7.552139800285307
0.4878694721825963,-1.413684154910974,4.545894753526708,7.418842130290062
0.495867332382311,-1.7099011993448523,4.457029640196545,7.285544460294816
0.5038651925820257,-1.9,3.9415691868758937,7.314607703281027
0.5118630527817404,-1.9782159027476276,2.143983749922471,7.7
0.5198609129814551,-1.9173626186193635,1.9875038764497919,7.7
0.5278587731811698,-1.8565093344910992,1.8310240029771125,7.7
0.5358566333808844,-1.795656050362836,1.6745441295044357,7.7
0.5438544935805991,-1.734802766234572,1.5180642560317563,7.7
0.5518523537803138,-1.6739494821063077,1.361584382559077,7.7
0.5598502139800285,-1.6130961979780436,1.2051045090863979,7.7
0.5678480741797433,-1.5522429138497795,1.0486246356137185,7.7
0.575845934379458,-1.4913896297215152,0.8921447621410394,7.7
0.5838437945791726,-1.4305363455932523,0.7356648886683623,7.7
0.5918416547788873,-1.369683061464988,0.579185015195683,7.7
0.599839514978602,-1.308829777336724,0.4227051417230039,7.7
0.6078373751783167,-0.6980659208649297,-3.621274870485773,6.188395525189579
0.6158352353780314,-0.6896471206547037,-3.7138816727982586,6.1378827239282225
0.6238330955777461,-0.6812283204444777,-3.8064884751107453,6.087369922666866
0.6318309557774607,-0.6728095202342518,-3.89909527742323,6.036857121405511
0.6398288159771754,-0.6643907200240258,-3.991702079735716,5.986344320144155
0.6478266761768902,-0.6559719198137998,-4.0843088820482025,5.935831518882798
0.6558245363766049,-0.6475531196035738,-4.176915684360688,5.885318717621443
0.6638223965763196,-0.6391343193933477,-4.269522486673175,5.834805916360087
0.6718202567760343,-0.6307155191831217,-4.362129288985661,5.7842931150987305
0.6798181169757489,-0.6222967189728958,-4.4547360912981455,5.733780313837375
0.6878159771754636,-0.6138779187626698,-4.547342893610632,5.683267512576019
0.6958138373751783,-0.6054591185524438,-4.639949695923118,5.6327547113146625
0.703811697574893,-0.46233951497861536,-8.110413694722,4.031811697574846
0.7118095577746077,-0.800367606715684,-9.501102820147052,3.1791177438823586
0.7198074179743225,-0.9598940289382502,-10.076604850213979,2.686631342979417
0.7278052781740371,-0.8456388832280417,-10.009956015216357,2.648546294409347
0.7358031383737518,-0.7313837375178316,-9.943307180218735,2.6104612458392773
0.7438009985734665,-0.6171285918076215,-9.876658345221113,2.5723761972692074
0.7517988587731812,-0.5028734460974115,-9.81000951022349,2.534291148699137
0.7597967189728959,-0.38861830038720135,-9.743360675225867,2.496206100129067
0.7677945791726106,-0.27436315467699135,-9.676711840228245,2.4581210515589973
0.7757924393723252,-0.1601080089667829,-9.610063005230623,2.4200360029889274
0.7837902995720399,-0.045852863256572785,-9.543414170233001,2.3819509544188575
0.7917881597717547,0.06840228245363722,-9.476765335235378,2.343865905848787
0.7997860199714694,0.18265742816384734,-9.410116500237756,2.3057808572787173
0.8077838801711841,-0.7300442976199415,-8.02065545461371,2.27934454538629
0.8157817403708987,-0.8647451009835558,-8.113262256926195,2.186737743073805
0.8237796005706134,-0.9994459043471721,-8.205869059238681,2.094130940761319
0.8317774607703281,-1.1341467077107883,-8.298475861551166,2.0015241384488327
0.8397753209700428,-1.2688475110744046,-8.391082663863653,1.9089173361363467
0.8477731811697575,-1.4035483144380207,-8.48368946617614,1.8163105338238605
0.8557710413694722,-1.5382491178016369,-8.576296268488626,1.7237037315113743
0.8637689015691868,-1.6729499211652512,-8.668903070801111,1.6310969291988895
0.8717667617689016,-1.8076507245288675,-8.761509873113596,1.5384901268864033
0.8797646219686163,-1.9423515278924839,-8.854116675426082,1.445883324573917
0.887762482168331,-2.0770523312561,-8.94672347773857,1.3532765222614311
0.8957603423680457,-2.211753134619716,-9.039330280051054,1.2606697199489447
0.9037582025677604,-2.451640513552076,-8.027460770328114,0.637910128388019
0.911756062767475,-5.119297393049175,-10.598070260695081,0.09228104278032977
0.9197539229671897,-5.207185966672414,-10.589281403332759,0.057125613331034275
0.9277517831669044,-5.295074540295653,-10.580492545970435,0.02197018388173877
0.9357496433666191,-5.382963113918891,-10.57170368860811,-0.013185245567556722
0.9437475035663339,-5.4708516875421305,-10.562914831245786,-0.048340675016852214
0.9517453637660486,-5.558740261165369,-10.554125973883464,-0.08349610446614772
0.9597432239657632,-5.646628834788606,-10.54533711652114,-0.11865153391544273
0.9677410841654779,-5.734517408411845,-10.536548259158815,-0.15380696336473823
0.9757389443651926,-5.822405982035084,-10.52775940179649,-0.18896239281403374
0.9837368045649073,-5.910294555658322,-10.518970544434168,-0.22411782226332924
0.991734664764622,-5.9981831292815615,-10.510181687071844,-0.2592732517126247
0.9997325249643367,-6.0860717029048,-10.50139282970952,-0.2944286811619202
1.0077303851640513,-7.930718021873525,-11.65767950546838,-0.1423204945316187
1.0157282453637662,-8.315760817879221,-10.168659851006494,0.6052536059597402
1.0237261055634808,-8.34242035187827,-9.946497067681088,0.6141401172927565
1.0317239657631954,-8.36907988587732,-9.724334284355683,0.6230266286257727
1.0397218259629102,-8.395739419876367,-9.50217150103027,0.6319131399587892
1.0477196861626248,-8.422398953875417,-9.280008717704865,0.6407996512918054
1.0557175463623396,-8.449058487874465,-9.057845934379454,0.6496861626248218
1.0637154065620542,-8.475718021873515,-8.835683151054049,0.658572673957838
1.0717132667617688,-8.502377555872563,-8.613520367728643,0.6674591852908542
1.0797111269614836,-8.529037089871611,-8.39135758440323,0.6763456966238707
1.0877089871611982,-8.555696623870661,-8.169194801077825,0.6852322079568869
1.095706847360913,-8.58235615786971,-7.947032017752414,0.6941187192899034
1.1037047075606277,-8.69015691868759,-7.619686162624821,0.4746077032810265
1.1117025677603425,-8.9881027104137,-7.2118972895863,0.05892296718972506
1.119700427960057,-10.107687623951845,-6.599145819560905,0.5025625413172821
1.1276982881597717,-10.195469016387738,-6.589392331512474,0.5318230054625793
1.1356961483594865,-10.283250408823632,-6.579638843464041,0.5610834696078775
1.1436940085592011,-10.371031801259523,-6.569885355415608,0.5903439337531747
1.151691868758916,-10.458813193695418,-6.560131867367176,0.6196043978984729
1.1596897289586305,-10.54659458613131,-6.550378379318743,0.6488648620437701
1.1676875891583451,-10.634375978567203,-6.540624891270311,0.6781253261890675
1.17568544935806,-10.722157371003096,-6.530871403221878,0.7073857903343657
1.1836833095577746,-10.80993876343899,-6.521117915173446,0.7366462544796629
1.1916811697574894,-10.897720155874882,-6.511364427125013,0.7659067186249611
1.199679029957204,-10.985501548310776,-6.50161093907658,0.7951671827702583
1.2076768901569188,-11.006462196861623,-5.825848787446493,0.7129243937232461
1.2156747503566334,-10.866956681402806,-4.914087371647294,0.5594779734749505
1.223672610556348,-10.827363314077486,-4.811144616601462,0.6307460346605263
1.2316704707560628,-10.787769946752165,-4.708201861555628,0.7020140958461039
1.2396683309557774,-10.748176579426845,-4.605259106509796,0.7732821570316795
1.2476661911554923,-10.708583212101525,-4.5023163514639615,0.8445502182172572
1.2556640513552069,-10.668989844776204,-4.399373596418131,0.9158182794028329
1.2636619115549215,-10.629396477450884,-4.296430841372299,0.9870863405884085
1.2716597717546363,-10.589803110125564,-4.1934880863264645,1.058354401773986
1.279657631954351,-10.550209742800243,-4.090545331280633,1.1296224629595617
1.2876554921540657,-10.510616375474923,-3.9876025762347984,1.2008905241451395
1.2956533523537803,-10.471023008149603,-3.884659821188967,1.2721585853307151
1.303651212553495,-10.431429640824284,-3.781717066143136,1.3434266465162907
1.3116490727532097,-10.482453637660484,-3.535092724679031,1.7298145506419378
1.3196469329529243,-10.179573921086046,-2.984680440814535,2.094893480271512
1.3276447931526392,-10.14441849163675,-2.958313868727563,2.0861046229091875
1.3356426533523538,-10.109263062187456,-2.9319472966405917,2.077315765546864
1.3436405135520686,-10.07410763273816,-2.90558072455362,2.06852690818454
1.3516383737517832,-10.038952203288865,-2.879214152466649,2.059738050822216
1.3596362339514978,-10.00379677383957,-2.8528475803796773,2.0509491934598927
1.3676340941512126,-9.968641344390274,-2.8264810082927054,2.0421603360975684
1.3756319543509272,-9.933485914940979,-2.8001144362057344,2.0333714787352446
1.383629814550642,-9.898330485491684,-2.7737478641187625,2.0245826213729208
1.3916276747503566,-9.863175056042389,-2.747381292031791,2.015793764010597
1.3996255349500712,-9.828019626593093,-2.72101471994482,2.007004906648273
1.407623395149786,-9.7,-2.7,2.0
1.4156212553495007,-9.689730543667777,-2.574326359169441,1.5845958155016646
1.4236191155492155,-9.671957521001742,-2.5298938025043585,1.5579362815026152
1.43161697574893,-9.65418449833571,-2.4854612458392773,1.5312767475035665
1.439614835948645,-9.636411475669677,-2.441028689174195,1.504617213504517
1.4476126961483595,-9.618638453003644,-2.3965961325091136,1.4779576795054683
1.4556105563480741,-9.600865430337613,-2.3521635758440325,1.4512981455064196
1.463608416547789,-9.583092407671579,-2.30773101917895,1.4246386115073701
1.4716062767475035,-9.565319385005548,-2.263298462513869,1.3979790775083214
1.4796041369472184,-9.547546362339514,-2.2188659058487863,1.371319543509272
1.487601997146933,-9.529773339673483,-2.174433349183705,1.344660009510223
1.4955998573466476,-9.51200031700745,-2.130000792518624,1.3180004755111745
1.5035977175463624,-9.55195435092725,-2.125977175463625,1.2480456490727498
1.511595577746077,-9.7,-2.2297788873038553,1.1
1.5195934379457918,-9.598552590376118,-2.2978288855641757,1.1985525903761172
1.5275912981455064,-9.579045614279252,-2.2685684214188786,1.1790456142792525
1.5355891583452213,-9.559538638182387,-2.2393079572735806,1.159538638182387
1.5435870185449359,-9.540031662085521,-2.210047493128283,1.1400316620855222
1.5515848787446505,-9.520524685988658,-2.180787028982986,1.1205246859886573
1.5595827389443653,-9.501017709891793,-2.151526564837688,1.101017709891792
1.5675805991440799,-9.481510733794927,-2.1222661006923906,1.081510733794927
1.5755784593437947,-9.462003757698062,-2.093005636547092,1.0620037576980617
1.5835763195435093,-9.442496781601196,-2.063745172401795,1.0424967816011967
1.591574179743224,-9.422989805504333,-2.034484708256498,1.0229898055043318
1.5995720399429387,-9.403482829407467,-2.0052242441112,1.0034828294074665
1.6075699001426533,-9.244300998573468,-2.1,0.7
1.6155677603423682,-9.097082090520036,-2.1058358189599278,0.7029179094799638
1.6235656205420828,-9.08799361302036,-2.124012773959279,0.7120063869796395
1.6315634807417974,-9.078905135520685,-2.1421897289586305,0.7210948644793151
1.6395613409415122,-9.069816658021008,-2.160366683957982,0.730183341978991
1.6475592011412268,-9.060728180521332,-2.1785436389573336,0.7392718194786667
1.6555570613409416,-9.051639703021657,-2.196720593956685,0.7483602969783427
1.6635549215406562,-9.042551225521981,-2.2148975489560367,0.7574487744780184
1.671552781740371,-9.033462748022306,-2.2330745039553883,0.7665372519776943
1.6795506419400856,-9.02437427052263,-2.25125145895474,0.77562572947737
1.6875485021398002,-9.015285793022954,-2.269428413954091,0.7847142069770456
1.695546362339515,-9.006197315523279,-2.287605368953443,0.7938026844767216
1.7035442225392297,-9.0,-2.477211126961485,0.722788873038515
1.7115420827389445,-9.007939034462046,-2.5,0.7079390344620469
1.719539942938659,-9.016357834672272,-2.5,0.7163578346722728
1.7275378031383737,-9.024776634882498,-2.5,0.7247766348824987
1.7355356633380885,-9.033195435092725,-2.5,0.7331954350927248
1.743533523537803,-9.041614235302951,-2.5,0.7416142353029507
1.751531383737518,-9.050033035513177,-2.5,0.7500330355131768
1.7595292439372325,-9.058451835723403,-2.5,0.7584518357234027
1.7675271041369474,-9.066870635933629,-2.5,0.7668706359336289
1.775524964336662,-9.075289436143855,-2.5,0.7752894361438548
1.7835228245363766,-9.08370823635408,-2.5,0.7837082363540807
1.7915206847360914,-9.092127036564307,-2.5,0.7921270365643068
1.799518544935806,-9.082715168806466,-2.5172848311935345,0.8
1.8075164051355208,-8.998369456843527,-2.803261086312948,1.0
1.8155142653352354,-8.989769607166414,-2.820460785667173,1.0
1.82351212553495,-8.981169757489301,-2.837660485021398,1.0
1.8315099857346648,-8.972569907812188,-2.854860184375623,1.0
1.8395078459343794,-8.963970058135075,-2.872059883729848,1.0
1.8475057061340943,-8.955370208457964,-2.8892595830840735,1.0
1.8555035663338089,-8.946770358780851,-2.9064592824382984,1.0
1.8635014265335235,-8.938170509103738,-2.9236589817925234,1.0
1.8714992867332383,-8.929570659426625,-2.9408586811467488,1.0
1.879497146932953,-8.920970809749514,-2.9580583805009737,1.0
1.8874950071326677,-8.912370960072401,-2.975258079855199,1.0
1.8954928673323823,-8.903771110395288,-2.9924577792094245,1.0
1.9034907275320971,-8.981649591492676,-2.959175204253662,1.040824795746338
1.9114885877318117,-9.1,-2.924809795530197,1.124809795530197
1.9194864479315263,-9.001835120903118,-3.101835120903119,1.3
1.9274843081312412,-9.011709022384249,-3.1117090223842485,1.3
1.9354821683309558,-9.021582923865378,-3.1215829238653776,1.3
1.9434800285306706,-9.031456825346506,-3.131456825346507,1.3
1.9514778887303852,-9.041330726827637,-3.1413307268276363,1.3
1.9594757489300998,-9.051204628308765,-3.1512046283087654,1.3
1.9674736091298146,-9.061078529789894,-3.161078529789895,1.3
1.9754714693295292,-9.070952431271023,-3.170952431271024,1.3
1.983469329529244,-9.080826332752153,-3.180826332752153,1.3
1.9914671897289586,-9.090700234233282,-3.190700234233282,1.3
1.9994650499286735,-9.1,-3.2,1.311626248216834
2.007462910128388,-9.101573021643429,-3.3,1.3015730216434283
2.0154607703281027,-9.11017287132054,-3.3,1.3101728713205407
2.0234586305278173,-9.118772720997653,-3.3,1.3187727209976532
2.0314564907275323,-9.127372570674765,-3.3,1.327372570674766
2.039454350927247,-9.135972420351878,-3.3,1.3359724203518786
2.0474522111269615,-9.14457227002899,-3.3,1.3445722700289908
2.055450071326676,-9.153172119706102,-3.3,1.3531721197061033
2.0634479315263907,-9.161771969383215,-3.3,1.3617719693832158
2.0714457917261058,-9.170371819060328,-3.3,1.3703718190603287
2.0794436519258204,-9.178971668737441,-3.3,1.3789716687374411
2.087441512125535,-9.187571518414552,-3.3,1.3875715184145534
2.0954393723252496,-9.196171368091665,-3.3,1.3961713680916659
2.103437232524964,-9.3,-3.228138373751793,1.4
2.111435092724679,-9.29415581427454,-3.205844185725462,1.3058441857254617
2.119432952924394,-9.285555964597426,-3.214444035402574,1.3144440354025742
2.1274308131241084,-9.276956114920313,-3.2230438850796865,1.3230438850796866
2.135428673323823,-9.2683562652432,-3.231643734756799,1.331643734756799
2.1434265335235376,-9.25975641556609,-3.2402435844339115,1.3402435844339116
2.1514243937232527,-9.251156565888975,-3.2488434341110244,1.3488434341110245
2.1594222539229673,-9.242556716211864,-3.257443283788137,1.357443283788137
2.167420114122682,-9.23395686653475,-3.2660431334652493,1.3660431334652494
2.1754179743223965,-9.225357016857638,-3.274642983142362,1.3746429831423619
2.1834158345221115,-9.216757167180525,-3.2832428328194747,1.3832428328194748
2.191413694721826,-9.208157317503412,-3.291842682496587,1.3918426824965873
2.1994115549215407,-9.195427167538433,-3.3,1.3908543350768696
2.2074094151212553,-9.106562054208275,-3.3,1.2131241084165518
2.21540727532097,-9.107173211202042,-3.2,1.2964133943989793
2.223405135520685,-9.124010811622494,-3.2,1.287994594188753
2.2314029957203996,-9.140848412042946,-3.2,1.2795757939785268
2.239400855920114,-9.157686012463397,-3.2,1.271156993768301
2.2473987161198288,-9.17452361288385,-3.2,1.262738193558075
2.2553965763195434,-9.191361213304301,-3.2,1.2543193933478491
2.2633944365192584,-9.208198813724755,-3.2,1.2459005931376228
2.271392296718973,-9.225036414145206,-3.2,1.237481792927397
2.2793901569186876,-9.241874014565658,-3.2,1.229062992717171
2.2873880171184022,-9.25871161498611,-3.2,1.220644192506945
2.295385877318117,-9.275549215406562,-3.2,1.212225392296719
2.303383737517832,-9.292386815827015,-3.2,1.2038065920864927
2.3113815977175465,-9.263486685687113,-3.2,1.2365133143128877
2.319379457917261,-9.237945791726117,-3.124108416547766,1.3
2.3273773181169757,-9.38655670470756,-2.9932783523537805,1.2067216476462195
2.3353751783166903,-9.366562054208275,-2.9832810271041375,1.2167189728958627
2.3433730385164053,-9.346567403708987,-2.9732837018544935,1.2267162981455066
2.35137089871612,-9.3265727532097,-2.96328637660485,1.2367136233951497
2.3593687589158345,-9.306578102710414,-2.953289051355207,1.2467109486447931
2.367366619115549,-9.286583452211127,-2.9432917261055636,1.2567082738944362
2.3753644793152637,-9.26658880171184,-2.9332944008559205,1.2667055991440797
2.383362339514979,-9.246594151212554,-2.9232970756062766,1.2767029243937233
2.3913601997146934,-9.226599500713267,-2.913299750356633,1.2867002496433666
2.399358059914408,-9.20660485021398,-2.90330242510699,1.2966975748930099
2.4073559201141226,-9.028815977175482,-2.9644079885877406,1.2
2.4153537803138376,-8.6,-2.9939845165013064,1.2
2.4233516405135522,-8.6,-2.984998156726346,1.2
2.431349500713267,-8.6,-2.9760117969513855,1.2
2.4393473609129814,-8.6,-2.9670254371764253,1.2
2.447345221112696,-8.6,-2.958039077401465,1.2
2.455343081312411,-8.6,-2.9490527176265044,1.2
2.4633409415121257,-8.6,-2.9400663578515442,1.2
2.4713388017118403,-8.6,-2.931079998076584,1.2
2.479336661911555,-8.6,-2.922093638301624,1.2
2.4873345221112695,-8.6,-2.9131072785266636,1.2
2.4953323823109845,-8.6,-2.904120918751703,1.2
2.503330242510699,-9.233024251069905,-2.8165121255349526,1.0834878744650474
2.5113281027104137,-9.18841716802084,-2.9057914159895804,1.1057914159895805
2.5193259629101283,-9.171030515412763,-2.914484742293618,1.1144847422936182
2.527323823109843,-9.153643862804689,-2.9231780685976556,1.1231780685976556
2.535321683309558,-9.136257210196613,-2.9318713949016937,1.1318713949016936
2.5433195435092726,-9.118870557588536,-2.9405647212057313,1.1405647212057313
2.551317403708987,-9.101483904980462,-2.949258047509769,1.149258047509769
2.559315263908702,-9.084097252372386,-2.9579513738138066,1.1579513738138065
2.5673131241084164,-9.066710599764312,-2.966644700117844,1.1666447001178442
2.5753109843081314,-9.049323947156235,-2.9753380264218823,1.1753380264218822
2.583308844507846,-9.031937294548161,-2.98403135272592,1.1840313527259196
2.5913067047075606,-9.014550641940085,-2.9927246790299575,1.1927246790299573
2.5993045649072752,-8.967385877318115,-3.0,1.1673858773181156
2.60730242510699,-9.202398359486446,-2.797601640513552,1.2
2.615300285306705,-9.210729463861151,-2.789270536138849,1.2
2.6232981455064195,-9.219060568235854,-2.7809394317641463,1.2
2.631296005706134,-9.227391672610556,-2.7726083273894435,1.2
2.6392938659058487,-9.23572277698526,-2.7642772230147408,1.2
2.6472917261055637,-9.244053881359962,-2.7559461186400376,1.2
2.6552895863052783,-9.252384985734665,-2.7476150142653353,1.2
2.663287446504993,-9.260716090109367,-2.7392839098906325,1.2
2.6712853067047075,-9.26904719448407,-2.73095280551593,1.2
2.679283166904422,-9.277378298858773,-2.722621701141227,1.2
2.687281027104137,-9.285709403233477,-2.714290596766524,1.2
2.695278887303852,-9.29404050760818,-2.705959492391821,1.2
2.7032767475035664,-9.3,-2.7325249643366614,1.2650499286733223
2.711274607703281,-9.149015691868756,-2.774507845934379,1.4745078459343788
2.7192724679029956,-9.00508627131309,-2.68982745737382,1.40508627131309
2.7272703281027106,-9.014607533455608,-2.670784933088784,1.414607533455608
2.7352681883024252,-9.024128795598125,-2.651742408803749,1.4241287955981254
2.74326604850214,-9.033650057740642,-2.6326998845187144,1.4336500577406428
2.7512639087018544,-9.043171319883161,-2.6136573602336797,1.4431713198831602
2.759261768901569,-9.052692582025678,-2.594614835948645,1.4526925820256775
2.767259629101284,-9.062213844168195,-2.5755723116636093,1.4622138441681953
2.7752574893009987,-9.071735106310713,-2.556529787378574,1.471735106310713
2.7832553495007133,-9.08125636845323,-2.5374872630935394,1.4812563684532303
2.791253209700428,-9.090777630595747,-2.5184447388085047,1.4907776305957476
2.7992510699001425,-9.107173425718358,-2.4928265742816413,1.5
2.8072489300998575,-9.212446504992878,-2.2,1.6
2.815246790299572,-9.313881756221273,-2.2,1.5930591218893646
2.8232446504992867,-9.331654778887303,-2.2,1.5841726105563483
2.8312425106990013,-9.349427801553336,-2.2,1.575286099223332
2.839240370898716,-9.367200824219369,-2.2,1.5663995878903159
2.847238231098431,-9.384973846885403,-2.2,1.557513076557299
2.8552360912981456,-9.402746869551434,-2.2,1.5486265652242828
2.86323395149786,-9.420519892217467,-2.2,1.5397400538912667
2.871231811697575,-9.4382929148835,-2.2,1.5308535425582503
2.87922967189729,-9.456065937549534,-2.2,1.5219670312252336
2.8872275320970044,-9.473838960215565,-2.2,1.5130805198922173
2.895225392296719,-9.491611982881597,-2.2,1.5041940085592012
2.9032232524964336,-9.277674750356635,-2.077674750356635,1.4388373751783174
2.9112211126961482,-9.2,-1.8,1.4064803257251546
2.9192189728958633,-9.2,-1.8,1.4148114300998578
2.927216833095578,-9.2,-1.8,1.4231425344745605
2.9352146932952925,-9.2,-1.8,1.431473638849263
2.943212553495007,-9.2,-1.8,1.4398047432239658
2.9512104136947217,-9.2,-1.8,1.4481358475986685
2.9592082738944367,-9.2,-1.8,1.4564669519733717
2.9672061340941513,-9.2,-1.8,1.4647980563480745
2.975203994293866,-9.2,-1.8,1.4731291607227772
2.9832018544935806,-9.2,-1.8,1.4814602650974797
2.991199714693295,-9.2,-1.8,1.4897913694721825
2.99919757489301,-9.2,-1.8,1.4981224738468857
3.007195435092725,-9.122557061340938,-1.7225570613409387,1.4225570613409386
3.0151932952924394,-9.341932952924394,-1.6580670470756063,1.4
3.023191155492154,-9.4,-1.5943816525842203,1.4028091737078898
3.0311890156918686,-9.4,-1.5738743187387985,1.4130628406306007
3.0391868758915837,-9.4,-1.5533669848933753,1.4233165075533123
3.0471847360912983,-9.4,-1.5328596510479533,1.4335701744760234
3.055182596291013,-9.4,-1.5123523172025313,1.4438238413987343
3.0631804564907275,-9.4,-1.4918449833571092,1.4540775083214452
3.0711783166904425,-9.4,-1.471337649511686,1.464331175244157
3.079176176890157,-9.4,-1.450830315666264,1.474584842166868
3.0871740370898717,-9.4,-1.430322981820842,1.4848385090895788
3.0951718972895863,-9.4,-1.40981564797542,1.49509217601229
3.103169757489301,-9.341512125534955,-1.3,1.4584878744650454
3.111167617689016,-9.493507770853668,-1.1870155417073347,1.4935077708536675
3.1191654778887306,-9.485088970643442,-1.1701779412868831,1.4850889706434416
3.127163338088445,-9.476670170433216,-1.1533403408664313,1.4766701704332157
3.1351611982881598,-9.46825137022299,-1.1365027404459795,1.4682513702229898
3.1431590584878744,-9.459832570012765,-1.1196651400255277,1.459832570012764
3.1511569186875894,-9.451413769802537,-1.102827539605075,1.4514137698025376
3.159154778887304,-9.442994969592311,-1.0859899391846233,1.4429949695923117
3.1671526390870186,-9.434576169382087,-1.0691523387641717,1.4345761693820858
3.175150499286733,-9.426157369171861,-1.05231473834372,1.4261573691718599
3.183148359486448,-9.417738568961635,-1.0354771379232681,1.417738568961634
3.191146219686163,-9.409319768751407,-1.0186395375028154,1.4093197687514076
3.1991440798858775,-9.400900968541182,-1.0018019370823636,1.4009009685411817
3.207141940085592,-9.6,-0.8996914345965387,1.4
3.2151398002853067,-9.6,-0.8823047819884635,1.4
3.2231376604850213,-9.6,-0.8649181293803883,1.4
3.2311355206847363,-9.6,-0.8475314767723121,1.4
3.239133380884451,-9.6,-0.8301448241642368,1.4
3.2471312410841655,-9.6,-0.8127581715561617,1.4
3.25512910128388,-9.6,-0.7953715189480864,1.4
3.2631269614835947,-9.6,-0.7779848663400113,1.4
3.2711248216833098,-9.6,-0.760598213731935,1.4
3.2791226818830244,-9.6,-0.7432115611238599,1.4
3.287120542082739,-9.6,-0.7258249085157846,1.4
3.2951184022824536,-9.6,-0.7084382559077094,1.4
3.3031162624821686,-9.5,-0.6,1.5
3.311114122681883,-9.49342567453561,-0.6,1.4
3.319111982881598,-9.484825824858497,-0.6,1.4
3.3271098430813124,-9.476225975181384,-0.6,1.4
3.335107703281027,-9.467626125504273,-0.6,1.4
3.343105563480742,-9.45902627582716,-0.6,1.4
3.3511034236804567,-9.450426426150047,-0.6,1.4
3.3591012838801713,-9.441826576472934,-0.6,1.4
3.367099144079886,-9.433226726795821,-0.6,1.4
3.3750970042796005,-9.42462687711871,-0.6,1.4
3.3830948644793155,-9.416027027441597,-0.6,1.4
3.39109272467903,-9.407427177764484,-0.6,1.4
3.3990905848787447,-9.43635282929149,-0.6,1.4
3.4070884450784593,-9.560884450784593,-0.6,1.3391155492154063
3.415086305278174,-9.6,-0.6,1.3
3.423084165477889,-9.6,-0.6,1.3
3.4310820256776036,-9.6,-0.6,1.3
3.439079885877318,-9.6,-0.6,1.3
3.4470777460770328,-9.6,-0.6,1.3
3.4550756062767474,-9.6,-0.6,1.3
3.4630734664764624,-9.6,-0.6,1.3
3.471071326676177,-9.6,-0.6,1.3
3.4790691868758916,-9.6,-0.6,1.3
3.487067047075606,-9.6,-0.6,1.3
3.495064907275321,-9.6,-0.6,1.3
3.503062767475036,-9.518744650499283,-0.6812553495007168,1.3
3.5110606276747505,-9.604579172610556,-0.5954208273894431,1.2022895863052783
3.519058487874465,-9.622352195276589,-0.5776478047234108,1.2111760976382946
3.5270563480741797,-9.640125217942622,-0.5598747820573784,1.2200626089713107
3.5350542082738947,-9.657898240608654,-0.5421017593913451,1.2289491203043275
3.5430520684736093,-9.675671263274687,-0.5243287367253127,1.2378356316373436
3.551049928673324,-9.69344428594072,-0.5065557140592802,1.2467221429703599
3.5590477888730385,-9.711217308606752,-0.48878269139324787,1.255608654303376
3.567045649072753,-9.728990331272785,-0.4710096687272155,1.2644951656363923
3.575043509272468,-9.746763353938817,-0.4532366460611821,1.273381676969409
3.5830413694721828,-9.76453637660485,-0.43546362339514977,1.2822681883024252
3.5910392296718974,-9.782309399270883,-0.41769060072911735,1.2911546996354413
3.599037089871612,-9.8,-0.4037089871611777,1.3
3.6070349500713266,-9.902034950071327,-0.39593009985734684,1.2
3.6150328102710416,-9.910032810271042,-0.37993437945791675,1.2
3.623030670470756,-9.918030670470756,-0.36393865905848755,1.2
3.631028530670471,-9.926028530670472,-0.3479429386590584,1.2
3.6390263908701854,-9.934026390870185,-0.3319472182596292,1.2
3.6470242510699,-9.9420242510699,-0.3159514978602,1.2
3.655022111269615,-9.950022111269615,-0.29995577746076996,1.2
3.6630199714693297,-9.95801997146933,-0.28396005706134075,1.2
3.6710178316690443,-9.966017831669044,-0.26796433666191155,1.2
3.679015691868759,-9.97401569186876,-0.25196861626248235,1.2
3.6870135520684735,-9.982013552068473,-0.23597289586305317,1.2
3.6950114122681885,-9.990011412268188,-0.21997717546362308,1.2
3.703009272467903,-9.998009272467904,-0.20398145506419388,1.2
3.7110071326676177,-9.799821683309554,0.09982168330955324,1.2001783166904467
3.7190049928673323,-9.704767848651585,-0.009535697303172537,1.3047678486515863
3.727002853067047,-9.714289110794104,-0.02857822158820729,1.3142891107941037
3.735000713266762,-9.72381037293662,-0.047620745873243095,1.3238103729366215
3.7429985734664766,-9.73333163507914,-0.06666327015827785,1.3333316350791389
3.750996433666191,-9.742852897221656,-0.0857057944433126,1.3428528972216562
3.758994293865906,-9.752374159364173,-0.10474831872834735,1.3523741593641736
3.766992154065621,-9.761895421506692,-0.12379084301338315,1.3618954215066916
3.7749900142653354,-9.771416683649209,-0.14283336729841792,1.371416683649209
3.78298787446505,-9.780937945791727,-0.16187589158345267,1.3809379457917264
3.7909857346647646,-9.790459207934244,-0.18091841586848742,1.3904592079342437
3.7989835948644792,-9.799980470076761,-0.19996094015352217,1.399980470076761
3.8069814550641943,-9.71273181169757,-0.2,1.4436340941512151
3.814979315263909,-9.612758559201136,-0.2,1.4936207203994316
3.8229771754636235,-9.49502853067047,-0.10497146932952942,1.7
3.830975035663338,-9.485031205420828,-0.11496879457917265,1.7
3.8389728958630527,-9.475033880171184,-0.12496611982881589,1.7
3.8469707560627677,-9.465036554921541,-0.1349634450784597,1.7
3.8549686162624823,-9.455039229671897,-0.14496077032810295,1.7
3.862966476462197,-9.445041904422254,-0.15495809557774617,1.7
3.8709643366619115,-9.435044579172612,-0.16495542082738943,1.7
3.878962196861626,-9.425047253922967,-0.17495274607703265,1.7
3.886960057061341,-9.415049928673325,-0.18495007132667646,1.7
3.894957917261056,-9.40505260342368,-0.1949473965763197,1.7
3.9029557774607704,-9.4,-0.2,1.7261055634807383
3.910953637660485,-9.3,-0.2,1.8086284603775147
3.9189514978601996,-9.3,-0.2,1.8202195621162314
3.9269493580599146,-9.3,-0.2,1.8318106638549487
3.9349472182596292,-9.3,-0.2,1.8434017655936656
3.942945078459344,-9.3,-0.2,1.8549928673323823
3.9509429386590584,-9.3,-0.2,1.866583969071099
3.958940798858773,-9.3,-0.2,1.8781750708098157
3.966938659058488,-9.3,-0.2,1.889766172548533
3.9749365192582027,-9.39365192582026,-0.1063480741797413,1.7126961483594825
3.9829343794579173,-9.29343794579172,0.28687589158343624,1.7065620542082818
3.990932239657632,-9.286083790074331,0.3,1.693041895037165
3.998930099857347,-9.27205245639062,0.3,1.6860262281953098
4.0069279600570615,-9.25802112270691,0.3,1.679010561353455
4.014925820256776,-9.2439897890232,0.3,1.6719948945116
4.022923680456491,-9.22995845533949,0.3,1.664979227669745
4.030921540656205,-9.215927121655781,0.3,1.6579635608278902
4.03891940085592,-9.20189578797207,0.3,1.6509478939860354
4.0469172610556345,-9.187864454288361,0.3,1.6439322271441805
4.054915121255349,-9.173833120604652,0.3,1.6369165603023257
4.062912981455065,-9.159801786920939,0.3,1.62990089346047
4.070910841654779,-9.14577045323723,0.3,1.6228852266186151
4.078908701854494,-9.13173911955352,0.3,1.6158695597767603
4.086906562054208,-9.11770778586981,0.3,1.6088538929349052
4.094904422253923,-9.1036764521861,0.3,1.6018382260930504
4.102902282453638,-8.999079303618737,0.5990793036187374,1.5
4.110900142653352,-8.990918221782294,0.5909182217822939,1.5
4.118898002853067,-8.98275713994585,0.5827571399458504,1.5
4.126895863052781,-8.974596058109407,0.574596058109407,1.5
4.134893723252497,-8.966434976272962,0.5664349762729626,1.5
4.1428915834522115,-8.95827389443652,0.5582738944365191,1.5
4.150889443651926,-8.950112812600075,0.5501128126000756,1.5
4.158887303851641,-8.941951730763632,0.5419517307636321,1.5
4.166885164051355,-8.93379064892719,0.5337906489271886,1.5
4.17488302425107,-8.925629567090745,0.5256295670907452,1.5
4.1828808844507845,-8.917468485254302,0.5174684852543017,1.5
4.190878744650499,-8.90930740341786,0.5093074034178582,1.5
4.198876604850214,-8.901146321581415,0.5011463215814147,1.5
4.206874465049928,-9.086045145590347,0.6683729126457914,1.5772090291180696
4.214872325249644,-8.850813963245766,0.8095116220525398,1.5301627926491534
4.222870185449358,-8.4,0.8947564893943224,2.0
4.230868045649073,-8.4,0.8723325822923189,2.0
4.238865905848788,-8.4,0.8499086751903153,2.0
4.246863766048502,-8.4,0.8274847680883118,2.0
4.254861626248217,-8.4,0.8050608609863084,2.0
4.2628594864479314,-8.4,0.7826369538843049,2.0
4.270857346647646,-8.4,0.7602130467823013,2.0
4.278855206847361,-8.4,0.7377891396802978,2.0
4.286853067047075,-8.4,0.7153652325782943,2.0
4.294850927246791,-8.4,0.6929413254762883,2.0
4.302848787446505,-8.4,0.6705174183742848,2.0
4.31084664764622,-8.4,0.6480935112722812,2.0
4.3188445078459345,-8.4,0.6256696041702777,2.0
4.326842368045649,-8.4,0.6032456970682742,2.0
4.334840228245364,-7.442368045649096,0.668402282453636,2.410413694721816
4.342838088445078,-5.548573466476488,2.7319971469329163,3.470855920114107
4.350835948644793,-6.318880435356898,0.6622391292862042,2.075651186136208
4.3588338088445076,-6.481799809795528,0.33640038040894427,2.1793271516880632
4.366831669044223,-6.644719184234176,0.01056163153164813,2.28300311723993
4.374829529243938,-6.807638558672806,-0.3152771173456118,2.386679082791786
4.382827389443652,-6.970557933111436,-0.6411158662228719,2.490355048343641
4.390825249643367,-7.1334773075500655,-0.9669546151001317,2.5940310138954965
4.3988231098430814,-7.296396681988695,-1.2927933639773919,2.697706979447352
4.406820970042796,-12.381009272467736,3.448368402282252,2.1421362339516175
4.414818830242511,-10.854916938935167,-0.6088122957986244,-0.41656619575722836
4.422816690442225,-10.614121147976018,-0.7894091390179865,0.21982268034909502
4.43081455064194,-10.373325357016869,-0.9700059822373485,0.8562115564554182
4.4388124108416545,-10.13252956605772,-1.1506028254567107,1.4926004325617417
4.44681027104137,-9.891733775098544,-1.3311996686760925,2.1289893086681353
4.4548081312410845,-9.650937984139393,-1.5117965118954546,2.765378184774459
4.462805991440799,-9.410142193180244,-1.6923933551148167,3.4017670608807826
4.470803851640514,-9.169346402221095,-1.8729901983341788,4.038155936987105
4.478801711840228,-8.928550611261945,-2.0535870415535404,4.674544813093429
4.486799572039943,-8.687754820302796,-2.2341838847729028,5.310933689199752
4.4947974322396576,-8.446959029343645,-2.414780727992265,5.9473225653060755
4.502795292439372,-8.206163238384498,-2.595377571211627,6.583711441412399
4.510793152639087,-11.498217634518905,-7.889118274054715,4.683958710670152
4.518791012838801,-11.480244914968985,-8.787754251550734,4.522204234720868
4.526788873038517,-11.462272195419063,-9.686390229046852,4.3604497587715665
4.5347867332382314,-11.444299475869142,-10.58502620654287,4.198695282822284
4.542784593437946,-11.426326756319222,-11.483662184038888,4.036940806873
4.550782453637661,-11.408354036769301,-12.382298161534909,3.8751863309237167
4.558780313837375,-11.390381317219381,-13.280934139030926,3.7134318549744334
4.56677817403709,-11.372408597669462,-14.179570116526945,3.55167737902515
4.5747760342368045,-11.354435878119542,-15.078206094022963,3.389922903075867
4.582773894436519,-11.336463158569622,-15.97684207151898,3.228168427126583
4.590771754636234,-11.318490439019701,-16.875478049015,3.0664139511773003
4.598769614835949,-11.300517719469779,-17.774114026511118,2.904659475227999
4.606767475035664,-9.401283880171016,-16.419115549215284,4.885021398003028
4.614765335235378,-3.255237415936327,2.1833910739760323,0.745486040350563
4.622763195435093,-1.9008118272597618,3.1307171573077435,1.395263908701853
4.6307610556348076,-1.566355855271695,3.014384645311894,1.555221112696146
4.638758915834522,-1.231899883283628,2.8980521333160447,1.7151783166904386
4.646756776034237,-0.8974439112955612,2.781719621320195,1.8751355206847315
4.654754636233951,-0.5629879393074941,2.665387109324346,2.0350927246790245
4.662752496433666,-0.22853196731942726,2.5490545973284964,2.195049928673317
4.670750356633381,0.1059240046686396,2.432722085332647,2.35500713266761
4.678748216833096,-12.059547585083466,21.770165070309382,2.2237517831671507
4.686746077032811,-32.35866619115546,22.0870363766048,0.5345042796006128
4.694743937232525,-31.07329580191561,20.301799724882795,2.0912306399022036
4.70274179743224,-29.787925412675765,18.516563073160786,3.647957000203794
4.7107396576319545,-28.502555023435917,16.73132642143878,5.204683360505385
4.718737517831669,-27.217184634196073,14.946089769716771,6.761409720806975
4.726735378031384,-25.93181424495623,13.160853117994762,8.318136081108566
4.734733238231098,-24.646443855716385,11.375616466272755,9.874862441410157
4.742731098430813,-23.361073466476537,9.590379814550747,11.431588801711747
4.7507289586305275,-22.075703077236692,7.80514316282874,12.988315162013338
4.758726818830243,-20.790332687996703,6.019906511106534,14.545041522315103
4.766724679029958,-19.50496229875686,4.234669859384525,16.10176788261669
4.774722539229672,-18.219591909517014,2.449433207662519,17.658494242918284
4.782720399429387,-16.93422152027717,0.6641965559405101,19.215220603219873
4.790718259629101,-15.648851131037322,-1.121040095781499,20.771946963521465
4.798716119828816,-4.619408855173515,4.345510419027553,7.851533856840024
4.806713980028531,-4.836173290492883,4.853785646672966,8.427080805791448
4.814711840228245,-5.052937725812249,5.362060874318379,9.002627754742871
4.82270970042796,-5.269702161131617,5.870336101963792,9.578174703694295
4.830707560627675,-5.486466596451009,6.378611329609262,10.153721652645782
4.83870542082739,-5.703231031770375,6.886886557254675,10.729268601597205
4.8467032810271045,-5.919995467089743,7.395161784900088,11.304815550548629
4.854701141226819,-6.136759902409111,7.903437012545501,11.880362499500052
4.862699001426534,-6.353524337728478,8.411712240190912,12.455909448451475
4.870696861626248,-6.570288773047845,8.919987467836325,13.031456397402899
4.878694721825963,-6.787053208367212,9.428262695481738,13.607003346354322
4.8866925820256775,-7.003817643686579,9.936537923127151,14.182550295305745
4.894690442225392,-7.220582079005947,10.444813150772564,14.758097244257169
4.902688302425107,-7.437346514325315,10.953088378417977,15.333644193208592
4.910686162624822,-6.841119828814389,2.661982881596918,9.13099144079846
4.918684022824537,6.172285896994465,-3.536187220227225,5.636187220227225
4.926681883024251,6.466460065259827,-3.0857330250708883,5.185733025070889
4.934679743223966,6.76063423352519,-2.6352788299145518,4.735278829914552
4.942677603423681,7.054808401790552,-2.1848246347582156,4.284824634758216
4.950675463623395,7.348982570055915,-1.7343704396018795,3.83437043960188
4.95867332382311,7.643156738321277,-1.283916244445543,3.3839162444455435
4.966671184022824,7.93733090658664,-0.8334620492892064,2.933462049289207
4.974669044222539,8.231505074852002,-0.3830078541328703,2.483007854132871
4.982666904422254,8.525679243117365,0.06744634102346625,2.0325536589765343
4.990664764621969,8.81985341138276,0.5179005361798525,1.582099463820148
4.998662624821684,9.114027579648123,0.9683547313361887,1.1316452686638119
5.006660485021398,7.0930416864796335,3.7730068156601653,0.05658582976700066
5.014658345221113,4.1160603899191655,7.549774132192104,-1.2763908701854483
5.0226562054208275,-2.513504517356495,12.806276747503324,2.4442700903471297
5.030654065620542,-2.065876299164454,9.434123700835546,-2.039335642959029
5.038651925820257,-1.9630466680252665,9.536953331974734,-1.856527409822696
5.046649786019971,-1.8602170368860793,9.639782963113921,-1.673719176686363
5.054647646219686,-1.757387405746892,9.742612594253108,-1.49091094355003
5.062645506419401,-1.6545577746076932,9.845442225392308,-1.3081027104136767
5.070643366619116,-1.5517281434685057,9.948271856531495,-1.1252944772773437
5.078641226818831,-1.4488985123293185,10.051101487670682,-0.9424862441410107
5.086639087018545,-1.3460688811901313,10.153931118809869,-0.7596780110046777
5.09463694721826,-1.243239250050944,10.256760749949057,-0.5768697778683447
5.102634807417974,-1.5424928673322666,10.359218972895537,4.438908701854423
5.110632667617689,0.008775558725630999,5.961972578855599,3.502925186241877
5.118630527817404,0.03543509272467945,5.846447931526389,3.511811697574893
5.126628388017118,0.0620946267237279,5.730923284197179,3.5206982089079095
5.134626248216833,0.08875416072277635,5.615398636867969,3.5295847202409254
5.142624108416548,0.11541369472182776,5.499873989538746,3.5384712315739426
5.150621968616263,0.14207322872087622,5.3843493422095365,3.547357742906959
5.1586198288159775,0.16873276271992466,5.268824694880326,3.556244254239975
5.166617689015692,0.1953922967189731,5.153300047551117,3.565130765572991
5.174615549215407,0.22205183071802156,5.037775400221907,3.5740172769060075
5.182613409415121,0.24871136471707,4.922250752892697,3.5829037882390233
5.190611269614836,0.2753708987161185,4.806726105563487,3.5917902995720397
5.1986091298145505,-0.03502139800258097,4.425891583452434,3.843651925820059
5.206606990014265,-2.023978731681931,4.370107638438556,7.105161457657834
5.21460485021398,-3.970485513306122,5.386698804663266,8.503689310836736
5.222602710413695,-3.823398429173423,5.8187671143030695,8.522075196353322
5.23060057061341,-3.67631134504074,6.250835423942825,8.540461081869907
5.238598430813124,-3.5292242609080575,6.682903733582581,8.558846967386492
5.246596291012839,-3.382137176775375,7.114972043222337,8.577232852903078
5.254594151212554,-3.235050092642692,7.547040352862092,8.595618738419663
5.262592011412268,-3.087963008510009,7.979108662501847,8.614004623936248
5.270589871611983,-2.9408759243773264,8.411176972141604,8.632390509452833
5.278587731811697,-2.793788840244644,8.843245281781359,8.65077639496942
5.286585592011412,-2.646701756111961,9.275313591421114,8.669162280486004
5.2945834522111275,-2.499614671979262,9.707381901060918,8.68754816600259
5.302581312410842,-3.293081312410406,7.839443651926506,8.3
5.310579172610557,1.803767550116375,7.635951648021624,9.005811247090623
5.318577032810271,1.812186350326601,7.492832044447784,8.795341241834976
5.326574893009986,1.8206051505368268,7.349712440873943,8.584871236579328
5.3345727532097005,1.8290239507470527,7.206592837300103,8.374401231323679
5.342570613409415,1.8374427509572788,7.063473233726262,8.163931226068032
5.35056847360913,1.8458615511675047,6.920353630152421,7.953461220812383
5.358566333808844,1.8542803513777306,6.77723402657858,7.742991215556735
5.366564194008559,1.8626991515879565,6.63411442300474,7.532521210301088
5.374562054208274,1.8711179517981833,6.490994819430883,7.322051205045416
5.382559914407989,1.8795367520084092,6.347875215857043,7.111581199789768
5.390557774607704,1.887955552218635,6.204755612283202,6.901111194534121
5.398555634807418,1.896374352428861,6.061636008709361,6.690641189278472
5.406553495007133,0.5504636233951417,1.9253566333809269,7.939764621968601
5.414551355206847,-0.04989982208402291,4.743862700155474,6.918712433281509
5.422549215406562,-0.12179070028370438,4.662985462180832,6.945671512606389
5.430547075606277,-0.19368157848338585,4.58210822420619,6.97263059193127
5.438544935805991,-0.26557245668306734,4.501230986231549,6.9995896712561505
5.446542796005706,-0.3374633348827488,4.4203537482569075,7.026548750581031
5.454540656205421,-0.40935421308243825,4.339476510282257,7.053507829905914
5.462538516405136,-0.48124509128211973,4.258599272307615,7.080466909230795
5.4705363766048505,-0.5531359694818012,4.177722034332973,7.107425988555676
5.478534236804565,-0.6250268476814826,4.096844796358332,7.134385067880556
5.48653209700428,-0.6969177258811642,4.01596755838369,7.161344147205437
5.494529957203994,-0.7688086040808456,3.9350903204090484,7.1883032265303175
5.502527817403709,0.18240608654303042,6.5055634807418175,6.653685211602426
5.5105256776034235,0.05885133699578188,7.052905423862566,5.541148663004218
5.518523537803138,-0.0007071964063479347,7.129480681093876,5.600707196406348
5.526521398002854,-0.06026572980848435,7.2060559383251945,5.660265729808485
5.534519258202568,-0.11982426321061418,7.282631195556504,5.719824263210614
5.542517118402283,-0.179382796612744,7.359206452787814,5.779382796612744
5.550514978601997,-0.2389413300148738,7.435781710019124,5.838941330014874
5.558512838801712,-0.29849986341700363,7.512356967250433,5.898499863417004
5.566510699001427,-0.35805839681913343,7.588932224481743,5.958058396819133
5.574508559201141,-0.4176169302212632,7.665507481713053,6.017616930221264
5.582506419400856,-0.477175463623393,7.7420827389443625,6.0771754636233934
5.59050427960057,-0.5367339970255228,7.818657996175673,6.136733997025523
5.598502139800285,-0.5962925304276527,7.895233253406983,6.196292530427653
5.6065000000000005,-2.0187500000000558,9.937500000000012,5.287499999999962
5.614497860199715,-2.386275493408159,8.467061184179583,4.532938815820417
5.62249572039943,-2.342331206596541,8.361594895831699,4.638405104168302
5.630493580599144,-2.2983869197849223,8.256128607483813,4.743871392516187
5.638491440798859,-2.2544426329733036,8.150662319135929,4.849337680864071
5.6464893009985735,-2.210498346161685,8.045196030788045,4.954803969211956
5.654487161198288,-2.1665540593500663,7.939729742440159,5.060270257559841
5.662485021398003,-2.1226097725384476,7.834263454092275,5.165736545907725
5.670482881597717,-2.0786654857268294,7.72879716574439,5.27120283425561
5.678480741797432,-2.0347211989152107,7.623330877396506,5.376669122603494
5.686478601997147,-1.9907769121035872,7.517864589048609,5.482135410951391
5.694476462196862,-1.9468326252919685,7.412398300700724,5.587601699299276
5.702474322396577,-1.9028883384803499,7.30693201235284,5.69306798764716
5.710472182596291,0.8597208070103927,5.788893417566744,8.620837578968821
5.718470042796006,1.1453586712859276,4.874852251885033,7.763923986142217
5.72646790299572,1.1419547167050714,4.658539083360766,7.541954716705071
5.734465763195435,1.0701790482460944,4.607270748747211,7.470179048246094
5.74246362339515,0.9984033797871175,4.556002414133656,7.398403379787117
5.750461483594864,0.9266277113281405,4.504734079520101,7.326627711328141
5.75845934379458,0.8548520428691557,4.45346574490654,7.254852042869156
5.766457203994294,0.7830763744101787,4.402197410292985,7.183076374410179
5.774455064194009,0.7113007059512018,4.35092907567943,7.111300705951202
5.7824529243937235,0.6395250374922249,4.299660741065875,7.039525037492226
5.790450784593438,0.567749369033248,4.24839240645232,6.967749369033248
5.798448644793153,0.43270328102709466,4.312161198288176,6.85513552068473
5.806446504992867,-0.8995146684860139,8.801455994541959,5.697573342430069
5.814444365192582,-0.8908213421819763,8.827535973454072,5.654106710909881
5.8224422253922965,-0.8821280158779385,8.853615952366185,5.610640079389693
5.830440085592011,-0.8734346895739009,8.879695931278297,5.5671734478695045
5.838437945791727,-0.8647413632698624,8.905775910190414,5.5237068163493115
5.846435805991441,-0.8560480369658248,8.931855889102525,5.480240184829124
5.854433666191156,-0.847354710661787,8.957935868014639,5.436773553308935
5.86243152639087,-0.8386613843577494,8.984015846926752,5.3933069217887475
5.870429386590585,-0.8299680580537118,9.010095825838865,5.349840290268559
5.8784272467903,-0.8212747317496741,9.036175804750977,5.30637365874837
5.886425106990014,-0.8125814054456365,9.06225578366309,5.262907027228183
5.894422967189729,-0.8038880791415989,9.088335762575204,5.219440395707994
5.902420827389443,-0.6157869709938172,8.85268663813602,5.6631478839752685
5.910418687589158,-0.7,6.997145311892106,5.999524218648684
5.9184165477888735,-0.7,6.942614446894045,5.990435741149008
5.926414407988588,-0.7,6.888083581895992,5.981347263649332
5.934412268188303,-0.7,6.8335527168979375,5.9722587861496566
5.942410128388017,-0.7,6.779021851899883,5.963170308649981
5.950407988587732,-0.7,6.724490986901829,5.954081831150305
5.9584058487874465,-0.7,6.669960121903776,5.944993353650629
5.966403708987161,-0.7,6.615429256905721,5.935904876150953
5.974401569186876,-0.7,6.560898391907667,5.926816398651278
5.98239942938659,-0.7,6.506367526909614,5.917727921151602
5.990397289586306,-0.7,6.451836661911553,5.908639443651926
5.99839514978602,-0.7,6.498787446505055,5.919757489301011
6.006393009985735,-0.5951973371373983,7.495197337137398,6.252401331431301
6.01439087018545,0.1242286300469631,6.836342945070444,6.60605715751174
6.022388730385164,0.1601740691468042,6.890261103720206,6.615043517286701
6.030386590584879,0.1961195082466453,6.944179262369968,6.624029877061661
6.038384450784593,0.2320649473464864,6.99809742101973,6.633016236836621
6.046382310984308,0.26801038644632746,7.052015579669491,6.642002596611582
6.054380171184023,0.3039558255461686,7.105933738319253,6.650988956386542
6.062378031383737,0.33990126464600967,7.159851896969014,6.6599753161615025
6.070375891583453,0.3758467037458548,7.213770055618783,6.668961675936464
6.078373751783167,0.4117921428456959,7.267688214268544,6.677948035711424
6.086371611982882,0.44773758194553703,7.321606372918306,6.686934395486384
6.0943694721825965,0.4836830210453781,7.375524531568067,6.695920755261345
6.102367332382311,0.5739555736702642,7.160933360505396,6.873955573670265
6.110365192582026,0.4216153793899854,6.932423069084978,6.721615379389986
6.11836305278174,0.2692751851097066,6.703912777664559,6.569275185109706
6.126360912981455,0.18278586981004608,6.628690216983256,6.494261956603348
6.1343587731811695,0.1512153690216992,6.681307718297168,6.483738456340567
6.142356633380885,0.11964486823334877,6.733925219611085,6.473214956077783
6.1503544935806,0.08807436744500187,6.786542720924997,6.462691455815
6.158352353780314,0.056503866656654966,6.839160222238908,6.452167955552219
6.166350213980029,0.02493336586830805,6.89177772355282,6.4416444552894365
6.174348074179743,-0.00663713492003884,6.944395224866731,6.431120955026654
6.182345934379458,-0.038207635708385757,6.9970127261806425,6.420597454763872
6.190343794579173,-0.06977813649673265,7.049630227494554,6.410073954501089
6.198341654778887,-0.13416547788868505,7.151248216833027,6.4
6.206339514978602,-0.5834878744650472,7.9669757489300945,5.666048502139811
6.214337375178316,-0.5919369503534982,7.991936950353498,5.6
6.222335235378032,-0.5831480929911735,7.983148092991174,5.6
6.2303330955777465,-0.5743592356288498,7.97435923562885,5.6
6.238330955777461,-0.5655703782665261,7.965570378266526,5.6
6.246328815977176,-0.5567815209042024,7.956781520904203,5.6
6.25432667617689,-0.5479926635418787,7.9479926635418785,5.6
6.262324536376605,-0.539203806179555,7.939203806179555,5.6
6.2703223965763195,-0.5304149488172313,7.930414948817232,5.6
6.278320256776034,-0.5216260914549076,7.9216260914549075,5.6
6.286318116975749,-0.5128372340925839,7.912837234092584,5.6
6.294315977175463,-0.5040483767302602,7.904048376730261,5.6
6.302313837375179,-0.26861626248212056,7.8,5.698537803138409
6.310311697574893,0.0056507421009507185,7.8056507421009504,5.905650742100951
6.318309557774608,0.014159104015540694,7.81415910401554,5.914159104015541
6.326307417974323,0.022667465930130668,7.822667465930131,5.922667465930131
6.334305278174037,0.031175827844720644,7.831175827844721,5.931175827844721
6.342303138373752,0.039684189759310616,7.839684189759311,5.939684189759311
6.350300998573466,0.048192551673900595,7.8481925516739,5.948192551673901
6.358298858773181,0.05670091358849057,7.856700913588491,5.956700913588491
6.366296718972896,0.06520927550308055,7.865209275503081,5.9652092755030806
6.374294579172611,0.07371763741767146,7.873717637417672,5.973717637417671
6.382292439372326,0.08222599933226143,7.882225999332261,5.982225999332261
6.39029029957204,0.09073436124685141,7.890734361246852,5.990734361246852
6.398288159771755,0.09924272316144139,7.899242723161442,5.999242723161442
6.4062860199714695,-0.10030754835641917,7.4,6.100307548356419
6.414283880171184,-0.10890739803353164,7.4,6.108907398033531
6.422281740370899,-0.11750724771064412,7.4,6.117507247710644
6.430279600570613,-0.1261070973877566,7.4,6.126107097387757
6.438277460770328,-0.13470694706486908,7.4,6.134706947064869
6.4462753209700425,-0.14330679674198155,7.4,6.143306796741982
6.454273181169758,-0.151906646419095,7.4,6.151906646419095
6.462271041369473,-0.16050649609620746,7.4,6.1605064960962075
6.470268901569187,-0.16910634577331995,7.4,6.16910634577332
6.478266761768902,-0.17770619545043242,7.4,6.177706195450432
6.486264621968616,-0.1863060451275449,7.4,6.186306045127545
6.494262482168331,-0.19490589480465736,7.4,6.194905894804657
6.502260342368046,-0.3,7.345206847360913,6.054793152639086
6.51025820256776,-0.3,7.517213504517362,5.882786495482638
6.518256062767475,-0.3,7.718550809767558,5.687632793488294
6.526253922967189,-0.3,7.746778551648904,5.668814298900731
6.534251783166905,-0.3,7.775006293530253,5.649995804313165
6.5422496433666195,-0.3,7.803234035411599,5.631177309725601
6.550247503566334,-0.3,7.831461777292945,5.6123588151380375
6.558245363766049,-0.3,7.85968951917429,5.593540320550473
6.566243223965763,-0.3,7.887917261055636,5.57472182596291
6.574241084165478,-0.3,7.9161450029369815,5.555903331375346
6.5822389443651925,-0.3,7.9443727448183274,5.537084836787782
6.590236804564907,-0.3,7.9726004866996725,5.518266342200218
6.598234664764622,-0.2921778411792716,8.031288635282914,5.484355682358543
6.606232524964337,-0.03534950071324948,8.33534950071325,5.229300998573501
6.614230385164052,0.0,8.285999134462806,5.314000865537196
6.622228245363766,0.0,8.268026414912883,5.331973585087116
6.630226105563481,0.0,8.250053695362963,5.349946304637037
6.638223965763196,0.0,8.232080975813043,5.367919024186957
6.64622182596291,0.0,8.214108256263122,5.385891743736877
6.654219686162625,0.0,8.196135536713202,5.403864463286798
6.662217546362339,0.0,8.178162817163281,5.421837182836718
6.670215406562054,0.0,8.160190097613361,5.439809902386639
6.678213266761769,0.0,8.14221737806344,5.457782621936559
6.686211126961484,0.0,8.124244658513518,5.475755341486481
6.694208987161199,0.0,8.106271938963598,5.493728061036402
6.702206847360913,-0.1,7.893244344813532,5.604503770124312
6.710204707560628,-0.1,7.868761099304201,5.6208259337971995
6.7182025677603425,-0.1,7.84427785379487,5.637148097470086
6.726200427960057,-0.1,7.81979460828554,5.6534702611429735
6.734198288159772,-0.1,7.79531136277621,5.66979242481586
6.742196148359486,-0.1,7.770828117266879,5.686114588488747
6.750194008559201,-0.1,7.7463448717575485,5.702436752161634
6.7581918687589155,-0.1,7.721861626248218,5.718758915834521
6.766189728958631,-0.1,7.6973783807388845,5.73508107950741
6.774187589158346,-0.1,7.672895135229554,5.751403243180297
6.78218544935806,-0.1,7.648411889720224,5.767725406853184
6.790183309557775,-0.1,7.623928644210893,5.784047570526071
6.798181169757489,-0.10258813939270564,7.597411860607294,5.8025881393927055
6.806179029957204,-0.2,7.5179029957204,5.8910485021398005
6.814176890156919,-0.2,7.720363374143688,5.772848834475082
6.822174750356633,-0.2,7.746729946230659,5.737693405025787
6.830172610556348,-0.2,7.77309651831763,5.702537975576492
6.838170470756063,-0.2,7.799463090404605,5.667382546127194
6.846168330955778,-0.2,7.825829662491576,5.632227116677899
6.8541661911554925,-0.2,7.852196234578547,5.597071687228604
6.862164051355207,-0.2,7.878562806665518,5.561916257779309
6.870161911554922,-0.2,7.904929378752489,5.526760828330015
6.878159771754636,-0.2,7.931295950839461,5.491605398880719
6.886157631954351,-0.2,7.957662522926432,5.456449969431425
6.8941554921540655,-0.2,7.984029095013403,5.42129453998213
6.90215335235378,-0.1605830955777486,8.039416904422252,5.3605830955777485
6.910151212553495,-0.1,8.131512125534947,5.3
6.91814907275321,-0.1,8.238302425107012,5.3
6.926146932952925,-0.1,8.29211931672702,5.3
6.934144793152639,-0.1,8.28186564980431,5.3
6.942142653352354,-0.1,8.271611982881598,5.3
6.950140513552069,-0.1,8.261358315958887,5.3
6.958138373751783,-0.1,8.251104649036176,5.3
6.966136233951498,-0.1,8.240850982113464,5.3
6.974134094151212,-0.1,8.230597315190753,5.3
6.982131954350927,-0.1,8.220343648268042,5.3
6.990129814550642,-0.1,8.21008998134533,5.3
6.998127674750357,-0.1,8.187232524964307,5.306383737517846
7.006125534950072,-0.1968744650499284,7.696874465049929,5.606251069900143
7.014123395149786,-0.18887660485021376,7.688876604850214,5.622246790299572
7.022121255349501,-0.18087874465049913,7.680878744650499,5.638242510699001
7.0301191155492155,-0.17288088445078448,7.672880884450785,5.6542382310984305
7.03811697574893,-0.16488302425106988,7.66488302425107,5.67023395149786
7.046114835948645,-0.15688516405135522,7.6568851640513556,5.686229671897289
7.054112696148359,-0.14888730385164062,7.64888730385164,5.702225392296719
7.062110556348074,-0.14088944365192596,7.6408894436519255,5.718221112696148
7.070108416547789,-0.13289158345221047,7.63289158345221,5.734216833095579
7.078106276747504,-0.12489372325249583,7.624893723252495,5.750212553495008
7.086104136947219,-0.1168958630527812,7.616895863052781,5.766208273894438
7.094101997146933,-0.10889800285306657,7.608898002853066,5.782203994293867
7.102099857346648,-0.10090014265335194,7.600900142653352,5.798199714693296
7.110097717546362,-0.1,7.9,5.5023569860071495
7.118095577746077,-0.1,7.9,5.51134334578211
7.126093437945792,-0.1,7.9,5.52032970555707
7.134091298145506,-0.1,7.9,5.529316065332029
7.142089158345221,-0.1,7.9,5.5383024251069894
7.150087018544936,-0.1,7.9,5.5472887848819505
7.158084878744651,-0.1,7.9,5.556275144656911
7.1660827389443655,-0.1,7.9,5.565261504431871
7.17408059914408,-0.1,7.9,5.574247864206831
7.182078459343795,-0.1,7.9,5.583234223981791
7.190076319543509,-0.1,7.9,5.592220583756752
7.198074179743224,-0.1,7.9537089871612,5.5462910128388
7.2060720399429385,-0.10395343683780447,8.096046563162195,5.4
7.214069900142653,-0.11171834965306138,8.088281650346937,5.4
7.222067760342368,-0.1194832624683183,8.080516737531681,5.4
7.230065620542083,-0.12724817528357607,8.072751824716423,5.4
7.238063480741798,-0.135013088098833,8.064986911901167,5.4
7.246061340941512,-0.1427780009140899,8.05722199908591,5.4
7.254059201141227,-0.1505429137293468,8.049457086270653,5.4
7.262057061340942,-0.15830782654460374,8.041692173455397,5.4
7.270054921540656,-0.16607273935986064,8.033927260640139,5.4
7.278052781740371,-0.17383765217511754,8.026162347824883,5.4
7.2860506419400854,-0.18160256499037447,8.018397435009625,5.4
7.2940485021398,-0.18936747780563137,8.010632522194369,5.4
7.3020463623395155,-0.19713239062088916,8.002867609379111,5.4
7.31004422253923,-0.2,7.961198288159766,5.4388017118402345
7.318042082738945,-0.2,7.8957917261054895,5.504208273894511
7.326039942938659,-0.1,7.805478198846369,5.694521801153631
7.334037803138374,-0.1,7.814171525150407,5.685828474849593
7.3420356633380885,-0.1,7.822864851454444,5.677135148545556
7.350033523537803,-0.1,7.831558177758482,5.668441822241518
7.358031383737518,-0.1,7.840251504062519,5.659748495937481
7.366029243937232,-0.1,7.848944830366557,5.651055169633443
7.374027104136947,-0.1,7.857638156670594,5.642361843329406
7.382024964336662,-0.1,7.866331482974633,5.633668517025367
7.390022824536377,-0.1,7.8750248092786705,5.6249751907213295
7.398020684736092,-0.1,7.883718135582709,5.616281864417291
7.406018544935806,-0.1,7.892411461886746,5.607588538113254
7.414016405135521,-0.1,7.9,5.6
7.4220142653352355,-0.1,8.00265034912531,5.5
7.43001212553495,-0.1,8.013173849388092,5.5
7.438009985734665,-0.1,8.023697349650874,5.5
7.446007845934379,-0.1,8.034220849913657,5.5
7.454005706134094,-0.1,8.044744350176439,5.5
7.462003566333809,-0.1,8.055267850439222,5.5
7.470001426533524,-0.1,8.065791350702005,5.5
7.4779992867332385,-0.1,8.076314850964787,5.5
7.485997146932953,-0.1,8.08683835122757,5.5
7.493995007132668,-0.1,8.097361851490351,5.5
7.501992867332382,-0.17491084165478216,8.025089158345217,5.5
7.509990727532097,-0.1,8.096818374965853,5.5
7.517988587731812,-0.1,8.088310013051263,5.5
7.525986447931526,-0.1,8.079801651136673,5.5
7.533984308131242,-0.1,8.071293289222083,5.5
7.541982168330956,-0.1,8.062784927307494,5.5
7.549980028530671,-0.1,8.054276565392904,5.5
7.5579778887303855,-0.1,8.045768203478312,5.5
7.5659757489301,-0.1,8.037259841563722,5.5
7.573973609129815,-0.1,8.028751479649133,5.5
7.581971469329529,-0.1,8.020243117734543,5.5
7.589969329529244,-0.1,8.011734755819953,5.5
7.5979671897289585,-0.1,8.003226393905363,5.5
7.605965049928673,-0.1,7.9,5.6
7.6139629101283886,-0.1,7.9,5.6
7.621960770328103,-0.1,7.9,5.6
7.629958630527818,-0.1,7.9,5.6
7.637956490727532,-0.1,7.9,5.6
7.645954350927247,-0.1,7.9,5.6
7.653952211126962,-0.1,7.9,5.6
7.661950071326676,-0.1,7.9,5.6
7.669947931526391,-0.1,7.9,5.6
7.677945791726105,-0.1,7.9,5.6
7.68594365192582,-0.1,7.9,5.6
7.6939415121255355,-0.1,7.9,5.6
7.70193937232525,-0.1,7.953031383737494,5.6
7.709937232524965,-0.1,7.907151786108211,5.592848213891789
7.717935092724679,-0.1,7.915397002808948,5.584602997191052
7.725932952924394,-0.1,7.923642219509684,5.576357780490316
7.7339308131241085,-0.1,7.931887436210421,5.568112563789579
7.741928673323823,-0.1,7.940132652911158,5.559867347088842
7.749926533523538,-0.1,7.948377869611894,5.551622130388106
7.757924393723252,-0.1,7.956623086312631,5.543376913687369
7.765922253922968,-0.1,7.964868303013369,5.535131696986631
7.773920114122682,-0.1,7.973113519714106,5.526886480285894
7.781917974322397,-0.1,7.981358736414842,5.518641263585158
7.789915834522112,-0.1,7.989603953115579,5.510396046884421
7.797913694721826,-0.1,7.997849169816316,5.502150830183684
7.805911554921541,-0.14889443651926448,8.1,5.5
7.813909415121255,-0.1977797498590057,7.9977797498590055,5.5022202501409945
7.82190727532097,-0.18847991241747702,7.9884799124174775,5.5115200875825225
7.829905135520685,-0.17918007497594837,7.9791800749759485,5.5208199250240515
7.837902995720399,-0.1698802375344197,7.9698802375344195,5.5301197624655805
7.845900855920115,-0.16058040009288999,7.96058040009289,5.53941959990711
7.853898716119829,-0.1512805626513613,7.951280562651362,5.548719437348638
7.861896576319544,-0.14198072520983265,7.941980725209833,5.558019274790167
7.8698944365192585,-0.13268088776830397,7.932680887768305,5.567319112231695
7.877892296718973,-0.12338105032677531,7.923381050326776,5.576618949673224
7.885890156918688,-0.11408121288524664,7.914081212885247,5.585918787114753
7.893888017118402,-0.10478137544371796,7.904781375443719,5.595218624556281
7.901885877318117,-0.1,8.0,5.6
7.9098837375178315,-0.1,8.0,5.6
7.917881597717546,-0.1,8.0,5.6
7.925879457917262,-0.1,8.0,5.6
7.933877318116976,-0.1,8.0,5.6
7.941875178316691,-0.1,8.0,5.6
7.949873038516405,-0.1,8.0,5.6
7.95787089871612,-0.1,8.0,5.6
7.965868758915835,-0.1,8.0,5.6
7.973866619115549,-0.1,8.0,5.6
7.981864479315264,-0.1,8.0,5.6
7.989862339514978,-0.1,8.0,5.6
7.997860199714694,-0.1,8.0,5.6
8.005858059914408,-0.1,7.902858059914408,5.597141940085592
8.013855920114123,-0.1,7.910855920114123,5.589144079885877
8.021853780313837,-0.1,7.918853780313837,5.581146219686163
8.029851640513552,-0.1,7.9268516405135525,5.5731483594864475
8.037849500713268,-0.1,7.934849500713268,5.565150499286732
8.045847360912981,-0.1,7.942847360912982,5.557152639087018
8.053845221112697,-0.1,7.950845221112697,5.549154778887303
8.06184308131241,-0.1,7.958843081312411,5.541156918687589
8.069840941512126,-0.1,7.966840941512126,5.533159058487874
8.07783880171184,-0.1,7.97483880171184,5.52516119828816
8.085836661911555,-0.1,7.982836661911556,5.517163338088444
8.093834522111269,-0.1,7.990834522111269,5.509165477888731
8.101832382310985,-0.1,7.998832382310985,5.501167617689015
8.109830242510698,-0.1,7.9,5.6
8.117828102710414,-0.1,7.9,5.6
8.12582596291013,-0.1,7.9,5.6
8.133823823109843,-0.1,7.9,5.6
8.141821683309558,-0.1,7.9,5.6
8.149819543509272,-0.1,7.9,5.6
8.157817403708988,-0.1,7.9,5.6
8.165815263908701,-0.1,7.9,5.6
8.173813124108417,-0.1,7.9,5.6
8.18181098430813,-0.1,7.9,5.6
8.189808844507846,-0.1,7.9,5.6
8.197806704707562,-0.1,7.9,5.6
8.205804564907275,-0.1,7.9475570613409365,5.5524429386590635
8.21380242510699,-0.1,7.995629396428747,5.504370603571253
8.221800285306704,-0.1,7.986436453670455,5.513563546329545
8.22979814550642,-0.1,7.977243510912162,5.522756489087838
8.237796005706134,-0.1,7.9680505681538705,5.5319494318461295
8.24579386590585,-0.1,7.958857625395576,5.541142374604424
8.253791726105563,-0.1,7.949664682637285,5.550335317362715
8.261789586305278,-0.1,7.9404717398789915,5.5595282601210085
8.269787446504994,-0.1,7.931278797120698,5.568721202879302
8.277785306704708,-0.1,7.922085854362406,5.577914145637594
8.285783166904423,-0.1,7.9128929116041125,5.5871070883958875
8.293781027104137,-0.1,7.903699968845821,5.596300031154179
8.301778887303852,-0.1,7.9,5.6
8.309776747503566,-0.1,8.0,5.6
8.317774607703281,-0.1,8.0,5.6
8.325772467902995,-0.1,8.0,5.6
8.33377032810271,-0.1,8.0,5.6
8.341768188302424,-0.1,8.0,5.6
8.34976604850214,-0.1,8.0,5.6
8.357763908701855,-0.1,8.0,5.6
8.365761768901569,-0.1,8.0,5.6
8.373759629101285,-0.1,8.0,5.6
8.381757489300998,-0.1,8.0,5.6
8.389755349500714,-0.1,8.0,5.6
8.397753209700427,-0.1,8.0,5.6
8.405751069900143,-0.1,8.0,5.6
8.413748930099857,-0.1,7.9325106990014325,5.6
8.421746790299572,-0.10578876865801504,7.905788768658016,5.6
8.429744650499288,-0.11554225670644848,7.915542256706448,5.6
8.437742510699001,-0.12529574475487976,7.92529574475488,5.6
8.445740370898717,-0.13504923280331319,7.935049232803314,5.6
8.45373823109843,-0.14480272085174445,7.944802720851745,5.6
8.461736091298146,-0.15455620890017788,7.954556208900178,5.6
8.46973395149786,-0.16430969694860914,7.964309696948609,5.6
8.477731811697575,-0.1740631849970426,7.974063184997043,5.6
8.485729671897289,-0.18381667304547386,7.983816673045474,5.6
8.493727532097004,-0.1935701610939073,7.993570161093907,5.6
8.50172539229672,-0.1,8.0,5.6
8.509723252496434,-0.1,7.918239250050937,5.6
8.51772111269615,-0.1,7.9,5.6
8.525718972895863,-0.1,7.9,5.6
8.533716833095578,-0.1,7.9,5.6
8.541714693295292,-0.1,7.9,5.6
8.549712553495008,-0.1,7.9,5.6
8.557710413694721,-0.1,7.9,5.6
8.565708273894437,-0.1,7.9,5.6
8.57370613409415,-0.1,7.9,5.6
8.581703994293866,-0.1,7.9,5.6
8.589701854493581,-0.1,7.9,5.6
8.597699714693295,-0.1,7.9,5.6
8.60569757489301,-0.1,7.998213079059988,5.501786920940012
8.613695435092724,-0.1,7.989794278849763,5.510205721150237
8.62169329529244,-0.1,7.981375478639536,5.518624521360464
8.629691155492154,-0.1,7.972956678429312,5.527043321570688
8.637689015691869,-0.1,7.964537878219085,5.535462121780915
8.645686875891583,-0.1,7.95611907800886,5.54388092199114
8.653684736091298,-0.1,7.947700277798633,5.552299722201367
8.661682596291014,-0.1,7.939281477588406,5.560718522411594
8.669680456490727,-0.1,7.930862677378181,5.569137322621819
8.677678316690443,-0.1,7.922443877167955,5.577556122832045
8.685676176890157,-0.1,7.91402507695773,5.58597492304227
8.693674037089872,-0.1,7.905606276747503,5.594393723252497
8.701671897289586,-0.1,7.9,5.6
8.709669757489301,-0.1,8.0,5.6
8.717667617689015,-0.1,8.0,5.6
8.72566547788873,-0.1,8.0,5.6
8.733663338088446,-0.1,8.0,5.6
8.74166119828816,-0.1,8.0,5.6
8.749659058487875,-0.1,8.0,5.6
8.757656918687589,-0.1,8.0,5.6
8.765654778887304,-0.1,8.0,5.6
8.773652639087018,-0.1,8.0,5.6
8.781650499286734,-0.1,8.0,5.6
8.789648359486447,-0.1,8.0,5.6
8.797646219686163,-0.1,8.0,5.6
8.805644079885877,-0.1,7.9,5.6
8.813641940085592,-0.1,7.9071326676176845,5.6
8.821639800285308,-0.1,7.995997780947871,5.6
8.829637660485021,-0.10979187241669489,8.0,5.6
8.837635520684737,-0.1200455393394069,8.0,5.6
8.84563338088445,-0.13029920626211663,8.0,5.6
8.853631241084166,-0.14055287318482865,8.0,5.6
8.86162910128388,-0.15080654010753838,8.0,5.6
8.869626961483595,-0.1610602070302504,8.0,5.6
8.877624821683309,-0.17131387395296013,8.0,5.6
8.885622681883024,-0.18156754087567215,8.0,5.6
8.89362054208274,-0.19182120779838416,8.0,5.6
8.901618402282454,-0.1309201141226797,7.969079885877321,5.530920114122679
8.909616262482169,-0.1,7.90168360675226,5.6
8.917614122681883,-0.1,7.910014711126962,5.6
8.925611982881598,-0.1,7.918345815501666,5.6
8.933609843081312,-0.1,7.926676919876368,5.6
8.941607703281027,-0.1,7.935008024251071,5.6
8.949605563480741,-0.1,7.943339128625773,5.6
8.957603423680457,-0.1,7.951670233000477,5.6
8.965601283880172,-0.1,7.96000133737518,5.6
8.973599144079886,-0.1,7.968332441749881,5.6
8.981597004279601,-0.1,7.976663546124585,5.6
8.989594864479315,-0.1,7.984994650499287,5.6
8.99759272467903,-0.1,7.99332575487399,5.6
9.005590584878744,-0.12952924393719276,7.970470756062808,5.6
9.01358844507846,-0.1,7.810196544618798,5.6
9.021586305278174,-0.1,7.827969567284829,5.6
9.029584165477889,-0.1,7.845742589950864,5.6
9.037582025677603,-0.1,7.863515612616895,5.6
9.045579885877318,-0.1,7.881288635282929,5.6
9.053577746077034,-0.1,7.899061657948963,5.6
9.061575606276747,-0.1,7.916834680614993,5.6
9.069573466476463,-0.1,7.934607703281028,5.6
9.077571326676177,-0.1,7.952380725947059,5.6
9.085569186875892,-0.1,7.970153748613093,5.6
9.093567047075606,-0.1,7.987926771279124,5.6
9.101564907275321,-0.1,8.043509272467924,5.543509272467925
9.109562767475035,-0.19616906723114502,7.903830932768855,5.6923381344622905
9.11756062767475,-0.18756921755403158,7.912430782445969,5.675138435108063
9.125558487874466,-0.17896936787691814,7.921030632123082,5.657938735753836
9.13355634807418,-0.1703695181998066,7.929630481800194,5.640739036399613
9.141554208273895,-0.1617696685226932,7.938230331477307,5.623539337045386
9.149552068473609,-0.15316981884558167,7.946830181154419,5.606339637691163
9.157549928673324,-0.14456996916846823,7.955430030831532,5.5891399383369365
9.165547788873038,-0.13597011949135673,7.964029880508644,5.571940238982713
9.173545649072754,-0.12737026981424326,7.972629730185757,5.554740539628487
9.181543509272467,-0.11877042013713177,7.981229579862869,5.537540840274263
9.189541369472183,-0.11017057046001832,7.989829429539982,5.520341140920037
9.197539229671898,-0.1015707207829049,7.9984292792170955,5.50314144156581
9.205537089871612,-0.15942808974192335,8.118856179483846,5.67828426922577
9.213534950071328,-0.2802425106992198,8.13951497860156,5.6732524964335935
9.221532810271041,-0.5311086203382923,7.847765946606889,5.592222844915427
9.229530670470757,-0.5691936689083662,8.02866992731474,5.582701582772908
9.23752853067047,-0.6072787174784318,8.20957390802255,5.573180320630391
9.245526390870186,-0.6453637660485056,8.390477888730402,5.563659058487874
9.2535242510699,-0.6834488146185711,8.571381869438213,5.554137796345357
9.261522111269615,-0.721533863188645,8.752285850146064,5.544616534202839
9.269519971469329,-0.7596189117587104,8.933189830853875,5.535095272060322
9.277517831669044,-0.7977039603287844,9.114093811561727,5.525574009917804
9.28551569186876,-0.8357890088988584,9.294997792269577,5.516052747775285
9.293513552068474,-0.8738740574689239,9.475901772977387,5.506531485632769
9.301511412268189,0.8534236804566034,8.109129814550943,6.532417974322641
9.309509272467903,0.6956137848186893,5.088401531646521,7.846393873413915
9.317507132667618,0.5440753810346044,5.071563931226067,7.913744275095731
9.325504992867332,0.39253697725055336,5.054726330805617,7.9810946767775315
9.333502853067047,0.24099857346646858,5.037888730385163,8.048445078459347
9.341500713266761,0.08946016968241743,5.021051129964713,8.115795480141148
9.349498573466477,-0.06207823410166724,5.004213529544259,8.183145881822963
9.357496433666192,-0.21361663788575203,4.987375929123806,8.250496283504779
9.365494293865906,-0.36515504166980306,4.9705383287033555,8.317846685186579
9.373492154065621,-0.5166934454538878,4.953700728282901,8.385197086868395
9.381490014265335,-0.6682318492379391,4.936863127862451,8.452547488550195
9.38948787446505,-0.8197702530220239,4.9200255274419975,8.519897890232011
9.397485734664764,-0.9713086568060749,4.9031879270215475,8.587248291913811
9.40548359486448,-0.22654853968016464,-3.212545986935928,12.331233576094313
9.413481455064193,-0.369668143253988,-2.7410931751633334,12.49960958029881
9.421479315263909,-0.5127877468278432,-2.269640363390634,12.667985584503345
9.429477175463624,-0.6559073504016983,-1.7981875516179349,12.83636158870788
9.437475035663338,-0.7990269539755217,-1.3267347398453402,13.00473759291238
9.445472895863054,-0.9421465575493768,-0.8552819280726407,13.173113597116915
9.453470756062767,-1.0852661611232004,-0.383829116300046,13.341489601321413
9.461468616262483,-1.2283857646970555,0.08762369547265303,13.509865605525949
9.469466476462197,-1.3715053682708789,0.5590765072452477,13.678241609730446
9.477464336661912,-1.514624971844734,1.0305293190179476,13.846617613934981
9.485462196861626,-1.6577445754185574,1.5019821307905419,14.01499361813948
9.493460057061341,-1.8008641789924125,1.973434942563241,14.183369622344015
9.501457917261055,-3.673751783164776,-9.122539229674807,13.874750356632955
9.50945577746077,-3.4670007758340278,-8.357429236429168,10.085141527141666
9.517453637660486,-3.5652201116200066,-8.441617238531435,9.91676552293713
9.5254514978602,-3.6634394474059637,-8.525805240633684,9.748389518732633
9.533449358059915,-3.761658783191943,-8.609993242735952,9.580013514528098
9.541447218259629,-3.8598781189779,-8.6941812448382,9.4116375103236
9.549445078459344,-3.958097454763879,-8.778369246940468,9.243261506119063
9.557442938659058,-4.056316790549836,-8.862557249042718,9.074885501914565
9.565440798858774,-4.154536126335815,-8.946745251144986,8.90650949771003
9.573438659058487,-4.2527554621217725,-9.030933253247234,8.738133493505533
9.581436519258203,-4.350974797907751,-9.115121255349502,8.569757489300997
9.589434379457918,-4.44919413369373,-9.19930925745177,8.401381485096461
9.597432239657632,-4.547413469479688,-9.283497259554018,8.233005480891963
9.605430099857347,-4.645632805265667,-9.367685261656286,8.064629476687427
9.613427960057061,-4.743852141051624,-9.451873263758536,7.89625347248293
9.621425820256777,-6.755492154066154,-7.615798858772692,6.314835948644616
9.62942368045649,-7.850621017593905,-6.268589633856434,6.179547313361851
9.637421540656206,-7.92526771279125,-5.92734759866857,6.296849262957679
9.64541940085592,-7.999914407988579,-5.586105563480782,6.414151212553481
9.653417261055635,-8.074561103185925,-5.2448635282929175,6.53145316214931
9.66141512125535,-8.14920779838327,-4.903621493105053,6.648755111745138
9.669412981455064,-8.223854493580598,-4.562379457917265,6.76605706134094
9.67741084165478,-8.298501188777944,-4.2211374227294005,6.883359010936768
9.685408701854493,-8.373147883975273,-3.879895387541612,7.000660960532571
9.693406562054209,-8.447794579172617,-3.538653352353748,7.1179629101284
9.701404422253923,-7.878673323823014,-2.4659296243461184,8.068140751307762
9.709402282453638,-6.381464073879419,-0.7860980554095642,9.276830092349273
9.717400142653352,-6.347788873038519,-0.7608416547788894,9.23473609129815
9.725398002853067,-6.314113672197612,-0.7355852541482092,9.192642090247016
9.733395863052781,-6.280438471356713,-0.7103288535175344,9.150548089195892
9.741393723252497,-6.246763270515806,-0.6850724528868541,9.108454088144757
9.749391583452212,-6.213088069674899,-0.6598160522561738,9.066360087093624
9.757389443651926,-6.179412868833999,-0.634559651625499,9.024266086042498
9.765387303851641,-6.1457376679930915,-0.6093032509948187,8.982172084991365
9.773385164051355,-6.112062467152192,-0.584046850364144,8.940078083940241
9.78138302425107,-6.078387266311285,-0.5587904497334637,8.897984082889106
9.789380884450784,-6.044712065470385,-0.5335340491027889,8.855890081837982
9.7973787446505,-6.011036864629478,-0.5082776484721087,8.81379608078685
9.805376604850213,-5.701283880171067,-0.8545649072754753,8.614265335235217
9.813374465049929,-6.088986547635468,-0.2396476615587617,9.458590646235047
9.821372325249644,-5.968588652155879,-0.28264690994432884,9.630587639777316
9.829370185449358,-5.848190756676318,-0.3256461583298864,9.802584633319546
9.837368045649074,-5.72779286119673,-0.36864540671545365,9.974581626861815
9.845365905848787,-5.607394965717169,-0.4116446551010112,10.146578620404046
9.853363766048503,-5.486997070237581,-0.4546439034865784,10.318575613946315
9.861361626248216,-5.3665991747580195,-0.497643151872136,10.490572607488545
9.869359486447932,-5.246201279278431,-0.5406424002577032,10.662569601030814
9.877357346647646,-5.1258033837988695,-0.5836416486432607,10.834566594573044
9.885355206847361,-5.005405488319282,-0.626640897028828,11.006563588115313
9.893353067047077,-4.885007592839694,-0.6696401454143951,11.178560581657582
9.90135092724679,-4.098145506418544,1.152496433665035,7.878887303851127
9.909348787446506,-2.7844545386290402,-5.595963660935456,8.876133343344074
9.91734664764622,-2.910736541782414,-5.141348449583311,8.690919738719126
9.925344507845935,-3.0370185449358154,-4.686733238231065,8.505706134094137
9.933342368045649,-3.163300548089189,-4.23211802687892,8.32049252946919
9.941340228245364,-3.2895825512425905,-3.7775028155266748,8.1352789248442
9.949338088445078,-3.4158645543959643,-3.3228876041745297,7.950065320219252
9.957335948644793,-3.542146557549366,-2.8682723928222837,7.764851715594263
9.965333808844507,-3.6684285607027394,-2.413657181470139,7.579638110969316
9.973331669044223,-3.794710563856141,-1.9590419701178932,7.394424506344327
9.981329529243938,-3.9209925670095425,-1.5044267587656472,7.209210901719338
9.989327389443652,-4.047274570162916,-1.0498115474135021,7.02399729709439
9.997325249643367,-4.1735565733163185,-0.5951963360612567,6.8387836924694
10.005323109843081,-3.216480138829622,-5.6383340441490235,5.3342588643616535
10.013320970042797,-3.4968175066547023,-5.489920143535746,5.41671103136903
10.02131883024251,-3.7771548744797205,-5.341506242922501,5.4991631983763885
10.029316690442226,-4.057492242304801,-5.193092342309223,5.581615365383765
10.03731455064194,-4.337829610129819,-5.044678441695979,5.664067532391123
10.045312410841655,-4.6181669779549,-4.896264541082701,5.746519699398499
10.05331027104137,-4.89850434577998,-4.747850640469423,5.828971866405876
10.061308131241084,-5.178841713604998,-4.599436739856177,5.911424033413234
10.0693059914408,-5.459179081430078,-4.451022839242899,5.993876200420611
10.077303851640513,-5.739516449255096,-4.302608938629655,6.076328367427969
10.085301711840229,-6.019853817080176,-4.154195038016377,6.158780534435346
10.093299572039943,-6.300191184905195,-4.005781137403132,6.241232701442704
10.101297432239658,-6.10943651925816,-0.17815977175422404,6.69056348074184
10.109295292439372,-4.357061340942109,12.152353780314037,8.265763195434735
10.117293152639087,-3.4,8.42354335076874,11.370593596449517
10.125291012838803,-3.4,8.308018703439517,11.32616103978443
10.133288873038516,-3.4,8.19249405611032,11.281728483119354
10.141286733238232,-3.4,8.076969408781094,11.237295926454268
10.149284593437946,-3.4,7.961444761451897,11.192863369789192
10.157282453637661,-3.4,7.845920114122673,11.148430813124106
10.165280313837375,-3.4,7.730395466793475,11.103998256459029
10.17327817403709,-3.4,7.614870819464251,11.059565699793943
10.181276034236804,-3.4,7.499346172135052,11.015133143128867
10.18927389443652,-3.4,7.383821524805828,10.970700586463781
10.197271754636233,-3.4,7.26829687747663,10.926268029798704
10.205269614835949,-2.5730385164051417,7.219115549215425,5.192154065620567
10.213267475035664,-1.776325954895892,7.823674045104108,4.911837022552055
10.221265335235378,-1.7403805157960552,7.859619484203945,4.929809742101972
10.229263195435093,-1.7044350766962106,7.895564923303789,4.947782461651895
10.237261055634807,-1.6684896375963738,7.931510362403626,4.965755181201813
10.245258915834523,-1.632544198496529,7.967455801503471,4.983727900751735
10.253256776034236,-1.5965987593966924,8.003401240603306,5.001700620301654
10.261254636233952,-1.5606533202968476,8.039346679703153,5.019673339851576
10.269252496433666,-1.5247078811970107,8.075292118802988,5.037646059401494
10.277250356633381,-1.4887624420971661,8.111237557902832,5.055618778951417
10.285248216833097,-1.4528170029973213,8.147182997002679,5.073591498501339
10.29324607703281,-1.4168715638974845,8.183128436102514,5.091564218051257
10.301243937232526,-1.9243937232525716,8.967047075605713,4.073181169757715
10.30924179743224,-0.7957383760713502,8.391476752142701,5.508523247857299
10.317239657631955,-0.7892360507057279,8.378472101411456,5.521527898588545
10.325237517831669,-0.782733725340107,8.365467450680214,5.5345325493197866
10.333235378031384,-0.7762313999744845,8.352462799948968,5.547537200051031
10.341233238231098,-0.7697290746088636,8.339458149217727,5.560541850782273
10.349231098430813,-0.7632267492432412,8.326453498486483,5.573546501513517
10.357228958630529,-0.7567244238776188,8.313448847755238,5.586551152244763
10.365226818830243,-0.7502220985119978,8.300444197023996,5.599555802976004
10.373224679029958,-0.7437197731463755,8.28743954629275,5.612560453707249
10.381222539229672,-0.7372174477807545,8.274434895561509,5.625565104438491
10.389220399429387,-0.7307151224151321,8.261430244830263,5.638569755169736
10.397218259629101,-0.7242127970495112,8.248425594099022,5.651574405900978
10.405216119828816,-0.7177104716838888,8.235420943367776,5.664579056632222
10.41321398002853,-0.7112081463182679,8.222416292636535,5.677583707363464
10.421211840228246,-0.7047058209526454,8.209411641905291,5.690588358094709
10.42920970042796,-0.18440323347607557,8.936566809319892,4.74246314788414
10.437207560627675,0.4958833160420173,7.906861139929972,4.606861139929971
10.44520542082739,0.468617883542987,7.952303527428356,4.652303527428355
10.453203281027104,0.4413524510439627,7.997745914926729,4.697745914926728
10.46120114122682,0.4140870185449324,8.043188302425113,4.7431883024251125
10.469199001426533,0.3868215860459081,8.088630689923487,4.788630689923486
10.477196861626249,0.35955615354687775,8.13407307742187,4.83407307742187
10.485194721825962,0.3322907210478535,8.179515464920245,4.879515464920244
10.493192582025678,0.30502528854882316,8.224957852418628,4.924957852418627
10.501190442225392,0.2777598560497989,8.270400239917002,4.9704002399170015
10.509188302425107,0.25049442355076856,8.315842627415385,5.015842627415386
10.517186162624823,0.22322899105173827,8.36128501491377,5.06128501491377
10.525184022824536,0.08159771754628219,8.340798858773141,5.25786970993829
10.533181883024252,-0.16362339514971547,8.295470756062855,5.804529243937144
10.541179743223966,-0.011770070858958802,8.511770070858958,5.541149645705206
10.549177603423681,-0.024881317088000603,8.524881317088001,5.475593414559997
10.557175463623395,-0.03799256331703949,8.53799256331704,5.410037183414802
10.56517332382311,-0.05110380954608129,8.551103809546081,5.344480952269593
10.573171184022824,-0.06421505577512017,8.56421505577512,5.278924721124398
10.58116904422254,-0.07732630200416198,8.577326302004161,5.21336848997919
10.589166904422255,-0.09043754823320377,8.590437548233204,5.147812258833981
10.597164764621969,-0.38863528292905813,7.5897765097482965,5.172158820732265
10.605162624821684,-0.4791409098113758,7.541718180377249,5.2
10.613160485021398,-0.4468263231458659,7.606347353708268,5.2
10.621158345221113,-0.41451173648034884,7.670976527039302,5.2
10.629156205420827,-0.38219714981483893,7.735605700370322,5.2
10.637154065620543,-0.34988256314932187,7.800234873701356,5.2
10.645151925820256,-0.31756797648381196,7.864864047032376,5.2
10.653149786019972,-0.2852533898182949,7.92949322036341,5.2
10.661147646219685,-0.25293880315278505,7.994122393694431,5.2
10.669145506419401,-0.22062421648726793,8.058751567025464,5.2
10.677143366619116,-0.18830962982175087,8.123380740356499,5.2
10.68514122681883,-0.15599504315624096,8.18800991368752,5.2
10.693139087018546,-0.1236804564907239,8.252639087018553,5.2
10.70113694721826,-0.014522111269632501,8.385477888730367,5.2427389443651835
10.709134807417975,-0.1,8.202696148359504,5.598651925820247
10.717132667617689,-0.1,8.362653352353782,5.5186733238231085
10.725130527817404,-0.1,8.522610556348095,5.438694721825953
10.733128388017118,-0.08820460566537558,8.588204605665375,5.376409211330752
10.741126248216833,-0.0653535765233314,8.56535357652333,5.330707153046663
10.749124108416549,-0.042502547381287246,8.542502547381288,5.285005094762575
10.757121968616262,-0.019651518239248156,8.519651518239248,5.239303036478496
10.765119828815978,0.0031995109027960073,8.496800489097204,5.193600978194408
10.773117689015692,0.02605054004483509,8.473949459955165,5.14789891991033
10.781115549215407,0.04890156918687927,8.45109843081312,5.102196861626242
10.78911340941512,0.07175259832891834,8.428247401671081,5.056494803342163
10.797111269614836,0.09460362747096251,8.405396372529038,5.010792745058075
10.80510912981455,0.1,8.05090686773995,5.174546566130025
10.813106990014266,0.0,8.482143521677104,5.386607641257828
10.821104850213981,0.0,8.44737021646095,5.360527662345712
10.829102710413695,0.0,8.412596911244803,5.334447683433602
10.83710057061341,0.0,8.377823606028649,5.308367704521487
10.845098430813124,0.0,8.343050300812502,5.282287725609376
10.85309629101284,0.0,8.308276995596348,5.256207746697261
10.861094151212553,0.0,8.2735036903802,5.230127767785151
10.869092011412269,0.0,8.238730385164047,5.204047788873035
10.877089871611982,0.0,8.203957079947902,5.177967809960926
10.885087731811698,0.0,8.169183774731748,5.1518878310488105
10.893085592011412,0.0,8.1344104695156,5.1258078521367
10.901083452211127,-0.0041726105563637695,8.1,5.104172610556364
10.909081312410843,-0.1,8.195194167062919,5.6
10.917079172610556,-0.1,8.159648121730857,5.6
10.925077032810272,-0.1,8.124102076398788,5.6
10.933074893009985,-0.1,8.088556031066728,5.6
10.941072753209701,-0.1,8.05300998573466,5.6
10.949070613409415,-0.1,8.017463940402598,5.6
10.95706847360913,-0.1,7.98191789507053,5.6
10.965066333808844,-0.1,7.946371849738469,5.6
10.97306419400856,-0.1,7.9108258044064,5.6
10.981062054208275,-0.1,7.87527975907433,5.6
10.989059914407989,-0.1,7.83973371374227,5.6
10.997057774607704,-0.1,7.804187668410201,5.6
11.005055634807418,-0.14907275320970176,7.998145506419403,5.501854493580597
11.013053495007133,-0.09444670878336914,7.922213164866524,5.6
11.021051355206847,-0.08565785142104648,7.957368594315814,5.6
11.029049215406562,-0.07686899405872187,7.992524023765113,5.6
11.037047075606276,-0.06808013669639922,8.027679453214404,5.6
11.045044935805992,-0.059291279334074604,8.062834882663703,5.6
11.053042796005707,-0.05050242197175,8.097990312113,5.6
11.06104065620542,-0.04171356460942734,8.133145741562291,5.6
11.069038516405136,-0.032924707247102725,8.16830117101159,5.6
11.07703637660485,-0.02413584988478007,8.20345660046088,5.6
11.085034236804566,-0.015346992522455458,8.238612029910179,5.6
11.09303209700428,-0.0065581351601328025,8.273767459359469,5.6
11.101029957203995,0.0,8.1646695197337,5.329339039467401
11.109027817403708,-0.028111269614832284,8.268667617688994,5.1718887303851675
11.117025677603424,-0.06010271041369379,8.460616262482162,5.139897289586306
11.125023537803138,-0.09209415121254819,8.652564907275288,5.107905848787452
11.133021398002853,-0.1,7.972485490395326,5.420635882203506
11.141019258202569,-0.1,7.928661598890035,5.453503800832474
11.149017118402282,-0.1,7.884837707384755,5.486371719461434
11.157014978601998,-0.1,7.841013815879465,5.519239638090402
11.165012838801712,-0.1,7.797189924374185,5.552107556719362
11.173010699001427,-0.1,7.753366032868895,5.58497547534833
11.18100855920114,-0.1,7.709542141363614,5.61784339397729
11.189006419400856,-0.1,7.665718249858324,5.650711312606257
11.19700427960057,-0.1,7.621894358353043,5.683579231235218
11.205002139800285,0.09996433666190992,8.199964336661909,5.499821683309549
11.213,-1.8,7.9,5.1
