accel_time_list,accel_x_list,accel_y_list,accel_z_list
0.0,1.3,2.2,9.9
0.007997621313035205,0.5821994140422605,1.3901107855790336,10.680221571158066
0.01599524262607041,0.5109334815498676,1.3505186008610375,10.601037201722075
0.023992863939105616,0.4396675490574747,1.3109264161430414,10.521852832286083
0.03199048525214082,0.36840161656508175,1.2713342314250453,10.44266846285009
0.039988106565176026,0.29713568407268887,1.2317420467070492,10.363484093414097
0.04798572787821123,0.22586975158029599,1.1921498619890532,10.284299723978107
0.05598334919124644,0.15460381908790305,1.1525576772710573,10.205115354542114
0.06398097050428164,0.08333788659551011,1.1129654925530612,10.125930985106121
0.07197859181731685,0.012071954103117344,1.0733733078350651,10.046746615670129
0.07997621313035205,-0.05919397838927565,1.033781123117069,9.967562246234138
0.08797383444338726,-0.13045991088166853,0.994188938399073,9.888377876798145
0.09597145575642246,-0.2017258433740614,0.9545967536810769,9.809193507362153
0.10396907706945767,-0.2729917758664544,0.9150045689630808,9.73000913792616
0.11196669838249287,-0.7567078972407333,0.5199809705042769,8.619980970504276
0.11996431969552808,-0.351355031333049,0.860057197852073,9.194293885407438
0.12796194100856328,-0.43408904491617184,0.7957085206207553,9.185101217231535
0.1359595623215985,-0.5168230584992948,0.7313598433894374,9.175908549055633
0.1439571836346337,-0.5995570720824175,0.6670111661581197,9.16671588087973
0.1519548049476689,-0.6822910856655401,0.6026624889268022,9.157523212703829
0.1599524262607041,-0.765025099248663,0.5383138116954843,9.148330544527926
0.16795004757373933,-0.8477591128317861,0.4739651344641665,9.139137876352024
0.17594766888677452,-0.9304931264149086,0.40961645723284884,9.129945208176121
0.1839452901998097,-1.0132271399980313,0.34526778000153124,9.120752540000218
0.19194291151284493,-1.0959611535811542,0.28091910277021337,9.111559871824316
0.19994053282588015,-1.1786951671642771,0.2165704255388956,9.102367203648413
0.20793815413891534,-0.5098001902949757,0.7,9.91236917221693
0.21593577545195053,-1.1776265308001594,0.6701687077335461,9.670168707733545
0.22393339676498575,-1.1518277523710136,0.6357703364946848,9.635770336494684
0.23193101807802097,-1.1260289739418679,0.6013719652558237,9.601371965255824
0.23992863939105616,-1.100230195512722,0.5669735940169627,9.566973594016963
0.24792626070409135,-1.0744314170835763,0.5325752227781017,9.532575222778101
0.25592388201712657,-1.0486326386544305,0.4981768515392405,9.49817685153924
0.2639215033301618,-1.0228338602252844,0.4637784803003793,9.46377848030038
0.271919124643197,-0.9970350817961386,0.4293801090615182,9.429380109061519
0.27991674595623217,-0.971236303366993,0.3949817378226573,9.394981737822658
0.2879143672692674,-0.945437524937847,0.3605833665837961,9.360583366583796
0.2959119885823026,-0.9196387465087013,0.32618499534493495,9.326184995344935
0.3039096098953378,-0.8364414843006671,0.05451950523311096,8.663558515699334
0.311907231208373,-1.2440130278855306,-0.029342018590353743,8.5
0.3199048525214082,-1.4285735197248046,-0.15238234648320317,8.5
0.32790247383444343,-1.5230704651032632,-0.22883808137907896,8.476929534896737
0.33590009514747865,-1.5607063301057817,-0.2758829126322273,8.439293669894218
0.3438977164605138,-1.5983421951083003,-0.3229277438853754,8.4016578048917
0.35189533777354903,-1.635978060110819,-0.3699725751385238,8.36402193988918
0.35989295908658425,-1.6736139251133377,-0.4170174063916721,8.326386074886662
0.3678905803996194,-1.711249790115856,-0.46406223764482013,8.288750209884144
0.37588820171265463,-1.7488856551183747,-0.5111070688979685,8.251114344881625
0.38388582302568985,-1.7865215201208935,-0.5581519001511168,8.213478479879106
0.3918834443387251,-1.824157385123412,-0.6051967314042652,8.175842614876588
0.3998810656517603,-1.8617932501259309,-0.6522415626574136,8.138206749874069
0.40787868696479546,-1.8994291151284493,-0.6992863939105616,8.10057088487155
0.4158763082778307,-2.505842055185538,-1.102921027592769,6.895131620678718
0.4238739295908659,-2.559159530605773,-1.1295797653028865,6.8507003911618565
0.43187155090390106,-2.612477006026007,-1.1562385030130036,6.806269161644995
0.4398691722169363,-2.665794481446242,-1.182897240723121,6.761837932128132
0.4478667935299715,-2.7191119568664766,-1.2095559784332384,6.71740670261127
0.4558644148430067,-2.7724294322867116,-1.2362147161433557,6.672975473094407
0.46386203615604193,-2.825746907706946,-1.2628734538534732,6.6285442435775455
0.4718596574690771,-2.8790643831271807,-1.2895321915635902,6.584113014060683
0.4798572787821123,-2.9323818585474157,-1.3161909292737077,6.539681784543821
0.48785490009514754,-2.9856993339676503,-1.342849666983825,6.495250555026958
0.4958525214081827,-3.039016809387885,-1.3695084046939423,6.450819325510096
0.503850142721218,-3.09233428480812,-1.3961671424040598,6.4063880959932336
0.5118477640342531,-5.8782112274025025,-4.969552806850626,6.0847764034253125
0.5198453853472883,-6.017434189660641,-4.973848715509039,6.056414525848398
0.5278430066603236,-6.035206681467386,-4.947189977798922,6.011983296331535
0.5358406279733587,-6.052979173274131,-4.920531240088804,5.967552066814673
0.543838249286394,-6.070751665080875,-4.893872502378687,5.923120837297811
0.5518358705994292,-6.088524156887621,-4.86721376466857,5.878689607780949
0.5598334919124643,-6.106296648694365,-4.8405550269584525,5.834258378264087
0.5678311132254996,-6.124069140501111,-4.813896289248334,5.789827148747224
0.5758287345385348,-6.141841632307855,-4.787237551538217,5.745395919230362
0.58382635585157,-6.1596141241146,-4.760578813828101,5.7009646897135
0.5918239771646052,-6.177386615921345,-4.7339200761179825,5.656533460196638
0.5998215984776404,-6.19515910772809,-4.707261338407865,5.612102230679775
0.6078192197906755,-6.545765937202669,-5.4002283539486235,5.781693625118932
0.6158168411037108,-8.194192080198533,-6.0796722806948695,5.2
0.623814462416746,-8.177702139346914,-6.021957487714204,5.2
0.6318120837297813,-8.161212198495296,-5.964242694733537,5.2
0.6398097050428164,-8.144722257643677,-5.906527901752871,5.2
0.6478073263558516,-8.128232316792058,-5.848813108772204,5.2
0.6558049476688869,-8.11174237594044,-5.791098315791538,5.2
0.663802568981922,-8.09525243508882,-5.733383522810872,5.2
0.6718001902949573,-8.078762494237202,-5.675668729830205,5.2
0.6797978116079925,-8.062272553385583,-5.617953936849538,5.2
0.6877954329210276,-8.045782612533964,-5.5602391438688725,5.2
0.6957930542340629,-8.029292671682345,-5.502524350888206,5.2
0.7037906755470981,-8.012802730830726,-5.44480955790754,5.2
0.7117882968601332,-7.910585156993337,-5.7576593720266525,5.021170313986674
0.7197859181731685,-8.903577545195056,-6.664281636536629,3.728563273073259
0.7277835394862037,-8.952164605137963,-6.408658420551852,3.5043292102759263
0.7357811607992388,-8.904030667824983,-6.2,3.3798466608750806
0.7437787821122741,-8.915621423351123,-6.2,3.3218928832443906
0.7517764034253093,-8.92721217887726,-6.2,3.263939105613701
0.7597740247383445,-8.938802934403398,-6.2,3.2059853279830106
0.7677716460513797,-8.950393689929536,-6.2,3.148031550352321
0.7757692673644149,-8.961984445455673,-6.2,3.0900777727216315
0.7837668886774501,-8.973575200981811,-6.2,3.032123995090941
0.7917645099904853,-8.98516595650795,-6.2,2.9741702174602516
0.7997621313035206,-8.996756712034088,-6.2,2.916216439829561
0.8077597526165557,-10.087987630827785,-6.139938154138925,1.184086584205506
0.8157573739295909,-10.1,-6.224757576371035,1.0834949490859769
0.8237549952426262,-10.1,-6.250281899710509,1.0664787335263275
0.8317526165556614,-10.1,-6.275806223049983,1.049462517966678
0.8397502378686965,-10.1,-6.301330546389457,1.032446302407029
0.8477478591817318,-10.1,-6.3268548697289315,1.0154300868473793
0.855745480494767,-10.1,-6.352379193068405,0.9984138712877301
0.8637431018078021,-10.1,-6.377903516407879,0.9813976557280807
0.8717407231208374,-10.1,-6.403427839747353,0.9643814401684312
0.8797383444338726,-10.1,-6.428952163086827,0.9473652246087819
0.8877359657469078,-10.1,-6.454476486426302,0.9303490090491324
0.895733587059943,-10.1,-6.480000809765776,0.913332793489483
0.9037312083729782,-10.0,-6.855922930542346,0.7731208372978131
0.9117288296860134,-9.75423406279732,-6.47202664129397,0.8
0.9197264509990486,-9.477326569666129,-5.915115620222581,0.8226734303338716
0.9277240723120839,-9.450368295577245,-5.933087802948504,0.8496317044227546
0.935721693625119,-9.423410021488364,-5.951059985674425,0.8765899785116371
0.9437193149381542,-9.39645174739948,-5.9690321684003464,0.9035482526005197
0.9517169362511895,-9.369493473310596,-5.987004351126268,0.9305065266894027
0.9597145575642246,-9.342535199221714,-6.00497653385219,0.9574648007782853
0.9677121788772598,-9.31557692513283,-6.022948716578112,0.9844230748671678
0.9757098001902951,-9.288618651043949,-6.040920899304034,1.0113813489560508
0.9837074215033302,-9.261660376955065,-6.058893082029956,1.0383396230449335
0.9917050428163654,-9.234702102866184,-6.076865264755877,1.065297897133816
0.9997026641294007,-9.2077438287773,-6.094837447481799,1.092256171222699
1.007700285442436,-8.829971455756406,-6.910085632730783,0.3400570884871887
1.015697906755471,-8.80818926250582,-7.0,0.4
1.0236955280685063,-8.816697370285645,-7.0,0.4
1.0316931493815416,-8.82520547806547,-7.0,0.4
1.0396907706945766,-8.833713585845295,-7.0,0.4
1.0476883920076119,-8.84222169362512,-7.0,0.4
1.0556860133206472,-8.850729801404944,-7.0,0.4
1.0636836346336822,-8.859237909184769,-7.0,0.4
1.0716812559467175,-8.867746016964594,-7.0,0.4
1.0796788772597528,-8.876254124744419,-7.0,0.4
1.087676498572788,-8.884762232524244,-7.0,0.4
1.095674119885823,-8.893270340304067,-7.0,0.4
1.1036717411988584,-8.793282588011417,-7.106717411988583,-0.18656517602283246
1.1116693625118936,-8.713306374881062,-7.186693625118936,-0.02661274976212713
1.1196669838249287,-8.80313762802933,-6.9,-0.19686237197067213
1.127664605137964,-8.812546594279958,-6.9,-0.1874534057200424
1.1356622264509992,-8.821955560530588,-6.9,-0.17804443946941267
1.1436598477640343,-8.831364526781217,-6.9,-0.1686354732187832
1.1516574690770696,-8.840773493031847,-6.9,-0.15922650696815344
1.1596550903901048,-8.850182459282477,-6.9,-0.1498175407175237
1.16765271170314,-8.859591425533106,-6.9,-0.14040857446689423
1.1756503330161752,-8.869000391783736,-6.9,-0.1309996082162645
1.1836479543292104,-8.878409358034366,-6.9,-0.12159064196563475
1.1916455756422455,-8.887818324284995,-6.9,-0.11218167571500527
1.1996431969552808,-8.897227290535625,-6.9,-0.10277270946437553
1.207640818268316,-8.954693942277203,-6.563265144306993,-1.2187757691088106
1.215638439581351,-9.104088134361069,-6.187735596916794,-1.8327050748885496
1.2236360608943864,-9.113074225724029,-6.1607773228279115,-1.9045938057922374
1.2316336822074216,-9.12206031708699,-6.133819048739028,-1.9764825366959253
1.239631303520457,-9.13104640844995,-6.106860774650145,-2.048371267599613
1.247628924833492,-9.140032499812913,-6.079902500561263,-2.120259998503299
1.2556265461465272,-9.149018591175873,-6.0529442264723805,-2.192148729406987
1.2636241674595625,-9.158004682538834,-6.025985952383497,-2.264037460310675
1.2716217887725976,-9.166990773901794,-5.999027678294615,-2.335926191214361
1.2796194100856328,-9.175976865264756,-5.972069404205732,-2.4078149221180487
1.2876170313986681,-9.184962956627716,-5.9451111301168496,-2.4797036530217365
1.2956146527117032,-9.193949047990676,-5.918152856027967,-2.5515923839254224
1.3036122740247384,-9.134693149381537,-6.030613701236926,-2.5673465746907684
1.3116098953377737,-8.197526165556582,-6.919505233111317,-0.7560418648905325
1.3196075166508088,-7.780663735686867,-6.412890842875423,-0.6128908428754223
1.327605137963844,-7.7530857311591586,-6.431276179227228,-0.6312761792272276
1.3356027592768793,-7.7255077266314505,-6.449661515579033,-0.6496615155790328
1.3436003805899146,-7.697929722103742,-6.468046851930838,-0.668046851930838
1.3515980019029497,-7.670351717576036,-6.486432188282643,-0.6864321882826427
1.359595623215985,-7.642773713048328,-6.504817524634448,-0.704817524634448
1.3675932445290202,-7.61519570852062,-6.523202860986253,-0.7232028609862533
1.3755908658420553,-7.587617703992913,-6.541588197338058,-0.741588197338058
1.3835884871550905,-7.5600396994652055,-6.559973533689863,-0.7599735336898632
1.3915861084681258,-7.532461694937497,-6.578358870041668,-0.7783588700416685
1.3995837297811609,-7.50488369040979,-6.596744206393473,-0.7967442063934732
1.4075813510941961,-7.120932445290189,-7.879067554709811,-1.737202664129432
1.4155789724072314,-7.107894762924199,-7.9,-1.8236842887725984
1.4235765937202665,-7.116225618458611,-7.9,-1.848676855375833
1.4315742150333017,-7.124556473993023,-7.9,-1.8736694219790682
1.439571836346337,-7.132887329527434,-7.9,-1.8986619885823033
1.447569457659372,-7.141218185061846,-7.9,-1.923654555185538
1.4555670789724073,-7.149549040596257,-7.9,-1.948647121788773
1.4635647002854426,-7.1578798961306696,-7.9,-1.9736396883920084
1.4715623215984777,-7.166210751665081,-7.9,-1.9986322549952429
1.479559942911513,-7.174541607199493,-7.9,-2.023624821598478
1.4875575642245482,-7.182872462733904,-7.9,-2.048617388201713
1.4955551855375835,-7.191203318268316,-7.9,-2.0736099548049483
1.5035528068506185,-7.199534173802728,-7.9,-2.098602521408183
1.5115504281636538,-7.234495718363461,-7.534495718363461,-2.3620171265461565
1.519548049476689,-6.810167187712362,-7.305083593856181,-2.240111458474908
1.5275456707897241,-6.417483349191247,-7.2,-2.040794481446243
1.5355432921027594,-6.44824343116446,-7.2,-2.112568006050406
1.5435409134157947,-6.479003513137672,-7.2,-2.1843415306545686
1.5515385347288297,-6.5097635951108845,-7.2,-2.256115055258729
1.559536156041865,-6.540523677084097,-7.2,-2.3278885798628917
1.5675337773549003,-6.57128375905731,-7.2,-2.3996621044670543
1.5755313986679353,-6.602043841030521,-7.2,-2.471435629071215
1.5835290199809706,-6.632803923003734,-7.2,-2.543209153675378
1.591526641294006,-6.663564004976946,-7.2,-2.6149826782795405
1.5995242626070412,-6.694324086950159,-7.2,-2.686756202883703
1.6075218839200762,-6.704376784015225,-5.37171741198858,-2.9521883920076126
1.6155195052331115,-6.775743531506092,-5.219145105020307,-3.0
1.6235171265461468,-6.749944753076946,-5.133149176923154,-3.0
1.6315147478591818,-6.724145974647801,-5.047153248826003,-3.0
1.639512369172217,-6.698347196218655,-4.961157320728849,-3.0
1.6475099904852524,-6.672548417789509,-4.8751613926316955,-3.0
1.6555076117982874,-6.646749639360364,-4.789165464534545,-3.0
1.6635052331113227,-6.6209508609312175,-4.703169536437391,-3.0
1.671502854424358,-6.5951520825020715,-4.617173608340238,-3.0
1.679500475737393,-6.5693533040729255,-4.531177680243086,-3.0
1.6874980970504283,-6.5435545256437795,-4.445181752145933,-3.0
1.6954957183634636,-6.5177557472146335,-4.3591858240487795,-3.0
1.7034933396764986,-5.751998097050415,-4.748801141769751,-2.9002664129400553
1.711490960989534,-5.297272438947034,-5.504364097684745,-3.5016365366317794
1.7194885823025692,-5.252841209430171,-5.5754540649117255,-3.528295274341897
1.7274862036156042,-5.20840997991331,-5.646544032138704,-3.554954012052014
1.7354838249286395,-5.163978750396447,-5.717633999365684,-3.5816127497621313
1.7434814462416748,-5.119547520879585,-5.788723966592665,-3.608271487472249
1.75147906755471,-5.075116291362722,-5.859813933819645,-3.6349302251823667
1.759476688867745,-5.03068506184586,-5.930903901046623,-3.6615889628924836
1.7674743101807804,-4.986253832328997,-6.001993868273604,-3.6882477006026013
1.7754719314938157,-4.941822602812135,-6.073083835500584,-3.7149064383127186
1.7834695528068507,-4.897391373295274,-6.144173802727562,-3.741565176022836
1.791467174119886,-4.852960143778411,-6.215263769954542,-3.768223913732953
1.7994647954329213,-4.808528914261548,-6.286353737181523,-3.794882651443071
1.8074624167459563,-5.0656041864890655,-6.546241674595626,-3.8924833491912523
1.8154600380589916,-5.167913814800037,-6.591978453700008,-4.096258555599891
1.8234576593720269,-5.133515443561175,-6.583378860890294,-4.199453669316475
1.831455280685062,-5.099117072322315,-6.5747792680805786,-4.302648783033057
1.8394529019980972,-5.064718701083454,-6.566179675270863,-4.405843896749641
1.8474505233111325,-5.030320329844592,-6.557580082461148,-4.509039010466225
1.8554481446241677,-4.99592195860573,-6.5489804896514325,-4.612234124182809
1.8634457659372028,-4.9615235873668695,-6.540380896841717,-4.71542923789939
1.871443387250238,-4.927125216128008,-6.531781304032002,-4.818624351615975
1.8794410085632733,-4.892726844889147,-6.5231817112222865,-4.921819465332559
1.8874386298763084,-4.858328473650286,-6.514582118412571,-5.025014579049141
1.8954362511893437,-4.823930102411425,-6.505982525602856,-5.128209692765725
1.903433872502379,-4.751322549952421,-6.694709800190314,-5.273016175071367
1.911431493815414,-4.5352759276879056,-7.3862987630827925,-5.586298763082793
1.9194291151284493,-4.792025313654769,-6.303987343172615,-5.0159493726904625
1.9274267364414845,-4.773426194322129,-6.313286902838936,-5.053147611355743
1.9354243577545196,-4.754827074989489,-6.322586462505256,-5.090345850021022
1.9434219790675549,-4.736227955656848,-6.331886022171576,-5.127544088686302
1.9514196003805901,-4.7176288363242085,-6.3411855818378955,-5.164742327351583
1.9594172216936252,-4.699029716991569,-6.350485141504215,-5.201940566016862
1.9674148430066605,-4.680430597658929,-6.359784701170536,-5.239138804682143
1.9754124643196957,-4.661831478326288,-6.369084260836856,-5.276337043347423
1.9834100856327308,-4.643232358993648,-6.378383820503176,-5.313535282012703
1.991407706945766,-4.624633239661009,-6.387683380169496,-5.350733520677983
1.9994053282588014,-4.606034120328368,-6.396982939835816,-5.387931759343264
2.0074029495718366,-5.211512844909615,-7.017269267364423,-6.151807802093267
2.015400570884872,-5.393560593632772,-7.298390148408193,-7.006439406367228
2.0233981921979067,-5.356789920929164,-7.289197480232291,-7.043210079070836
2.031395813510942,-5.320019248225553,-7.280004812056388,-7.079980751774447
2.0393934348239773,-5.283248575521943,-7.270812143880486,-7.116751424478057
2.0473910561370126,-5.246477902818333,-7.261619475704583,-7.153522097181668
2.055388677450048,-5.209707230114722,-7.25242680752868,-7.1902927698852785
2.063386298763083,-5.172936557411112,-7.243234139352778,-7.227063442588888
2.0713839200761184,-5.136165884707501,-7.234041471176876,-7.263834115292499
2.079381541389153,-5.099395212003893,-7.224848803000973,-7.300604787996107
2.0873791627021885,-5.062624539300282,-7.215656134825071,-7.337375460699718
2.0953767840152238,-5.025853866596672,-7.2064634666491685,-7.374146133403328
2.103374405328259,-4.298171809161367,-7.682193829006359,-7.778537447329094
2.1113720266412943,-4.537202664129413,-7.034823977164725,-7.474405328258828
2.1193696479543296,-4.5420364767637,-7.484072953527401,-7.6
2.1273672692673644,-4.479133837222977,-7.358267674445954,-7.6
2.1353648905803997,-4.41623119768225,-7.2324623953645,-7.6
2.143362511893435,-4.3533285581415235,-7.1066571162830465,-7.6
2.1513601332064702,-4.290425918600796,-6.980851837201593,-7.6
2.1593577545195055,-4.22752327906007,-6.855046558120139,-7.6
2.167355375832541,-4.164620639519343,-6.7292412790386855,-7.6
2.175352997145576,-4.101717999978615,-6.603435999957232,-7.6
2.183350618458611,-4.0388153604378925,-6.477630720875785,-7.6
2.191348239771646,-3.975912720897165,-6.351825441794331,-7.6
2.1993458610846814,-3.913010081356439,-6.226020162712878,-7.6
2.2073434823977167,-3.65761179828762,-7.090865842054856,-7.487821122739808
2.215341103710752,-3.9112621473396127,-7.092491901773591,-7.4662135579811615
2.2233387250237873,-3.938220421428496,-7.074519719047669,-7.385338735714512
2.231336346336822,-3.9651786955173773,-7.056547536321748,-7.304463913447869
2.2393339676498574,-3.99213696960626,-7.038575353595826,-7.2235890911812195
2.2473315889628926,-4.019095243695143,-7.020603170869904,-7.14271426891457
2.255329210275928,-4.046053517784026,-7.0026309881439825,-7.061839446647921
2.263326831588963,-4.073011791872909,-6.984658805418061,-6.980964624381272
2.2713244529019985,-4.099970065961792,-6.966686622692139,-6.900089802114624
2.2793220742150333,-4.126928340050673,-6.948714439966218,-6.819214979847979
2.2873196955280686,-4.153886614139557,-6.930742257240296,-6.73834015758133
2.295317316841104,-4.18084488822844,-6.912770074514374,-6.657465335314681
2.303314938154139,-5.106298763082783,-6.76298763082784,-6.418896289248352
2.3113125594671744,-3.701389153187442,-7.574995242626043,-5.095832540437674
2.3193101807802097,-3.736934136800932,-6.93518553758322,-4.989197589597203
2.327307802093245,-3.7724791204144226,-6.2953758325403975,-4.882562638756733
2.33530542340628,-3.8080241040279104,-5.65556612749761,-4.775927687916268
2.343303044719315,-3.843569087641401,-5.015756422454787,-4.669292737075797
2.3513006660323503,-3.879114071254891,-4.375946717411964,-4.562657786235327
2.3592982873453856,-3.914659054868381,-3.7361370123691415,-4.456022835394856
2.367295908658421,-3.9502040384818713,-3.0963273073263187,-4.349387884554386
2.375293529971456,-3.9857490220953613,-2.456517602283496,-4.242752933713915
2.383291151284491,-4.0212940057088495,-1.8167078972407085,-4.136117982873451
2.3912887725975263,-4.0568389893223396,-1.1768981921978856,-4.029483032032981
2.3992863939105615,-4.09238397293583,-0.5370884871550627,-3.92284808119251
2.407284015223597,-4.185204567079043,-7.885204567079043,-5.556803044719362
2.415281636536632,-3.380970504281635,-9.828544243577548,-5.933396764985724
2.4232792578496674,-3.345425520668145,-9.881861718997783,-5.808989322338508
2.431276879162702,-3.309880537054657,-9.935179194418016,-5.684581879691299
2.4392745004757375,-3.274335553441167,-9.98849666983825,-5.5601744370440835
2.4472721217887727,-3.2387905698276764,-10.041814145258485,-5.435766994396868
2.455269743101808,-3.2032455862141864,-10.095131620678721,-5.311359551749653
2.4632673644148433,-3.1677006026006964,-10.148449096098956,-5.186952109102437
2.4712649857278786,-3.132155618987206,-10.201766571519192,-5.062544666455221
2.479262607040914,-3.096610635373716,-10.255084046939427,-4.938137223808006
2.4872602283539487,-3.0610656517602277,-10.30840152235966,-4.813729781160797
2.495257849666984,-3.0255206681467377,-10.361718997779894,-4.689322338513581
2.503255470980019,-3.8255470980019126,-10.848905803996175,-5.974452901998087
2.5112530922930545,-3.7,-2.708436409768483,-1.403497948702209
2.5192507136060898,-3.7,-2.975023786869659,-1.4120975415119243
2.527248334919125,-3.7,-3.241611163970835,-1.4206971343216397
2.53524595623216,-3.7,-3.508198541071996,-1.4292967271313546
2.543243577545195,-3.7,-3.7747859181731718,-1.43789631994107
2.5512411988582304,-3.7,-4.041373295274347,-1.4464959127507853
2.5592388201712657,-3.7,-4.307960672375524,-1.4550955055605006
2.567236441484301,-3.7,-4.574548049476699,-1.4636950983702162
2.5752340627973362,-3.7,-4.841135426577875,-1.4722946911799315
2.5832316841103715,-3.7,-5.107722803679051,-1.4808942839896468
2.5912293054234063,-3.7,-5.374310180780212,-1.4894938767993617
2.5992269267364416,-3.7,-5.640897557881388,-1.498093469609077
2.607224548049477,-3.0734728829686198,-8.38161750713598,2.6836822074215494
2.615222169362512,-3.553330161750725,-6.302235965746856,3.883325404376813
2.6232197906755474,-3.49334400138396,-5.894892310353769,3.8441181558688644
2.6312174119885827,-3.375197322895939,-5.667687159415267,3.671442241155603
2.6392150333016176,-3.2570506444079244,-5.440482008476778,3.498766326442351
2.647212654614653,-3.138903965919903,-5.2132768575382755,3.3260904117290897
2.655210275927688,-3.0207572874318824,-4.986071706599773,3.153414497015828
2.6632078972407234,-2.9026106089438612,-4.758866555661272,2.9807385823025667
2.6712055185537587,-2.78446393045584,-4.53166140472277,2.8080626675893052
2.679203139866794,-2.6663172519678193,-4.304456253784268,2.6353867528760437
2.687200761179829,-2.548170573479798,-4.077251102845766,2.4627108381627822
2.695198382492864,-2.430023894991784,-3.8500459519072767,2.2900349234495305
2.7031960038058993,-2.3118772165037624,-3.622840800968775,2.117359008736269
2.7111936251189346,-3.4612749762131036,-7.6047811607991385,1.8355375832541376
2.71919124643197,-4.209747084725512,-9.170758745823465,1.924367711813779
2.727188867745005,-4.228346204058152,-9.114961387825545,1.9708655101453791
2.7351864890580404,-4.246945323390792,-9.059164029827624,2.0173633084769795
2.7431841103710752,-4.2655444427234315,-9.003366671829706,2.0638611068085773
2.7511817316841105,-4.284143562056071,-8.947569313831787,2.110358905140177
2.759179352997146,-4.302742681388711,-8.891771955833866,2.1568567034717776
2.767176974310181,-4.321341800721352,-8.835974597835946,2.203354501803378
2.7751745956232163,-4.339940920053992,-8.780177239838025,2.2498523001349784
2.7831722169362516,-4.358540039386631,-8.724379881840106,2.2963500984665783
2.7911698382492864,-4.377139158719271,-8.668582523842188,2.342847896798176
2.7991674595623217,-4.395738278051911,-8.612785165844269,2.3893456951297765
2.807165080875357,-4.47476213130356,-8.6,1.27571360608932
2.8151627021883923,-4.623356637570844,-8.55328672485831,0.9934265502833796
2.8231603235014275,-4.649435837504655,-8.501128324990688,1.0977433500186222
2.831157944814463,-4.675515037438466,-8.448969925123068,1.2020601497538648
2.839155566127498,-4.7015942373722766,-8.396811525255446,1.3063769494891075
2.847153187440533,-4.727673437306086,-8.344653125387827,1.4106937492243443
2.855150808753568,-4.753752637239897,-8.292494725520207,1.5150105489595869
2.8631484300666035,-4.779831837173708,-8.240336325652585,1.6193273486948296
2.8711460513796387,-4.805911037107518,-8.188177925784963,1.7236441484300722
2.879143672692674,-4.831990237041329,-8.136019525917343,1.8279609481653147
2.8871412940057093,-4.858069436975139,-8.08386112604972,1.9322777479005575
2.895138915318744,-4.884148636908948,-8.031702726182102,2.0365945476357945
2.9031365366317794,-4.613653663177939,-8.509229305423508,1.659039010466184
2.9111341579448147,-4.793610252140818,-8.355271764985725,2.255271764985725
2.91913177925785,-4.7852793966064056,-8.296955776244843,2.1969557762448426
2.927129400570885,-4.776948541071994,-8.238639787503962,2.1386397875039607
2.9351270218839205,-4.768617685537582,-8.180323798763078,2.0803237987630783
2.9431246431969553,-4.760286830003172,-8.1220078100222,2.0220078100221994
2.9511222645099906,-4.75195597446876,-8.063691821281317,1.9636918212813175
2.959119885823026,-4.743625118934348,-8.005375832540436,1.9053758325404353
2.967117507136061,-4.735294263399936,-7.947059843799553,1.8470598437995531
2.9751151284490964,-4.726963407865525,-7.888743855058671,1.788743855058671
2.9831127497621317,-4.718632552331113,-7.830427866317789,1.7304278663177888
2.991110371075167,-4.7103016967967015,-7.772111877576907,1.6721118775769068
2.999107992388202,-4.70197084126229,-7.713795888836028,1.6137958888360278
3.007105613701237,-4.688943862987627,-8.34422454804949,1.9004947668886456
3.0151032350142724,-4.608967649857276,-8.664129400570895,1.1807088487154878
3.0231008563273076,-4.6,-8.725061845861084,1.1501236917221715
3.031098477640343,-4.6,-8.753288744612973,1.20657748922595
3.039096098953378,-4.6,-8.781515643364864,1.2630312867297284
3.047093720266413,-4.6,-8.809742542116751,1.3194850842335035
3.0550913415794483,-4.6,-8.83796944086864,1.375938881737282
3.0630889628924836,-4.6,-8.86619633962053,1.4323926792410604
3.071086584205519,-4.6,-8.894423238372418,1.4888464767448388
3.079084205518554,-4.6,-8.92265013712431,1.5453002742486173
3.0870818268315894,-4.6,-8.950877035876198,1.6017540717523957
3.0950794481446247,-4.6,-8.979103934628087,1.6582078692561741
3.1030770694576595,-4.6,-8.223120837297786,1.769172216936283
3.1110746907706948,-4.306612238216547,-8.590081642675178,1.8933877617834522
3.11907231208373,-4.323811423835978,-8.564282864246032,1.8761885761640216
3.1270699333967653,-4.341010609455409,-8.538484085816886,1.858989390544591
3.1350675547098006,-4.358209795074839,-8.51268530738774,1.8417902049251602
3.143065176022836,-4.37540898069427,-8.486886528958594,1.8245910193057295
3.1510627973358707,-4.3926081663137,-8.46108775052945,1.8073918336862997
3.159060418648906,-4.4098073519331304,-8.435288972100304,1.790192648066869
3.1670580399619412,-4.427006537552561,-8.409490193671157,1.7729934624474384
3.1750556612749765,-4.444205723171993,-8.383691415242012,1.7557942768280075
3.183053282588012,-4.461404908791423,-8.357892636812865,1.7385950912085768
3.191050903901047,-4.478604094410854,-8.33209385838372,1.7213959055891461
3.1990485252140823,-4.495803280030285,-8.306295079954573,1.7041967199697154
3.207046146527117,-4.382564224548047,-8.717435775451952,1.8907706945765663
3.2150437678401524,-4.3,-8.79658003613466,0.9102598915960188
3.2230413891531877,-4.3,-8.7875939447717,0.9372181656849018
3.231039010466223,-4.3,-8.778607853408738,0.9641764397737848
3.2390366317792583,-4.3,-8.769621762045778,0.9911347138626677
3.2470342530922935,-4.3,-8.760635670682817,1.0180929879515506
3.2550318744053284,-4.3,-8.751649579319857,1.0450512620404322
3.2630294957183636,-4.3,-8.742663487956895,1.0720095361293152
3.271027117031399,-4.3,-8.733677396593933,1.0989678102181981
3.279024738344434,-4.3,-8.724691305230973,1.125926084307081
3.2870223596574695,-4.3,-8.715705213868011,1.1528843583959638
3.2950199809705047,-4.3,-8.706719122505051,1.179842632484847
3.3030176022835396,-4.4017602283539645,-8.203520456707928,2.070076117982606
3.311015223596575,-4.595728485535559,-8.017086057857766,1.957284855355586
3.31901284490961,-4.587220377755734,-8.051118488977064,1.8722037775573384
3.3270104662226454,-4.578712269975909,-8.085150920096364,1.7871226997590905
3.3350080875356807,-4.570204162196084,-8.119183351215662,1.7020416219608427
3.343005708848716,-4.5616960544162595,-8.153215782334962,1.6169605441625952
3.3510033301617512,-4.5531879466364344,-8.18724821345426,1.5318794663643474
3.359000951474786,-4.54467983885661,-8.22128064457356,1.4467983885661044
3.3669985727878213,-4.536171731076785,-8.255313075692857,1.3617173107678566
3.3749961941008566,-4.527663623296961,-8.289345506812158,1.2766362329696088
3.382993815413892,-4.519155515517136,-8.323377937931456,1.1915551551713612
3.390991436726927,-4.510647407737311,-8.357410369050754,1.1064740773731134
3.3989890580399624,-4.502139299957487,-8.391442800170054,1.0213929995748656
3.4069866793529973,-4.686755470980017,-8.33973358705995,1.113244529019983
3.4149843006660325,-4.633437995559782,-8.499686013320654,1.1665620044402176
3.422981921979068,-4.893785303929952,-8.206214696070047,0.8037288176420291
3.430979543292103,-4.843167447518336,-8.256832552481663,0.8340995314889986
3.4389771646051384,-4.79254959110672,-8.30745040889328,0.8644702453359682
3.4469747859181736,-4.741931734695104,-8.358068265304896,0.8948409591829376
3.4549724072312085,-4.691313878283491,-8.408686121716508,0.9252116730299055
3.4629700285442437,-4.640696021871875,-8.459303978128125,0.9555823868768749
3.470967649857279,-4.59007816546026,-8.50992183453974,0.9859531007238445
3.4789652711703143,-4.539460309048644,-8.560539690951355,1.016323814570814
3.4869628924833496,-4.488842452637028,-8.611157547362971,1.0466945284177835
3.494960513796385,-4.438224596225412,-8.661775403774588,1.0770652422647529
3.50295813510942,-4.32167459562319,-8.77832540437681,1.2174881065652159
3.510955756422455,-4.106636536631775,-8.21327307326355,0.7022121788772586
3.51895337773549,-4.091162913627233,-8.270696690982133,0.6646516545089328
3.5269509990485255,-4.08227666772386,-8.341786658209115,0.6291066708954427
3.5349486203615608,-4.073390421820488,-8.412876625436095,0.5935616872819525
3.542946241674596,-4.064504175917115,-8.483966592663075,0.5580167036684623
3.5509438629876313,-4.055617930013743,-8.555056559890055,0.5224717200549722
3.558941484300666,-4.04673168411037,-8.626146527117031,0.486926736441484
3.5669391056137014,-4.037845438206999,-8.697236494344011,0.4513817528279938
3.5749367269267367,-4.028959192303626,-8.768326461570993,0.41583676921450363
3.582934348239772,-4.020072946400253,-8.839416428797973,0.3802917856010135
3.5909319695528072,-4.01118670049688,-8.910506396024953,0.34474680198752333
3.5989295908658425,-4.002300454593509,-8.981596363251933,0.30920181837403315
3.606927212178878,-3.7,-9.433101807801984,0.04436726926732837
3.6149248334919126,-3.7,-8.686770224184563,-0.24409925271811705
3.622922454804948,-3.7,-8.659811950095682,-0.33396016634772696
3.630920076117983,-3.7,-8.632853676006798,-0.42382107997733676
3.6389176974310184,-3.7,-8.605895401917916,-0.5136819936069467
3.6469153187440537,-3.7,-8.578937127829033,-0.6035429072365566
3.654912940057089,-3.7,-8.55197885374015,-0.6934038208661664
3.662910561370124,-3.7,-8.525020579651269,-0.7832647344957713
3.670908182683159,-3.7,-8.498062305562385,-0.8731256481253811
3.6789058039961944,-3.7,-8.471104031473503,-0.9629865617549909
3.6869034253092297,-3.7,-8.44414575738462,-1.0528474753846009
3.694901046622265,-3.7,-8.417187483295738,-1.1427083890142107
3.7028986679353,-3.555066603234999,-8.979733587060004,-1.344933396765001
3.7108962892483355,-3.395877632068836,-8.71030591982791,-0.7103059198279097
3.7188939105613703,-3.37849149877963,-8.753771253050925,-0.7537712530509251
3.7268915318744056,-3.3611053654904226,-8.797236586273943,-0.7972365862739428
3.734889153187441,-3.3437192322012157,-8.84070191949696,-0.8407019194969606
3.742886774500476,-3.326333098912009,-8.884167252719978,-0.8841672527199784
3.7508843958135114,-3.3089469656228014,-8.927632585942995,-0.9276325859429961
3.7588820171265467,-3.2915608323335945,-8.971097919166013,-0.9710979191660138
3.7668796384395815,-3.2741746990443885,-9.014563252389028,-1.0145632523890291
3.774877259752617,-3.256788565755181,-9.058028585612046,-1.058028585612047
3.782874881065652,-3.2394024324659743,-9.101493918835065,-1.1014939188350648
3.7908725023786873,-3.222016299176767,-9.144959252058081,-1.1449592520580825
3.7988701236917226,-3.20463016588756,-9.1884245852811,-1.1884245852811002
3.806867745004758,-3.3,-9.127626750033984,-1.5381337501699244
3.8148653663177927,-3.3,-9.184752616555661,-1.8237630827783065
3.822862987630828,-2.9069862036156042,-8.802328734538536,-2.6069862036156044
3.8308606089438633,-2.9369772835394867,-8.81232576117983,-2.636977283539487
3.8388582302568985,-2.9669683634633692,-8.822322787821124,-2.6669683634633694
3.846855851569934,-2.9969594433872517,-8.832319814462418,-2.6969594433872515
3.854853472882969,-3.0269505233111342,-8.842316841103711,-2.726950523311134
3.8628510941960044,-3.0569416032350163,-8.852313867745005,-2.7569416032350165
3.870848715509039,-3.0869326831588975,-8.8623108943863,-2.786932683158897
3.8788463368220745,-3.11692376308278,-8.872307921027593,-2.8169237630827797
3.8868439581351097,-3.146914843006662,-8.882304947668887,-2.8469148430066618
3.894841579448145,-3.1769059229305445,-8.892301974310183,-2.8769059229305443
3.9028392007611803,-3.0160799238819713,-9.267840152236058,-2.8080399619409855
3.9108368220742156,-3.1,-7.975509646334794,-2.2795913719456617
3.9188344433872504,-3.1,-7.924460999655849,-2.2370508330465406
3.9268320647002857,-3.1,-7.8734123529769,-2.194510294147417
3.934829686013321,-3.1,-7.822363706297952,-2.1519697552482935
3.9428273073263562,-3.1,-7.7713150596190035,-2.1094292163491697
3.9508249286393915,-3.1,-7.720266412940055,-2.066888677450046
3.9588225499524268,-3.1,-7.669217766261107,-2.0243481385509225
3.9668201712654616,-3.1,-7.618169119582162,-1.9818075996518012
3.974817792578497,-3.1,-7.5671204729032135,-1.9392670607526774
3.982815413891532,-3.1,-7.516071826224265,-1.8967265218535538
3.9908130352045674,-3.1,-7.465023179545317,-1.8541859829544303
3.9988106565176027,-3.1,-7.413974532866368,-1.8116454440553065
4.006808277830638,-3.3,-10.773463368221279,-3.638648905804256
4.014805899143673,-1.8042287768263034,-7.450745321915642,-6.091542446347392
4.0228035204567085,-1.813115022729676,-7.557380272756113,-6.073769954540648
4.030801141769744,-1.8220012686330487,-7.664015223596583,-6.055997462733902
4.038798763082779,-1.8308875145364212,-7.770650174437053,-6.038224970927158
4.0467963843958135,-1.8397737604397926,-7.877285125277512,-6.020452479120415
4.054794005708849,-1.8486600063431653,-7.9839200761179825,-6.00267998731367
4.062791627021884,-1.8575462522465378,-8.090555026958453,-5.984907495506924
4.070789248334919,-1.8664324981499103,-8.197189977798923,-5.96713500370018
4.078786869647955,-1.8753187440532828,-8.303824928639393,-5.949362511893434
4.08678449096099,-1.8842049899566553,-8.410459879479864,-5.93159002008669
4.094782112274025,-1.8930912358600278,-8.517094830320335,-5.913817528279944
4.10277973358706,-2.3449333967651502,-7.710133206469699,-4.921146527116669
4.110777354900096,-3.0777354900095424,-7.755470980019084,-4.51094196003817
4.118774976213131,-3.2,-8.038061664118713,-5.007612332823743
4.126772597526166,-3.2,-8.082992120933518,-5.016598424186704
4.1347702188392015,-3.2,-8.127922577748324,-5.025584515549665
4.142767840152237,-3.2,-8.172853034563127,-5.0345706069126255
4.150765461465271,-3.2,-8.217783491377928,-5.0435566982755855
4.158763082778306,-3.2,-8.262713948192733,-5.052542789638546
4.166760704091342,-3.2,-8.307644405007538,-5.061528881001507
4.174758325404377,-3.2,-8.352574861822344,-5.070514972364468
4.182755946717412,-3.2,-8.39750531863715,-5.079501063727429
4.1907535680304475,-3.2,-8.442435775451955,-5.088487155090391
4.198751189343483,-3.2,-8.487366232266758,-5.097473246453352
4.206748810656518,-3.391627021883941,-8.691627021883942,-4.588994608309491
4.214746431969553,-3.8176070409133978,-8.657036156041944,-4.774643196955341
4.222744053282589,-3.674405328258861,-8.632730732634808,-3.2678401522341707
4.230741674595624,-3.729775671521631,-8.170972090072935,-2.430523433116195
4.238739295908659,-3.7605357534948434,-8.037678401522346,-2.3587499085120323
4.246736917221694,-3.791295835468056,-7.904384712971759,-2.28697638390787
4.254734538534729,-3.822055917441265,-7.771091024421186,-2.2152028593037154
4.262732159847764,-3.8528159994144775,-7.637797335870599,-2.143429334699553
4.270729781160799,-3.8835760813876896,-7.5045036473200115,-2.0716558100953906
4.278727402473835,-3.914336163360902,-7.371209958769424,-1.9998822854912282
4.28672502378687,-3.9450962453341147,-7.237916270218836,-1.9281087608870657
4.294722645099905,-3.9758563273073273,-7.104622581668249,-1.856335236282903
4.3027202664129405,-3.891960038058905,-8.043720266412336,-2.7720266412940635
4.310717887725976,-4.368358402332125,-8.90791039941697,-4.6920896005830315
4.318715509039011,-4.300293540093526,-8.924926614976618,-4.675073385023381
4.326713130352046,-4.232228677854928,-8.941942830536268,-4.658057169463732
4.334710751665082,-4.164163815616329,-8.958959046095918,-4.641040953904082
4.342708372978117,-4.096098953377731,-8.975975261655568,-4.624024738344433
4.350705994291152,-4.028034091139132,-8.992991477215217,-4.607008522784783
4.3587036156041865,-3.9599692289005413,-9.010007692774865,-4.589992307225136
4.366701236917222,-3.891904366661943,-9.027023908334515,-4.572976091665486
4.374698858230257,-3.823839504423344,-9.044040123894163,-4.555959876105836
4.382696479543292,-3.7557746421847455,-9.061056339453813,-4.538943660546186
4.390694100856328,-3.687709779946147,-9.078072555013463,-4.521927444986536
4.398691722169363,-3.6196449177075483,-9.095088770573113,-4.504911229426887
4.406689343482398,-4.412622898826523,-6.793196955280647,-2.2839755788138003
4.414686964795433,-4.7007987962737605,-6.4023963888212805,-0.39840240745247973
4.422684586108469,-4.71009835594008,-6.430295067820241,-0.3798032881198396
4.430682207421504,-4.7193979156064,-6.458193746819201,-0.3612041687871995
4.438679828734539,-4.72869747527272,-6.486092425818161,-0.3426050494545594
4.4466774500475745,-4.73799703493904,-6.513991104817121,-0.32400593012191925
4.454675071360609,-4.747296594605359,-6.541889783816078,-0.3054068107892812
4.462672692673644,-4.756596154271679,-6.569788462815039,-0.2868076914566411
4.4706703139866795,-4.765895713938,-6.597687141813998,-0.268208572124001
4.478667935299715,-4.77519527360432,-6.625585820812959,-0.2496094527913609
4.48666555661275,-4.78449483327064,-6.653484499811919,-0.2310103334587208
4.494663177925785,-4.7937943929369595,-6.681383178810879,-0.2124112141260807
4.502660799238821,-4.977386615921365,-6.877386615921365,0.24346653980341082
4.510658420551856,-5.4950963994191,-7.080385597676397,0.4049036005809007
4.518656041864891,-5.486677850668536,-7.046711402674143,0.41332214933146416
4.526653663177926,-5.478259301917973,-7.013037207671889,0.42174069808202763
4.534651284490962,-5.469840753167409,-6.979363012669635,0.4301592468325911
4.542648905803997,-5.461422204416846,-6.945688817667381,0.4385777955831546
4.550646527117032,-5.453003655666282,-6.912014622665128,0.44699634433371804
4.558644148430067,-5.44458510691572,-6.878340427662878,0.45541489308428057
4.566641769743102,-5.436166558165156,-6.844666232660624,0.46383344183484404
4.574639391056137,-5.427748009414593,-6.81099203765837,0.47225199058540746
4.582637012369172,-5.419329460664029,-6.7773178426561165,0.4806705393359709
4.590634633682208,-5.410910911913466,-6.743643647653863,0.4890890880865344
4.598632254995243,-5.402492363162902,-6.709969452651609,0.49750763683709787
4.606629876308278,-5.466233838920919,-6.7993507583813795,0.5662338389209194
4.6146274976213135,-5.560323501427215,-6.940485252140823,0.6603235014272149
4.622625118934349,-6.962511893434899,-7.281208372977857,1.6562797335872452
4.630622740247384,-7.124835275927691,-6.750329448144617,2.049670551855383
4.638620361560419,-7.154826355851574,-6.690347288296852,2.1096527117031476
4.646617982873455,-7.1848174357754555,-6.630365128449088,2.169634871550912
4.65461560418649,-7.214808515699338,-6.570382968601323,2.2296170313986767
4.662613225499524,-7.244799595623217,-6.510400808753565,2.2895991912464346
4.67061084681256,-7.2747906755470995,-6.450418648905801,2.3495813510941987
4.678608468125595,-7.304781755470982,-6.390436489058037,2.4095635109419633
4.68660608943863,-7.3347728353948645,-6.330454329210272,2.469545670789728
4.694603710751665,-7.364763915318746,-6.270472169362508,2.5295278306374924
4.702601332064701,-7.394754995242629,-6.210490009514743,2.589509990485257
4.710598953377736,-9.959895337773577,-4.82031398667927,2.419790675547153
4.718596574690771,-10.016881277090603,-4.657796807273495,2.516881277090602
4.7265941960038065,-10.034653768897346,-4.613365577756633,2.534653768897347
4.734591817316842,-10.052426260704092,-4.56893434823977,2.552426260704092
4.742589438629877,-10.070198752510837,-4.524503118722907,2.570198752510837
4.750587059942912,-10.087971244317583,-4.4800718892060445,2.5879712443175826
4.758584681255948,-10.105743736124326,-4.435640659689182,2.6057437361243276
4.766582302568982,-10.12351622793107,-4.3912094301723235,2.623516227931071
4.774579923882017,-10.141288719737815,-4.346778200655461,2.641288719737816
4.7825775451950525,-10.15906121154456,-4.302346971138598,2.659061211544561
4.790575166508088,-10.176833703351305,-4.257915741621735,2.676833703351306
4.798572787821123,-10.19460619515805,-4.213484512104873,2.694606195158051
4.806570409134158,-10.9,-4.242602283539588,2.7714795432920822
4.814568030447194,-10.886595856230217,-4.620106215654674,2.6932979281151086
4.822565651760229,-10.870274180081166,-4.644588729878252,2.6851370900405827
4.830563273073264,-10.853952503932113,-4.669071244101829,2.6769762519660567
4.838560894386299,-10.837630827783062,-4.6935537583254066,2.668815413891531
4.846558515699335,-10.82130915163401,-4.718036272548985,2.6606545758170053
4.85455613701237,-10.804987475484959,-4.742518786772562,2.6524937377424793
4.862553758325404,-10.78866579933591,-4.767001300996137,2.6443328996679547
4.87055137963844,-10.772344123186857,-4.791483815219714,2.6361720615934288
4.878549000951475,-10.756022447037806,-4.815966329443292,2.628011223518903
4.88654662226451,-10.739700770888753,-4.840448843666869,2.6198503854443773
4.8945442435775455,-10.723379094739702,-4.8649313578904465,2.6116895473698514
4.902541864890581,-10.70705741859065,-4.889413872114024,2.6035287092953254
4.910539486203616,-10.12302568981918,-4.623025689819181,1.7381541389150852
4.918537107516651,-9.885788896702932,-4.385788896702932,1.3857888967029317
4.926534728829687,-9.868402763413725,-4.368402763413725,1.3684027634137246
4.934532350142722,-9.851016630124517,-4.3510166301245174,1.3510166301245172
4.942529971455757,-9.83363049683531,-4.33363049683531,1.33363049683531
4.950527592768792,-9.816244363546103,-4.316244363546104,1.316244363546103
4.958525214081828,-9.798858230256895,-4.298858230256896,1.2988582302568958
4.966522835394862,-9.78147209696769,-4.281472096967691,1.2814720969676905
4.974520456707897,-9.764085963678482,-4.264085963678483,1.2640859636784834
4.982518078020933,-9.746699830389275,-4.246699830389276,1.246699830389276
4.990515699333968,-9.729313697100068,-4.2293136971000695,1.2293136971000689
4.998513320647003,-9.71192756381086,-4.211927563810862,1.2119275638108618
5.006510941960038,-9.6,-4.074452901998087,1.074452901998087
5.014508563273074,-9.496101596363252,-3.7961015963632514,0.8
5.022506184586109,-9.487215350459879,-3.7872153504598787,0.8
5.030503805899144,-9.478329104556506,-3.7783291045565064,0.8
5.0385014272121795,-9.469442858653133,-3.7694428586531337,0.8
5.046499048525215,-9.46055661274976,-3.7605566127497614,0.8
5.05449666983825,-9.45167036684639,-3.7516703668463887,0.8
5.062494291151285,-9.442784120943017,-3.7427841209430164,0.8
5.07049191246432,-9.433897875039644,-3.733897875039645,0.8
5.078489533777355,-9.425011629136273,-3.7250116291362723,0.8
5.08648715509039,-9.4161253832329,-3.7161253832329,0.8
5.094484776403426,-9.407239137329528,-3.7072391373295273,0.8
5.102482397716461,-9.4,-3.851760228353942,0.824119885823029
5.110480019029496,-9.4,-3.3519980970504153,0.8
5.118477640342531,-9.392639045065305,-3.2,0.7926390450653054
5.126475261655567,-9.383550839027766,-3.2,0.7835508390277653
5.134472882968602,-9.374462632990225,-3.2,0.7744626329902252
5.142470504281637,-9.365374426952686,-3.2,0.7653744269526851
5.1504681255946725,-9.356286220915145,-3.2,0.7562862209151451
5.158465746907708,-9.347198014877605,-3.2,0.747198014877605
5.166463368220743,-9.338109808840066,-3.2,0.7381098088400648
5.174460989533777,-9.329021602802527,-3.2,0.7290216028025258
5.182458610846813,-9.319933396764986,-3.2,0.7199333967649857
5.190456232159848,-9.310845190727447,-3.2,0.7108451907274457
5.198453853472883,-9.301756984689906,-3.2,0.7017569846899055
5.2064514747859185,-9.5,-3.0649789316297347,0.9
5.214449096098954,-9.498334372300054,-2.898334372300053,0.9016656276999468
5.222446717411989,-9.489141704124151,-2.8891417041241505,0.9108582958758494
5.230444338725024,-9.479949035948248,-2.879949035948248,0.9200509640517521
5.23844196003806,-9.470756367772346,-2.870756367772345,0.9292436322276547
5.246439581351095,-9.461563699596443,-2.8615636995964424,0.9384363004035574
5.25443720266413,-9.45237103142054,-2.8523710314205397,0.94762896857946
5.262434823977165,-9.443178363244638,-2.843178363244637,0.9568216367553627
5.270432445290201,-9.433985695068735,-2.8339856950687348,0.9660143049312653
5.278430066603235,-9.424793026892834,-2.824793026892833,0.9752069731071669
5.28642768791627,-9.415600358716931,-2.8156003587169303,0.9843996412830696
5.294425309229306,-9.406407690541029,-2.8064076905410276,0.9935923094589723
5.302422930542341,-9.257706945765882,-2.7577069457658814,1.1
5.310420551855376,-9.1,-2.636137012369175,1.1
5.3184181731684115,-9.1,-2.6894544877894084,1.1
5.326415794481447,-9.091878741162725,-2.6918787411627263,1.1081212588372742
5.334413415794482,-9.081755169880402,-2.681755169880403,1.1182448301195973
5.342411037107517,-9.07163159859808,-2.6716315985980796,1.1283684014019204
5.350408658420553,-9.061508027315757,-2.6615080273157568,1.1384919726842435
5.358406279733588,-9.051384456033434,-2.6513844560334334,1.1486155439665666
5.366403901046623,-9.04126088475111,-2.64126088475111,1.15873911524889
5.374401522359658,-9.031137313468786,-2.631137313468787,1.168862686531213
5.382399143672693,-9.021013742186465,-2.621013742186465,1.178986257813535
5.390396764985728,-9.010890170904142,-2.610890170904142,1.1891098290958582
5.398394386298763,-9.00076659962182,-2.6007665996218186,1.1992334003781813
5.406392007611799,-9.247840152235975,-2.7,1.3
5.414389628924834,-9.30592266914817,-2.7,1.2940773308518307
5.422387250237869,-9.31471126399766,-2.7,1.2852887360023415
5.430384871550904,-9.323499858847148,-2.7,1.276500141152852
5.43838249286394,-9.332288453696638,-2.7,1.2677115463033628
5.446380114176975,-9.341077048546127,-2.7,1.2589229514538736
5.45437773549001,-9.349865643395617,-2.7,1.2501343566043843
5.4623753568030455,-9.358654238245105,-2.7,1.2413457617548949
5.470372978116081,-9.367442833094595,-2.7,1.2325571669054056
5.478370599429115,-9.376231427944083,-2.7,1.2237685720559173
5.4863682207421505,-9.385020022793572,-2.7,1.214979977206428
5.494365842055186,-9.393808617643062,-2.7,1.2061913823569386
5.502363463368221,-9.405192333831732,-2.7103846676634635,1.2
5.510361084681256,-9.568054234062805,-2.968054234062805,1.2
5.518358705994292,-9.5,-3.1123188643546937,1.1
5.526356327307327,-9.5,-3.1307042007064987,1.1
5.534353948620362,-9.5,-3.149089537058304,1.1
5.542351569933397,-9.5,-3.1674748734101095,1.1
5.550349191246433,-9.5,-3.1858602097619144,1.1
5.558346812559468,-9.5,-3.20424554611372,1.1
5.566344433872503,-9.5,-3.222630882465525,1.1
5.5743420551855385,-9.5,-3.2410162188173306,1.1
5.582339676498573,-9.5,-3.2594015551691338,1.1
5.590337297811608,-9.5,-3.2777868915209387,1.1
5.598334919124643,-9.5,-3.296172227872744,1.1
5.606332540437679,-9.5,-3.2722090072946477,1.1
5.614330161750714,-9.7,-3.2949344309767086,1.0
5.622327783063749,-9.7,-3.2775482976875017,1.0
5.6303254043767845,-9.7,-3.2601621643982943,1.0
5.63832302568982,-9.7,-3.2427760311090874,1.0
5.646320647002855,-9.7,-3.22538989781988,1.0
5.65431826831589,-9.7,-3.208003764530673,1.0
5.662315889628926,-9.7,-3.190617631241466,1.0
5.670313510941961,-9.7,-3.1732314979522585,1.0
5.678311132254996,-9.7,-3.1558453646630515,1.0
5.686308753568031,-9.7,-3.1384592313738464,1.0
5.694306374881066,-9.7,-3.121073098084639,1.0
5.702303996194101,-9.7,-3.1036869647954317,1.0
5.710301617507136,-9.82327941642879,-3.2255735278570707,1.0
5.718299238820172,-9.470076117982842,-3.3,1.0649619410085795
5.726296860133207,-9.390991530699745,-3.3,1.0909915306997449
5.734294481446242,-9.381117924140442,-3.3,1.081117924140442
5.7422921027592775,-9.371244317581139,-3.3,1.0712443175811392
5.750289724072313,-9.361370711021836,-3.3,1.0613707110218362
5.758287345385348,-9.351497104462535,-3.3,1.0514971044625334
5.766284966698383,-9.341623497903232,-3.3,1.0416234979032306
5.774282588011419,-9.331749891343929,-3.3,1.0317498913439276
5.782280209324454,-9.321876284784626,-3.3,1.0218762847846248
5.790277830637488,-9.312002678225324,-3.3,1.012002678225323
5.7982754519505235,-9.302129071666021,-3.3,1.00212907166602
5.806273073263559,-9.28546146527117,-3.2,0.9854614652711704
5.814270694576594,-9.4,-2.9,0.995254783803784
5.822268315889629,-9.4,-2.9,0.9863685379004116
5.830265937202665,-9.4,-2.9,0.9774822919970391
5.8382635585157,-9.4,-2.9,0.9685960460936667
5.846261179828735,-9.4,-2.9,0.9597098001902942
5.85425880114177,-9.4,-2.9,0.9508235542869217
5.862256422454806,-9.4,-2.9,0.9419373083835493
5.870254043767841,-9.4,-2.9,0.9330510624801768
5.878251665080876,-9.4,-2.9,0.9241648165768044
5.886249286393911,-9.4,-2.9,0.9152785706734329
5.894246907706946,-9.4,-2.9,0.9063923247700605
5.902244529019981,-9.52445290199812,-3.0244529019981203,0.9
5.9102421503330165,-9.699730944074426,-2.9,1.1997309440744262
5.918239771646052,-9.690844698171054,-2.9,1.1908446981710537
5.926237392959087,-9.681958452267681,-2.9,1.1819584522676811
5.934235014272122,-9.673072206364308,-2.9,1.1730722063643086
5.942232635585158,-9.664185960460935,-2.9,1.1641859604609361
5.950230256898193,-9.655299714557563,-2.9,1.1552997145575636
5.958227878211228,-9.64641346865419,-2.9,1.1464134686541911
5.966225499524263,-9.637527222750817,-2.9,1.1375272227508186
5.974223120837299,-9.628640976847446,-2.9,1.128640976847446
5.982220742150334,-9.619754730944074,-2.9,1.1197547309440734
5.990218363463368,-9.610868485040701,-2.9,1.110868485040702
5.998215984776404,-9.601982239137328,-2.9,1.1019822391373295
6.006213606089439,-9.505340152235966,-2.9,1.1053401522359672
6.014211227402474,-9.5,-2.8,1.2
6.022208848715509,-9.5,-2.8,1.2
6.030206470028545,-9.5,-2.8,1.2
6.03820409134158,-9.5,-2.8,1.2
6.046201712654615,-9.5,-2.8,1.2
6.0541993339676505,-9.5,-2.8,1.2
6.062196955280686,-9.5,-2.8,1.2
6.070194576593721,-9.5,-2.8,1.2
6.078192197906756,-9.5,-2.8,1.2
6.086189819219792,-9.5,-2.8,1.2
6.094187440532826,-9.5,-2.8,1.2
6.102185061845861,-9.6,-2.702056242731789,1.1979437572682112
6.110182683158897,-9.6,-2.7909187017655195,1.1090812982344807
6.118180304471932,-9.696258465327139,-2.8,1.0962584653271394
6.126177925784967,-9.686849499076509,-2.8,1.0868494990765096
6.134175547098002,-9.677440532825878,-2.8,1.0774405328258798
6.142173168411038,-9.66803156657525,-2.8,1.06803156657525
6.150170789724073,-9.65862260032462,-2.8,1.0586226003246204
6.158168411037108,-9.64921363407399,-2.8,1.0492136340739906
6.1661660323501435,-9.63980466782336,-2.8,1.0398046678233608
6.174163653663179,-9.63039570157273,-2.8,1.0303957015727312
6.182161274976214,-9.6209867353221,-2.8,1.0209867353221014
6.190158896289249,-9.611577769071472,-2.8,1.0115777690714716
6.198156517602284,-9.602168802820843,-2.8,1.0021688028208429
6.206154138915319,-9.523073263558516,-2.8769267364414848,1.0
6.214151760228354,-9.596458696372636,-2.996458696372636,1.0
6.2221493815413895,-9.587472605009674,-2.987472605009675,1.0
6.230147002854425,-9.578486513646714,-2.978486513646714,1.0
6.23814462416746,-9.569500422283753,-2.969500422283753,1.0
6.246142245480495,-9.560514330920793,-2.960514330920792,1.0
6.254139866793531,-9.55152823955783,-2.9515282395578306,1.0
6.262137488106566,-9.542542148194869,-2.9425421481948697,1.0
6.270135109419601,-9.533556056831909,-2.933556056831909,1.0
6.2781327307326364,-9.524569965468947,-2.924569965468948,1.0
6.286130352045672,-9.515583874105987,-2.9155838741059865,1.0
6.294127973358707,-9.506597782743025,-2.9065977827430256,1.0
6.302125594671741,-9.512559467174174,-2.8,1.0874405328258263
6.310123215984777,-9.5,-2.9,1.0
6.318120837297812,-9.5,-2.9,1.0
6.326118458610847,-9.5,-2.9,1.0
6.3341160799238825,-9.5,-2.9,1.0
6.342113701236918,-9.5,-2.9,1.0
6.350111322549953,-9.5,-2.9,1.0
6.358108943862988,-9.5,-2.9,1.0
6.366106565176024,-9.5,-2.9,1.0
6.374104186489059,-9.5,-2.9,1.0
6.382101807802094,-9.5,-2.9,1.0
6.390099429115129,-9.5,-2.9,1.0
6.398097050428165,-9.5,-2.9,1.0
6.406094671741199,-9.345266412940054,-2.954733587059947,0.8452664129400532
6.414092293054234,-9.3,-3.0,0.7923738784363072
6.42208991436727,-9.3,-3.0,0.7837742856265919
6.430087535680305,-9.3,-3.0,0.7751746928168766
6.43808515699334,-9.3,-3.0,0.7665751000071611
6.446082778306375,-9.3,-3.0,0.7579755071974458
6.454080399619411,-9.3,-3.0,0.7493759143877304
6.462078020932446,-9.3,-3.0,0.7407763215780151
6.470075642245481,-9.3,-3.0,0.7321767287682998
6.4780732635585165,-9.3,-3.0,0.7235771359585843
6.486070884871552,-9.3,-3.0,0.714977543148869
6.494068506184587,-9.3,-3.0,0.7063779503391536
6.5020661274976215,-9.4,-3.0992652500264257,0.7014694999471487
6.510063748810657,-9.4,-3.010402790992704,0.8791944180145925
6.518061370123692,-9.503601611910227,-3.1036016119102263,0.9
6.526058991436727,-9.513010578160856,-3.113010578160856,0.9
6.534056612749763,-9.522419544411486,-3.122419544411486,0.9
6.542054234062798,-9.531828510662116,-3.1318285106621158,0.9
6.550051855375833,-9.541237476912745,-3.1412374769127456,0.9
6.558049476688868,-9.550646443163375,-3.150646443163375,0.9
6.566047098001904,-9.560055409414005,-3.1600554094140048,0.9
6.574044719314939,-9.569464375664634,-3.1694643756646346,0.9
6.582042340627974,-9.578873341915264,-3.1788733419152644,0.9
6.5900399619410095,-9.588282308165894,-3.188282308165894,0.9
6.598037583254045,-9.597691274416523,-3.197691274416524,0.9
6.606035204567079,-9.6,-3.1,1.1
6.614032825880114,-9.6,-3.1,1.0924378216342858
6.62203044719315,-9.6,-3.1,1.0838382288245705
6.630028068506185,-9.6,-3.1,1.0752386360148551
6.63802568981922,-9.6,-3.1,1.0666390432051398
6.6460233111322555,-9.6,-3.1,1.0580394503954245
6.654020932445291,-9.6,-3.1,1.0494398575857091
6.662018553758326,-9.6,-3.1,1.0408402647759938
6.670016175071361,-9.6,-3.1,1.0322406719662784
6.678013796384397,-9.6,-3.1,1.0236410791565629
6.686011417697432,-9.6,-3.1,1.0150414863468475
6.694009039010467,-9.6,-3.1,1.0064418935371322
6.7020066603235025,-9.6,-3.1,0.9998889946082917
6.710004281636537,-9.699571836346312,-3.199571836346313,0.9
6.718001902949572,-9.592132693315088,-3.1,0.9
6.725999524262607,-9.583146601952127,-3.1,0.9
6.733997145575643,-9.574160510589165,-3.1,0.9
6.741994766888678,-9.565174419226205,-3.1,0.9
6.749992388201713,-9.556188327863243,-3.1,0.9
6.7579900095147485,-9.547202236500283,-3.1,0.9
6.765987630827784,-9.538216145137321,-3.1,0.9
6.773985252140819,-9.529230053774361,-3.1,0.9
6.781982873453854,-9.5202439624114,-3.1,0.9
6.78998049476689,-9.51125787104844,-3.1,0.9
6.797978116079925,-9.502271779685477,-3.1,0.9
6.80597573739296,-9.348786869648006,-3.0512131303519956,1.1
6.8139733587059945,-9.407498235167736,-3.0,1.1
6.82197098001903,-9.41609782797745,-3.0,1.1
6.829968601332065,-9.424697420787167,-3.0,1.1
6.8379662226451,-9.433297013596881,-3.0,1.1
6.845963843958136,-9.441896606406598,-3.0,1.1
6.853961465271171,-9.450496199216312,-3.0,1.1
6.861959086584206,-9.459095792026028,-3.0,1.1
6.869956707897241,-9.467695384835743,-3.0,1.1
6.877954329210277,-9.476294977645459,-3.0,1.1
6.885951950523312,-9.484894570455173,-3.0,1.1
6.893949571836347,-9.49349416326489,-3.0,1.1
6.9019471931493825,-9.480528068506178,-3.0,1.1
6.909944814462417,-9.400551855375832,-3.0,1.1
6.917942435775452,-9.547121788772625,-3.0471217887726247,1.0
6.9259400570884875,-9.5,-3.1936665934762987,0.9
6.933937678401523,-9.5,-3.183413232818561,0.9
6.941935299714558,-9.5,-3.173159872160823,0.9
6.949932921027593,-9.5,-3.1629065115030857,0.9
6.957930542340629,-9.5,-3.152653150845348,0.9
6.965928163653664,-9.5,-3.1423997901876106,0.9
6.973925784966699,-9.5,-3.1321464295298727,0.9
6.981923406279734,-9.5,-3.121893068872135,0.9
6.98992102759277,-9.5,-3.1116397082143976,0.9
6.997918648905805,-9.5,-3.10138634755666,0.9
7.00591627021884,-9.504186489057998,-3.3,0.8
7.013913891531875,-9.5,-3.3,0.8
7.02191151284491,-9.5,-3.3,0.8
7.029909134157945,-9.5,-3.3,0.8
7.03790675547098,-9.5,-3.3,0.8
7.045904376784016,-9.5,-3.3,0.8
7.053901998097051,-9.5,-3.3,0.8
7.061899619410086,-9.5,-3.3,0.8
7.0698972407231215,-9.5,-3.3,0.8
7.077894862036157,-9.5,-3.3,0.8
7.085892483349192,-9.5,-3.3,0.8
7.093890104662227,-9.5,-3.3,0.8
7.101887725975263,-9.5,-3.111227402473725,0.8443862987631376
7.109885347288298,-9.5,-2.9,0.9041333481790405
7.117882968601332,-9.5,-2.9,0.9126414559588643
7.125880589914368,-9.5,-2.9,0.921149563738689
7.133878211227403,-9.5,-2.9,0.9296576715185138
7.141875832540438,-9.5,-2.9,0.9381657792983384
7.149873453853473,-9.5,-2.9,0.9466738870781631
7.157871075166509,-9.5,-2.9,0.9551819948579879
7.165868696479544,-9.5,-2.9,0.9636901026378126
7.173866317792579,-9.5,-2.9,0.9721982104176373
7.1818639391056145,-9.5,-2.9,0.9807063181974621
7.18986156041865,-9.5,-2.9,0.9892144259772868
7.197859181731685,-9.5,-2.9,0.9977225337571115
7.20585680304472,-9.6,-3.2,0.9309467174120085
7.213854424357756,-9.59566918611488,-3.204330813885119,1.0
7.22185204567079,-9.58668309475192,-3.2133169052480786,1.0
7.229849666983825,-9.57769700338896,-3.2223029966110395,1.0
7.2378472882968605,-9.568710912025999,-3.2312890879740004,1.0
7.245844909609896,-9.559724820663039,-3.2402751793369613,1.0
7.253842530922931,-9.550738729300077,-3.249261270699922,1.0
7.261840152235966,-9.541752637937117,-3.258247362062883,1.0
7.269837773549002,-9.532766546574155,-3.267233453425844,1.0
7.277835394862037,-9.523780455211195,-3.276219544788805,1.0
7.285833016175072,-9.514794363848234,-3.285205636151766,1.0
7.2938306374881074,-9.505808272485273,-3.2941917275147268,1.0
7.301828258801143,-9.458587059942868,-3.4414129400571327,1.041412940057133
7.309825880114178,-9.31677314122603,-3.5832268587739713,1.1
7.317823501427213,-9.292333144463806,-3.607666855536195,1.1076668555361948
7.325821122740248,-9.283347053100846,-3.616652946899155,1.1166529468991546
7.333818744053283,-9.274360961737885,-3.6256390382621158,1.1256390382621158
7.341816365366318,-9.265374870374924,-3.6346251296250767,1.1346251296250767
7.3498139866793535,-9.256388779011962,-3.6436112209880376,1.1436112209880376
7.357811607992389,-9.247402687649002,-3.6525973123509985,1.1525973123509985
7.365809229305424,-9.23841659628604,-3.6615834037139594,1.1615834037139594
7.373806850618459,-9.22943050492308,-3.6705694950769203,1.1705694950769203
7.381804471931495,-9.220444413560118,-3.6795555864398812,1.1795555864398812
7.38980209324453,-9.211458322197156,-3.688541677802842,1.1885416778028421
7.397799714557565,-9.202472230834196,-3.6975277691658035,1.197527769165803
7.4057973358706,-9.0,-4.1,1.1
7.413794957183636,-9.0,-4.1,1.0926141769743092
7.421792578496671,-9.0,-4.1,1.0839211103297055
7.429790199809705,-9.0,-4.1,1.075228043685103
7.437787821122741,-9.0,-4.1,1.0665349770404993
7.445785442435776,-9.0,-4.1,1.0578419103958956
7.453783063748811,-9.0,-4.1,1.0491488437512921
7.461780685061846,-9.0,-4.1,1.0404557771066885
7.469778306374882,-9.0,-4.1,1.0317627104620848
7.477775927687917,-9.0,-4.1,1.0230696438174813
7.485773549000952,-9.0,-4.1,1.0143765771728777
7.4937711703139875,-9.0,-4.1,1.005683510528274
7.501768791627023,-8.9,-4.138439581351128,1.0615604186488719
7.509766412940058,-8.804006822276659,-4.3120204668299715,1.0959931777233427
7.517764034253093,-8.812514930056484,-4.337544790169447,1.087485069943518
7.525761655566128,-8.821023037836307,-4.363069113508918,1.078976962163694
7.533759276879163,-8.829531145616132,-4.388593436848392,1.0704688543838692
7.541756898192198,-8.838039253395957,-4.4141177601878665,1.0619607466040444
7.549754519505234,-8.84654736117578,-4.439642083527341,1.0534526388242196
7.557752140818269,-8.855055468955605,-4.465166406866816,1.0449445310443948
7.565749762131304,-8.86356357673543,-4.49069073020629,1.03643642326457
7.573747383444339,-8.872071684515255,-4.516215053545764,1.0279283154847452
7.581745004757375,-8.88057979229508,-4.541739376885239,1.0194202077049204
7.58974262607041,-8.889087900074905,-4.567263700224713,1.0109120999250956
7.597740247383445,-8.89759600785473,-4.592788023564188,1.0024039921452708
7.6057378686964805,-8.893292102759272,-4.706707897240729,1.0
7.613735490009516,-8.820586454458947,-4.779413545541054,1.0
7.621733111322551,-8.793333591485405,-4.8,1.0
7.629730732635585,-8.784034031819086,-4.8,1.0
7.637728353948621,-8.774734472152767,-4.8,1.0
7.645725975261656,-8.765434912486446,-4.8,1.0
7.653723596574691,-8.756135352820126,-4.8,1.0
7.6617212178877265,-8.746835793153807,-4.8,1.0
7.669718839200762,-8.737536233487486,-4.8,1.0
7.677716460513797,-8.728236673821165,-4.8,1.0
7.685714081826832,-8.718937114154846,-4.8,1.0
7.693711703139868,-8.709637554488525,-4.8,1.0
7.701709324452903,-8.700337994822204,-4.8,1.0
7.709706945765938,-8.564652711703085,-4.935347288296916,0.9
7.7177045670789735,-8.406482462589743,-4.9,0.8129649251794857
7.725702188392009,-8.415570668627284,-4.9,0.8311413372545658
7.733699809705043,-8.424658874664821,-4.9,0.849317749329644
7.741697431018078,-8.433747080702362,-4.9,0.8674941614047241
7.749695052331114,-8.442835286739902,-4.9,0.8856705734798043
7.757692673644149,-8.451923492777443,-4.9,0.9038469855548845
7.765690294957184,-8.461011698814982,-4.9,0.9220233976299647
7.7736879162702195,-8.470099904852523,-4.9,0.9401998097050448
7.781685537583255,-8.479188110890062,-4.9,0.9583762217801249
7.78968315889629,-8.488276316927603,-4.9,0.9765526338552051
7.797680780209325,-8.497364522965142,-4.9,0.9947290459302852
7.805678401522361,-8.5,-5.267840152236064,1.0
7.813676022835396,-8.5,-5.316507575990098,1.0082537879950493
7.821673644148431,-8.5,-5.3337067616095295,1.0168533808047646
7.829671265461466,-8.5,-5.35090594722896,1.02545297361448
7.837668886774501,-8.5,-5.368105132848388,1.0340525664241944
7.845666508087536,-8.5,-5.38530431846782,1.0426521592339097
7.853664129400571,-8.5,-5.40250350408725,1.051251752043625
7.861661750713607,-8.5,-5.419702689706681,1.0598513448533404
7.869659372026642,-8.5,-5.436901875326112,1.0684509376630558
7.877656993339677,-8.5,-5.4541010609455425,1.077050530472771
7.8856546146527124,-8.5,-5.471300246564973,1.0856501232824864
7.893652235965748,-8.5,-5.488499432184404,1.094249716092202
7.901649857278783,-8.417507136060859,-5.6,1.2
7.909647478591818,-8.2982092624002,-5.8035814751996035,1.098209262400198
7.9176450999048535,-8.289516195755596,-5.820967608488811,1.0895161957555943
7.925642721217889,-8.280823129110992,-5.838353741778018,1.0808231291109909
7.933640342530923,-8.272130062466388,-5.855739875067224,1.072130062466388
7.9416379638439585,-8.263436995821785,-5.873126008356431,1.0634369958217846
7.949635585156994,-8.254743929177181,-5.8905121416456385,1.054743929177181
7.957633206470029,-8.246050862532577,-5.907898274934845,1.0460508625325773
7.965630827783064,-8.237357795887974,-5.925284408224052,1.0373577958879738
7.9736284490961,-8.22866472924337,-5.94267054151326,1.0286647292433702
7.981626070409135,-8.219971662598766,-5.960056674802467,1.0199716625987665
7.98962369172217,-8.211278595954163,-5.977442808091674,1.011278595954163
7.997621313035205,-8.202585529309559,-5.994828941380881,1.0025855293095594
8.00561893434824,-8.123017760862663,-6.176982239137336,0.9230177608626638
8.013616555661276,-7.953834443387243,-6.253834443387243,0.8076688867744858
8.02161417697431,-7.8967726210193705,-6.2,0.7
8.029611798287347,-7.886899014460067,-6.2,0.7
8.037609419600381,-7.877025407900764,-6.2,0.7
8.045607040913417,-7.8671518013414605,-6.2,0.7
8.053604662226451,-7.857278194782158,-6.2,0.7
8.061602283539488,-7.8474045882228545,-6.2,0.7
8.069599904852522,-7.837530981663553,-6.2,0.7
8.077597526165558,-7.827657375104249,-6.2,0.7
8.085595147478593,-7.817783768544947,-6.2,0.7
8.093592768791627,-7.807910161985645,-6.2,0.7
8.101590390104663,-7.720480494766854,-6.120480494766854,0.6204804947668544
8.109588011417697,-7.5205994291151095,-6.676403425309344,0.44119885823021876
8.117585632730734,-7.385200825324196,-7.1,0.08520082532419533
8.125583254043768,-7.367228642598276,-7.1,0.06722864259827507
8.133580875356804,-7.349256459872351,-7.1,0.04925645987235085
8.141578496669839,-7.331284277146431,-7.1,0.0312842771464306
8.149576117982875,-7.313312094420507,-7.1,0.013312094420506362
8.15757373929591,-7.295339911694587,-7.1,-0.004660088305413881
8.165571360608945,-7.277367728968662,-7.1,-0.022632271031338122
8.17356898192198,-7.259395546242742,-7.1,-0.04060445375725835
8.181566603235016,-7.241423363516818,-7.1,-0.05857663648318259
8.18956422454805,-7.223451180790898,-7.1,-0.07654881920910284
8.197561845861085,-7.205478998064977,-7.1,-0.09452100193502308
8.20555946717412,-6.8440532825878995,-7.6559467174121005,-0.023786869648403236
8.213557088487155,-6.595628908568965,-7.806556637146551,-0.6
8.221554709800191,-6.581957761025314,-7.827063358462028,-0.6
8.229552331113226,-6.568286613481665,-7.847570079777501,-0.6
8.237549952426262,-6.554615465938014,-7.868076801092979,-0.6
8.245547573739296,-6.540944318394366,-7.888583522408451,-0.6
8.253545195052332,-6.527273170850714,-7.909090243723929,-0.6
8.261542816365367,-6.513602023307065,-7.929596965039402,-0.6
8.269540437678403,-6.499930875763414,-7.950103686354879,-0.6
8.277538058991437,-6.486259728219765,-7.970610407670352,-0.6
8.285535680304474,-6.472588580676113,-7.99111712898583,-0.6
8.293533301617508,-6.458917433132465,-8.011623850301303,-0.6
8.301530922930542,-6.445246285588816,-8.032130571616776,-0.6
8.309528544243578,-6.431575138045164,-8.052637292932253,-0.6
8.317526165556613,-6.417903990501516,-8.073144014247726,-0.6
8.325523786869649,-6.404232842957864,-8.093650735563203,-0.6
8.333521408182683,-6.1,-8.14785918173165,-0.9564224548050476
8.34151902949572,-6.089102855803304,-8.078205711606609,-1.1108971441966955
8.349516650808754,-6.0775121002771675,-8.055024200554335,-1.122487899722832
8.35751427212179,-6.065921344751028,-8.031842689502056,-1.1340786552489712
8.365511893434824,-6.054330589224892,-8.008661178449785,-1.145669410775108
8.37350951474786,-6.042739833698753,-7.985479667397506,-1.1572601663012472
8.381507136060895,-6.031149078172616,-7.962298156345232,-1.1688509218273837
8.389504757373931,-6.019558322646477,-7.9391166452929545,-1.1804416773535231
8.397502378686966,-6.00796756712034,-7.915935134240681,-1.1920324328796597
8.4055,-5.974999999999978,-8.57499999999989,-1.2250000000000223
8.413497621313036,-6.0,-8.550047573739285,-1.5748810656517855
8.42149524262607,-5.5,-7.806317069939418,-2.196841465030291
8.429492863939107,-5.5,-7.826564212504066,-2.186717893747967
8.437490485252141,-5.5,-7.846811355068711,-2.1765943224656445
8.445488106565177,-5.5,-7.8670584976333595,-2.1664707511833203
8.453485727878212,-5.5,-7.887305640198004,-2.156347179900998
8.461483349191248,-5.5,-7.907552782762653,-2.1462236086186737
8.469480970504282,-5.5,-7.927799925327297,-2.1361000373363517
8.477478591817318,-5.5,-7.948047067891946,-2.125976466054027
8.485476213130353,-5.5,-7.96829421045659,-2.115852894771705
8.493473834443389,-5.5,-7.9885413530212395,-2.1057293234893804
8.501471455756423,-5.615715191880794,-8.0,-2.2157151918807934
8.509469077069458,-5.194632441153352,-7.689264882306705,-2.705367558846648
8.517466698382494,-5.177246307864143,-7.654492615728286,-2.722753692135857
8.525464319695528,-5.159860174574939,-7.619720349149876,-2.7401398254250617
8.533461941008564,-5.1424740412857295,-7.584948082571459,-2.757525958714271
8.541459562321599,-5.125087907996524,-7.5501758159930485,-2.774912092003476
8.549457183634635,-5.107701774707316,-7.51540354941463,-2.7922982252926847
8.55745480494767,-5.09031564141811,-7.48063128283622,-2.80968435858189
8.565452426260705,-5.072929508128901,-7.445859016257803,-2.827070491871099
8.57345004757374,-5.055543374839696,-7.411086749679392,-2.844456625160304
8.581447668886776,-5.038157241550487,-7.376314483100974,-2.8618427584495127
8.58944529019981,-5.0207711082612825,-7.341542216522564,-2.879228891738718
8.597442911512847,-5.003384974972073,-7.306769949944146,-2.896615025027927
8.605440532825881,-4.38392007611781,-7.439866793529683,-3.3
8.613438154138915,-4.268681456257198,-7.323488907807101,-3.3234889078071013
8.621435775451951,-4.235007261254941,-7.348744554058794,-3.3487445540587943
8.629433396764986,-4.201333066252691,-7.374000200310482,-3.3740002003104816
8.637431018078022,-4.167658871250434,-7.399255846562174,-3.3992558465621747
8.645428639391056,-4.1339846762481836,-7.424511492813862,-3.424511492813862
8.653426260704093,-4.100310481245927,-7.449767139065555,-3.449767139065555
8.661423882017127,-4.066636286243677,-7.475022785317242,-3.4750227853172424
8.669421503330163,-4.032962091241419,-7.500278431568935,-3.5002784315689355
8.677419124643198,-3.99928789623917,-7.525534077820622,-3.525534077820623
8.685416745956234,-3.9656137012369124,-7.550789724072315,-3.550789724072316
8.693414367269268,-3.9319395062346625,-7.576045370324002,-3.576045370324003
8.701411988582304,-3.9,-7.476403425308811,-3.723596574691189
8.709409609895339,-4.593363463368292,-6.021051379638674,-3.470480494766899
8.717407231208373,-4.717697431018086,-6.724690770694574,-3.5
8.72540485252141,-4.628834971984351,-6.751349508404695,-3.5
8.733402473834444,-4.539972512950636,-6.778008246114809,-3.5
8.74140009514748,-4.451110053916901,-6.80466698382493,-3.5
8.749397716460514,-4.362247594883185,-6.831325721535045,-3.5
8.75739533777355,-4.27338513584945,-6.857984459245165,-3.5
8.765392959086585,-4.184522676815734,-6.88464319695528,-3.5
8.77339058039962,-4.095660217781999,-6.9113019346654,-3.5
8.781388201712655,-4.0067977587482835,-6.937960672375515,-3.5
8.789385823025691,-3.9179352997145482,-6.964619410085636,-3.5
8.797383444338726,-3.8290728406808325,-6.99127814779575,-3.5
8.80538106565176,-3.7190532825880043,-7.800970504281614,-5.019053282588004
8.813378686964796,-3.8572787821122145,-8.771360608943892,-5.3951474785918565
8.82137630827783,-3.287107516650746,-9.07526165556617,-5.643553758325373
8.829373929590867,-2.8165556612749776,-9.284110371075155,-5.366888677450045
8.837371550903901,-2.8373287036464956,-9.13869907447453,-5.325342592707009
8.845369172216937,-2.858101746018018,-8.993287777873872,-5.283796507963964
8.853366793529972,-2.878874788389536,-8.847876481273246,-5.242250423220928
8.861364414843008,-2.8996478307610585,-8.70246518467259,-5.200704338477883
8.869362036156042,-2.9204208731325765,-8.557053888071964,-5.159158253734847
8.877359657469079,-2.941193915504099,-8.411642591471306,-5.117612168991802
8.885357278782113,-2.961966957875617,-8.266231294870682,-5.076066084248766
8.893354900095149,-2.9827400002471394,-8.120819998270024,-5.034519999505721
8.901352521408183,-2.9942435775449407,-9.111869647954117,-5.617626070409176
8.909350142721218,-2.6974785918173136,-8.462464319695522,-5.564985727878209
8.917347764034254,-2.631267080996825,-8.276549689252382,-5.523450310747619
8.925345385347288,-2.6652995121161207,-8.251025365912911,-5.548974634087091
8.933343006660325,-2.699331943235424,-8.225501042573432,-5.5744989574265675
8.941340627973359,-2.733364374354719,-8.19997671923396,-5.600023280766039
8.949338249286395,-2.7673968054740223,-8.174452395894484,-5.625547604105517
8.95733587059943,-2.8014292365933176,-8.148928072555012,-5.651071927444988
8.965333491912466,-2.8354616677126208,-8.123403749215536,-5.676596250784465
8.9733311132255,-2.869494098831916,-8.097879425876064,-5.702120574123937
8.981328734538536,-2.903526529951219,-8.072355102536585,-5.727644897463414
8.98932635585157,-2.937558961070515,-8.046830779197114,-5.753169220802886
8.997323977164607,-2.9715913921898176,-8.021306455857637,-5.778693544142363
9.005321598477641,-3.0,-7.4052806850614905,-5.0731208372973775
9.013319219790676,-3.771335485733214,-7.631270379200129,-3.9130293246667205
9.021316841103712,-3.672488480740633,-7.739103475555672,-3.9579597814815304
9.029314462416746,-3.5736414757480737,-7.846936571911192,-4.00289023829633
9.037312083729782,-3.4747944707554925,-7.954769668266735,-4.04782069511114
9.045309705042817,-3.375947465762933,-8.062602764622255,-4.092751151925939
9.053307326355853,-3.277100460770352,-8.170435860977799,-4.137681608740749
9.061304947668887,-3.1782534557777926,-8.278268957333317,-4.182612065555549
9.069302568981923,-3.079406450785211,-8.38610205368886,-4.227542522370359
9.077300190294958,-2.980559445792652,-8.493935150044381,-4.272472979185158
9.085297811607994,-2.8817124408000705,-8.601768246399924,-4.317403435999968
9.093295432921028,-2.782865435807511,-8.709601342755443,-4.362333892814768
9.101293054234064,-2.5439581351095586,-9.526736441484069,-4.014652711703186
9.109290675547099,-3.6035007186671266,-8.571994250662987,-4.0035007186671265
9.117288296860133,-3.6120088264469503,-8.503929388424396,-4.012008826446951
9.12528591817317,-3.6205169342267762,-8.43586452618579,-4.020516934226776
9.133283539486204,-3.6290250420066004,-8.3677996639472,-4.0290250420066
9.14128116079924,-3.637533149786426,-8.299734801708594,-4.037533149786426
9.149278782112274,-3.64604125756625,-8.231669939470002,-4.04604125756625
9.15727640342531,-3.6545493653460754,-8.163605077231397,-4.054549365346075
9.165274024738345,-3.6630574731258996,-8.095540214992806,-4.063057473125899
9.173271646051381,-3.671565580905725,-8.0274753527542,-4.071565580905725
9.181269267364415,-3.680073688685549,-7.959410490515609,-4.080073688685548
9.189266888677452,-3.6885817964653747,-7.891345628277002,-4.088581796465374
9.197264509990486,-3.697089904245199,-7.823280766038412,-4.097089904245198
9.205262131303522,-3.7584681255946957,-7.858468125594696,-4.041531874405304
9.213259752616556,-3.7,-7.870871279053925,-4.267717819763481
9.22125737392959,-3.9028217174119892,-7.5,-3.9887131303520427
9.229254995242627,-3.9128187440532844,-7.5,-3.948725023786862
9.237252616555661,-3.9228157706945774,-7.5,-3.90873691722169
9.245250237868698,-3.9328127973358726,-7.5,-3.868748810656509
9.253247859181732,-3.9428098239771656,-7.5,-3.828760704091337
9.261245480494768,-3.952806850618461,-7.5,-3.7887725975261564
9.269243101807803,-3.962803877259754,-7.5,-3.748784490960985
9.277240723120839,-3.972800903901049,-7.5,-3.708796384395804
9.285238344433873,-3.982797930542342,-7.5,-3.668808277830632
9.29323596574691,-3.992794957183637,-7.5,-3.6288201712654513
9.301233587059944,-3.986040080875349,-7.5558396764986036,-3.5720801617506983
9.30923120837298,-3.936054947668873,-7.755780209324508,-3.4721098953377463
9.317228829686014,-4.168648905804241,-7.877117031398587,-3.5771170313985863
9.325226450999049,-4.473867745004759,-8.113066127497621,-3.7
9.333224072312085,-4.433879638439578,-8.13306018078021,-3.7
9.34122169362512,-4.393891531874406,-8.153054234062797,-3.7
9.349219314938155,-4.353903425309225,-8.173048287345388,-3.7
9.35721693625119,-4.313915318744053,-8.193042340627974,-3.7
9.365214557564226,-4.273927212178872,-8.213036393910564,-3.7
9.37321217887726,-4.2339391056137,-8.23303044719315,-3.7
9.381209800190296,-4.1939509990485195,-8.25302450047574,-3.7
9.38920742150333,-4.153962892483348,-8.273018553758327,-3.7
9.397205042816367,-4.113974785918167,-8.293012607040916,-3.7
9.405202664129401,-4.440532825880341,-8.22026641294017,-3.5405328258803412
9.413200285442437,-4.569031030355109,-8.307742242411223,-3.7077422424112227
9.421197906755472,-4.5346326591162525,-8.316341835220937,-3.716341835220937
9.429195528068506,-4.500234287877395,-8.324941428030652,-3.724941428030651
9.437193149381542,-4.46583591663853,-8.333541020840368,-3.7335410208403674
9.445190770694577,-4.431437545399672,-8.342140613650082,-3.742140613650082
9.453188392007613,-4.397039174160807,-8.350740206459799,-3.750740206459798
9.461186013320647,-4.362640802921949,-8.359339799269513,-3.7593397992695126
9.469183634633684,-4.328242431683084,-8.36793939207923,-3.767939392079229
9.477181255946718,-4.2938440604442265,-8.376538984888944,-3.7765389848889432
9.485178877259754,-4.259445689205362,-8.38513857769866,-3.7851385776986595
9.493176498572788,-4.225047317966504,-8.393738170508374,-3.793738170508374
9.501174119885825,-4.334823977164843,-7.958705994291211,-3.4651760228351565
9.509171741198859,-4.694556061895938,-8.294556061895937,-3.0945560618959376
9.517169362511895,-4.686137513145373,-8.286137513145373,-3.086137513145373
9.52516698382493,-4.677718964394811,-8.277718964394811,-3.0777189643948106
9.533164605137964,-4.669300415644249,-8.26930041564425,-3.0693004156442485
9.541162226451,-4.660881866893684,-8.260881866893683,-3.060881866893684
9.549159847764034,-4.652463318143122,-8.252463318143121,-3.0524633181431216
9.55715746907707,-4.644044769392557,-8.244044769392557,-3.044044769392557
9.565155090390105,-4.635626220641995,-8.235626220641995,-3.0356262206419946
9.573152711703141,-4.62720767189143,-8.22720767189143,-3.0272076718914303
9.581150333016176,-4.618789123140868,-8.218789123140867,-3.018789123140868
9.589147954329212,-4.610370574390303,-8.210370574390303,-3.0103705743903038
9.597145575642246,-4.601952025639741,-8.20195202563974,-3.001952025639741
9.605143196955282,-4.6,-8.384295908658466,-3.0614319695528223
9.613140818268317,-4.6,-8.638027275610552,-3.0079818162596323
9.621138439581353,-4.8,-7.8015461465263645,-2.5846098953383105
9.629136060894387,-4.8,-7.518297592036891,-2.8
9.637133682207422,-4.8,-7.5388043133523635,-2.8
9.645131303520458,-4.8,-7.559311034667841,-2.8
9.653128924833492,-4.8,-7.579817755983314,-2.8
9.661126546146528,-4.8,-7.600324477298792,-2.8
9.669124167459563,-4.8,-7.6208311986142645,-2.8
9.677121788772599,-4.8,-7.641337919929742,-2.8
9.685119410085633,-4.8,-7.6618446412452155,-2.8
9.69311703139867,-4.8,-7.682351362560692,-2.8
9.701114652711704,-5.388534728829664,-7.9,-3.0114652711703362
9.70911227402474,-4.996653468790601,-8.133465312093984,-3.186613875162407
9.717109895337774,-4.988053875980888,-8.219461240191126,-3.152215503923549
9.725107516650809,-4.979454283171173,-8.305457168288271,-3.1178171326846917
9.733105137963845,-4.970854690361457,-8.391453096385433,-3.0834187614458264
9.74110275927688,-4.9622550975517425,-8.477449024482578,-3.0490203902069686
9.749100380589915,-4.953655504742026,-8.563444952579742,-3.0146220189681032
9.75709800190295,-4.945055911932312,-8.649440880676885,-2.980223647729246
9.765095623215986,-4.936456319122596,-8.735436808774049,-2.9458252764903805
9.77309324452902,-4.927856726312881,-8.821432736871191,-2.911426905251523
9.781090865842057,-4.919257133503165,-8.907428664968355,-2.877028534012658
9.789088487155091,-4.9106575406934505,-8.9934245930655,-2.8426301627738
9.797086108468127,-4.902057947883734,-9.079420521162662,-2.8082317915349346
9.805083729781161,-4.520694576593361,-8.374881065651453,-2.6167459562323647
9.813081351094198,-4.2,-8.15330049210687,-2.8152287120305344
9.821078972407232,-4.2,-8.213497641774872,-2.832427897649963
9.829076593720266,-4.2,-8.273694791442871,-2.8496270832693917
9.837074215033303,-4.2,-8.333891941110886,-2.8668262688888246
9.845071836346337,-4.2,-8.394089090778888,-2.884025454508253
9.853069457659373,-4.2,-8.454286240446901,-2.901224640127686
9.861067078972408,-4.2,-8.514483390114902,-2.918423825747115
9.869064700285444,-4.2,-8.574680539782916,-2.9356230113665474
9.877062321598478,-4.2,-8.634877689450917,-2.9528221969859763
9.885059942911514,-4.2,-8.69507483911893,-2.9700213826054087
9.893057564224549,-4.2,-8.755271988786932,-2.9872205682248376
9.901055185537585,-4.4,-8.422740247380972,-2.455851569931984
9.90905280685062,-4.206565176022836,-8.222978116079924,-1.916412940057089
9.917050428163655,-4.223764361642268,-8.28317526574794,-1.9594109041056706
9.92504804947669,-4.240963547261697,-8.343372415415939,-2.0024088681542427
9.933045670789724,-4.258162732881126,-8.40356956508394,-2.0454068322028145
9.94104329210276,-4.2753619185005585,-8.463766714751955,-2.088404796251396
9.949040913415795,-4.292561104119987,-8.523963864419954,-2.1314027602999683
9.95703853472883,-4.30976028973942,-8.58416101408797,-2.1744007243485495
9.965036156041865,-4.326959475358849,-8.644358163755971,-2.2173986883971217
9.973033777354901,-4.344158660978282,-8.704555313423985,-2.2603966524457033
9.981031398667936,-4.36135784659771,-8.764752463091986,-2.303394616494275
9.989029019980972,-4.378557032217143,-8.82494961276,-2.3463925805428567
9.997026641294006,-4.3957562178365714,-8.885146762428,-2.3893905445914285
10.005024262607042,-4.582928956549285,-9.102426260704288,-1.8024262607042874
10.013021883920077,-4.5095427913265596,-9.647713956632796,-2.303180930442186
10.021019505233113,-4.534798437578252,-9.77399218789126,-2.3115994791927506
10.029017126546147,-4.5600540838299395,-9.900270419149697,-2.320018027943313
10.037014747859182,-4.585309730081627,-10.026548650408134,-2.3284365766938753
10.045012369172218,-4.610565376333319,-10.152826881666599,-2.3368551254444396
10.053009990485252,-4.635821022585007,-10.279105112925036,-2.345273674195002
10.061007611798289,-4.6610766688367,-10.4053833441835,-2.3536922229455666
10.069005233111323,-4.6863323150883875,-10.531661575441937,-2.362110771696129
10.077002854424359,-4.71158796134008,-10.657939806700401,-2.3705293204466935
10.085000475737393,-4.7368436075917675,-10.784218037958839,-2.3789478691972556
10.09299809705043,-4.762099253843461,-10.910496269217305,-2.38736641794782
10.100995718363464,-4.787354900095148,-11.03677450047574,-2.3957849666983826
10.1089933396765,-4.549000951475025,-9.498667935300034,-1.747002854425075
10.116990960989535,-4.50680791021538,-10.409378513969374,-1.4319208978462052
10.12498858230257,-4.515896116252921,-10.154908744918222,-1.3410388374707933
10.132986203615605,-4.52498432229046,-9.900438975867125,-1.2501567770954018
10.14098382492864,-4.534072528327999,-9.645969206816028,-1.1592747167200101
10.148981446241676,-4.54316073436554,-9.391499437764875,-1.0683926563445985
10.15697906755471,-4.5522489404030795,-9.13702966871378,-0.9775105959692069
10.164976688867746,-4.5613371464406205,-8.882559899662626,-0.8866285355937951
10.17297431018078,-4.57042535247816,-8.628090130611529,-0.7957464752184035
10.180971931493817,-4.579513558515701,-8.373620361560377,-0.7048644148429917
10.188969552806851,-4.58860176455324,-8.11915059250928,-0.6139823544676001
10.196967174119887,-4.597689970590781,-7.864680823458127,-0.5231002940921884
10.204964795432922,-4.6,-8.17392959086467,0.26479543292158536
10.212962416745958,-4.5839143096041255,-8.15629991638556,0.3241285355938114
10.220960038058992,-4.567757498870723,-8.21284875395247,0.34836375169391554
10.228957659372028,-4.5516006881373166,-8.269397591519391,0.372598967794025
10.236955280685063,-4.535443877403914,-8.3259464290863,0.39683418389412917
10.244952901998097,-4.519287066670511,-8.382495266653212,0.4210693999942333
10.252950523311133,-4.503130255937105,-8.439044104220134,0.4453046160943429
10.260948144624168,-4.486973445203702,-8.495592941787043,0.46953983219444706
10.268945765937204,-4.470816634470296,-8.552141779353965,0.49377504829455654
10.276943387250238,-4.454659823736893,-8.608690616920875,0.5180102643946607
10.284941008563274,-4.438503013003487,-8.665239454487798,0.5422454804947703
10.292938629876309,-4.422346202270084,-8.721788292054708,0.5664806965948743
10.300936251189345,-4.406189391536678,-8.77833712962163,0.5907159126949839
10.30893387250238,-4.4,-6.769433872500951,1.4735490009520187
10.316931493815416,-4.277977018224365,-8.225287272195443,1.6830344726634532
10.32492911512845,-4.184783817514542,-9.104898859465884,1.8608647299418335
10.332926736441486,-4.143237732771497,-8.845235829821853,2.0270490689140135
10.34092435775452,-4.101691648028461,-8.58557280017788,2.1932334078861566
10.348921979067555,-4.060145563285425,-8.325909770533906,2.3594177468583
10.356919600380591,-4.01859947854238,-8.066246740889875,2.5256020858304797
10.364917221693625,-3.977053393799344,-7.806583711245901,2.6917864248026233
10.372914843006662,-3.935507309056299,-7.54692068160187,2.8579707637748033
10.380912464319696,-3.893961224313263,-7.287257651957896,3.0241551027469464
10.388910085632732,-3.852415139570218,-7.027594622313865,3.190339441719127
10.396907706945766,-3.810869054827182,-6.767931592669891,3.35652378069127
10.404905328258803,-3.735799238820366,-6.335799238820366,5.114795432922193
10.412902949571837,-3.9074225264213296,-6.455464841472023,6.1296901056853175
10.420900570884873,-3.916022119231046,-6.4038672846137255,6.164088476924183
10.428898192197908,-3.9246217120407603,-6.352269727755439,6.198486848163041
10.436895813510944,-3.9332213048504765,-6.3006721708971405,6.232885219401906
10.444893434823978,-3.941820897660191,-6.249074614038855,6.267283590640764
10.452891056137013,-3.9504204904699054,-6.197477057180568,6.301681961879622
10.460888677450049,-3.9590200832796216,-6.145879500322271,6.3360803331184865
10.468886298763083,-3.967619676089336,-6.094281943463984,6.370478704357344
10.47688392007612,-3.9762192688990523,-6.0426843866056865,6.404877075596209
10.484881541389154,-3.9848188617087668,-5.9910868297474,6.439275446835067
10.49287916270219,-3.993418454518483,-5.9394892728891024,6.473673818073932
10.500876784015224,-3.906160799238767,-6.275356803044932,6.687678401522466
10.50887440532826,-3.706181516834968,-6.687636966330064,5.540179859427292
10.516872026641295,-3.723380702454397,-6.6532385950912065,5.651974565953579
10.52486964795433,-3.7405798880738295,-6.618840223852342,5.763769272479891
10.532867269267365,-3.7577790736932584,-6.584441852613484,5.875563979006178
10.540864890580401,-3.774978259312691,-6.550043481374619,5.98735868553249
10.548862511893436,-3.7921774449321197,-6.515645110135761,6.099153392058778
10.55686013320647,-3.809376630551548,-6.481246738896903,6.210948098585065
10.564857754519506,-3.826575816170981,-6.446848367658038,6.3227428051113765
10.57285537583254,-3.8437750017904095,-6.412449996419181,6.4345375116376635
10.580852997145577,-3.8609741874098424,-6.378051625180315,6.546332218163975
10.588850618458611,-3.878173373029271,-6.343653253941458,6.658126924690262
10.596848239771647,-3.895372558648704,-6.309254882702592,6.769921631216574
10.604845861084682,-5.0419124643212,-5.850190294956459,5.538725023785866
10.612843482397718,-6.416035419416178,-5.180944415456881,4.65453024769041
10.620841103710752,-6.201045599173319,-5.27553993636374,4.835121696694412
10.628838725023789,-5.986055778930411,-5.370135457270619,5.015713145698455
10.636836346336823,-5.771065958687551,-5.464730978177477,5.196304594702457
10.64483396764986,-5.556076138444643,-5.5593264990843565,5.376896043706499
10.652831588962894,-5.341086318201784,-5.6539220199912155,5.557487492710502
10.660829210275928,-5.126096497958923,-5.7485175408980735,5.7380789417145035
10.668826831588964,-4.911106677716016,-5.843113061804953,5.918670390718546
10.676824452901998,-4.6961168574731555,-5.937708582711811,6.099261839722549
10.684822074215035,-4.481127037230248,-6.03230410361869,6.279853288726591
10.692819695528069,-4.266137216987389,-6.126899624525549,6.460444737730594
10.700817316841105,-4.826926736441881,-6.109134157944765,6.236536631779059
10.70881493815414,-4.201033647608557,-6.1326442349276284,6.432644234927629
10.716812559467176,-3.7877714805774985,-6.506114259711251,6.027514168700629
10.72481018078021,-3.7529992139990878,-6.5235003930004565,6.105751768502053
10.732807802093246,-3.718226947420669,-6.540886526289666,6.183989368303495
10.74080542340628,-3.6834546808422584,-6.558272659578871,6.262226968104919
10.748803044719317,-3.6486824142638397,-6.57565879286808,6.340464567906361
10.756800666032351,-3.613910147685429,-6.593044926157286,6.418702167707785
10.764798287345386,-3.579137881107018,-6.6104310594464915,6.496939767509209
10.772795908658422,-3.5443656145285996,-6.627817192735701,6.575177367310651
10.780793529971456,-3.5095933479501884,-6.645203326024906,6.6534149671120755
10.788791151284492,-3.47482108137177,-6.662589459314115,6.731652566913517
10.796788772597527,-3.440048814793359,-6.679975592603321,6.8098901667149425
10.804786393910563,-3.4052765482149407,-6.69736172589253,6.888127766516384
10.812784015223597,-3.5080183375140686,-6.690199809705027,7.189308883314575
10.820781636536633,-3.5898121918519377,-6.590229543292076,7.080250410864084
10.828779257849668,-3.6716060461897886,-6.490259276879147,6.971191938413615
10.836776879162704,-3.7533999005276573,-6.390289010466197,6.862133465963123
10.844774500475738,-3.835193754865508,-6.290318744053268,6.753074993512656
10.852772121788773,-3.916987609203359,-6.190348477640339,6.644016521062188
10.860769743101809,-3.998781463541228,-6.090378211227388,6.5349580486116965
10.868767364414843,-4.080575317879079,-5.990407944814459,6.425899576161228
10.87676498572788,-4.162369172216948,-5.890437678401509,6.316841103710736
10.884762607040914,-4.244163026554799,-5.79046741198858,6.207782631260269
10.89276022835395,-4.325956880892668,-5.690497145575629,6.098724158809777
10.900757849666984,-4.362107516650779,-5.713677450047663,6.113677450047663
10.90875547098002,-4.048905803995842,-5.975547098002079,7.026641294006238
10.916753092293055,-4.654236765850697,-5.345763234149303,7.0
10.924750713606091,-4.5906193235879105,-5.4093806764120895,7.0
10.932748334919125,-4.527001881325138,-5.472998118674862,7.0
10.940745956232162,-4.4633844390623505,-5.5366155609376495,7.0
10.948743577545196,-4.399766996799578,-5.600233003200422,7.0
10.95674119885823,-4.336149554536805,-5.663850445463195,7.0
10.964738820171267,-4.272532112274018,-5.727467887725982,7.0
10.972736441484301,-4.208914670011245,-5.791085329988755,7.0
10.980734062797337,-4.145297227748458,-5.854702772251542,7.0
10.988731684110371,-4.081679785485685,-5.918320214514315,7.0
10.996729305423408,-4.018062343222898,-5.981937656777102,7.0
11.004726926736442,-4.490879434552149,-5.18186760907975,6.427307326355825
11.012724548049478,-4.494120858922231,-5.009798568462949,7.186282004151872
11.020722169362513,-4.466856240809614,-5.055239598650643,7.122664561889099
11.028719790675549,-4.439591622696991,-5.100680628838348,7.059047119626312
11.036717411988583,-4.412327004584374,-5.1461216590260435,6.995429677363539
11.04471503330162,-4.385062386471751,-5.1915626892137485,6.931812235100752
11.052712654614654,-4.357797768359134,-5.237003719401443,6.86819479283798
11.060710275927688,-4.330533150246517,-5.282444749589138,6.804577350575207
11.068707897240724,-4.303268532133894,-5.327885779776843,6.74095990831242
11.076705518553759,-4.2760039140212776,-5.373326809964538,6.677342466049647
11.084703139866795,-4.2487392959086545,-5.418767840152243,6.61372502378686
11.09270076117983,-4.221474677796038,-5.464208870339938,6.550107581524087
11.100698382492865,-4.115080875356771,-6.00951474785937,7.179352997145827
11.1086960038059,-4.330880114176971,-5.022559467174138,7.06911988582303
11.116693625118936,-4.206413393140322,-5.983966517149196,6.922446875991127
11.12469124643197,-4.225455348647547,-5.936361628381134,6.989093720266413
11.132688867745006,-4.244497304154776,-5.888756739613061,7.055740564541715
11.14068648905804,-4.263539259662001,-5.841151850844999,7.122387408817001
11.148684110371077,-4.2825812151692295,-5.793546962076927,7.189034253092303
11.156681731684111,-4.3016231706764545,-5.745942073308864,7.25568109736759
11.164679352997146,-4.3206651261836795,-5.698337184540803,7.322327941642877
11.172676974310182,-4.339707081690908,-5.6507322957727295,7.388974785918179
11.180674595623216,-4.358749037198133,-5.603127407004668,7.455621630193465
11.188672216936252,-4.377790992705362,-5.555522518236595,7.522268474468767
11.196669838249287,-4.396832948212587,-5.507917629468533,7.5889153187440535
11.204667459562323,-4.201736937044087,-5.698263062955913,6.398263062955913
11.212665080875357,-4.210067792578498,-5.689932207421502,6.389932207421502
11.220662702188394,-4.2183986481129105,-5.68160135188709,6.38160135188709
11.228660323501428,-4.226729503647322,-5.6732704963526785,6.373270496352679
11.236657944814464,-4.235060359181734,-5.6649396408182655,6.364939640818266
11.244655566127499,-4.243391214716145,-5.656608785283855,6.356608785283855
11.252653187440535,-4.251722070250557,-5.648277929749442,6.348277929749442
11.260650808753569,-4.260052925784969,-5.639947074215032,6.339947074215032
11.268648430066603,-4.268383781319379,-5.6316162186806205,6.331616218680621
11.27664605137964,-4.276714636853792,-5.623285363146208,6.3232853631462085
11.284643672692674,-4.285045492388202,-5.614954507611797,6.314954507611797
11.29264129400571,-4.2933763479226155,-5.606623652077384,6.306623652077384
11.300638915318745,-3.8083254043766495,-4.288867745004399,6.6277830637489
11.30863653663178,-4.297165014374428,-4.239689798758002,6.068815158118713
11.316634157944815,-4.288565421564714,-4.360084098094004,5.974219637211855
11.324631779257851,-4.279965828754998,-4.480478397430032,5.879624116304975
11.332629400570886,-4.271366235945283,-4.600872696766033,5.785028595398116
11.340627021883922,-4.262766643135567,-4.721266996102061,5.690433074491237
11.348624643196956,-4.254167050325853,-4.841661295438063,5.595837553584379
11.356622264509992,-4.245567457516136,-4.962055594774091,5.501242032677499
11.364619885823027,-4.236967864706422,-5.082449894110093,5.406646511770641
11.372617507136061,-4.2283682718967075,-5.202844193446094,5.312050990863783
11.380615128449097,-4.219768679086991,-5.323238492782123,5.217455469956904
11.388612749762132,-4.211169086277277,-5.443632792118124,5.122859949050046
11.396610371075168,-4.202569493467561,-5.564027091454152,5.028264428143165
11.404607992388202,-3.7696003805898948,-9.691198858230315,1.030399619410105
11.412605613701238,-3.728411241725754,-9.800560653959861,1.1071028104314387
11.420603235014273,-3.762809612964612,-9.680166354623859,1.1157024032411529
11.428600856327309,-3.7972079842034767,-9.559772055287832,1.1243019960508693
11.436598477640343,-3.8316063554423345,-9.43937775595183,1.1329015888605836
11.44459609895338,-3.8660047266811994,-9.318983456615802,1.1415011816703
11.452593720266414,-3.9004030979200572,-9.1985891572798,1.1501007744800142
11.46059134157945,-3.934801469158922,-9.078194857943771,1.1587003672897307
11.468588962892484,-3.96919984039778,-8.95780055860777,1.167299960099445
11.476586584205519,-4.003598211636637,-8.837406259271768,1.1758995529091594
11.484584205518555,-4.037996582875502,-8.71701195993574,1.1844991457188756
11.49258182683159,-4.07239495411436,-8.596617660599739,1.19309873852859
11.500579448144626,-4.494862036156459,-8.736917221693876,0.5682207421496651
11.50857706945766,-4.263241357437326,-8.884189660640669,0.2316206787186629
11.516574690770696,-4.208506184586086,-9.67769743101827,-0.20850618458608583
11.52457231208373,-4.103340665043805,-10.499780048685835,-0.07661534469336172
11.532569933396767,-4.113727186229567,-10.188184413112998,-0.00390969639303293
11.540567554709801,-4.124113707415326,-9.87658877754023,0.06879595190727972
11.548565176022837,-4.134500228601087,-9.564993141967392,0.1415016002076085
11.556562797335872,-4.144886749786846,-9.253397506394624,0.21420724850792114
11.564560418648908,-4.155273270972607,-8.941801870821786,0.28691289680824994
11.572558039961942,-4.165659792158366,-8.630206235249018,0.3596185451085626
11.580555661274976,-4.176046313344125,-8.318610599676248,0.4323241934088752
11.588553282588013,-4.186432834529886,-8.007014964103412,0.5050298417092041
11.596550903901047,-4.196819355715645,-7.695419328530642,0.5777354900095166
11.604548525214083,-4.3451474785916675,-9.509705042816664,-0.9194100856333297
11.612546146527118,-4.3,-9.6,-1.1079433121338078
11.620543767840154,-4.3,-9.6,-1.1163618608843722
11.628541389153188,-4.3,-9.6,-1.1247804096349348
11.636539010466224,-4.3,-9.6,-1.1331989583854993
11.644536631779259,-4.3,-9.6,-1.141617507136062
11.652534253092295,-4.3,-9.6,-1.1500360558866263
11.66053187440533,-4.3,-9.6,-1.1584546046371889
11.668529495718365,-4.3,-9.6,-1.1668731533877534
11.6765271170314,-4.3,-9.6,-1.175291702138316
11.684524738344434,-4.3,-9.6,-1.1837102508888786
11.69252235965747,-4.3,-9.6,-1.1921287996394432
11.700519980970505,-4.3,-9.340009514747603,-1.4079923882019174
11.70851760228354,-4.0,-9.396479543291894,-1.3294005708851309
11.716515223596575,-4.029281903804829,-9.085359048097585,-1.7073204759512073
11.724512844909611,-4.065226269256677,-9.067386865371661,-1.7163065673141693
11.732510466222646,-4.101170634708518,-9.049414682645741,-1.7252926586771296
11.740508087535682,-4.1371150001603665,-9.031442499919816,-1.7342787500400916
11.748505708848716,-4.1730593656122075,-9.013470317193896,-1.7432648414030518
11.756503330161753,-4.209003731064056,-8.995498134467972,-1.7522509327660138
11.764500951474787,-4.2449480965158966,-8.977525951742052,-1.761237024128974
11.772498572787821,-4.280892461967737,-8.959553769016132,-1.7702231154919341
11.780496194100857,-4.316836827419586,-8.941581586290207,-1.7792092068548964
11.788493815413892,-4.352781192871426,-8.923609403564287,-1.7881952982178564
11.796491436726928,-4.388725558323275,-8.905637220838363,-1.7971813895808186
11.804489058039962,-4.453282588011279,-9.32664129400564,-1.9755470980018799
11.812486679352999,-4.0418495442129,-9.037225683680651,-1.9069749240354832
11.820484300666033,-4.0934471010711855,-8.959829348393221,-1.9155745168451976
11.82848192197907,-4.145044657929484,-8.882433013105775,-1.9241741096549139
11.836479543292104,-4.1966422147877696,-8.805036677818345,-1.9327737024646283
11.84447716460514,-4.248239771646068,-8.727640342530897,-1.9413732952743445
11.852474785918174,-4.299837328504354,-8.650244007243469,-1.949972888084059
11.86047240723121,-4.351434885362652,-8.572847671956021,-1.9585724808937752
11.868470028544245,-4.403032442220939,-8.49545133666859,-1.9671720737034897
11.876467649857279,-4.454629999079224,-8.418055001381163,-1.9757716665132041
11.884465271170315,-4.506227555937523,-8.340658666093715,-1.9843712593229204
11.89246289248335,-4.5578251127958085,-8.263262330806286,-1.9929708521326348
11.900460513796386,-4.681139655354806,-8.102632413574232,-1.9026324135742327
11.90845813510942,-5.1,-7.783254043768182,-1.4916270218840912
11.916455756422456,-5.224393574746749,-7.975606425253251,-1.912196787373374
11.92445337773549,-5.280847372250522,-7.919152627749479,-1.9404236861252606
11.932450999048527,-5.337301169754307,-7.8626988302456935,-1.9686505848771532
11.940448620361561,-5.393754967258079,-7.806245032741921,-1.9968774836290397
11.948446241674597,-5.450208764761864,-7.749791235238136,-2.0251043823809325
11.956443862987632,-5.506662562265637,-7.693337437734363,-2.053331281132819
11.964441484300668,-5.563116359769422,-7.636883640230578,-2.0815581798847114
11.972439105613702,-5.619570157273195,-7.580429842726805,-2.1097850786365977
11.980436726926737,-5.6760239547769675,-7.523976045223032,-2.138011977388484
11.988434348239773,-5.7324777522807535,-7.467522247719247,-2.166238876140377
11.996431969552807,-5.788931549784526,-7.411068450215474,-2.1944657748922634
12.004429590865843,-5.871122740247164,-5.457040913415721,-2.685561370123582
12.012427212178878,-5.7,-5.471111605967972,-2.4735793671680506
12.020424833491914,-5.7,-5.547684575986404,-2.3374496426908387
12.028422454804948,-5.7,-5.624257546004818,-2.2013199182136565
12.036420076117984,-5.7,-5.700830516023251,-2.0651901937364445
12.044417697431019,-5.7,-5.777403486041665,-1.9290604692592626
12.052415318744055,-5.7,-5.853976456060097,-1.7929307447820504
12.06041294005709,-5.7,-5.930549426078511,-1.6568010203048686
12.068410561370126,-5.7,-6.0071223960969435,-1.5206712958276565
12.07640818268316,-5.7,-6.083695366115358,-1.3845415713504745
12.084405803996194,-5.7,-6.160268336133773,-1.2484118468732925
12.09240342530923,-5.7,-6.236841306152205,-1.1122821223960804
12.100401046622265,-6.539843006660232,-6.139843006660232,-1.1
12.108398667935301,-5.599333967650372,-6.079733587060149,-0.6408658420545166
12.116396289248335,-6.536549995189196,-6.421560525556189,0.42874736740825165
12.124393910561372,-6.707285731085473,-6.448518799645075,0.4646917328600994
12.132391531874406,-6.8780214669817115,-6.475477073733955,0.5006360983119392
12.140389153187442,-7.048757202877988,-6.50243534782284,0.536580463763787
12.148386774500477,-7.219492938774227,-6.52939362191172,0.5725248292156266
12.156384395813513,-7.390228674670504,-6.556351896000606,0.6084691946674745
12.164382017126547,-7.5609644105667435,-6.583310170089486,0.6444135601193142
12.172379638439583,-7.7317001464630195,-6.610268444178372,0.680357925571162
12.180377259752618,-7.902435882359259,-6.637226718267252,0.7163022910230017
12.188374881065652,-8.073171618255499,-6.664184992356131,0.7522466564748416
12.196372502378688,-8.243907354151775,-6.6911432664450174,0.7881910219266892
12.204370123691723,-7.28030447193127,-5.890152235965635,0.9271646051379479
12.212367745004759,-7.007483877788354,-7.467354900095183,2.4074838777883536
12.220365366317793,-7.0252563695950965,-7.62730732635587,2.425256369595097
12.22836298763083,-7.043028861401844,-7.787259752616594,2.4430288614018436
12.236360608943864,-7.060801353208587,-7.947212178877282,2.460801353208587
12.2443582302569,-7.078573845015334,-8.107164605138005,2.478573845015334
12.252355851569934,-7.096346336822077,-8.267117031398694,2.496346336822077
12.26035347288297,-7.114118828628825,-8.427069457659417,2.514118828628824
12.268351094196005,-7.131891320435567,-8.587021883920105,2.5318913204355673
12.276348715509041,-7.149663812242315,-8.746974310180828,2.549663812242314
12.284346336822075,-7.167436304049057,-8.906926736441516,2.5674363040490573
12.29234395813511,-7.1852087958558,-9.066879162702204,2.5852087958558005
12.300341579448146,-7.751236917221804,-7.658420551854642,1.5633682207418569
12.30833920076118,-7.64618043605888,-7.117761706176492,4.7319710711176866
12.316336822074216,-7.756785837196615,-7.160302245075621,4.808544041136118
12.32433444338725,-7.867391238334325,-7.20284278397474,4.8851170111545335
12.332332064700287,-7.97799663947206,-7.245383322873869,4.961689981172965
12.340329686013321,-8.08860204060977,-7.287923861772988,5.0382629511913795
12.348327307326358,-8.199207441747506,-7.330464400672117,5.114835921209812
12.356324928639392,-8.309812842885215,-7.373004939571237,5.191408891228226
12.364322549952428,-8.420418244022951,-7.415545478470365,5.267981861246658
12.372320171265462,-8.53102364516066,-7.458086017369484,5.344554831265072
12.380317792578499,-8.641629046298396,-7.500626556268613,5.421127801283505
12.388315413891533,-8.752234447436106,-7.543167095167733,5.497700771301919
12.396313035204567,-8.862839848573817,-7.585707634066852,5.574273741320334
12.404310656517604,-7.945956232159718,-6.615532825880211,2.4770218839201408
12.412308277830638,-8.023342135366,-6.989625717615111,3.7181549941735557
12.420305899143674,-8.104216957632657,-6.953681352163263,3.7810576337142896
12.428303520456708,-8.185091779899297,-6.917736986711423,3.843960273255009
12.436301141769745,-8.265966602165955,-6.881792621259575,3.906862912795743
12.444298763082779,-8.346841424432593,-6.845848255807736,3.969765552336462
12.452296384395815,-8.427716246699251,-6.809903890355888,4.032668191877196
12.46029400570885,-8.508591068965892,-6.773959524904048,4.095570831417915
12.468291627021886,-8.589465891232548,-6.738015159452201,4.158473470958649
12.47628924833492,-8.670340713499188,-6.7020707940003605,4.221376110499369
12.484286869647956,-8.751215535765846,-6.6661264285485125,4.2842787500401025
12.49228449096099,-8.832090358032485,-6.630182063096673,4.347181389580822
12.500282112274025,-9.22052806850631,-6.0871550903899045,4.271788772597477
12.508279733587061,-9.5049026528754,-4.0828407149361,5.2901946942492
12.516277354900096,-9.522101838494828,-4.0226435652680985,5.255796323010342
12.524274976213132,-9.53930102411426,-3.9624464156000845,5.221397951771477
12.532272597526166,-9.55650020973369,-3.9022492659320838,5.1869995805326194
12.540270218839202,-9.573699395353122,-3.8420521162640697,5.1526012092937545
12.548267840152237,-9.590898580972551,-3.781854966596069,5.118202838054897
12.556265461465273,-9.608097766591984,-3.721657816928055,5.083804466816032
12.564263082778307,-9.625296952211412,-3.6614606672600543,5.049406095577174
12.572260704091343,-9.642496137830845,-3.6012635175920398,5.015007724338309
12.580258325404378,-9.659695323450274,-3.5410663679240395,4.980609353099451
12.588255946717414,-9.676894509069706,-3.480869218256025,4.946210981860586
12.596253568030448,-9.694093694689135,-3.4206720685880243,4.911812610621729
12.604251189343483,-8.897209007294627,-3.116745956232237,3.788836029178509
12.612248810656519,-8.808346548260896,-3.6499207104346274,3.4333861930435816
12.620246431969553,-8.783147832628945,-3.7168521673710555,3.3831478326289446
12.62824405328259,-8.764548713296303,-3.7354512867036975,3.3645487132963026
12.636241674595624,-8.745949593963665,-3.7540504060363356,3.3459495939636645
12.64423929590866,-8.727350474631022,-3.7726495253689776,3.3273504746310225
12.652236917221694,-8.708751355298384,-3.7912486447016156,3.3087513552983845
12.66023453853473,-8.690152235965742,-3.809847764034258,3.290152235965742
12.668232159847765,-8.671553116633104,-3.828446883366896,3.271553116633104
12.676229781160801,-8.652953997300461,-3.847046002699538,3.252953997300462
12.684227402473836,-8.634354877967823,-3.865645122032176,3.234354877967824
12.692225023786872,-8.615755758635181,-3.884244241364818,3.215755758635182
12.700222645099906,-8.511132254995335,-4.233396764986004,2.9777354900093305
12.70822026641294,-9.003462652056925,-4.189612043829225,2.4930746958861496
12.716217887725977,-9.012062244866641,-4.1638132654000755,2.475875510266717
12.724215509039011,-9.020661837676355,-4.138014486970933,2.4586763246472882
12.732213130352047,-9.029261430486072,-4.112215708541783,2.441477139027856
12.740210751665082,-9.037861023295786,-4.08641693011264,2.424277953408427
12.748208372978118,-9.046460616105502,-4.060618151683491,2.4070787677889944
12.756205994291152,-9.055060208915217,-4.034819373254348,2.3898795821695655
12.764203615604188,-9.063659801724933,-4.009020594825199,2.3726803965501326
12.772201236917223,-9.072259394534647,-3.983221816396056,2.355481210930704
12.780198858230259,-9.080858987344364,-3.9574230379669073,2.3382820253112713
12.788196479543293,-9.089458580154078,-3.931624259537764,2.3210828396918424
12.79619410085633,-9.098058172963794,-3.9058254811086153,2.30388365407241
12.804191722169364,-9.4,-3.272331113225431,2.0361655566127155
12.812189343482398,-9.41331041609118,-3.19334479195441,1.9933447919544096
12.820186964795434,-9.430509601710613,-3.1847451991446936,1.9847451991446934
12.828184586108469,-9.447708787330042,-3.176145606334979,1.976145606334979
12.836182207421505,-9.464907972949474,-3.167546013525263,1.9675460135252627
12.84417982873454,-9.482107158568903,-3.1589464207155484,1.9589464207155483
12.852177450047575,-9.499306344188335,-3.150346827905832,1.950346827905832
12.86017507136061,-9.516505529807764,-3.1417472350961178,1.9417472350961176
12.868172692673646,-9.533704715427197,-3.1331476422864015,1.9331476422864013
12.87617031398668,-9.550903901046626,-3.124548049476687,1.924548049476687
12.884167935299716,-9.568103086666058,-3.115948456666971,1.9159484566669704
12.89216555661275,-9.585302272285487,-3.1073488638572564,1.9073488638572562
12.900163177925785,-9.808158896289251,-3.0836822074215005,1.7836822074215002
12.908160799238821,-9.703362552381725,-2.893274895236549,1.5
12.916158420551856,-9.711870660161548,-2.8762586796769014,1.5
12.924156041864892,-9.720378767941375,-2.85924246411725,1.5
12.932153663177926,-9.728886875721198,-2.8422262485576026,1.5
12.940151284490963,-9.737394983501025,-2.8252100329979517,1.5
12.948148905803997,-9.745903091280848,-2.8081938174383043,1.5
12.956146527117033,-9.754411199060673,-2.791177601878653,1.5
12.964144148430067,-9.762919306840498,-2.7741613863190056,1.5
12.972141769743104,-9.771427414620323,-2.7571451707593546,1.5
12.980139391056138,-9.779935522400146,-2.7401289551997072,1.5
12.988137012369174,-9.788443630179973,-2.723112739640056,1.5
12.996134633682209,-9.796951737959796,-2.7060965240804085,1.5
13.004132254995243,-9.4,-2.4985305000528513,1.2
13.012129876308279,-9.4,-2.4096680410191196,1.2
13.020127497621313,-9.4,-2.4,1.20828778793176
13.02812511893435,-9.4,-2.4,1.217587347598081
13.036122740247384,-9.4,-2.4,1.2268869072644
13.04412036156042,-9.4,-2.4,1.2361864669307212
13.052117982873455,-9.4,-2.4,1.2454860265970402
13.06011560418649,-9.4,-2.4,1.2547855862633612
13.068113225499525,-9.4,-2.4,1.2640851459296802
13.076110846812561,-9.4,-2.4,1.2733847055960015
13.084108468125596,-9.4,-2.4,1.2826842652623205
13.092106089438632,-9.4,-2.4,1.2919838249286415
13.100103710751666,-9.3,-2.4,1.3
13.1081013320647,-9.303299289430532,-2.4,1.3967007105694678
13.116098953377737,-9.311807397210359,-2.4,1.388192602789642
13.124096574690771,-9.320315504990182,-2.4,1.3796844950098182
13.132094196003807,-9.328823612770009,-2.4,1.3711763872299925
13.140091817316842,-9.337331720549832,-2.4,1.3626682794501686
13.148089438629878,-9.345839828329657,-2.4,1.3541601716703429
13.156087059942912,-9.354347936109482,-2.4,1.345652063890519
13.164084681255948,-9.362856043889307,-2.4,1.3371439561106933
13.172082302568983,-9.37136415166913,-2.4,1.3286358483308693
13.180079923882019,-9.379872259448957,-2.4,1.3201277405510436
13.188077545195053,-9.38838036722878,-2.4,1.3116196327712197
13.19607516650809,-9.396888475008607,-2.4,1.303111524991394
13.204072787821124,-9.8,-2.303639391056167,1.3
13.212070409134158,-9.793472678350367,-2.4065273216496332,1.293472678350367
13.220068030447194,-9.784873085540651,-2.4151269144593495,1.2848730855406507
13.228065651760229,-9.776273492730937,-2.423726507269064,1.2762734927309363
13.236063273073265,-9.76767389992122,-2.43232610007878,1.2676738999212198
13.2440608943863,-9.759074307111506,-2.4409256928884946,1.2590743071115056
13.252058515699336,-9.75047471430179,-2.449525285698211,1.2504747143017891
13.26005613701237,-9.741875121492075,-2.4581248785079253,1.2418751214920747
13.268053758325406,-9.733275528682357,-2.4667244713176415,1.2332755286823585
13.27605137963844,-9.724675935872643,-2.475324064127356,1.224675935872644
13.284049000951477,-9.716076343062927,-2.483923656937072,1.2160763430629278
13.292046622264511,-9.707476750253212,-2.4925232497467866,1.2074767502532133
13.300044243577547,-9.7,-2.5522121788773693,1.2
13.308041864890582,-9.7,-2.6,1.2
13.316039486203616,-9.7,-2.5,1.2
13.324037107516652,-9.7,-2.5,1.2
13.332034728829687,-9.7,-2.5,1.2
13.340032350142723,-9.7,-2.5,1.2
13.348029971455757,-9.7,-2.5,1.2
13.356027592768793,-9.7,-2.5,1.2
13.364025214081828,-9.7,-2.5,1.2
13.372022835394864,-9.7,-2.5,1.2
13.380020456707898,-9.7,-2.5,1.2
13.388018078020934,-9.7,-2.5,1.2
13.396015699333969,-9.7,-2.5,1.2
13.404013320647005,-9.6,-2.5,1.2
13.41201094196004,-9.6,-2.5,1.2
13.420008563273074,-9.601276662370978,-2.5,1.2
13.42800618458611,-9.611400233653303,-2.5,1.2
13.436003805899144,-9.621523804935626,-2.5,1.2
13.44400142721218,-9.631647376217948,-2.5,1.2
13.451999048525215,-9.641770947500271,-2.5,1.2
13.459996669838251,-9.651894518782596,-2.5,1.2
13.467994291151285,-9.662018090064917,-2.5,1.2
13.475991912464321,-9.672141661347242,-2.5,1.2
13.483989533777356,-9.682265232629565,-2.5,1.2
13.491987155090392,-9.69238880391189,-2.5,1.2
13.499984776403426,-9.7,-2.5,1.2
13.507982397716463,-9.6,-2.5064137585300252,1.2
13.515980019029497,-9.6,-2.523612944149454,1.2
13.523977640342531,-9.6,-2.540812129768883,1.2
13.531975261655568,-9.6,-2.5580113153883155,1.2
13.539972882968602,-9.6,-2.5752105010077444,1.2
13.547970504281638,-9.6,-2.5924096866271773,1.2
13.555968125594672,-9.6,-2.6096088722466058,1.2
13.563965746907709,-9.6,-2.6268080578660387,1.2
13.571963368220743,-9.6,-2.644007243485467,1.2
13.57996098953378,-9.6,-2.6612064291049,1.2
13.587958610846814,-9.6,-2.678405614724329,1.2
13.59595623215985,-9.6,-2.6956048003437614,1.2
13.603953853472884,-9.7,-2.652307326355799,1.3
13.61195147478592,-9.692444049145738,-2.5924440491457394,1.307555950854261
13.619949096098955,-9.683750982501136,-2.5837509825011367,1.3162490174988635
13.627946717411989,-9.675057915856533,-2.575057915856534,1.3249420841434663
13.635944338725025,-9.666364849211929,-2.5663648492119293,1.3336351507880708
13.64394196003806,-9.657671782567325,-2.5576717825673265,1.3423282174326736
13.651939581351096,-9.648978715922722,-2.548978715922722,1.3510212840772782
13.65993720266413,-9.640285649278118,-2.540285649278119,1.359714350721881
13.667934823977166,-9.631592582633514,-2.5315925826335146,1.3684074173664855
13.6759324452902,-9.62289951598891,-2.522899515988912,1.3771004840110883
13.683930066603237,-9.614206449344307,-2.5142064493443073,1.3857935506556929
13.691927687916271,-9.605513382699703,-2.5055133826997045,1.3944866173002957
13.699925309229307,-9.516419736305496,-2.5,1.4
13.707922930542342,-9.4,-2.6461465271170783,1.3
13.715920551855378,-9.4,-2.7077759009610993,1.3
13.723918173168412,-9.4,-2.7167619923240593,1.3
13.731915794481447,-9.4,-2.7257480836870194,1.3
13.739913415794483,-9.4,-2.734734175049981,1.3
13.747911037107517,-9.4,-2.743720266412941,1.3
13.755908658420553,-9.4,-2.752706357775903,1.3
13.763906279733588,-9.4,-2.761692449138863,1.3
13.771903901046624,-9.4,-2.770678540501825,1.3
13.779901522359658,-9.4,-2.779664631864785,1.3
13.787899143672695,-9.4,-2.7886507232277467,1.3
13.795896764985729,-9.4,-2.7976368145907062,1.3
13.803894386298765,-9.538943862987644,-2.8,1.4
13.8118920076118,-9.6,-2.8,1.4
13.819889628924834,-9.6,-2.8,1.4
13.82788725023787,-9.6,-2.8,1.4
13.835884871550904,-9.6,-2.8,1.4
13.84388249286394,-9.6,-2.8,1.4
13.851880114176975,-9.6,-2.8,1.4
13.859877735490011,-9.6,-2.8,1.4
13.867875356803046,-9.6,-2.8,1.4
13.875872978116082,-9.6,-2.8,1.4
13.883870599429116,-9.6,-2.8,1.4
13.891868220742152,-9.6,-2.8,1.4
13.899865842055187,-9.513415794481359,-2.8865842055186413,1.4
13.907863463368223,-9.6,-3.1,1.4
13.915861084681257,-9.6,-3.1,1.4
13.923858705994292,-9.6,-3.1,1.4
13.931856327307328,-9.6,-3.1,1.4
13.939853948620362,-9.6,-3.1,1.4
13.947851569933398,-9.6,-3.1,1.4
13.955849191246433,-9.6,-3.1,1.4
13.963846812559469,-9.6,-3.1,1.4
13.971844433872503,-9.6,-3.1,1.4
13.97984205518554,-9.6,-3.1,1.4
13.987839676498574,-9.6,-3.1,1.4
13.99583729781161,-9.6,-3.1,1.4
14.003834919124644,-9.56330161750712,-3.3,1.5
14.01183254043768,-9.4,-3.204211582898551,1.604211582898551
14.019830161750715,-9.4,-3.213000177748039,1.6130001777480392
14.02782778306375,-9.4,-3.2217887725975274,1.6217887725975273
14.035825404376785,-9.4,-3.2305773674470175,1.6305773674470176
14.04382302568982,-9.4,-3.239365962296506,1.6393659622965058
14.051820647002856,-9.4,-3.248154557145996,1.648154557145996
14.05981826831589,-9.4,-3.2569431519954843,1.6569431519954843
14.067815889628926,-9.4,-3.2657317468449745,1.6657317468449744
14.07581351094196,-9.4,-3.2745203416944624,1.6745203416944625
14.083811132254997,-9.4,-3.2833089365439525,1.6833089365439526
14.091808753568031,-9.4,-3.292097531393441,1.692097531393441
14.099806374881068,-9.4,-3.3,1.7403187440533556
14.107803996194102,-9.79803913457163,-4.001960865428372,1.9039217308567435
14.115801617507138,-9.789346067927024,-4.010653932072977,1.9213078641459524
14.123799238820173,-9.780653001282422,-4.0193469987175785,1.9386939974351576
14.131796860133207,-9.771959934637819,-4.028040065362181,1.9560801307243627
14.139794481446243,-9.763266867993215,-4.036733132006786,1.9734662640135716
14.147792102759277,-9.754573801348611,-4.045426198651389,1.9908523973027767
14.155789724072314,-9.745880734704008,-4.054119265295992,2.008238530591986
14.163787345385348,-9.737187668059404,-4.062812331940595,2.025624663881191
14.171784966698384,-9.7284946014148,-4.0715053985852,2.0430107971703997
14.179782588011419,-9.719801534770196,-4.0801984652298025,2.060396930459605
14.187780209324455,-9.711108468125593,-4.088891531874407,2.077783063748814
14.195777830637489,-9.70241540148099,-4.097584598519009,2.095169197038019
14.203775451950525,-9.8155090390105,-4.4465271170315,2.3887725975262497
14.21177307326356,-10.822692673644022,-5.954614652711957,2.722692673644022
14.219770694576596,-10.69203447696871,-6.23982761515645,2.6238965690938705
14.22776831588963,-10.682625510718081,-6.2868724464095935,2.652123467845756
14.235765937202665,-10.673216544467452,-6.333917277662737,2.680350366597642
14.2437635585157,-10.663807578216822,-6.38096210891589,2.708577265349534
14.251761179828735,-10.654398611966194,-6.428006940169033,2.73680416410142
14.259758801141771,-10.644989645715562,-6.475051771422186,2.7650310628533115
14.267756422454806,-10.635580679464933,-6.5220966026753295,2.7932579616051973
14.275754043767842,-10.626171713214303,-6.569141433928483,2.8214848603570895
14.283751665080876,-10.616762746963675,-6.616186265181626,2.8497117591089753
14.291749286393912,-10.607353780713044,-6.663231096434779,2.8779386578608674
14.299746907706947,-10.774690770694617,-7.13672692673654,2.9
14.307744529019983,-10.748905803996596,-8.781755470982127,3.425547098001702
14.315742150333017,-11.015150899624759,-9.940915553940023,3.337877249061899
14.323739771646053,-11.033123082350683,-9.752207635317824,3.3828077058767088
14.331737392959088,-11.051095265076603,-9.563499716695665,3.4277381626915084
14.339735014272122,-11.069067447802523,-9.374791798073506,3.472668619506308
14.347732635585158,-11.087039630528446,-9.186083879451305,3.5175990763211176
14.355730256898193,-11.105011813254366,-8.997375960829146,3.5625295331359172
14.363727878211229,-11.12298399598029,-8.808668042206945,3.607459989950727
14.371725499524263,-11.14095617870621,-8.619960123584786,3.652390446765527
14.3797231208373,-11.158928361432134,-8.431252204962586,3.6973209035803363
14.387720742150334,-11.176900544158054,-8.242544286340427,3.7422513603951364
14.39571836346337,-11.194872726883977,-8.053836367718226,3.787181817209946
14.403715984776404,-8.785204567078807,-4.576133840786534,5.357397716460596
14.41171360608944,-7.782492863939097,-5.282492863939097,5.3970821439898495
14.419711227402475,-7.730895307080811,-5.230895307080811,5.388482551180135
14.427708848715511,-7.679297750222513,-5.179297750222513,5.379882958370419
14.435706470028546,-7.627700193364227,-5.127700193364227,5.371283365560704
