accel_time_list,vertical_Accel_x,vertical_Accel_y,vertical_Accel_z
0.0,0.249,-9.249,0.643
0.007999406880189798,1.0762213654936075,-10.081271271433193,0.48515090405837735
0.015998813760379597,1.0877760643205483,-10.100906179230023,0.4933927172076638
0.023998220640569397,1.0993307631474891,-10.120541087026853,0.5016345303569503
0.03199762752075919,1.11088546197443,-10.140175994823682,0.5098763435062367
0.03999703440094899,1.1224401608013708,-10.159810902620512,0.5181181566555232
0.047996441281138794,1.1339948596283116,-10.179445810417342,0.5263599698048096
0.05599584816132859,1.1455495584552524,-10.19908071821417,0.5346017829540961
0.06399525504151839,1.1571042572821932,-10.218715626010999,0.5428435961033826
0.07199466192170818,1.168658956109134,-10.238350533807829,0.551085409252669
0.07999406880189798,1.1802136549360749,-10.257985441604658,0.5593272224019554
0.08799347568208778,1.1917683537630157,-10.277620349401488,0.5675690355512419
0.09599288256227759,1.2033230525899565,-10.297255257198318,0.5758108487005285
0.10399228944246738,1.0048018979833917,-10.005187425860022,0.6268265124555162
0.11199169632265718,1.3676118480175419,-9.769623662484873,0.48241417736079656
0.11999110320284698,1.3620365038283189,-9.772128527265538,0.492110428124663
0.12799051008303677,1.3564611596390956,-9.774633392046203,0.5018066788885294
0.13598991696322657,1.3508858154498724,-9.77713825682687,0.5115029296523959
0.14398932384341637,1.3453104712606492,-9.779643121607535,0.5211991804162622
0.15198873072360616,1.339735127071426,-9.7821479863882,0.5308954311801286
0.15998813760379596,1.3341597828822027,-9.784652851168866,0.5405916819439951
0.16798754448398576,1.3285844386929797,-9.787157715949531,0.5502879327078615
0.17598695136417555,1.3230090945037565,-9.789662580730196,0.559984183471728
0.18398635824436535,1.3174337503145332,-9.792167445510863,0.5696804342355943
0.19198576512455517,1.31185840612531,-9.794672310291528,0.5793766849994608
0.19998517200474497,1.3062830619360868,-9.797177175072193,0.5890729357633272
0.20798457888493477,1.3007077177468638,-9.79968203985286,0.5987691865271937
0.21598398576512456,1.5069430604982215,-9.409345195729536,0.654039145907474
0.22398339264531436,1.4997348405554392,-9.390342613913893,0.662701625846068
0.23198279952550416,1.4914531016677133,-9.372649808108296,0.6704187007187217
0.23998220640569395,1.4831713627799874,-9.3549570023027,0.6781357755913754
0.24798161328588375,1.4748896238922615,-9.337264196497104,0.685852850464029
0.25598102016607355,1.4666078850045356,-9.319571390691507,0.6935699253366827
0.26398042704626334,1.4583261461168098,-9.301878584885912,0.7012870002093364
0.27197983392645314,1.4500444072290837,-9.284185779080316,0.7090040750819901
0.27997924080664294,1.4417626683413578,-9.266492973274719,0.7167211499546438
0.28797864768683273,1.433480929453632,-9.248800167469124,0.7244382248272975
0.29597805456702253,1.425199190565906,-9.231107361663527,0.7321552996999512
0.3039774614472123,1.8474329774614466,-9.349686832740213,1.8601927639383145
0.3119768683274021,-1.6894081850533806,-2.0462040925266898,-3.978438612099644
0.3199762752075919,-1.7173172268353762,-2.3099178726769467,-3.7691207987346775
0.3279756820877817,-1.7452262686173716,-2.5736316528272036,-3.5598029853697115
0.3359750889679715,-1.7731353103993672,-2.8373454329774606,-3.3504851720047455
0.3439744958481613,-1.8010443521813628,-3.1010592131277175,-3.141167358639779
0.3519739027283511,-1.8289533939633582,-3.3647729932779744,-2.9318495452748126
0.3599733096085409,-1.8568624357453538,-3.6284867734282313,-2.7225317319098465
0.3679727164887307,-1.8847714775273492,-3.8922005535784883,-2.5132139185448805
0.3759721233689205,-1.9126805193093448,-4.155914333728745,-2.303896105179914
0.38397153024911035,-1.9405895610913404,-4.4196281138790035,-2.0945782918149463
0.39197093712930015,-1.968498602873336,-4.683341894029261,-1.8852604784499802
0.39997034400948994,-1.9964076446553314,-4.947055674179518,-1.6759426650850138
0.40796975088967974,-2.687900355871906,-4.68421886120997,-3.6484644128113413
0.41596915776986954,-2.6032561384711537,-4.4163631168764885,-3.8496488475618325
0.42396856465005933,-2.506145059248204,-4.143695161928084,-4.080169389915689
0.43196797153024913,-2.409033980025255,-3.8710272069796794,-4.310689932269545
0.4399673784104389,-2.3119229008023057,-3.5983592520312744,-4.541210474623401
0.4479667852906287,-2.2148118215793566,-3.3256912970828694,-4.771731016977258
0.4559661921708185,-2.1177007423564076,-3.053023342134465,-5.002251559331114
0.4639655990510083,-2.020589663133458,-2.78035538718606,-5.232772101684971
0.4719650059311981,-1.9234785839105089,-2.5076874322376552,-5.463292644038828
0.4799644128113879,-1.8263675046875596,-2.23501947728925,-5.693813186392684
0.4879638196915777,-1.7292564254646103,-1.9623515223408452,-5.92433372874654
0.4959632265717675,-1.632145346241661,-1.6896835673924406,-6.154854271100397
0.5039626334519572,-0.6438763345195804,0.48458185053379965,-8.647064946619187
0.5119620403321471,1.206811387900347,1.7405172004744929,-10.323928825622772
0.519961447212337,1.3475562664107594,1.9397649179628678,-10.254328075226251
0.5279608540925267,1.45361581830541,2.128425086968691,-10.17226674397217
0.5359602609727165,1.559675370200062,2.3170852559745168,-10.090205412718088
0.5439596678529063,1.6657349220947126,2.5057454249803404,-10.008144081464007
0.5519590747330961,1.7717944739893645,2.694405593986166,-9.926082750209924
0.5599584816132859,1.877854025884015,2.88306576299199,-9.844021418955842
0.5679578884934757,1.9839135777786672,3.0717259319978156,-9.76196008770176
0.5759572953736655,2.089973129673318,3.260386101003639,-9.67989875644768
0.5839567022538553,2.19603268156797,3.4490462700094646,-9.597837425193596
0.5919561091340451,2.3020922334626204,3.637706439015288,-9.515776093939515
0.5999555160142349,2.4081517853572723,3.8263666080211136,-9.433714762685433
0.6079549228944247,1.2690775009885333,5.192340055357849,-9.597753657572163
0.6159543297746145,1.089617639383157,5.203389015421116,-9.12462852906287
0.6239537366548042,1.3457586476868324,5.408493807829181,-8.909444483985766
0.6319531435349941,1.6018996559905117,5.61359860023725,-8.694260438908659
0.6399525504151838,1.8580406642941871,5.818703392645315,-8.479076393831555
0.6479519572953737,2.114181672597866,6.023808185053382,-8.263892348754448
0.6559513641755634,2.370322680901542,6.228912977461447,-8.048708303677342
0.6639507710557533,2.626463689205221,6.434017769869516,-7.833524258600236
0.671950177935943,2.8826046975088966,6.6391225622775805,-7.6183402135231315
0.6799495848161329,3.138745705812576,6.844227354685648,-7.403156168446025
0.6879489916963226,3.3948867141162515,7.049332147093713,-7.187972123368921
0.6959483985765125,3.6510277224199306,7.254436939501781,-6.9727880782918135
0.7039478054567022,3.9071687307236065,7.459541731909846,-6.75760403321471
0.7119472123368921,4.1633097390272855,7.664646524317914,-6.542419988137603
0.7199466192170818,3.498230346166289,8.861629569718536,-6.7489961177612425
0.7279460260972717,3.593132400517632,8.985256766957834,-6.892621832201014
0.7359454329774614,3.688034454868974,9.10888396419713,-7.0362475466407846
0.7439448398576513,3.8421857947805464,9.333064056939502,-6.913204626334519
0.751944246737841,4.098033491498614,9.729834638196913,-6.332447686832744
0.7599436536180308,4.353881188216686,10.12660521945433,-5.7516907473309615
0.7679430604982207,4.609728884934758,10.523375800711745,-5.170933807829178
0.7759424673784104,4.865576581652826,10.920146381969158,-4.590176868327403
0.7839418742586003,5.121424278370898,11.316916963226573,-4.00941992882562
0.79194128113879,5.377271975088966,11.713687544483983,-3.428662989323846
0.7999406880189799,5.633119671807038,12.1104581257414,-2.847906049822063
0.8079400948991696,4.4254282325029735,11.344949881376076,-3.8199128113878924
0.8159395017793595,4.417482206405694,11.26385053380783,-3.6834492882562277
0.8239389086595492,4.416960505956986,11.220375496415494,-3.5378079129919033
0.8319383155397391,4.416438805508278,11.176900459023157,-3.3921665377275776
0.8399377224199288,4.41591710505957,11.133425421630822,-3.246525162463253
0.8479371293001187,4.415395404610861,11.089950384238486,-3.100883787198927
0.8559365361803084,4.4148737041621535,11.046475346846151,-2.955242411934603
0.8639359430604983,4.414352003713446,11.003000309453814,-2.8096010366702773
0.871935349940688,4.413830303264738,10.959525272061478,-2.663959661405953
0.8799347568208779,4.41330860281603,10.916050234669143,-2.5183182861416267
0.8879341637010676,4.412786902367322,10.872575197276808,-2.3726769108773027
0.8959335705812574,4.412265201918614,10.82910015988447,-2.2270355356129765
0.9039329774614472,3.4058308620007987,10.32146668643732,-2.2228039739027388
0.911932384341637,2.572292210359826,10.134971688414392,-1.9037867931988928
0.9199317912218268,2.669173915908791,10.048933623303018,-1.9276961315407932
0.9279311981020166,2.766055621457757,9.962895558191644,-1.9516054698826941
0.9359306049822064,2.8629373270067218,9.87685749308027,-1.9755148082245946
0.9439300118623962,2.959819032555688,9.790819427968893,-1.9994241465664955
0.951929418742586,3.0567007381046523,9.704781362857519,-2.0233334849083957
0.9599288256227758,3.153582443653619,9.618743297746144,-2.0472428232502966
0.9679282325029656,3.2504641492025836,9.53270523263477,-2.071152161592197
0.9759276393831554,3.3473458547515493,9.446667167523394,-2.095061499934098
0.9839270462633452,3.444227560300514,9.36062910241202,-2.1189708382759984
0.991926453143535,3.5411092658494807,9.274591037300643,-2.1428801766178993
0.9999258600237247,3.6379909713984455,9.188552972189271,-2.1667895149597998
1.0079252669039145,2.333091001525168,9.055915099135735,-3.2357966446365034
1.0159246737841043,2.1214915872431512,9.38313862641633,-3.116767367502488
1.0239240806642942,2.010695204592246,9.492923589806521,-2.9656981088340753
1.031923487544484,1.8998988219413409,9.602708553196713,-2.814628850165662
1.039922894424674,1.7891024392904356,9.712493516586905,-2.6635595914972496
1.0479223013048635,1.6783060566395336,9.822278479977093,-2.5124903328288415
1.0559217081850534,1.5675096739886283,9.932063443367285,-2.361421074160429
1.0639211150652432,1.456713291337723,10.041848406757476,-2.2103518154920163
1.071920521945433,1.345916908686818,10.151633370147668,-2.0592825568236037
1.0799199288256227,1.235120526035916,10.261418333537856,-1.908213298155195
1.0879193357058126,1.1243241433850106,10.371203296928048,-1.7571440394867823
1.0959187425860024,1.0135277607341056,10.48098826031824,-1.6060747808183697
1.1039181494661923,0.3102722419928821,10.307366548042705,-1.3076530249110316
1.111917556346382,0.31345984578884906,10.231117259786478,-1.2631833629893248
1.1199169632265717,0.3270588374851718,10.161522419928826,-1.225986120996442
1.1279163701067616,0.5822190535731457,10.374235212080409,-1.0623285803597189
1.1359157769869515,0.5664364399987172,10.40861104164663,-1.038654659998076
1.143915183867141,0.550653826424289,10.442986871212849,-1.0149807396364336
1.151914590747331,0.5348712128498604,10.477362700779072,-0.9913068192747907
1.1599139976275208,0.5190885992754318,10.511738530345292,-0.9676328989131477
1.1679134045077106,0.5033059857010032,10.546114359911513,-0.9439589785515048
1.1759128113879003,0.487523372126575,10.580490189477734,-0.9202850581898625
1.1839122182680901,0.47174075855214637,10.614866019043955,-0.8966111378282196
1.19191162514828,0.4559581449777178,10.649241848610176,-0.8729372174665767
1.1999110320284698,0.44017553140328913,10.683617678176397,-0.8492632971049338
1.2079104389086595,1.5102832740213488,10.823895255041515,-0.3371048635824481
1.2159098457888493,1.5964432755856244,10.881609701093687,-0.24710403712538945
1.2239092526690392,1.6146397285988034,10.874313538774393,-0.24859843181729305
1.231908659549229,1.6328361816119825,10.867017376455099,-0.2500928265091966
1.2399080664294186,1.6510326346251611,10.859721214135805,-0.2515872212011002
1.2479074733096085,1.6692290876383402,10.85242505181651,-0.2530816158930038
1.2559068801897983,1.6874255406515195,10.845128889497218,-0.2545760105849074
1.2639062870699882,1.7056219936646986,10.837832727177924,-0.256070405276811
1.2719056939501778,1.7238184466778772,10.83053656485863,-0.25756479996871456
1.2799051008303677,1.7420148996910563,10.823240402539335,-0.25905919466061816
1.2879045077105575,1.7602113527042356,10.815944240220041,-0.26055358935252176
1.2959039145907474,1.7784078057174146,10.808648077900747,-0.26204798404442536
1.3039033214709372,2.298202253855284,10.420528766310792,-0.32697301304862897
1.3119027283511269,2.690861439559178,10.34220107399329,-0.13317984923277082
1.3199021352313167,2.7102148433015727,10.332739409941453,-0.10247244862817105
1.3279015421115066,2.7295682470439675,10.323277745889616,-0.0717650480235713
1.3359009489916964,2.7489216507863623,10.313816081837778,-0.04105764741897153
1.343900355871886,2.7682750545287567,10.304354417785941,-0.010350246814372605
1.351899762752076,2.7876284582711515,10.294892753734104,0.02035715379022715
1.3598991696322658,2.8069818620135463,10.285431089682266,0.051064554394826905
1.3678985765124556,2.826335265755941,10.275969425630429,0.08177195499942669
1.3758979833926452,2.8456886694983354,10.266507761578591,0.11247935560402558
1.383897390272835,2.8650420732407302,10.257046097526754,0.14318675620862534
1.391896797153025,2.884395476983125,10.247584433474916,0.1738941568132251
1.3998962040332148,2.90374888072552,10.238122769423079,0.2046015574178249
1.4078956109134044,3.807068215155804,9.839447990408042,0.6255130550134588
1.4158950177935943,3.9237907435043806,9.816653981555888,0.4782551563157703
1.4238944246737841,4.040513271852958,9.793859972703734,0.33099725761808174
1.431893831553974,4.157235800201534,9.77106596385158,0.18373935892039323
1.4398932384341636,4.2739583285501075,9.748271954999426,0.03648146022270882
1.4478926453143535,4.390680856898684,9.725477946147272,-0.11077643847497975
1.4558920521945433,4.507403385247261,9.702683937295118,-0.2580343371726682
1.4638914590747332,4.6241259135958375,9.679889928442964,-0.4052922358703569
1.4718908659549228,4.740848441944411,9.657095919590812,-0.5525501345680411
1.4798902728351127,4.857570970292988,9.634301910738657,-0.6998080332657298
1.4878896797153025,4.974293498641565,9.611507901886503,-0.8470659319634183
1.4958890865954924,5.091016026990141,9.588713893034349,-0.9943238306611067
1.503888493475682,4.750485172004756,9.914002767892438,-1.9675939106365914
1.5118879003558718,4.382858540925269,10.117607651245551,-2.531542704626334
1.5198873072360617,4.203723210755239,9.994306445235267,-2.363133649663891
1.5278867141162515,4.466894504992092,9.785910469800317,-2.393022062821274
1.5358861209964414,4.4419796856465,9.73633081257414,-2.588590895610915
1.543885527876631,4.41706486630091,9.686751155347965,-2.7841597284005513
1.5518849347568209,4.392150046955319,9.637171498121788,-2.9797285611901927
1.5598843416370107,4.3672352276097275,9.58759184089561,-3.1752973939798337
1.5678837485172006,4.342320408264136,9.538012183669434,-3.370866226769475
1.5758831553973902,4.317405588918545,9.488432526443258,-3.5664350595591108
1.58388256227758,4.292490769572954,9.438852869217083,-3.762003892348752
1.59188196915777,4.2675759502273625,9.389273211990906,-3.9575727251383936
1.5998813760379598,4.242661130881771,9.339693554764729,-4.153141557928034
1.6078807829181494,4.217746311536181,9.290113897538554,-4.34871039071767
1.6158801897983393,4.19283149219059,9.240534240312376,-4.544279223507312
1.623879596678529,4.12087603795966,9.031598754448401,-4.358374851720057
1.631879003558719,4.1562102491103206,8.79235231316726,-4.113627900355872
1.6398784104389086,4.146717619612495,8.747022340846184,-4.129413396599446
1.6478778173190984,4.13722499011467,8.701692368525109,-4.145198892843021
1.6558772241992883,4.127732360616845,8.656362396204033,-4.160984389086596
1.6638766310794781,4.1182397311190195,8.611032423882957,-4.17676988533017
1.6718760379596678,4.108747101621194,8.565702451561883,-4.192555381573745
1.6798754448398576,4.099254472123369,8.520372479240807,-4.208340877817319
1.6878748517200475,4.089761842625544,8.475042506919731,-4.224126374060893
1.6958742586002373,4.0802692131277185,8.429712534598654,-4.239911870304468
1.703873665480427,4.1619991103202825,7.9799830960854194,-4.189232206405695
1.7118730723606168,5.116274287923017,5.836511909046076,-5.439749143641621
1.7198724792408067,4.963027223532863,5.868689298519199,-5.501587255254774
1.7278718861209965,4.809780159142709,5.900866687992323,-5.563425366867928
1.7358712930011861,4.656533094752559,5.933044077465445,-5.625263478481079
1.743870699881376,4.503286030362405,5.965221466938568,-5.687101590094232
1.7518701067615658,4.350038965972251,5.997398856411691,-5.7489397017073856
1.7598695136417557,4.196791901582097,6.029576245884815,-5.810777813320538
1.7678689205219453,4.043544837191947,6.061753635357937,-5.872615924933689
1.7758683274021352,3.890297772801793,6.09393102483106,-5.934454036546843
1.783867734282325,3.737050708411639,6.126108414304183,-5.996292148159996
1.7918671411625149,3.5838036440214855,6.158285803777307,-6.058130259773149
1.7998665480427047,3.4305565796313315,6.19046319325043,-6.119968371386302
1.8078659549228944,5.0515842103934805,7.519563716211101,-5.120284306302212
1.8158653618030842,4.878320461371495,7.449100855606875,-5.288697351152166
1.823864768683274,4.705056712349511,7.3786379950026495,-5.457110396002121
1.831864175563464,4.5317929633275265,7.308175134398424,-5.625523440852076
1.8398635824436536,4.3585292143055465,7.237712273794201,-5.793936485702026
1.8478629893238434,4.185265465283561,7.167249413189975,-5.962349530551981
1.8558623962040333,4.012001716261577,7.096786552585749,-6.130762575401935
1.8638618030842231,3.8387379672395925,7.026323691981524,-6.299175620251889
1.8718612099644127,3.6654742182176125,6.9558608313773,-6.4675886651018395
1.8798606168446026,3.4922104691956277,6.885397970773075,-6.636001709951794
1.8878600237247924,3.318946720173643,6.814935110168849,-6.804414754801749
1.8958594306049823,3.1456829711516585,6.744472249564623,-6.972827799651704
1.903858837485172,2.748667062079874,3.169136812969553,-8.537451561882168
1.9118582443653618,2.9753169236852526,2.915822261763541,-8.870760181890079
1.9198576512455516,2.5037365680062464,4.153403176807566,-7.884058849058243
1.9278570581257415,2.278680084194076,3.9182986575239376,-7.987660923530946
1.9358564650059311,2.053623600381912,3.6831941382403155,-8.091262998003646
1.943855871886121,1.8285671165697417,3.448089618956687,-8.194865072476349
1.9518552787663108,1.6035106327575712,3.212985099673059,-8.29846714694905
1.9598546856465007,1.378454148945401,2.9778805803894306,-8.402069221421753
1.9678540925266903,1.1533976651332367,2.7427760611058085,-8.505671295894453
1.9758534994068802,0.9283411813210665,2.50767154182218,-8.609273370367156
1.98385290628707,0.703284697508896,2.272567022538552,-8.712875444839858
1.9918523131672599,0.47822821369672575,2.0374625032549236,-8.816477519312562
1.9998517200474495,0.25317172988456127,1.8023579839713015,-8.92007959378526
2.0078511269276396,-0.3612489323843639,3.2190584816132524,-7.973272479240807
2.015850533807829,-1.1813861209964136,2.2764412811387484,-7.979644128113882
2.023849940688019,-1.3377902615375923,2.5433749858780987,-7.927042012653223
2.0318493475682087,-1.3667404959611364,2.625559368468621,-7.880378805852115
2.0398487544483985,-1.3956907303846806,2.7077437510591427,-7.833715599051008
2.0478481613285884,-1.4246409648082248,2.7899281336496644,-7.7870523922499
2.0558475682087782,-1.453591199231769,2.872112516240186,-7.740389185448794
2.063846975088968,-1.4825414336553133,2.9542968988307083,-7.693725978647686
2.071846381969158,-1.5114916680788575,3.03648128142123,-7.647062771846579
2.079845788849348,-1.5404419025024016,3.118665664011752,-7.600399565045471
2.087845195729537,-1.5693921369259443,3.200850046602269,-7.553736358244366
2.095844602609727,-1.5983423713494884,3.2830344291927913,-7.507073151443259
2.103844009489917,-1.9593036773428292,3.250063167259838,-6.6153926453143415
2.1118434163701068,-2.3033380782918127,2.5800676156583053,-7.129195729537393
2.1198428232502966,-2.271900768476972,2.574276729073186,-7.138624039403785
2.1278422301304865,-2.2371207385631027,2.496021661766981,-7.1820990767961215
2.1358416370106763,-2.202340708649234,2.417766594460776,-7.225574114188458
2.143841043890866,-2.167560678735365,2.3395115271545714,-7.269049151580794
2.1518404507710556,-2.132780648821498,2.2612564598483704,-7.312524188973128
2.1598398576512454,-2.098000618907629,2.1830013925421654,-7.355999226365464
2.1678392645314353,-2.0632205889937603,2.1047463252359604,-7.399474263757799
2.175838671411625,-2.0284405590798915,2.026491257929756,-7.4429493011501355
2.183838078291815,-1.9936605291660225,1.9482361906235506,-7.486424338542472
2.191837485172005,-1.9588804992521536,1.8699811233173456,-7.529899375934808
2.1998368920521947,-1.9241004693382846,1.7917260560111405,-7.573374413327144
2.2078362989323845,-2.8867508896797167,1.8744092526690532,-9.00939857651246
2.215835705812574,-3.0061389284302105,1.727335758534334,-9.30854489916963
2.223835112692764,-2.8938805852115466,1.8354166337155655,-9.40373784104389
2.2318345195729536,-2.7816222419928827,1.943497508896797,-9.49893078291815
2.2398339264531435,-2.6693638987742188,2.051578384078028,-9.594123724792407
2.2478333333333333,-2.557105555555555,2.15965925925926,-9.689316666666667
2.255832740213523,-2.444847212336891,2.2677401344404915,-9.784509608540926
2.263832147093713,-2.332588869118227,2.3758210096217227,-9.879702550415184
2.271831553973903,-2.220330525899563,2.483901884802954,-9.974895492289443
2.2798309608540923,-2.108072182680906,2.5919827599841794,-10.070088434163697
2.287830367734282,-1.9958138394622418,2.700063635165411,-10.165281376037957
2.295829774614472,-1.8835554962435779,2.8081445103466427,-10.260474317912214
2.303829181494662,-1.798911679068263,3.519195406017442,-10.46783144613393
2.3118285883748517,-1.7647323951256328,5.332151892591432,-10.880164509867365
2.3198279952550416,-1.3348005422809672,1.8144016268429017,-10.01160074563633
2.3278274021352314,-0.6924275777603064,0.47163259694043225,-9.334974141516845
2.3358268090154213,-0.34637531389131393,0.6547878479764675,-9.291029347876322
2.343826215895611,-0.0003230500223215804,0.8379430990125027,-9.247084554235798
2.3518256227758005,0.34572921384665156,1.0210983500485278,-9.203139760595276
2.3598250296559904,0.691781477715644,1.204253601084563,-9.159194966954752
2.3678244365361802,1.0378337415846364,1.3874088521205983,-9.11525017331423
2.37582384341637,1.3838860054536286,1.5705641031566335,-9.071305379673706
2.38382325029656,1.7299382693226208,1.7537193541926688,-9.027360586033183
2.39182265717675,2.075990533191613,1.936874605228704,-8.983415792392659
2.3998220640569397,2.4220427970606058,2.1200298562647393,-8.939470998752135
2.4078214709371295,3.0572109720787277,3.849325463334991,-7.873179549484048
2.415820877817319,3.1566444597507597,3.8135431701934985,-7.767811017997682
2.4238202846975088,3.256077947422797,3.777760877052004,-7.66244248651131
2.4318196915776986,3.3555114350948343,3.7419785839105097,-7.557073955024938
2.4398190984578885,3.4549449227668716,3.7061962907690154,-7.4517054235385665
2.4478185053380783,3.554378410438909,3.670413997627521,-7.346336892052195
2.455817912218268,3.653811898110946,3.634631704486026,-7.240968360565823
2.463817319098458,3.753245385782984,3.5988494113445317,-7.135599829079451
2.471816725978648,3.8526788734550212,3.5630671182030373,-7.030231297593079
2.4798161328588373,3.9521123611270528,3.527284825061545,-6.924862766106713
2.487815539739027,4.0515458487990905,3.491502531920051,-6.8194942346203415
2.495814946619217,4.150979336471128,3.4557202387785564,-6.71412570313397
2.503814353499407,3.7067514827995574,4.9529045077105796,-9.165384341636972
2.5118137603795967,2.270527283511268,2.1223992212079,-9.369216875547995
2.5198131672597865,2.3445217971530243,2.202828040383722,-9.055501005724897
2.5278125741399764,2.4185163107947805,2.2832568595595437,-8.7417851359018
2.5358119810201663,2.4925108244365366,2.3636856787353655,-8.428069266078703
2.5438113879003557,2.5665053380782883,2.444114497911183,-8.114353396255623
2.5518107947805455,2.6404998517200444,2.524543317087005,-7.800637526432526
2.5598102016607354,2.7144943653618006,2.604972136262827,-7.486921656609429
2.567809608540925,2.7884888790035567,2.6854009554386487,-7.1732057867863315
2.575809015421115,2.862483392645313,2.7658297746144704,-6.859489916963234
2.583808422301305,2.9364779062870685,2.8462585937902922,-6.545774047140137
2.5918078291814948,3.0104724199288246,2.926687412966114,-6.23205817731704
2.5998072360616846,3.7451223803875484,4.487005140371786,-5.011991696322596
2.6078066429418745,1.3952651245550693,2.905979833926294,-6.615979240806627
2.615806049822064,1.5799612558833553,2.8187578540542564,-6.480847013354766
2.6238054567022537,1.8955507595760066,2.950705060013517,-6.363866439622957
2.6318048635824436,2.211140263268658,3.0826522659727775,-6.246885865891149
2.6398042704626334,2.526729766961309,3.2145994719320385,-6.12990529215934
2.6478036773428233,2.8423192706539604,3.346546677891299,-6.012924718427532
2.655803084223013,3.1579087743466117,3.4784938838505597,-5.895944144695723
2.663802491103203,3.473498278039263,3.6104410898098203,-5.778963570963914
2.671801897983393,3.789087781731915,3.742388295769081,-5.661982997232106
2.6798013048635823,4.104677285424549,3.8743355017283343,-5.5450024235003035
2.687800711743772,4.4202667891172,4.006282707687594,-5.428021849768495
2.695800118623962,4.735856292809851,4.138229913646855,-5.311041276036686
2.703799525504152,5.186425069197312,5.901848952155007,-3.54455318307631
2.7117989323843417,4.339811387900383,8.096186832740006,5.063388790035082
2.7197983392645315,4.651538619430333,8.075448891732314,6.1895664760686095
2.7277977461447214,5.01214109587215,7.742529755954525,6.589177296173375
2.735797153024911,5.372743572313967,7.409610620176736,6.9887881162781404
2.7437965599051006,5.733346048755764,7.076691484398966,7.388398936382883
2.7517959667852905,6.093948525197581,6.743772348621176,7.788009756487648
2.7597953736654803,6.454551001639397,6.410853212843388,8.187620576592414
2.76779478054567,6.815153478081214,6.077934077065598,8.58723139669718
2.77579418742586,7.175755954523031,5.74501494128781,8.986842216801943
2.78379359430605,7.536358430964848,5.41209580551002,9.386453036906708
2.7917930011862397,7.8969609074066645,5.079176669732231,9.786063857011474
2.7997924080664296,8.257563383848481,4.7462575339544415,10.18567467711624
2.807791814946619,8.492531138788312,5.0317375444838355,10.964484875443464
2.815791221826809,3.28913432497634,5.060646740506754,3.927859330640971
2.8237906287069987,3.4329438868673936,4.829652631719249,3.8307878763645093
2.8317900355871886,3.576753448758447,4.5986585229317445,3.7337164220880483
2.8397894424673784,3.7205630106495007,4.367664414144239,3.6366449678115873
2.8477888493475683,3.864372572540554,4.136670305356734,3.5395735135351263
2.855788256227758,4.008182134431608,3.90567619656923,3.442502059258665
2.863787663107948,4.1519916963226615,3.674682087781725,3.345430604982204
2.871787069988138,4.295801258213715,3.4436879789942205,3.2483591507057428
2.8797864768683272,4.439610820104761,3.2126938702067283,3.1512876964292866
2.887785883748517,4.583420381995814,2.9816997614192235,3.0542162421528256
2.895785290628707,4.727229943886868,2.750705652631719,2.9571447878763646
2.903784697508897,6.466259786476849,2.779680604982213,7.303877224199297
2.9117841043890866,6.726277502707721,2.3079914642322943,7.323696812625716
2.9197835112692765,6.701496731394089,2.153655081489501,7.352651187529012
2.9277829181494663,6.6767159600804575,1.9993186987467078,7.381605562432307
2.935782325029656,6.651935188766826,1.8449823160039145,7.410559937335603
2.9437817319098456,6.627154417453196,1.6906459332611299,7.439514312238898
2.9517811387900355,6.602373646139564,1.5363095505183366,7.4684686871421935
2.9597805456702253,6.577592874825933,1.3819731677755436,7.497423062045489
2.967779952550415,6.552812103512301,1.2276367850327503,7.526377436948785
2.975779359430605,6.52803133219867,1.073300402289957,7.555331811852081
2.983778766310795,6.5032505608850375,0.9189640195471638,7.584286186755377
2.9917781731909847,6.478469789571406,0.7646276368043707,7.613240561658673
2.9997775800711746,6.453689018257775,0.6102912540615775,7.642194936561968
3.007776986951364,6.614049822063991,2.138606168445986,8.093367734282307
3.015776393831554,6.926839156691472,1.4916907688989605,6.993453736654815
3.0237758007117437,6.840731539145907,1.2578643238434166,6.700005693950176
3.0317752075919335,6.859230167556346,1.244865287663108,6.856794068801897
3.0397746144721234,6.877728795966785,1.2318662514827996,7.013582443653618
3.0477740213523132,6.896227424377225,1.218867215302491,7.170370818505339
3.055773428232503,6.914726052787663,1.2058681791221826,7.32715919335706
3.063772835112693,6.933224681198102,1.192869142941874,7.483947568208781
3.071772241992883,6.951723309608542,1.1798701067615656,7.640735943060502
3.079771648873072,6.970221938018979,1.1668710705812577,7.797524317912214
3.087771055753262,6.988720566429419,1.1538720344009492,7.954312692763935
3.095770462633452,7.007219194839857,1.1408729982206407,8.111101067615657
3.1037698695136418,6.326826809015382,0.9379578884935691,6.778285290628725
3.1117692763938316,7.364384705162056,-0.4702305896758893,8.214615486166915
3.1197686832740215,7.380125473539204,-0.4387490529215938,8.232420617609918
3.1277680901542113,7.395866241916352,-0.40726751616729817,8.250225749052921
3.135767497034401,7.411607010293499,-0.3757859794130026,8.268030880495925
3.1437669039145906,7.427347778670646,-0.34430444265870885,8.285836011938928
3.1517663107947804,7.443088547047794,-0.3128229059044133,8.303641143381931
3.1597657176749703,7.458829315424942,-0.28134136915011776,8.321446274824934
3.16776512455516,7.47457008380209,-0.24985983239582218,8.339251406267937
3.17576453143535,7.4903108521792365,-0.2183782956415266,8.357056537710939
3.18376393831554,7.506051620556384,-0.18689675888723106,8.374861669153942
3.1917633451957297,7.521792388933532,-0.15541522213293552,8.392666800596945
3.1997627520759195,7.53753315731068,-0.12393368537863997,8.410471932039949
3.207762158956109,6.411390173981816,1.1394639185448763,6.655354883353099
3.215761565836299,7.069719261066016,1.3822391139189893,6.920423367587668
3.2237609727164886,7.040687705759259,1.3960807842510032,6.904334672851107
3.2317603795966785,7.011656150452503,1.4099224545830171,6.888245978114545
3.2397597864768684,6.982624595145746,1.423764124915031,6.872157283377984
3.247759193357058,6.9535930398389905,1.437605795247045,6.856068588641422
3.255758600237248,6.924561484532234,1.4514474655790588,6.83997989390486
3.263758007117438,6.895529929225478,1.4652891359110727,6.8238911991682984
3.2717574139976273,6.866498373918723,1.479130806243086,6.807802504431738
3.279756820877817,6.837466818611967,1.4929724765750998,6.791713809695176
3.287756227758007,6.80843526330521,1.5068141469071137,6.775625114958615
3.295755634638197,6.779403707998454,1.5206558172391276,6.759536420222053
3.3037550415183867,7.225164294187426,1.3135765124555168,6.517546856465002
3.3117544483985766,6.898041776264892,1.4984928051988253,6.8156076125638245
3.3197538552787664,6.8510017858063845,1.5783999239259392,6.7745671772654585
3.3277532621589563,6.803961795347877,1.6583070426530528,6.733526741967093
3.335752669039146,6.756921804889369,1.7382141613801667,6.692486306668728
3.3437520759193355,6.709881814430863,1.8181212801072761,6.651445871370365
3.3517514827995254,6.662841823972356,1.8980283988343898,6.610405436072
3.3597508896797152,6.615801833513848,1.9779355175615037,6.569365000773635
3.367750296559905,6.5687618430553405,2.0578426362886173,6.52832456547527
3.375749703440095,6.521721852596833,2.137749755015731,6.487284130176905
3.383749110320285,6.4746818621383255,2.217656873742845,6.4462436948785395
3.3917485172004747,6.427641871679818,2.297563992469959,6.405203259580174
3.3997479240806645,6.6086293001187055,2.1441269276393005,6.606587781731998
3.407747330960854,6.814157176749697,1.741468861209968,7.066285883748532
3.4157467378410438,6.919532900704768,1.6678356011443722,6.776252424813343
3.4237461447212336,6.853278989602961,1.6670827157909427,6.727032544832881
3.4317455516014235,6.787025078501153,1.666329830437513,6.677812664852419
3.4397449584816133,6.720771167399345,1.6655769450840834,6.628592784871956
3.447744365361803,6.654517256297537,1.6648240597306538,6.579372904891494
3.455743772241993,6.588263345195729,1.664071174377224,6.530153024911032
3.463743179122183,6.522009434093922,1.6633182890237945,6.48093314493057
3.4717425860023723,6.455755522992118,1.662565403670365,6.43171326495011
3.479741992882562,6.38950161189031,1.6618125183169352,6.382493384969648
3.487741399762752,6.323247700788502,1.6610596329635057,6.333273504989186
3.495740806642942,6.256993789686694,1.660306747610076,6.284053625008723
3.5037402135231317,7.1661921708185226,1.3202846975088907,7.107758007117453
3.5117396204033215,7.280904794044255,1.264162903423734,7.187679163087491
3.5197390272835114,7.121744181290132,1.3047116210578,7.0163815192048045
3.5277384341637013,6.96258356853601,1.3452603386918658,6.845083875322118
3.5357378410438907,7.093462633451926,1.278811981020178,7.332278173190911
3.5437372479240805,6.029483620007909,2.03931466982997,6.494605703835505
3.5517366548042704,6.000552431791222,2.1555727164887286,6.624329418742584
3.55973606168446,5.9716212435745355,2.271830763147488,6.754053133649663
3.56773546856465,5.942690055357849,2.3880888098062467,6.883776848556741
3.57573487544484,5.913758867141162,2.504346856465006,7.01350056346382
3.5837342823250298,5.884827678924475,2.6206049031237653,7.143224278370898
3.5917336892052196,5.855896490707789,2.736862949782524,7.2729479932779775
3.5997330960854095,5.826965302491102,2.8531209964412834,7.402671708185055
3.607732502965599,5.647395017793593,2.996474199288221,7.151730723606112
3.6157319098457887,5.6593355121407996,3.025796620427531,7.23830220059554
3.6237313167259786,5.670028596847992,3.014205643111337,7.260341382816471
3.6317307236061684,5.680721681555184,3.002614665795144,7.2823805650374025
3.6397301304863583,5.691414766262377,2.99102368847895,7.304419747258334
3.647729537366548,5.702107850969569,2.9794327111627568,7.326458929479265
3.655728944246738,5.712800935676762,2.9678417338465635,7.348498111700196
3.663728351126928,5.723494020383955,2.9562507565303697,7.370537293921128
3.6717277580071173,5.734187105091147,2.944659779214177,7.392576476142057
3.679727164887307,5.744880189798339,2.9330688018979836,7.4146156583629885
3.687726571767497,5.755573274505532,2.9214778245817903,7.436654840583921
3.695725978647687,5.766266359212724,2.9098868472655965,7.458694022804852
3.7037253855278767,5.7769594439199174,2.8982958699494032,7.480733205025783
3.7117247924080665,5.632528469750897,2.9235717674970556,7.3638683274021774
3.7197241992882564,5.712346238802307,3.064461058616599,7.703111690595983
3.7277236061684462,5.741309608540925,3.0257512850929213,7.692537761961249
3.7357230130486356,5.770272978279543,2.987041511569246,7.681963833326516
3.7437224199288255,5.7992363480181615,2.9483317380455687,7.671389904691782
3.7517218268090153,5.82819971775678,2.9096219645218913,7.660815976057049
3.759721233689205,5.857163087495398,2.870912190998214,7.650242047422315
3.767720640569395,5.886126457234017,2.8322024174745364,7.639668118787581
3.775720047449585,5.915089826972635,2.793492643950859,7.6290941901528475
3.7837194543297747,5.944053196711254,2.7547828704271815,7.618520261518114
3.7917188612099646,5.973016566449872,2.716073096903504,7.6079463328833805
3.799718268090154,6.00197993618849,2.677363323379829,7.597372404248647
3.807717674970344,5.255474792408062,3.205960458679321,7.359036872281532
3.8157170818505337,5.783990213523097,2.7943692170819077,7.698214412811356
3.8237164887307236,6.152553437270519,2.1871319550358703,7.984181861831329
3.8317158956109134,6.1675047096537305,2.1598958792295093,7.934376030898719
3.8397153024911033,6.1824559820369425,2.1326598034231488,7.884570199966108
3.847714709371293,6.197407254420154,2.1054237276167878,7.834764369033497
3.855714116251483,6.212358526803366,2.0781876518104268,7.784958538100886
3.863713523131673,6.227309799186579,2.050951576004066,7.735152707168275
3.8717129300118622,6.24226107156979,2.023715500197707,7.685346876235667
3.879712336892052,6.257212343953002,1.996479424391346,7.635541045303056
3.887711743772242,6.272163616336214,1.9692433485849852,7.5857352143704455
3.895711150652432,6.287114888719426,1.9420072727786244,7.535929383437835
3.9037105575326216,5.529489323843424,3.149975088967976,7.711179122182664
3.9117099644128115,5.496231084635621,2.333614962091909,6.896625831657123
3.9197093712930013,5.643350611171287,2.3910020114497925,6.807415054928049
3.927708778173191,5.7904701377069525,2.4483890608076764,6.718204278198976
3.9357081850533806,5.937589664242609,2.5057761101655567,6.628993501469907
3.9437075919335705,6.084709190778275,2.5631631595234405,6.539782724740833
3.9517069988137603,6.23182871731394,2.6205502088813244,6.45057194801176
3.95970640569395,6.378948243849606,2.677937258239208,6.361361171282685
3.96770581257414,6.526067770385271,2.7353243075970917,6.272150394553612
3.97570521945433,6.673187296920936,2.7927113569549755,6.182939617824538
3.9837046263345197,6.820306823456602,2.850098406312859,6.093728841095465
3.9917040332147096,6.967426349992268,2.907485455670743,6.0045180643663905
3.999703440094899,7.114545876527925,2.964872505028623,5.915307287637322
4.007702846975089,7.1537206979680885,2.92228509929974,5.826276566027624
4.015702253855279,7.18468614395592,2.971055676730575,5.772517111187638
4.023701660735469,7.215651589943752,3.01982625416141,5.718757656347653
4.031701067615658,7.24661703593158,3.0685968315922394,5.664998201507673
4.039700474495848,7.277582481919412,3.1173674090230743,5.611238746667688
4.047699881376038,7.308547927907243,3.166137986453909,5.557479291827702
4.0556992882562275,7.339513373895075,3.214908563884744,5.503719836987717
4.063698695136417,7.370478819882907,3.263679141315579,5.449960382147731
4.071698102016607,7.4014442658707384,3.312449718746414,5.396200927307746
4.079697508896797,7.432409711858571,3.3612202961772484,5.34244147246776
4.087696915776987,7.463375157846403,3.4099908736080833,5.2886820176277745
4.095696322657177,7.494340603834234,3.458761451038918,5.234922562787789
4.103695729537367,7.042335409252698,4.157051601423481,5.51459697508896
4.1116951364175565,6.937068750322347,3.1824182268296464,6.344347284542781
4.119694543297746,6.984891291453917,3.1166839702924336,6.411385792201764
4.127693950177936,7.032713832585487,3.0509497137552213,6.478424299860746
4.135693357058126,7.080536373717057,2.9852154572180085,6.545462807519729
4.143692763938316,7.128358914848627,2.919481200680796,6.6125013151787115
4.151692170818506,7.176181455980196,2.8537469441435834,6.679539822837694
4.159691577698696,7.224003997111767,2.788012687606371,6.746578330496677
4.1676909845788845,7.271826538243332,2.722278431069166,6.813616838155652
4.175690391459074,7.319649079374901,2.656544174531953,6.880655345814635
4.183689798339264,7.367471620506471,2.590809917994741,6.947693853473617
4.191689205219454,7.415294161638041,2.525075661457528,7.0147323611326
4.199688612099644,7.135008007117413,2.659877224199303,6.96410053380782
4.207688018979834,6.4945919335705815,2.9908718861209964,6.42440173981811
4.215687425860024,7.170251680506063,2.5639483985765494,6.224123368920516
4.2236868327402135,6.523116309348147,2.5603897231143136,6.590521222116136
4.231686239620403,6.517653299771432,2.6762835691346254,6.58281447646327
4.239685646500593,6.512190290194717,2.792177415154937,6.575107730810404
4.247685053380783,6.506727280618001,2.9080712611752486,6.567400985157539
4.255684460260973,6.501264271041287,3.0239651071955604,6.5596942395046725
4.263683867141163,6.495801261464572,3.139858953215872,6.551987493851807
4.271683274021353,6.490338251887857,3.2557527992361837,6.544280748198941
4.2796826809015425,6.4848752423111415,3.3716466452564955,6.536574002546075
4.287682087781732,6.479412232734426,3.487540491276807,6.528867256893209
4.295681494661921,6.473949223157712,3.603434337297106,6.521160511240344
4.303680901542111,6.579586595492279,3.6402336892052216,6.775276591538134
4.311680308422301,6.590295136417556,3.2566442533280617,6.381937089758798
4.319679715302491,6.567896797153025,3.297796757611705,6.410201660735469
4.327679122182681,6.545498457888494,3.3389492618953476,6.438466231712139
4.3356785290628705,6.523100118623962,3.3801017661789907,6.46673080268881
4.34367793594306,6.500701779359431,3.4212542704626334,6.494995373665481
4.35167734282325,6.478303440094899,3.4624067747462766,6.5232599446421515
4.35967674970344,6.455905100830368,3.5035592790299197,6.551524515618822
4.36767615658363,6.433506761565837,3.5447117833135624,6.579789086595492
4.37567556346382,6.411108422301305,3.5858642875972055,6.608053657572163
4.38367497034401,6.388710083036774,3.6270167918808482,6.636318228548833
4.3916743772241995,6.3663117437722425,3.6681692961644914,6.664582799525504
4.399673784104389,6.343913404507711,3.7093218004481345,6.692847370502174
4.407673190984579,6.653050245721145,3.3098905270292525,6.742940772750397
4.415672597864769,6.105856475321058,3.6361886430450254,6.486553674764043
4.423672004744959,6.123385610397649,3.6247807932332763,6.506169611635464
4.431671411625148,6.1409147454742365,3.6133729434215285,6.525785548506884
4.439670818505338,6.158443880550827,3.6019650936097793,6.5454014853783065
4.447670225385528,6.175973015627417,3.59055724379803,6.565017422249729
4.455669632265717,6.193502150704007,3.5791493939862815,6.584633359121151
4.463669039145907,6.211031285780597,3.5677415441745324,6.604249295992573
4.471668446026097,6.228560420857187,3.5563336943627832,6.623865232863995
4.479667852906287,6.246089555933777,3.544925844551034,6.643481169735417
4.487667259786477,6.263618691010367,3.533517994739285,6.663097106606839
4.495666666666667,6.281147826086957,3.522110144927536,6.682713043478262
4.5036660735468566,6.298676961163547,3.5107022951157867,6.702328980349684
4.511665480427046,6.316206096240137,3.4992944453040375,6.721944917221106
4.519664887307236,6.333735231316727,3.487886595492289,6.741560854092528
4.527664294187426,6.351264366393318,3.4764787456805397,6.76117679096395
4.535663701067616,5.931437129300118,3.7560495255041544,6.7363268090154245
4.543663107947806,5.9239225349581215,3.7995614508070052,6.781171968798307
4.551662514827996,5.916407940616125,3.8430733761098566,6.8260171285811895
4.559661921708185,5.908893346274129,3.8865853014127025,6.8708622883640675
4.5676613285883745,5.901378751932133,3.9300972267155534,6.91570744814695
4.575660735468564,5.893864157590136,3.9736091520184043,6.9605526079298325
4.583660142348754,5.88634956324814,4.017121077321256,7.005397767712715
4.591659549228944,5.878834968906143,4.060633002624106,7.0502429274955976
4.599658956109134,5.871320374564147,4.104144927926957,7.09508808727848
4.607658362989324,5.517537092800448,4.0706537092800446,6.849575964960313
4.615657769869514,7.028077402135531,3.620344306049683,8.32468505338105
4.6236571767497034,6.506310201660757,4.328358244365342,7.393531435349969
4.631656583629893,6.239059735638027,4.604350788002034,7.005170818505338
4.639655990510083,6.260356857851519,4.60767521683536,7.013897444192818
4.647655397390273,6.281653980065012,4.610999645668685,7.0226240698802975
4.655654804270463,6.302951102278504,4.614324074502011,7.031350695567777
4.663654211150653,6.324248224491997,4.617648503335336,7.040077321255257
4.671653618030843,6.34554534670549,4.620972932168662,7.048803946942737
4.679653024911032,6.366842468918982,4.624297361001988,7.057530572630217
4.687652431791222,6.388139591132474,4.627621789835313,7.066257198317697
4.695651838671411,6.409436713345965,4.6309462186686385,7.074983824005176
4.703651245551601,6.435186832740208,4.4483950177937555,7.061834519572972
4.711650652431791,5.975933456001294,3.856587788471909,6.230952024695343
4.719650059311981,5.9751153348430925,3.8392254394478607,6.353306589021884
4.727649466192171,5.974297213684892,3.821863090423812,6.475661153348423
4.7356488730723605,5.9734790925266905,3.804500741399764,6.598015717674963
4.74364827995255,5.972660971368489,3.787138392375715,6.720370282001504
4.75164768683274,5.971842850210288,3.769776043351667,6.842724846328044
4.75964709371293,5.971024729052086,3.7524136943276183,6.965079410654584
4.76764650059312,5.970206607893886,3.73505134530357,7.087433974981124
4.77564590747331,5.969388486735684,3.7176889962795214,7.209788539307664
4.7836453143535,5.968570365577483,3.7003266472554732,7.332143103634205
4.7916447212336895,5.967752244419281,3.6829642982314246,7.454497667960744
4.799644128113879,6.0636192170818495,3.6992064056939498,7.3415551601423505
4.807643534994069,5.917557829181483,3.9071485765124625,6.6427950771055775
4.815642941874259,5.433235755128145,4.076528436429562,6.983071174377222
4.823642348754448,5.338591087208606,4.185014774681114,6.959072953736655
4.831641755634638,5.243946419289057,4.2935011129326766,6.935074733096085
4.839641162514828,5.149301751369507,4.401987451184239,6.911076512455516
4.8476405693950175,5.054657083449959,4.510473789435802,6.887078291814946
4.855639976275207,4.960012415530409,4.618960127687365,6.863080071174377
4.863639383155397,4.86536774761086,4.727446465938929,6.839081850533808
4.871638790035587,4.770723079691312,4.835932804190492,6.8150836298932385
4.879638196915777,4.676078411771762,4.9444191424420545,6.791085409252669
4.887637603795967,4.581433743852213,5.052905480693617,6.767087188612099
4.895637010676157,4.486789075932664,5.16139181894518,6.74308896797153
4.9036364175563465,4.394112692764067,5.375416370106536,6.119615065243053
4.911635824436536,4.552157718848449,5.498784742152326,6.668697190015179
4.919635231316726,4.460121532162394,5.545318926261817,6.6654286151609075
4.927634638196916,4.368085345476339,5.591853110371309,6.662160040306636
4.935634045077106,4.276049158790284,5.6383872944808004,6.658891465452365
4.943633451957296,4.184012972104228,5.684921478590292,6.655622890598094
4.951632858837486,4.091976785418173,5.7314556626997835,6.652354315743823
4.959632265717675,3.9999405987321275,5.77798984680927,6.649085740889553
4.967631672597864,3.907904412046072,5.824524030918761,6.645817166035281
4.975631079478054,3.815868225360017,5.871058215028253,6.64254859118101
4.983630486358244,3.7238320386739616,5.917592399137744,6.6392800163267385
4.991629893238434,3.6317958519879063,5.964126583247236,6.636011441472467
4.999629300118624,3.814452550415181,5.659626334519577,6.731800118623961
5.007628706998814,3.6782947805456736,6.424799377224189,6.8043038256227755
5.0156281138790035,3.5976522767712704,6.052081021514074,6.494702402135232
5.023627520759193,3.6713740833602926,5.986540426507064,6.452705516014236
5.031626927639383,3.7450958899493147,5.920999831500054,6.4107086298932385
5.039626334519573,3.818817696538337,5.8554592364930445,6.368711743772242
5.047625741399763,3.8925395031273595,5.789918641486034,6.326714857651246
5.055625148279953,3.9662613097163817,5.724378046479024,6.284717971530249
5.063624555160143,4.039983116305404,5.658837451472015,6.2427210854092525
5.0716239620403325,4.113704922894426,5.593296856465004,6.200724199288255
5.079623368920522,4.187426729483448,5.527756261457994,6.158727313167259
5.087622775800711,4.261148536072462,5.462215666450992,6.116730427046267
5.095622182680901,4.3348703426614845,5.3966750714439815,6.07473354092527
5.103621589561091,4.05134104389072,6.007112692764004,5.080433570581274
5.111620996441281,4.558332115544787,6.537153819943968,6.162212765957444
5.119620403321471,4.561651018399334,6.607106080109032,6.257865248226949
5.127619810201661,4.564969921253881,6.677058340274097,6.353517730496453
5.13561921708185,4.568288824108428,6.747010600439161,6.4491702127659565
5.14361862396204,4.5716077269629745,6.8169628606042245,6.54482269503546
5.15161803084223,4.574926629817521,6.886915120769289,6.640475177304964
5.15961743772242,4.578245532672068,6.956867380934353,6.736127659574469
5.16761684460261,4.581564435526615,7.026819641099417,6.831780141843972
5.1756162514828,4.584883338381162,7.096771901264481,6.927432624113476
5.1836156583629895,4.588202241235708,7.166724161429546,7.02308510638298
5.191615065243179,4.591521144090255,7.23667642159461,7.118737588652484
5.199614472123369,4.594840046944801,7.3066286817596735,7.214390070921988
5.207613879003559,3.586539654295866,6.802873919674626,6.076620742247072
5.215613285883749,3.446507124255196,6.752712507328779,6.047980133895096
5.223612692763938,3.4985492425791835,6.749862143957677,6.090000006817467
5.231612099644128,3.550591360903177,6.747011780586575,6.132019879739844
5.239611506524318,3.60263347922717,6.744161417215473,6.17403975266222
5.2476109134045075,3.6546755975511633,6.74131105384437,6.216059625584597
5.255610320284697,3.7067177158751567,6.738460690473269,6.258079498506973
5.263609727164887,3.75875983419915,6.735610327102166,6.300099371429349
5.271609134045077,3.8108019525231436,6.7327599637310644,6.342119244351725
5.279608540925267,3.862844070847137,6.729909600359962,6.384139117274102
5.287607947805457,3.9148861891711304,6.72705923698886,6.426158990196478
5.295607354685647,3.966928307495124,6.724208873617758,6.468178863118855
5.303606761565836,4.050629893238434,7.198346975088968,5.832567615658364
5.311606168446026,4.122707253919054,7.018356382096712,5.072689179708925
5.319605575326216,4.06378689141443,7.0845020153318305,5.026585071238153
5.327604982206406,4.0048665289098055,7.150647648566949,4.980480962767381
5.335604389086596,3.9459461664051814,7.216793281802066,4.93437685429661
5.343603795966786,3.887025803900557,7.282938915037184,4.888272745825837
5.351603202846975,3.8281054413959397,7.3490845482722955,4.842168637355071
5.3596026097271645,3.7691850788913155,7.415230181507414,4.796064528884299
5.367602016607354,3.7102647163866913,7.481375814742532,4.749960420413528
5.375601423487544,3.651344353882067,7.54752144797765,4.703856311942756
5.383600830367734,3.592423991377443,7.6136670812127685,4.6577522034719845
5.391600237247924,3.5335036288728188,7.679812714447887,4.611648095001213
5.399599644128114,3.443021352313171,7.663645907473317,4.619669928825617
5.407599051008304,2.709971821213546,8.08354108194006,5.591882450368179
5.4155984578884935,2.724838643434276,8.071240107209203,5.501247661093576
5.423597864768683,2.7397054656550064,8.058939132478345,5.410612871818971
5.431597271648873,2.7545722878757366,8.046638157747488,5.319978082544367
5.439596678529063,2.769439110096467,8.034337183016628,5.229343293269763
5.447596085409253,2.784305932317197,8.02203620828577,5.138708503995159
5.455595492289443,2.7991727545379272,8.009735233554913,5.048073714720555
5.463594899169633,2.8140395767586575,7.997434258824055,4.957438925445951
5.471594306049822,2.8289063989793877,7.985133284093197,4.866804136171347
5.479593712930012,2.843773221200118,7.972832309362339,4.776169346896743
5.487593119810201,2.8586400434208463,7.960531334631482,4.685534557622149
5.495592526690391,2.8735068656415765,7.9482303599006245,4.594899768347545
5.503591933570581,2.8883736878623067,7.935929385169766,4.504264979072941
5.511591340450771,2.903240510083037,7.9236284104389085,4.4136301897983365
5.519590747330961,3.8205740213522903,7.6230501779359265,3.9262839857651115
5.5275901542111505,4.574352634440495,7.075426107156975,4.870893427902992
5.53558956109134,4.43003000197707,7.1760853103993645,4.883003641096613
5.54358896797153,4.285707369513645,7.276744513641753,4.8951138542902335
5.55158837485172,4.1413847370502195,7.377403716884142,4.907224067483854
5.55958778173191,3.997062104586795,7.478062920126531,4.919334280677474
5.5675871886121,3.8527394721233694,7.57872212336892,4.931444493871095
5.57558659549229,3.7084168396599444,7.679381326611309,4.943554707064716
5.5835860023724795,3.5640942071965194,7.780040529853698,4.955664920258337
5.591585409252669,3.419771574733094,7.880699733096087,4.9677751334519575
5.599584816132859,2.9459294187424603,8.211142941874346,4.951221233689195
5.607584223013049,4.578673222201415,8.800532509208965,4.675783773490666
5.615583629893238,4.637616220265966,8.793122532309422,4.679741374789286
5.623583036773428,4.696559218330522,8.785712555409877,4.683698976087906
5.631582443653618,4.7555022163950795,8.778302578510333,4.687656577386527
5.639581850533808,4.814445214459637,8.770892601610788,4.691614178685147
5.647581257413997,4.873388212524193,8.763482624711244,4.6955717799837675
5.655580664294187,4.9323312105887505,8.7560726478117,4.699529381282388
5.663580071174377,4.991274208653308,8.748662670912156,4.703486982581008
5.671579478054567,5.050217206717864,8.741252694012612,4.707444583879628
5.679578884934757,5.109160204782421,8.733842717113067,4.711402185178248
5.687578291814947,5.168103202846979,8.726432740213523,4.715359786476869
5.6955776986951365,5.227046200911535,8.719022763313978,4.719317387775489
5.703577105575326,4.508056642941889,7.368346085409273,2.960244958481622
5.711576512455516,5.2230604982206374,7.363561743772241,3.2758637010676153
5.719575919335706,5.543036773428239,7.471953706998816,3.3086612692763944
5.727575326215896,5.814509583567463,7.564720921520886,3.3413427608166337
5.735574733096086,5.888188331148159,7.593771399138417,3.373550899044767
5.743574139976276,5.961867078728855,7.622821876755949,3.4057590372728996
5.751573546856465,6.035545826309543,7.651872354373477,3.4379671755010293
5.7595729537366545,6.10922457389024,7.680922831991009,3.470175313729162
5.767572360616844,6.182903321470937,7.70997330960854,3.502383451957295
5.775571767497034,6.256582069051633,7.739023787226072,3.534591590185428
5.783571174377224,6.330260816632329,7.768074264843604,3.566799728413561
5.791570581257414,6.403939564213026,7.797124742461135,3.599007866641694
5.799569988137604,6.477618311793722,7.826175220078667,3.631216004869827
5.807569395017794,5.462943060498271,7.860028469750865,3.8598505338078355
5.815568801897983,5.15814371749247,7.956868144903732,3.7087347385710348
5.823568208778173,5.079028704391691,7.937704730619321,3.5795135505064297
5.831567615658363,4.999913691290913,7.91854131633491,3.4502923624418247
5.839567022538553,4.920798678190134,7.899377902050499,3.3210711743772197
5.847566429418743,4.841683665089356,7.8802144877660885,3.1918499863126146
5.855565836298933,4.762568651988577,7.861051073481677,3.0626287982480096
5.8635652431791225,4.683453638887799,7.841887659197266,2.9334076101834046
5.871564650059312,4.60433862578702,7.822724244912855,2.8041864221187995
5.879564056939501,4.525223612686251,7.803560830628447,2.6749652340542087
5.887563463819691,4.446108599585472,7.784397416344036,2.5457440459896037
5.895562870699881,4.366993586484693,7.765234002059625,2.4165228579249987
5.903562277580071,4.252336298932377,8.516391459074816,3.1600996441280875
5.911561684460261,5.1386139042427,7.19220446858989,3.5982478672925984
5.919561091340451,5.156144519320562,7.136634120794528,3.3648183665228037
5.9275604982206405,5.173675134398425,7.081063772999167,3.131388865753009
5.93555990510083,5.191205749476288,7.0254934252038055,2.8979593649832145
5.94355931198102,5.208736364554151,6.969923077408445,2.66452986421342
5.95155871886121,5.226266979632014,6.914352729613084,2.4311003634436252
5.9595581257414,5.243797594709877,6.858782381817722,2.1976708626738306
5.96755753262159,5.26132820978774,6.803212034022361,1.9642413619040362
5.97555693950178,5.278858824865602,6.7476416862269994,1.7308118611342416
5.983556346381969,5.296389439943465,6.692071338431639,1.4973823603644467
5.991555753262159,5.313920055021328,6.636500990636277,1.263952859594652
5.999555160142349,5.331450670099191,6.580930642840916,1.0305233588248575
6.007554567022539,6.954613285883137,5.057767497034985,1.5117799525506066
6.015553973902728,5.899680315086568,7.179645061111333,1.5843212176949635
6.023553380782918,5.9064213883002115,7.2194623335599175,1.5761420488624098
6.031552787663108,5.9131624615138545,7.259279606008502,1.5679628800298562
6.0395521945432975,5.9199035347274975,7.299096878457088,1.5597837111973025
6.047551601423487,5.926644607941141,7.338914150905673,1.5516045423647489
6.055551008303677,5.933385681154784,7.3787314233542585,1.5434253735321952
6.063550415183867,5.940126754368427,7.418548695802843,1.5352462046996416
6.071549822064057,5.94686782758207,7.458365968251429,1.5270670358670881
6.079549228944247,5.953608900795714,7.498183240700014,1.5188878670345345
6.087548635824437,5.960349974009357,7.538000513148599,1.5107086982019808
6.0955480427046265,5.967091047223,7.577817785597184,1.5025295293694272
6.103547449584816,6.434045077105565,8.01190806642942,1.98600177935945
6.111546856465006,5.9664807920430425,7.823926179395914,1.9289118532712661
6.119546263345196,5.465259786476863,7.509131672597844,1.3782037366546607
6.127545670225386,5.532464519268789,7.482946162971073,0.5803016394439894
6.135545077105576,5.643020424612953,7.561094214800621,0.35580546430635196
6.143544483985766,5.753576329957116,7.639242266630168,0.13130928916871454
6.1515438908659545,5.864132235301266,7.7173903184597075,-0.09318688596889801
6.159543297746144,5.974688140645429,7.795538370289255,-0.31768306110653555
6.167542704626334,6.085244045989593,7.873686422118802,-0.5421792362441729
6.175542111506524,6.195799951333756,7.95183447394835,-0.7666754113818104
6.183541518386714,6.306355856677919,8.029982525777898,-0.9911715865194477
6.191540925266904,6.416911762022082,8.108130577607445,-1.2156677616570852
6.199540332147094,6.644816725978685,8.301494068801933,-1.263440688018932
6.2075397390272835,6.814242535524091,6.548864592009288,-0.4137571489866485
6.215539145907473,6.821305841599152,6.55158779435148,-0.4098425456197471
6.223538552787663,6.828369147674214,6.554310996693673,-0.40592794225284573
6.231537959667853,6.8354324537492746,6.557034199035865,-0.4020133388859443
6.239537366548043,6.842495759824335,6.559757401378057,-0.3980987355190429
6.247536773428233,6.849559065899397,6.56248060372025,-0.3941841321521415
6.255536180308423,6.856622371974458,6.565203806062442,-0.39026952878524007
6.2635355871886125,6.863685678049519,6.567927008404634,-0.3863549254183387
6.271534994068802,6.87074898412458,6.570650210746826,-0.3824403220514373
6.279534400948991,6.877812290199641,6.573373413089018,-0.3785257186845363
6.287533807829181,6.884875596274702,6.576096615431211,-0.3746111153176349
6.295533214709371,6.891938902349763,6.578819817773403,-0.3706965119507335
6.303532621589561,6.412938315539641,6.46646737841044,0.05008896797147437
6.311532028469751,6.425278287988368,6.567545746756972,0.11002619293613222
6.3195314353499406,6.4155585785532985,6.623283549535069,0.18236491536881683
6.32753084223013,6.405838869118229,6.679021352313166,0.2547036378015014
6.33553024911032,6.39611915968316,6.734759155091263,0.327042360234186
6.34352965599051,6.38639945024809,6.79049695786936,0.3993810826668706
6.3515290628707,6.376679740813021,6.846234760647457,0.4717198050995552
6.35952846975089,6.3669600313779515,6.901972563425554,0.5440585275322398
6.36752787663108,6.357240321942882,6.957710366203651,0.6163972499649244
6.3755272835112695,6.347520612507813,7.013448168981748,0.688735972397609
6.383526690391459,6.337800903072743,7.069185971759845,0.7610746948302936
6.391526097271649,6.328081193637674,7.124923774537942,0.8334134172629781
6.399525504151839,6.417532028469833,7.203012455516036,1.047352906287192
6.407524911032029,7.578129256415041,8.39063142910659,0.8133356246488143
6.415524317912218,7.384712018480368,8.546072535431103,0.8518169819566704
6.423523724792408,7.1912947805456735,8.701513641755632,0.8902983392645307
6.431523131672598,6.997877542610979,8.856954748080163,0.9287796965723911
6.4395225385527874,6.804460304676285,9.012395854404692,0.9672610538802515
6.447521945432977,6.6110430667415905,9.167836960729224,1.005742411188112
6.455521352313167,6.417625828806896,9.323278067053753,1.0442237684959723
6.463520759193357,6.224208590872202,9.478719173378284,1.0827051258038327
6.471520166073547,6.0307913529375075,9.634160279702813,1.121186483111693
6.479519572953737,5.837374115002813,9.789601386027345,1.1596678404195535
6.487518979833927,5.643956877068118,9.945042492351874,1.198149197727414
6.495518386714116,5.4505396391334235,10.100483598676405,1.2366305550352743
6.503517793594306,5.40957149789711,10.18351989647361,0.9435998058880463
6.511517200474496,5.196496387361146,9.722463172651763,0.6410767820554153
6.519516607354686,4.926841420015624,8.912268560310158,-0.0567825637242137
6.527516014234876,4.932694644562104,8.903586277232879,-0.0783419408037498
6.535515421115066,4.938547869108584,8.8949039941556,-0.0999013178832859
6.543514827995255,4.944401093655064,8.88622171107832,-0.12146069496281961
6.5515142348754445,4.950254318201544,8.877539428001041,-0.14302007204235573
6.559513641755634,4.9561075427480255,8.868857144923762,-0.16457944912189182
6.567513048635824,4.961960767294506,8.860174861846485,-0.1861388262014279
6.575512455516014,4.967813991840986,8.851492578769205,-0.20769820328096406
6.583511862396204,4.973667216387466,8.842810295691926,-0.22925758036050015
6.591511269276394,4.979520440933947,8.834128012614647,-0.25081695744003624
6.599510676156584,4.983723309608542,8.736887010676186,-0.2934697508896721
6.6075100830367735,5.187190747330961,8.342984104389087,-0.9785447212336895
6.615509489916963,5.188201198726354,8.342899900106138,-0.9973222763313984
6.623508896797153,5.189211650121746,8.342815695823187,-1.0160998314291072
6.631508303677343,5.190222101517138,8.342731491540238,-1.0348773865268162
6.639507710557533,5.19123255291253,8.34264728725729,-1.0536549416245249
6.647507117437723,5.192243004307923,8.34256308297434,-1.0724324967222338
6.655506524317913,5.193253455703315,8.342478878691391,-1.0912100518199428
6.663505931198102,5.1942639070987076,8.34239467440844,-1.1099876069176515
6.671505338078292,5.1952743584941,8.342310470125492,-1.1287651620153605
6.679504744958481,5.196284809889493,8.342226265842543,-1.1475427171130672
6.687504151838671,5.197295261284885,8.342142061559594,-1.166320272210776
6.695503558718861,5.198305712680277,8.342057857276645,-1.185097827308485
6.703502965599051,5.2364428627916135,8.105569790431016,-1.4562040332147164
6.711502372479241,5.334118205289233,7.839975193636173,-1.36601267357477
6.7195017793594305,5.336000418672807,7.855503454050659,-1.3343679610634305
6.72750118623962,5.337882632056381,7.871031714465145,-1.302723248552091
6.73550059311981,5.339764845439955,7.886559974879631,-1.2710785360407515
6.7435,5.341647058823529,7.9020882352941175,-1.239433823529412
6.75149940688019,5.343529272207103,7.917616495708604,-1.2077891110180725
6.75949881376038,5.345411485590677,7.93314475612309,-1.1761443985067332
6.76749822064057,5.347293698974251,7.948673016537576,-1.1444996859953938
6.7754976275207595,5.3491759123578255,7.964201276952062,-1.1128549734840543
6.783497034400949,5.247952550415191,8.27321589561092,-0.6472016607354376
6.791496441281139,5.231321772610136,8.143830285924652,-0.6578578506565222
6.799495848161329,5.234700832412975,8.13776177036037,-0.6576509694441036
6.807495255041518,5.238079892215814,8.13169325479609,-0.6574440882316849
6.815494661921708,5.241458952018652,8.125624739231808,-0.6572372070192662
6.823494068801898,5.244838011821491,8.119556223667526,-0.6570303258068475
6.8314934756820875,5.24821707162433,8.113487708103245,-0.6568234445944288
6.839492882562277,5.251596131427169,8.107419192538963,-0.6566165633820101
6.847492289442467,5.254975191230008,8.10135067697468,-0.6564096821695914
6.855491696322657,5.258354251032847,8.095282161410399,-0.6562028009571726
6.863491103202847,5.261733310835685,8.089213645846117,-0.655995919744754
6.871490510083037,5.265112370638524,8.083145130281835,-0.6557890385323353
6.879489916963227,5.268491430441363,8.077076614717553,-0.6555821573199165
6.8874893238434165,5.2718704902442015,8.071008099153271,-0.6553752761074979
6.895488730723606,5.27524955004704,8.06493958358899,-0.6551683948950792
6.903488137603796,5.274279655990509,8.141103499406896,-0.7227102609727286
6.911487544483986,5.258024911032028,8.31738951795536,-0.7167305079262363
6.919486951364176,5.370190991724907,8.448074811702325,-0.7433483471251557
6.927486358244366,5.367588775028942,8.435449241807085,-0.7476853749517647
6.935485765124556,5.364986558332976,8.422823671911846,-0.7520224027783736
6.943485172004745,5.362384341637011,8.410198102016608,-0.7563594306049821
6.951484578884934,5.359782124941046,8.397572532121368,-0.7606964584315911
6.959483985765124,5.35717990824508,8.38494696222613,-0.7650334862582
6.967483392645314,5.354577691549115,8.372321392330889,-0.7693705140848089
6.975482799525504,5.35197547485315,8.35969582243565,-0.7737075419114179
6.983482206405694,5.3493732581571845,8.34707025254041,-0.7780445697380268
6.991481613285884,5.346771041461219,8.334444682645172,-0.7823815975646358
6.9994810201660735,5.344168824765253,8.321819112749932,-0.7867186253912447
7.007480427046263,5.425430604982202,8.249955516014234,-0.8508612099644034
7.015479833926453,5.320865823118495,8.250847568208778,-0.8874613483590316
7.023479240806643,5.233050112033744,8.27164602609727,-1.0151852115460631
7.031478647686833,5.145234400948993,8.292444483985765,-1.1429090747330946
7.039478054567023,5.057418689864242,8.31324294187426,-1.270632937920126
7.047477461447213,4.969602978779491,8.334041399762752,-1.3983568011071577
7.0554768683274025,4.88178726769474,8.354839857651246,-1.526080664294189
7.063476275207592,4.793971556609989,8.375638315539739,-1.6538045274812205
7.071475682087781,4.706155845525248,8.396436773428231,-1.781528390668238
7.079475088967971,4.618340134440497,8.417235231316724,-1.9092522538552694
7.087474495848161,4.530524423355746,8.438033689205218,-2.036976117042301
7.095473902728351,4.442708712270995,8.458832147093712,-2.1646999802293325
7.103473309608541,4.312960854092538,8.413010676156594,-2.157992882562271
7.111472716488731,4.3603140728835825,8.518287229428946,-2.0557896146634524
7.11947212336892,4.43531926427633,8.492396675978009,-1.9283151953468785
7.12747153024911,4.510324455669078,8.466506122527072,-1.8008407760303047
7.1354709371293,4.585329647061826,8.440615569076135,-1.673366356713731
7.14347034400949,4.660334838454574,8.414725015625198,-1.5458919373971571
7.15146975088968,4.735340029847322,8.38883446217426,-1.4184175180805834
7.15946915776987,4.81034522124007,8.362943908723324,-1.2909430987640096
7.1674685646500595,4.8853504126328176,8.337053355272387,-1.1634686794474358
7.175467971530249,4.960355604025565,8.31116280182145,-1.035994260130862
7.183467378410439,5.035360795418313,8.285272248370513,-0.9085198408142883
7.191466785290629,5.110365986811061,8.259381694919576,-0.7810454214977145
7.199466192170819,5.163284697508872,8.224743772241979,-0.6724217081850695
7.207465599051008,5.12020482404113,8.315748813760383,-0.6720271846579635
7.215465005931198,5.065333493275753,8.284342196809149,-0.7070437575806047
7.223464412811388,5.078995401655404,8.292161841736974,-0.6983253028909595
7.2314638196915775,5.092657310035054,8.2999814866648,-0.6896068482013145
7.239463226571767,5.106319218414703,8.307801131592626,-0.6808883935116694
7.247462633451957,5.119981126794354,8.315620776520452,-0.6721699388220244
7.255462040332147,5.133643035174003,8.323440421448279,-0.6634514841323792
7.263461447212337,5.147304943553654,8.331260066376105,-0.6547330294427341
7.271460854092527,5.160966851933304,8.33907971130393,-0.6460145747530891
7.279460260972717,5.174628760312954,8.346899356231756,-0.637296120063444
7.287459667852906,5.188290668692604,8.354719001159582,-0.6285776653737989
7.295459074733096,5.2019525770722534,8.362538646087408,-0.6198592106841538
7.303458481613286,5.208,8.366,-0.616
7.311457888493476,5.22721589561091,8.547367734282348,-0.5091008303677049
7.319457295373666,5.2337861837973625,8.496587523550344,-0.3493113250994349
7.327456702253856,5.249596776219385,8.494517088828413,-0.35269930918986825
7.335456109134045,5.265407368641406,8.492446654106482,-0.35608729328030125
7.3434555160142345,5.281217961063428,8.490376219384551,-0.3594752773707346
7.351454922894424,5.29702855348545,8.48830578466262,-0.36286326146116793
7.359454329774614,5.312839145907473,8.486235349940689,-0.36625124555160127
7.367453736654804,5.328649738329495,8.484164915218757,-0.36963922964203466
7.375453143534994,5.3444603307515175,8.482094480496826,-0.373027213732468
7.383452550415184,5.360270923173539,8.480024045774893,-0.37641519782290134
7.391451957295374,5.376081515595562,8.477953611052962,-0.37980318191333473
7.3994513641755635,5.394610913404508,8.505790035587193,-0.32229151838670766
7.407450771055753,5.715155996887716,8.66683974285386,0.16755246878148866
7.415450177935943,5.7160161481651555,8.627358799219374,0.14854312555006977
7.423449584816133,5.716876299442595,8.587877855584889,0.12953378231865087
7.431448991696323,5.717736450720034,8.548396911950405,0.11052443908723196
7.439448398576513,5.718596601997474,8.50891596831592,0.09151509585581305
7.447447805456703,5.719456753274914,8.469435024681434,0.07250575262439415
7.4554472123368924,5.720316904552353,8.429954081046949,0.053496409392975244
7.463446619217082,5.721177055829793,8.390473137412464,0.034487066161556335
7.471446026097271,5.722037207107233,8.350992193777982,0.015477722930139548
7.479445432977461,5.722897358384673,8.311511250143496,-0.003531620301279348
7.487444839857651,5.7237575096621125,8.272030306509011,-0.02254096353269827
7.495444246737841,5.724617660939552,8.232549362874526,-0.04155030676411717
7.503443653618031,4.55725978647684,9.054656385923343,-0.39535982601821307
7.5114430604982205,4.9586367955887525,7.4324593289273,-0.17190843142622525
7.51944246737841,5.004259786476868,7.438173190984578,-0.15775563463819708
7.5274418742586,5.049882777364983,7.443887053041857,-0.14360283785016892
7.53544128113879,5.0955057682530995,7.449600915099135,-0.12945004106214075
7.54344068801898,5.141128759141215,7.455314777156414,-0.11529724427411257
7.55144009489917,5.18675175002933,7.461028639213692,-0.10114444748608441
7.55943950177936,5.232374740917447,7.466742501270971,-0.08699165069805624
7.5674389086595495,5.277997731805562,7.4724563633282495,-0.07283885391002808
7.575438315539739,5.323620722693677,7.478170225385528,-0.05868605712199991
7.583437722419929,5.369243713581794,7.4838840874428065,-0.04453326033397173
7.591437129300119,5.414866704469909,7.489597949500085,-0.030380463545943565
7.599436536180308,5.489794385132418,7.488742981415588,0.014066824831904749
7.607435943060498,5.699247330961099,7.420672597864726,-0.01397508896778521
7.615435349940688,4.537614537301369,8.031019097154328,0.3068521893290608
7.623434756820878,4.545877660891895,8.044292838241237,0.263954271114416
7.631434163701067,4.5541407844824215,8.057566579328144,0.22105635289977116
7.639433570581257,4.562403908072947,8.070840320415053,0.17815843468512635
7.647432977461447,4.570667031663473,8.084114061501962,0.13526051647048154
7.655432384341637,4.578930155253999,8.09738780258887,0.09236259825583673
7.663431791221827,4.587193278844524,8.110661543675779,0.04946468004119192
7.671431198102017,4.59545640243505,8.123935284762688,0.006566761826547085
7.6794306049822065,4.603719526025577,8.137209025849597,-0.036331156388097696
7.687430011862396,4.6119826496161025,8.150482766936504,-0.07922907460274253
7.695429418742586,4.620245773206628,8.163756508023413,-0.12212699281738731
7.703428825622776,4.926800711743763,8.637081850533798,-0.06858540925267143
7.711428232502966,6.271366717505508,8.27436860766754,0.5422942656394645
7.719427639383156,6.286222758854431,8.207560374382437,0.7109850546843468
7.727427046263346,6.3010788002033555,8.140752141097336,0.8796758437292291
7.735426453143535,6.315934841552278,8.073943907812241,1.0483666327740928
7.7434258600237245,6.330790882901202,8.00713567452714,1.2170574218189751
7.751425266903914,6.345646924250126,7.9403274412420375,1.3857482108638575
7.759424673784104,6.36050296559905,7.873519207956935,1.5544389999087398
7.767424080664294,6.375359006947974,7.806710974671833,1.7231297889536221
7.775423487544484,6.3902150482968985,7.739902741386731,1.8918205779985044
7.783422894424674,6.405071089645822,7.673094508101629,2.0605113670433868
7.791422301304864,6.419927130994746,7.606286274816528,2.2292021560882693
7.799421708185053,6.22820640569409,7.297987544484152,2.1880560498221997
7.807421115065243,5.811161328588388,6.883681579393342,1.8487859684799341
7.815420521945433,7.051836379812358,7.525578089615006,2.8824815324059085
7.823419928825623,7.066017146554513,7.322138628275632,2.8363031381429944
7.831419335705813,7.080197913296668,7.118699166936259,2.7901247438800802
7.839418742586003,7.094378680038822,6.915259705596886,2.743946349617166
7.8474181494661925,7.108559446780977,6.7118202442575114,2.697767955354252
7.855417556346382,7.122740213523132,6.508380782918138,2.651589561091338
7.863416963226571,7.136920980265286,6.304941321578788,2.605411166828429
7.871416370106761,7.1511017470074405,6.101501860239414,2.559232772565515
7.879415776986951,7.165282513749595,5.8980623989000405,2.5130543783026007
7.887415183867141,7.17946328049175,5.694622937560667,2.4668759840396866
7.895414590747331,7.193644047233905,5.491183476221293,2.4206975897767724
7.903413997627521,7.868720640569345,6.529247726373976,3.353423487544412
7.9114134045077105,4.900708879273164,7.152266728674645,2.0067066483338687
7.9194128113879,4.7066323600776485,7.227352070527336,2.140878518278871
7.92741221826809,4.512555840882134,7.302437412380027,2.2750503882238737
7.93541162514828,4.318479321686619,7.377522754232718,2.409222258168876
7.94341103202847,4.124402802491104,7.452608096085409,2.5433941281138783
7.95141043890866,3.9303262832955888,7.5276934379381,2.677565998058881
7.95940984578885,3.736249764100074,7.602778779790791,2.811737868003883
7.967409252669039,3.542173244904559,7.677864121643482,2.9459097379488854
7.975408659549229,3.348096725709044,7.752949463496173,3.080081607893888
7.983408066429419,3.154020206513529,7.828034805348864,3.2142534778388905
7.991407473309609,2.959943687318014,7.903120147201555,3.348425347783893
7.999406880189798,3.5034400948989433,8.101467378410396,3.864181494661792
8.007406287069989,3.1714885824436267,8.649807680901565,3.858623171213905
8.015405693950179,2.4242920691408223,9.263004829689883,3.482918149466192
8.023405100830368,2.252590514319604,9.26310006072417,3.4615863977856858
8.031404507710558,2.080888959498385,9.263195291758459,3.440254646105179
8.039403914590748,1.9091874046771666,9.263290522792747,3.418922894424673
8.047403321470938,1.7374858498559478,9.263385753827034,3.3975911427441665
8.055402728351128,1.5657842950347294,9.263480984861323,3.3762593910636602
8.063402135231316,1.3940827402135487,9.263576215895611,3.3549276393831584
8.071401542111506,1.22238118539233,9.263671446929898,3.333595887702652
8.079400948991696,1.0506796305711115,9.263766677964187,3.312264136022146
8.087400355871885,0.8789780757498928,9.263861908998475,3.290932384341639
8.095399762752075,0.7072765209286742,9.263957140032762,3.269600632661133
8.103399169632265,2.2164095492289495,8.541149762752047,4.513453440094817
8.111398576512455,1.7607630357419135,8.73121990561659,4.550866161225431
8.119397983392645,1.797455967301045,8.704874032956832,4.66772706173603
8.127397390272835,1.8341488988601766,8.678528160297077,4.784587962246629
8.135396797153025,1.870841830419308,8.652182287637322,4.901448862757228
8.143396204033214,1.9075347619784395,8.625836414977567,5.018309763267827
8.151395610913404,1.944227693537571,8.59949054231781,5.135170663778426
8.159395017793594,1.9809206250967026,8.573144669658054,5.252031564289024
8.167394424673784,2.017613556655834,8.5467987969983,5.3688924647996235
8.175393831553974,2.0543064882149658,8.520452924338544,5.485753365310222
8.183393238434164,2.090999419774097,8.494107051678789,5.602614265820821
8.191392645314354,2.1276923513332284,8.467761179019032,5.71947516633142
8.199392052194543,2.4110054863582127,8.246240510083062,5.452326364175609
8.207391459074733,4.265071174377255,7.467414234875451,6.290996441281184
8.215390865954923,4.061948228139786,7.322085647864087,5.881886168718725
8.223390272835113,4.012664525981375,7.309488880707926,5.88896610354372
8.231389679715303,3.963380823822964,7.296892113551765,5.896046038368716
8.239389086595493,3.9140971216645526,7.284295346395604,5.903125973193712
8.247388493475682,3.8648134195061417,7.271698579239443,5.910205908018708
8.255387900355872,3.8155297173477303,7.259101812083282,5.917285842843703
8.263387307236062,3.766246015189319,7.246505044927121,5.924365777668699
8.271386714116252,3.716962313030908,7.23390827777096,5.931445712493694
8.279386120996442,3.6676786108724966,7.2213115106147985,5.93852564731869
8.287385527876632,3.618394908714085,7.208714743458637,5.945605582143686
8.295384934756822,3.5691112065556743,7.196117976302476,5.952685516968681
8.303384341637011,3.953878113879005,8.74958763345196,7.275219306049822
8.311383748517201,3.722395277283507,8.553685492042305,7.258970510824436
8.319383155397391,3.490912440688009,8.357783350632653,7.242721715599051
8.32738256227758,3.2594296040925625,8.161881209223043,7.226472920373668
8.335381969157769,3.0279467674970646,7.965979067813391,7.210224125148282
8.343381376037959,2.7964639309015666,7.770076926403738,7.193975329922896
8.351380782918149,2.564981094306069,7.574174784994085,7.17772653469751
8.359380189798339,2.3334982577105707,7.378272643584433,7.161477739472124
8.367379596678528,2.1020154211150732,7.18237050217478,7.145228944246739
8.375379003558718,1.8705325845195753,6.986468360765127,7.128980149021353
8.383378410438908,1.6390497479240773,6.790566219355473,7.112731353795967
8.391377817319098,1.4075669113285794,6.59466407794582,7.096482558570581
8.399377224199288,1.095334519572943,6.7109110320285055,6.752814946619179
8.407376631079478,1.395406929616449,6.811571322657181,6.59091345393436
8.415376037959668,1.398740015816528,6.701579478054575,6.626244167655196
8.423375444839857,1.3753985765124572,6.708160636615261,6.616625642546461
8.431374851720047,1.3498004744958498,6.724603861868985,6.603204415447476
8.439374258600237,1.3242023724792422,6.741047087122709,6.589783188348491
8.447373665480427,1.2986042704626346,6.757490312376432,6.576361961249506
8.455373072360617,1.273006168446027,6.773933537630156,6.562940734150521
8.463372479240807,1.2474080664294194,6.79037676288388,6.549519507051536
8.471371886120997,1.221809964412812,6.806819988137604,6.53609827995255
8.479371293001186,1.1962118623962044,6.823263213391327,6.522677052853565
8.487370699881376,1.1706137603795967,6.839706438645051,6.50925582575458
8.495370106761566,1.1450156583629891,6.8561496638987744,6.495834598655595
8.503369513641756,1.1194175563463817,6.872592889152498,6.48241337155661
8.511368920521946,1.2253214709370217,7.087101489389844,7.812728351126908
8.519368327402136,-0.011558718861142708,7.247939501779267,7.201114768683199
8.527367734282326,0.6852529427867455,6.238843203455312,6.711538796118862
8.535367141162515,0.8513944702983822,5.950967112266939,6.88055190558749
8.543366548042705,1.017535997810019,5.663091021078566,7.0495650150561175
8.551365954922895,1.1836775253216556,5.375214929890193,7.218578124524746
8.559365361803085,1.349819052833292,5.087338838701821,7.387591233993374
8.567364768683275,1.5159605803449288,4.799462747513448,7.556604343462001
8.575364175563465,1.6821021078565654,4.511586656325075,7.72561745293063
8.583363582443654,1.8482436353682021,4.223710565136702,7.894630562399257
8.591362989323843,2.014385162879802,3.935834473948393,8.063643671867847
8.599362396204032,2.176261565836292,3.8266150652428177,8.11591874258624
8.607361803084222,2.3243918544879385,3.931638196915777,8.34814788453934
8.615361209964412,2.356562355622152,3.9578752887556963,8.533887697446463
8.623360616844602,2.3350200932342724,4.0009598135314555,8.575498647270608
8.631360023724792,2.313477830846393,4.044044338307215,8.617109597094753
8.639359430604982,2.291935568458513,4.087128863082974,8.658720546918898
8.647358837485172,2.2703933060706336,4.130213387858732,8.700331496743043
8.655358244365361,2.248851043682754,4.173297912634491,8.741942446567188
8.663357651245551,2.2273087812948744,4.2163824374102505,8.783553396391333
8.671357058125741,2.2057665189069953,4.25946696218601,8.825164346215479
8.679356465005931,2.1842242565191157,4.302551486961769,8.866775296039624
8.68735587188612,2.162681994131236,4.345636011737528,8.908386245863769
8.69535527876631,2.1411397317433565,4.388720536513287,8.949997195687914
8.7033546856465,2.119597469355477,4.4318050612890465,8.991608145512059
8.71135409252669,2.0980552069675973,4.474889586064806,9.033219095336205
8.71935349940688,2.0765129445797177,4.517974110840565,9.07483004516035
8.72735290628707,1.4361366152629558,4.225355278766289,8.814856860419194
8.73535231316726,1.4644689843963972,4.197075609088401,9.351859184232147
8.74335172004745,1.5886443927365725,3.9717384706633654,9.439483456519763
8.75135112692764,1.7128198010767481,3.7464013322383294,9.527107728807378
8.75935053380783,1.8369952094169233,3.5210641938132934,9.614732001094994
8.76734994068802,1.9611706177570989,3.295727055388258,9.70235627338261
8.77534934756821,2.085346026097274,3.070389916963222,9.789980545670227
8.783348754448399,2.2095214344374496,2.845052778538186,9.877604817957844
8.791348161328589,2.3336968427776252,2.6197156401131503,9.96522909024546
8.799347568208779,2.4578722511178004,2.3943785016881143,10.052853362533076
8.807346975088969,2.9637783426537845,1.7936776817488003,8.493640061006463
8.815346381969158,3.2216662104207177,1.6965672050369507,8.797946892964799
8.823345788849348,3.505459074732993,1.7396073546856576,9.240468564649943
8.831345195729538,3.2651167457493293,1.802790826413608,8.911819098457899
8.839344602609728,3.387552112165567,1.8365660999077427,8.977147587979449
8.847344009489918,3.509987478581804,1.870341373401877,9.042476077500998
8.855343416370106,3.6324228449980147,1.904116646896004,9.107804567022534
8.863342823250296,3.754858211414252,1.9378919203901386,9.173133056544083
8.871342230130486,3.8772935778304896,1.9716671938842731,9.238461546065633
8.879341637010675,3.999728944246727,2.0054424673784075,9.303790035587182
8.887341043890865,4.122164310662964,2.039217740872542,9.369118525108732
8.895340450771055,4.244599677079202,2.0729930143666766,9.434447014630283
8.903339857651245,3.7592001873009933,2.1241073609290124,9.176382168945496
8.911339264531435,3.772336055441094,2.100866978834987,9.184634188674535
8.919338671411625,3.7854719235811953,2.0776265967409624,9.192886208403571
8.927338078291815,3.7986077917212966,2.054386214646937,9.20113822813261
8.935337485172004,3.811743659861398,2.031145832552912,9.209390247861647
8.943336892052194,3.8248795280014987,2.007905450458887,9.217642267590685
8.951336298932384,3.8380153961416,1.984665068364862,9.225894287319724
8.959335705812574,3.851151264281701,1.9614246862708367,9.23414630704876
8.967335112692764,3.864287132421802,1.9381843041768116,9.2423983267778
8.975334519572954,3.8774230005619033,1.9149439220827864,9.250650346506836
8.983333926453144,3.8905588687020045,1.8917035399887614,9.258902366235874
8.991333333333333,3.9036947368421053,1.8684631578947364,9.267154385964913
8.999332740213523,3.881008134214535,1.8236738688357863,9.10837519064563
9.007332147093713,3.9978185053379733,1.623088967971501,8.799241992882648
9.015331553973903,3.5735674509028597,1.4657794253328067,9.155809147225519
9.023330960854093,3.6033430209568995,1.425071332542507,9.147987504942666
9.031330367734283,3.63311859101094,1.3843632397522077,9.140165862659813
9.039329774614473,3.6628941610649797,1.343655146961908,9.132344220376961
9.047329181494662,3.69266973111902,1.3029470541716086,9.124522578094108
9.055328588374852,3.72244530117306,1.262238961381309,9.116700935811256
9.063327995255042,3.7522208712270997,1.2215308685910093,9.108879293528403
9.071327402135232,3.78199644128114,1.18082277580071,9.10105765124555
9.079326809015422,3.81177201133518,1.1401146830104105,9.093236008962698
9.087326215895612,3.84154758138922,1.099406590220111,9.085414366679846
9.095325622775801,3.87132315144326,1.0586984974298113,9.077592724396995
9.103325029655991,4.017840196576876,1.0770716827656401,8.966492119979645
9.111324436536181,3.903868086243531,1.3105577151199896,9.30492503226311
9.11932384341637,3.9006155801493887,1.2010273747604905,9.25376399045795
9.127323250296559,3.8973630740552454,1.0914970344009671,9.20260294865278
9.135322657176749,3.894110567961102,0.9819666940414437,9.151441906847609
9.143322064056939,3.8908580618669593,0.8724363536819202,9.100280865042437
9.151321470937129,3.887605555772816,0.7629060133223968,9.049119823237268
9.159320877817319,3.8843530496786727,0.6533756729628734,8.997958781432096
9.167320284697508,3.88110054358453,0.54384533260335,8.946797739626925
9.175319691577698,3.8778480374903865,0.4343149922438265,8.895636697821756
9.183319098457888,3.8745955313962432,0.32478465188430317,8.844475656016584
9.191318505338078,3.8713430253021004,0.21525431152477958,8.793314614211413
9.199317912218268,3.868090519207957,0.10572397116525623,8.742153572406243
9.207317319098458,4.785565885725539,-0.1184087584025259,8.353203983788074
9.215316725978647,5.474181494661958,-0.1917366548042743,8.112555160142337
9.223316132858837,5.315041031181152,-0.1871109769530756,8.123551446082587
9.231315539739027,5.351324055244871,-0.013695263514673373,8.095934446139074
9.239314946619217,5.387607079308589,0.15972044992372886,8.068317446195563
9.247314353499407,5.423890103372307,0.33313616336213103,8.04070044625205
9.255313760379597,5.4601731274360255,0.5065518768005333,8.013083446308537
9.263313167259787,5.4964561514997445,0.6799675902389355,7.985466446365024
9.271312574139976,5.532739175563463,0.8533833036773376,7.957849446421511
9.279311981020166,5.569022199627181,1.02679901711574,7.930232446477999
9.287311387900356,5.6053052236909,1.200214730554142,7.902615446534486
9.295310794780546,5.641588247754618,1.3736304439925444,7.874998446590973
9.303310201660736,5.677871271818336,1.5470461574309464,7.84738144664746
9.311309608540926,5.815252992559043,2.027529602070527,7.352745389841474
9.319309015421116,5.816798332524534,2.01243981181926,7.479463267011756
9.327308422301305,5.818343672490025,1.9973500215679925,7.606181144182037
9.335307829181495,5.8198890124555165,1.9822602313167252,7.732899021352319
9.343307236061685,5.821434352421008,1.9671704410654578,7.8596168985226
9.351306642941875,5.8229796923864985,1.9520806508141906,7.986334775692882
9.359306049822065,5.82452503235199,1.9369908605629231,8.113052652863162
9.367305456702255,5.826070372317481,1.921901070311656,8.239770530033445
9.375304863582445,5.827615712282972,1.9068112800603885,8.366488407203725
9.383304270462633,5.829161052248463,1.8917214898091246,8.49320628437398
9.391303677342822,5.830706392213954,1.8766316995578571,8.61992416154426
9.399303084223012,5.400679122182967,1.8483629893238538,8.471898576512626
9.407302491103202,4.6320195155550445,3.0961925152106535,8.199567213867523
9.415301897983392,4.705046359009681,3.0100053572111887,8.166795450197068
9.423301304863582,4.778073202464317,2.923818199211724,8.134023686526614
9.431300711743772,4.851100045918954,2.837631041212259,8.101251922856159
9.439300118623962,4.92412688937359,2.751443883212794,8.068480159185704
9.447299525504151,4.9971537328282265,2.6652567252133292,8.035708395515249
9.455298932384341,5.070180576282863,2.5790695672138644,8.002936631844793
9.463298339264531,5.1432074197375,2.4928824092143995,7.970164868174337
9.471297746144721,5.216234263192137,2.4066952512149347,7.937393104503882
9.47929715302491,5.289261106646773,2.32050809321547,7.904621340833427
9.4872965599051,5.362287950101409,2.234320935216005,7.871849577162972
9.49529596678529,5.435314793556046,2.14813377721654,7.8390778134925165
9.50329537366548,5.853414590747384,2.3249786476868373,7.573811387900406
9.51129478054567,5.5453730907045236,2.280360390603027,7.25513218622739
9.51929418742586,5.605574812586364,2.2604855755708027,7.276903767839452
9.52729359430605,5.665776534468206,2.2406107605385785,7.298675349451516
9.53529300118624,5.725978256350047,2.220735945506354,7.320446931063579
9.54329240806643,5.786179978231889,2.20086113047413,7.342218512675642
9.55129181494662,5.84638170011373,2.1809863154419054,7.363990094287705
9.55929122182681,5.906583421995571,2.1611115004096813,7.385761675899769
9.567290628707,5.966785143877413,2.1412366853774567,7.407533257511831
9.575290035587189,6.0269868657592545,2.1213618703452326,7.429304839123895
9.583289442467379,6.087188587641096,2.101487055313008,7.451076420735958
9.591288849347569,6.147390309522937,2.081612240280784,7.472848002348021
9.599288256227759,6.207592031404778,2.0617374252485594,7.494619583960084
9.607287663107948,6.075979685646496,1.9276554468169202,7.3715709766706174
9.615287069988138,6.122395017793716,1.730605575326198,7.462126927639514
9.623286476868328,6.13663078291815,1.653226312277579,7.558998331850534
9.631285883748518,6.159829062870701,1.6295280693950167,7.541499629300118
9.639285290628708,6.183027342823252,1.6058298265124542,7.524000926749703
9.647284697508896,6.206225622775797,1.582131583629897,7.506502224199291
9.655284104389086,6.229423902728348,1.5584333407473347,7.489003521648876
9.663283511269276,6.252622182680898,1.5347350978647722,7.4715048190984605
9.671282918149466,6.275820462633448,1.51103685498221,7.454006116548046
9.679282325029655,6.299018742585999,1.4873386120996475,7.43650741399763
9.687281731909845,6.32221702253855,1.4636403692170852,7.419008711447215
9.695281138790035,6.345415302491101,1.4399421263345227,7.4015100088968
9.703280545670225,6.105465895610912,1.539846085409252,7.473248813760379
9.711279952550415,6.087892315803346,1.4566355608277317,7.482854224331092
9.719279359430605,6.109579596678527,1.455746737841044,7.482498695136417
9.727278766310794,6.131266877553709,1.4548579148543563,7.482143165941742
9.735278173190984,6.152954158428891,1.4539690918676684,7.481787636747067
9.743277580071174,6.174641439304072,1.4530802688809807,7.481432107552392
9.751276986951364,6.196328720179253,1.452191445894293,7.481076578357717
9.759276393831554,6.218016001054435,1.4513026229076051,7.480721049163042
9.767275800711744,6.239703281929616,1.4504137999209175,7.480365519968367
9.775275207591934,6.261390562804798,1.4495249769342298,7.480009990773691
9.783274614472123,6.283077843679979,1.4486361539475419,7.479654461579017
9.791274021352313,6.304765124555161,1.4477473309608542,7.479298932384341
9.799273428232503,6.064494068801959,1.5023941281138662,7.424879300118636
9.807272835112693,6.405418923100727,1.513207527464026,7.383146087988033
9.815272241992883,6.40176701995977,1.5145117785857962,7.371494777966887
9.823271648873073,6.398115116818814,1.5158160297075662,7.3598434679457405
9.831271055753263,6.394463213677858,1.5171202808293363,7.348192157924594
9.839270462633452,6.390811310536901,1.5184245319511065,7.336540847903449
9.847269869513642,6.387159407395945,1.5197287830728765,7.324889537882303
9.855269276393832,6.38350750425499,1.5210330341946465,7.313238227861157
9.863268683274022,6.379855601114033,1.5223372853164168,7.301586917840011
9.871268090154212,6.376203697973077,1.5236415364381868,7.289935607818865
9.879267497034402,6.372551794832121,1.5249457875599568,7.278284297797719
9.887266903914592,6.368899891691164,1.526250038681727,7.266632987776573
9.895266310794781,6.365247988550208,1.527554289803497,7.254981677755427
9.903265717674971,6.283559405631518,1.5657202971842414,7.206
9.91126512455516,6.3004002622213875,1.5572998688893065,7.206
9.91926453143535,6.317241118811261,1.5488794405943695,7.206
9.927263938315539,6.334081975401134,1.5404590122994328,7.206
9.935263345195729,6.350922831991008,1.532038584004496,7.206
9.943262752075919,6.367763688580881,1.5236181557095594,7.206
9.951262158956109,6.384604545170755,1.5151977274146224,7.206
9.959261565836298,6.401445401760628,1.5067772991196857,7.206
9.967260972716488,6.418286258350502,1.498356870824749,7.206
9.975260379596678,6.435127114940376,1.489936442529812,7.206
9.983259786476868,6.451967971530249,1.4815160142348753,7.206
9.991259193357058,6.468808828120123,1.4730955859399386,7.206
9.999258600237248,6.502466350336107,1.4461980229339604,7.191400237247921
10.007258007117438,6.626190510083038,1.320340688018978,7.098607117437721
10.015257413997627,6.680965142805001,1.2487539009033668,7.07072333242084
10.023256820877817,6.560358700611369,1.3152105119080215,7.207943927365637
10.031256227758007,6.49415461696947,1.6674985015920583,6.938074920397078
10.039255634638197,6.519521157207967,1.6444475791346693,6.966704376599862
10.047255041518387,6.544887697446463,1.6213966566772804,6.995333832802647
10.055254448398577,6.57025423768496,1.5983457342198912,7.023963289005431
10.063253855278766,6.595620777923457,1.5752948117625023,7.052592745208216
10.071253262158956,6.620987318161953,1.5522438893051134,7.081222201411001
10.079252669039146,6.64635385840045,1.5291929668477242,7.109851657613786
10.087252075919336,6.671720398638946,1.5061420443903353,7.13848111381657
10.095251482799526,6.697086938877443,1.4830911219329463,7.1671105700193545
10.103250889679716,6.72245347911594,1.4600401994755572,7.195740026222139
10.111250296559906,6.765626927639383,1.581188018979829,6.709701067615662
10.119249703440095,6.777833293792013,1.9548054698826944,6.467525570054048
10.127249110320285,6.778899881376038,1.9571164096480826,6.527076710162127
10.135248517200475,6.779966468960064,1.9594273494134709,6.586627850270208
10.143247924080665,6.781033056544088,1.961738289178859,6.646178990378288
10.151247330960855,6.782099644128114,1.9640492289442473,6.705730130486368
10.159246737841045,6.783166231712139,1.9663601687096355,6.765281270594448
10.167246144721235,6.7842328192961645,1.9686711084750235,6.824832410702528
10.175245551601423,6.785299406880189,1.9709820482404112,6.884383550810595
10.183244958481612,6.786365994464215,1.9732929880057994,6.943934690918675
10.191244365361802,6.78743258204824,1.9756039277711877,7.003485831026755
10.199243772241992,6.788499169632265,1.9779148675365759,7.063036971134835
10.207243179122182,7.13253262158949,0.7911115065243481,6.904907473309507
10.215242586002372,7.071248403907926,1.1230712743412343,7.100167999520174
10.223241992882562,7.06387816386101,1.2128623695469605,7.073473349594147
10.231241399762752,7.0565079238140935,1.3026534647526866,7.0467786996681205
10.239240806642941,7.049137683767177,1.3924445599584128,7.020084049742094
10.247240213523131,7.041767443720261,1.482235655164139,6.993389399816067
10.255239620403321,7.034397203673344,1.572026750369865,6.96669474989004
10.263239027283511,7.027026963626428,1.6618178455755912,6.9400000999640135
10.2712384341637,7.019656723579511,1.7516089407813173,6.913305450037987
10.27923784104389,7.012286483532595,1.8414000359870435,6.88661080011196
10.28723724792408,7.004916243485678,1.9311911311927696,6.859916150185933
10.29523665480427,6.997546003438762,2.0209822263984956,6.833221500259906
10.30323606168446,6.981362989323677,2.2857123368922045,6.059546263345549
10.31123546856465,7.504791719088877,1.8856153048875464,5.088133685610551
10.31923487544484,7.6263988640857026,1.8735757935224122,5.006200366655879
10.32723428232503,7.748006009082528,1.861536282157278,4.924267047701207
10.33523368920522,7.869613154079353,1.8494967707921437,4.842333728746536
10.34323309608541,7.991220299076178,1.8374572594270095,4.760400409791864
10.3512325029656,8.112827444073003,1.8254177480618754,4.678467090837192
10.35923190984579,8.234434589069828,1.8133782366967413,4.5965337718825205
10.367231316725979,8.356041734066654,1.801338725331607,4.514600452927849
10.375230723606169,8.477648879063478,1.7892992139664727,4.432667133973177
10.383230130486359,8.599256024060304,1.7772597026013386,4.350733815018506
10.391229537366549,8.720863169057129,1.7652201912362044,4.268800496063834
10.399228944246738,8.842470314053955,1.7531806798710703,4.186867177109162
10.407228351126928,8.626441281138796,1.5114090549624293,3.6029136022143176
10.415227758007118,9.262747735360719,2.185796182465229,4.941924862504039
10.423227164887308,9.182844568909731,2.2999695352097578,4.869839298231418
10.431226571767498,9.102941402458743,2.414142887954287,4.797753733958798
10.439225978647686,9.023038236007773,2.5283162406987905,4.725668169686193
10.447225385527876,8.943135069556785,2.6424895934433197,4.653582605413573
10.455224792408066,8.863231903105797,2.7566629461878485,4.581497041140952
10.463224199288256,8.78332873665481,2.8708362989323772,4.5094114768683315
10.471223606168445,8.703425570203821,2.9850096516769065,4.4373259125957105
10.479223013048635,8.623522403752833,3.0991830044214352,4.36524034832309
10.487222419928825,8.543619237301845,3.2133563571659645,4.293154784050469
10.495221826809015,8.463716070850857,3.3275297099104932,4.221069219777849
10.503221233689205,8.25001352313157,2.7641411625147585,3.3884556346383214
10.511220640569395,9.297670102671079,3.1861338405530404,3.634986542316032
10.519220047449584,9.176943421824078,3.336007785549698,3.6707540052630874
10.527219454329774,9.056216740977076,3.485881730546356,3.7065214682101426
10.535218861209964,8.935490060130075,3.635755675543014,3.742288931157198
10.543218268090154,8.814763379283075,3.785629620539672,3.7780563941042526
10.551217674970344,8.694036698436074,3.9355035655363295,3.813823857051308
10.559217081850534,8.573310017589073,4.085377510532988,3.849591319998363
10.567216488730724,8.452583336742071,4.235251455529646,3.885358782945418
10.575215895610913,8.33185665589507,4.385125400526303,3.921126245892473
10.583215302491103,8.211129975048069,4.534999345522961,3.9568937088395284
10.591214709371293,8.090403294201069,4.684873290519619,3.9926611717865836
10.599214116251483,9.194224495848301,5.305538256227815,4.505611209964468
10.607213523131673,8.45453922004745,3.3359846530249064,0.3245225385527838
10.615212930011863,8.550448775454726,3.567217508155394,0.5251743277975458
10.623212336892053,8.646358330862,3.7984503632858817,0.7258261170423077
10.631211743772242,8.742267886269277,4.02968321841637,0.9264779062870696
10.639211150652432,8.838177441676553,4.260916073546857,1.1271296955318317
10.647210557532622,8.93408699708383,4.492148928677345,1.3277814847765934
10.655209964412812,9.029996552491106,4.723381783807833,1.5284332740213555
10.663209371293002,9.125906107898382,4.95461463893832,1.7290850632661172
10.671208778173192,9.221815663305659,5.185847494068808,1.9297368525108793
10.679208185053382,9.317725218712933,5.417080349199296,2.1303886417556415
10.687207591933571,9.41363477412021,5.648313204329783,2.3310404310004036
10.695206998813761,9.509544329527486,5.879546059460271,2.5316922202451653
10.70320640569395,9.203175563464066,5.18135349940745,1.9694792408071087
10.71120581257414,7.055944947697512,4.82947600560762,-2.064059851181093
10.719205219454329,8.12715346975089,5.420349317912216,0.44048226571767457
10.727204626334519,8.094155916370108,5.4729454181494654,0.4592808718861207
10.735204033214709,8.061158362989325,5.525541518386714,0.47807947805456685
10.743203440094899,8.028160809608542,5.578137618623962,0.496878084223013
10.751202846975088,7.995163256227758,5.63073371886121,0.5156766903914591
10.759202253855278,7.962165702846975,5.683329819098458,0.5344752965599052
10.767201660735468,7.929168149466192,5.735925919335706,0.5532739027283514
10.775201067615658,7.896170596085408,5.788522019572955,0.5720725088967975
10.783200474495848,7.863173042704625,5.841118119810203,0.5908711150652437
10.791199881376038,7.830175489323842,5.8937142200474515,0.6096697212336898
10.799199288256228,7.7487758007116865,5.9814697508897225,0.4602989323841449
10.807198695136417,8.402181124759247,4.323682578859424,1.8417168139899749
10.815198102016607,8.504711157030068,4.278868697304812,1.8770690314927494
10.823197508896797,8.607241189300888,4.234054815750199,1.912421248995524
10.831196915776987,8.709771221571708,4.189240934195587,1.9477734664982984
10.839196322657177,8.812301253842529,4.144427052640975,1.983125684001073
10.847195729537367,8.91483128611335,4.0996131710863635,2.0184779015038474
10.855195136417557,9.01736131838417,4.0547992895317515,2.053830119006622
10.863194543297746,9.11989135065499,4.0099854079771395,2.0891823365093964
10.871193950177936,9.22242138292581,3.9651715264225276,2.124534554012171
10.879193357058126,9.324951415196631,3.9203576448679156,2.1598867715149455
10.887192763938316,9.427481447467452,3.8755437633133036,2.19523898901772
10.895192170818506,9.530011479738272,3.8307298817586917,2.2305912065204945
10.903191577698696,7.801505338078284,6.314658659549153,4.577193653617928
10.911190984578885,7.725419456880833,5.1412956797918214,3.1033241240321954
10.919190391459075,7.76730882409215,5.056398748708516,3.111495561167873
10.927189798339265,7.809198191303467,4.971501817625211,3.119666998303551
10.935189205219455,7.8510875585147835,4.886604886541906,3.127838435439229
10.943188612099645,7.8929769257261,4.801707955458601,3.1360098725749066
10.951188018979835,7.934866292937417,4.716811024375295,3.1441813097105844
10.959187425860025,7.976755660148734,4.63191409329199,3.1523527468462627
10.967186832740213,8.01864502736004,4.547017162208704,3.1605241839819382
10.975186239620403,8.060534394571357,4.4621202311253985,3.1686956211176165
10.983185646500592,8.102423761782674,4.377223300042093,3.1768670582532943
10.991185053380782,8.144313128993991,4.292326368958788,3.185038495388972
10.999184460260972,8.19243683274021,3.733779062870852,3.5692505931196923
11.007183867141162,8.629492187400334,4.172268995778022,4.266228127909781
11.015183274021352,8.719205965637302,4.089006352121852,4.3439858033903365
11.023182680901542,8.80891974387427,4.005743708465682,4.421743478870892
11.031182087781731,8.898633522111238,3.9224810648095128,4.499501154351447
11.039181494661921,8.988347300348206,3.839218421153343,4.577258829832002
11.047180901542111,9.078061078585174,3.7559557774971735,4.655016505312557
11.055180308422301,9.167774856822142,3.672693133841004,4.732774180793112
11.063179715302491,9.25748863505911,3.589430490184834,4.810531856273667
11.07117912218268,9.347202413296078,3.506167846528664,4.888289531754222
11.07917852906287,9.436916191533046,3.4229052028724944,4.966047207234777
11.08717793594306,9.526629969770013,3.339642559216325,5.043804882715333
11.09517734282325,9.616343748006981,3.256379915560155,5.121562558195889
11.10317674970344,8.31601631079484,3.784785290628683,5.17366666666671
11.11117615658363,7.687662900355915,4.037566548042688,4.72410000000003
11.11917556346382,7.059309489916989,4.290347805456692,4.274533333333351
11.12717497034401,7.994591268314575,4.1173356737520495,5.389722251611045
11.1351743772242,8.071666634606133,3.9720491487929257,5.310917283831877
11.14317378410439,8.148742000897693,3.8267626238338015,5.232112316052709
11.15117319098458,8.225817367189252,3.6814760988746773,5.153307348273541
11.15917259786477,8.302892733480812,3.5361895739155536,5.074502380494374
11.167172004744959,8.37996809977237,3.3909030489564294,4.995697412715206
11.175171411625149,8.45704346606393,3.245616523997305,4.916892444936039
11.183170818505339,8.534118832355489,3.1003299990381814,4.83808747715687
11.191170225385529,8.611194198647048,2.9550434740790568,4.759282509377703
11.199169632265718,8.663549228944236,2.849129300118639,3.9861269276388085
11.207169039145908,9.678063167260257,3.3131841637008654,5.144822953737576
11.215168446026098,10.037718015698736,3.096240024229574,5.936338027813523
11.223167852906288,9.925811419449271,3.07530540622397,5.813964122561257
11.231167259786476,9.813904823199831,3.0543707882183715,5.691590217309017
11.239166666666666,9.701998226950366,3.0334361702127683,5.56921631205675
11.247166073546856,9.5900916307009,3.0125015522071648,5.446842406804483
11.255165480427046,9.478185034451435,2.9915669342015616,5.324468501552216
11.263164887307235,9.36627843820197,2.970632316195958,5.20209459629995
11.271164294187425,9.254371841952505,2.949697698190355,5.079720691047682
11.279163701067615,9.14246524570304,2.9287630801847513,4.957346785795416
11.287163107947805,9.030558649453575,2.907828462179148,4.834972880543149
11.295162514827995,8.91865205320411,2.8868938441735446,4.712598975290882
11.303161921708185,8.66207384341642,3.0833745551600753,3.74062544484013
11.311161328588375,9.388637303903922,5.171549882042465,6.733397736814733
11.319160735468564,9.261455722606522,5.180987384541565,6.457283377983911
11.327160142348754,9.134274141309122,5.190424887040666,6.18116901915309
11.335159549228944,9.007092560011722,5.199862389539766,5.905054660322269
11.343158956109134,8.879910978714323,5.2092998920388665,5.628940301491447
11.351158362989324,8.752729397416921,5.218737394537967,5.352825942660626
11.359157769869514,8.625547816119521,5.228174897037067,5.0767115838298045
11.367157176749703,8.498366234822122,5.237612399536167,4.800597224998983
11.375156583629893,8.371184653524722,5.247049902035267,4.524482866168162
11.383155990510083,8.244003072227322,5.256487404534369,4.248368507337339
11.391155397390273,8.116821490929922,5.265924907033469,3.9722541485065186
11.399154804270463,6.985998220640394,5.686842526690462,2.5292295373663416
11.407154211150653,7.147834380757672,6.296960260972715,2.7223276923853543
11.415153618030843,7.033289682239209,6.26896233689205,2.784025245450649
11.423153024911032,6.918744983720745,6.240964412811386,2.8457227985159435
11.431152431791222,6.804200285202281,6.2129664887307205,2.907420351581238
11.439151838671412,6.689655586683817,6.184968564650056,2.969117904646532
11.447151245551602,6.575110888165353,6.156970640569392,3.0308154577118267
11.455150652431792,6.460566189646889,6.128972716488727,3.0925130107771213
11.463150059311982,6.346021491128425,6.100974792408063,3.154210563842416
11.471149466192172,6.2314767926099615,6.072976868327398,3.21590811690771
11.479148873072361,6.1169320940914975,6.044978944246733,3.2776056699730045
11.487148279952551,6.0023873955730345,6.016981020166068,3.339303223038299
11.49514768683274,5.887842697054595,5.98898309608541,3.40100077610358
11.50314709371293,7.668710557532497,4.358806148675371,4.934117536575659
11.511146500593119,8.740631079477897,4.307476621194155,5.470744414788375
11.519145907473309,8.36550533807836,4.849376512455439,4.63976370106774
11.527145314353499,6.800313220488483,5.215805654408873,4.806920149344514
11.535144721233689,6.883896766736619,4.89316291024122,5.053773641147292
11.543144128113878,6.967480312984756,4.570520166073568,5.300627132950071
11.551143534994068,7.051063859232892,4.247877421905915,5.547480624752849
11.559142941874258,7.1346474054810285,3.9252346777382634,5.794334116555627
11.567142348754448,7.218230951729165,3.6025919335706105,6.041187608358404
11.575141755634638,7.3018144979773005,3.279949189402958,6.288041100161182
11.583141162514828,7.385398044225437,2.9573064452353055,6.53489459196396
11.591140569395018,7.4689815904735735,2.634663701067653,6.781748083766738
11.599139976275207,7.55256513672171,2.3120209569000005,7.028601575569517
11.607139383155397,10.637456745957419,2.5871452456764685,5.855294306049823
11.615138790035587,10.472163738527813,2.3634986701629517,6.032881138790036
11.623138196915777,10.306870731098208,2.139852094649435,6.2104679715302495
11.631137603795967,10.141577723668602,1.916205519135918,6.388054804270463
11.639137010676157,9.976284716238995,1.6925589436224011,6.5656416370106765
11.647136417556347,9.81099170880939,1.468912368108884,6.74322846975089
11.655135824436536,9.645698701379784,1.2452657925953672,6.920815302491103
11.663135231316726,9.480405693950178,1.0216192170818503,7.098402135231317
11.671134638196916,9.315112686520571,0.7979726415683335,7.27598896797153
11.679134045077106,9.149819679090966,0.5743260660548164,7.453575800711744
11.687133451957296,8.98452667166136,0.35067949054129954,7.631162633451957
11.695132858837486,8.819233664231753,0.1270329150277827,7.808749466192171
11.703132265717676,8.222268979834332,-0.05095166073524546,9.646787959668204
11.711131672597865,7.858794985069747,-0.27084108479568014,10.213099480508854
11.719131079478055,7.967844370815784,-0.2611866282161406,10.158390893224796
11.727130486358245,8.07689375656182,-0.2515321716366011,10.10368230594074
11.735129893238435,8.185943142307856,-0.2418777150570616,10.048973718656683
11.743129300118625,8.294992528053893,-0.2322232584775221,9.994265131372625
11.751128706998815,8.40404191379993,-0.2225688018979826,9.939556544088568
11.759128113879003,8.513091299545943,-0.21291434531844522,9.884847956804522
11.767127520759193,8.62214068529198,-0.20325988873890571,9.830139369520465
11.775126927639382,8.731190071038016,-0.1936054321593662,9.775430782236409
11.783126334519572,8.840239456784053,-0.1839509755798267,9.720722194952351
11.791125741399762,8.94928884253009,-0.1742965190002872,9.666013607668294
11.799125148279952,8.903481613286008,0.3487553380778293,10.062308422300907
11.807124555160142,7.425003331566576,1.1557032634209106,10.812345120012129
11.815123962040332,7.604224085712107,1.1831054869892206,10.680099606269415
11.823123368920522,7.783444839857639,1.2105077105575306,10.5478540925267
11.831122775800711,7.96266559400317,1.2379099341258408,10.415608578783987
11.839122182680901,8.1418863481487,1.2653121576941508,10.283363065041273
11.847121589561091,8.321107102294231,1.2927143812624609,10.151117551298558
11.855120996441281,8.500327856439764,1.320116604830771,10.018872037555845
11.86312040332147,8.679548610585295,1.347518828399081,9.886626523813131
11.87111981020166,8.858769364730826,1.3749210519673913,9.754381010070418
11.87911921708185,9.037990118876357,1.4023232755357014,9.622135496327703
11.88711862396204,9.217210873021887,1.4297254991040114,9.48988998258499
11.89511803084223,9.39643162716742,1.4571277226723214,9.357644468842276
11.90311743772242,9.096796263345187,1.2585041518386169,8.546002965598962
11.91111684460261,8.952903914590514,0.6356684460257391,7.486848161327819
11.9191162514828,6.856920689414555,-1.0782179889749415,3.787377796385431
11.92711565836299,6.847415511827506,-0.9394047519363542,3.3236004186727817
11.93511506524318,6.8379103342404575,-0.8005915148977669,2.859823040960132
11.94311447212337,6.8284051566534085,-0.6617782778591798,2.3960456632474827
11.95111387900356,6.81889997906636,-0.5229650408205925,1.9322682855348337
11.959113285883749,6.80939480147931,-0.3841518037820052,1.4684909078221842
11.967112692763939,6.799889623892261,-0.24533856674341803,1.0047135301095347
11.975112099644129,6.790384446305212,-0.10652532970483075,0.5409361523968856
11.983111506524319,6.780879268718163,0.03228790733375653,0.07715877468423571
11.991110913404508,6.771374091131114,0.1711011443723438,-0.38661860302841333
11.999110320284698,6.753703914590732,0.3061245551601389,-0.8337953736654619
12.007109727164888,6.152148517200442,0.17013463819690855,-0.09385023724788488
12.015109134045078,0.4170391459065761,-4.110492289443122,-1.312283511269463
12.023108540925266,-0.5887166478604372,-5.289465324190555,-1.5358668952347885
12.031107947805456,-0.5175024158782598,-5.738992969360244,-1.5368424326592018
12.039107354685646,-0.44628818389608255,-6.188520614529933,-1.5378179700836152
12.047106761565836,-0.37507395191390525,-6.638048259699622,-1.5387935075080286
12.055106168446025,-0.30385971993172795,-7.087575904869311,-1.539769044932442
12.063105575326215,-0.23264548794955064,-7.537103550039001,-1.5407445823568553
12.071104982206405,-0.1614312559673733,-7.986631195208689,-1.5417201197812689
12.079104389086595,-0.09021702398519604,-8.43615884037838,-1.5426956572056822
12.087103795966785,-0.019002792003018687,-8.885686485548067,-1.5436711946300956
12.095103202846975,0.05221143997915867,-9.335214130717757,-1.544646732054509
12.103102609727165,0.13365276130222112,-7.957743640437696,-2.671408659549259
12.111102016607354,0.25442704626334073,-7.0037164887307295,-2.6217508896797033
12.119101423487544,0.3559326431575524,-6.970096004529276,-2.7308078130055016
12.127100830367734,0.40654707214493574,-7.02427380567238,-2.6776481181926033
12.135100237247924,0.457161501132319,-7.078451606815485,-2.624488423379705
12.143099644128114,0.5077759301197023,-7.132629407958589,-2.5713287285668067
12.151099051008304,0.5583903591070857,-7.186807209101693,-2.5181690337539084
12.159098457888494,0.609004788094469,-7.240985010244798,-2.46500933894101
12.167097864768683,0.6596192170818523,-7.295162811387902,-2.411849644128112
12.175097271648873,0.7102336460692357,-7.349340612531006,-2.3586899493152136
12.183096678529063,0.7608480750566189,-7.403518413674111,-2.3055302545023153
12.191096085409253,0.8114625040440022,-7.457696214817215,-2.2523705596894175
12.199095492289443,0.8620769330313856,-7.511874015960319,-2.1992108648765187
12.207094899169633,0.9126913620187689,-7.566051817103424,-2.146051170063621
12.215094306049822,0.9633057910061522,-7.620229618246528,-2.092891475250722
12.223093712930012,0.7357591933569128,-8.20127876631108,-1.9726275207591537
12.231093119810202,0.09198962040325345,-9.369351720047316,-0.8971319691578727
12.239092526690392,-0.1269257752923236,-8.976511801873775,-1.150177863316144
12.247091933570582,-0.14521013387561488,-8.98900067179897,-1.0755711501682501
12.255091340450772,-0.16349449245890618,-9.001489541724164,-1.000964437020356
12.263090747330962,-0.18177885104219746,-9.013978411649358,-0.9263577238724623
12.271090154211151,-0.20006320962548874,-9.026467281574552,-0.8517510107245684
12.279089561091341,-0.21834756820878004,-9.038956151499747,-0.7771442975766745
12.287088967971531,-0.2366319267920713,-9.051445021424941,-0.7025375844287806
12.29508837485172,-0.25491628537535854,-9.063933891350134,-0.6279308712809033
12.303087781731909,-0.2732006439586498,-9.076422761275328,-0.5533241581330094
12.311087188612099,-0.2914850025419411,-9.088911631200522,-0.4787174449851155
12.319086595492289,-0.3097693611252324,-9.101400501125717,-0.40411073183722157
12.327086002372479,-0.32805371970852365,-9.113889371050911,-0.32950401868932766
12.335085409252668,-0.18502277580071744,-9.112952669039146,-0.3185338078291805
12.343084816132858,0.11255516014233824,-9.099153692170818,-0.36853010083036597
12.351084223013048,0.4101330960853939,-9.085354715302492,-0.41852639383155144
12.359083629893238,0.7077110320284496,-9.071555738434164,-0.4685226868327368
12.367083036773428,1.0052889679715051,-9.057756761565837,-0.5185189798339223
12.375082443653618,0.9487556346382195,-9.565244365361782,-0.202
12.383081850533808,0.854615658362991,-9.705434163701067,-0.48788007117437515
12.391081257413997,0.7926202550415183,-9.723432829181496,-0.5616745996441281
12.399080664294187,0.7306248517200457,-9.741431494661922,-0.6354691281138811
12.407080071174377,0.668629448398573,-9.759430160142351,-0.7092636565836341
12.415079478054567,0.6066340450771003,-9.777428825622778,-0.7830581850533871
12.423078884934757,0.09722953736654588,-10.193285290628706,-0.7649214116251523
12.431078291814947,0.33177455035106185,-10.274277195344816,-0.3377469462344918
12.439077698695137,0.344638461415151,-10.211471041326027,-0.322937233496843
12.447077105575326,0.3575023724792401,-10.14866488730724,-0.3081275207591942
12.455076512455516,0.3703662835433292,-10.08585873328845,-0.2933178080215454
12.463075919335706,0.3832301946074183,-10.023052579269663,-0.27850809528389653
12.471075326215896,0.39609410567150743,-9.960246425250874,-0.2636983825462478
12.479074733096086,0.4089580167355965,-9.897440271232087,-0.24888866980859892
12.487074139976276,0.42182192779968564,-9.8346341172133,-0.2340789570709501
12.495073546856466,0.43468583886377476,-9.77182796319451,-0.2192692443333013
12.503072953736655,0.48091494661922535,-9.536537722419887,-0.33989074733098734
12.511072360616845,0.7069306589021851,-9.913023616952444,-0.018109673244904645
12.519071767497035,0.6691152809231062,-9.92065941442899,-0.018927794403105873
12.527071174377225,0.6312999029440274,-9.928295211905533,-0.019745915561307097
12.535070581257415,0.5934845249649485,-9.93593100938208,-0.020564036719508325
12.543069988137605,0.5556691469858696,-9.943566806858623,-0.02138215787770955
12.551069395017795,0.5178537690067907,-9.951202604335167,-0.022200279035910778
12.559068801897983,0.4800383910277202,-9.958838401811711,-0.02301840019411182
12.567068208778172,0.44222301304864137,-9.966474199288255,-0.023836521352313046
12.575067615658362,0.40440763506956245,-9.9741099967648,-0.024654642510514274
12.583067022538552,0.3665922570904836,-9.981745794241345,-0.0254727636687155
12.591066429418742,0.3287768791114047,-9.98938159171789,-0.026290884826916723
12.599065836298932,0.2654904359430942,-9.898875667259894,0.02549243772236191
12.607065243179122,0.7785397390272586,-10.57527758007114,0.5104317912218069
12.615064650059312,-0.19871526294978953,-10.087735903519173,0.32994864900487464
12.623064056939501,-0.14698576512456174,-10.112800711743768,0.34559193357057927
12.631063463819691,-0.09525626729933395,-10.137865519968363,0.3612352181362839
12.639062870699881,-0.043526769474106164,-10.162930328192958,0.3768785027019885
12.647062277580071,0.008202728351121624,-10.187995136417554,0.39252178726769316
12.65506168446026,0.05993222617634944,-10.213059944642149,0.4081650718333978
12.66306109134045,0.11166172400157723,-10.238124752866742,0.4238083563991024
12.67106049822064,0.16339122182680502,-10.263189561091338,0.43945164096480704
12.67905990510083,0.2151207196520328,-10.288254369315933,0.4550949255305117
12.68705931198102,0.26685021747726057,-10.313319177540528,0.4707382100962163
12.69505871886121,0.3185797153024884,-10.338383985765123,0.48638149466192093
12.7030581257414,0.15335824436540185,-10.164983392645324,0.22029893238436865
12.71105753262159,0.2580594108343064,-9.758059410834306,0.4887214313958178
12.71905693950178,0.3584829461393988,-9.728603542724619,0.49347195009796385
12.72705634638197,0.5052585802444546,-9.72815413784371,0.4792707558612224
12.73505575326216,0.6520342143495105,-9.727704732962799,0.46506956162448093
12.74305516014235,0.7988098484545663,-9.72725532808189,0.45086836738773944
12.751054567022539,0.945585482559622,-9.726805923200981,0.436667173150998
12.759053973902729,1.092361116664678,-9.72635651832007,0.4224659789142565
12.767053380782919,1.239136750769734,-9.725907113439161,0.40826478467751504
12.775052787663109,1.3859123848747896,-9.725457708558253,0.39406359044077355
12.783052194543298,1.5326880189798455,-9.725008303677344,0.37986239620403206
12.791051601423488,1.6794636530849014,-9.724558898796433,0.3656612019672906
12.799051008303678,1.826239287189957,-9.724109493915524,0.35146000773054914
12.807050415183868,1.9380842230129975,-9.401209964412843,0.16485765124541452
12.815049822064058,1.8993068095485621,-9.429624015354472,0.05865304490383323
12.823049228944246,1.896250856358378,-9.436005564663386,0.04804708971437044
12.831048635824436,1.893194903168193,-9.442387113972302,0.037441134524905294
12.839048042704626,1.8901389499780081,-9.448768663281218,0.02683517933544014
12.847047449584815,1.8870829967878233,-9.455150212590134,0.016229224145974996
12.855046856465005,1.8840270435976385,-9.461531761899048,0.005623268956509844
12.863046263345195,1.8809710904074537,-9.467913311207964,-0.004982686232955308
12.871045670225385,1.8779151372172687,-9.47429486051688,-0.015588641422420446
12.879045077105575,1.8748591840270838,-9.480676409825795,-0.0261945966118856
12.887044483985765,1.871803230836899,-9.48705795913471,-0.03680055180135075
12.895043890865955,1.8687472776467142,-9.493439508443625,-0.04740650699081589
12.903043297746144,1.936721530249123,-9.885305160142348,0.034594009489896216
12.911042704626334,2.019398079057131,-9.861159262235489,-0.13344851337389477
12.919042111506524,2.007355961172974,-9.838623298766567,-0.15099559943366608
12.927041518386714,1.9953138432888173,-9.816087335297643,-0.16854268549343737
12.935040925266904,1.9832717254046606,-9.793551371828721,-0.18608977155320866
12.943040332147094,1.9712296075205038,-9.7710154083598,-0.20363685761297995
12.951039739027284,1.959187489636347,-9.748479444890878,-0.22118394367275124
12.959039145907473,1.9471453717521903,-9.725943481421956,-0.23873102973252253
12.967038552787663,1.9351032538680335,-9.703407517953034,-0.25627811579229387
12.975037959667853,1.9230611359838767,-9.680871554484112,-0.27382520185206516
12.983037366548043,1.91101901809972,-9.65833559101519,-0.29137228791183645
12.991036773428233,1.8989769002155632,-9.635799627546268,-0.30891937397160774
12.999036180308423,2.0566078291814915,-9.552347330960853,-0.15373368920522562
