gyro_time_list,gyro_x_list,gyro_y_list,gyro_z_list
0.0,0.0,0.1,0.0
0.007999072356215213,0.1,0.09557604216264141,0.09557604216264141
0.015998144712430426,0.1,0.08849721706864565,0.08849721706864565
0.02399721706864564,0.1,0.08141839197464988,0.08141839197464988
0.03199628942486085,0.1,0.07433956688065411,0.07433956688065411
0.039995361781076065,0.1,0.06726074178665836,0.06726074178665836
0.04799443413729128,0.1,0.06018191669266259,0.06018191669266259
0.05599350649350649,0.1,0.05310309159866683,0.05310309159866683
0.0639925788497217,0.1,0.04602426650467106,0.04602426650467106
0.07199165120593692,0.1,0.0389454414106753,0.0389454414106753
0.07999072356215213,0.1,0.03186661631667953,0.03186661631667953
0.08798979591836734,0.1,0.024787791222683778,0.024787791222683778
0.09598886827458256,0.1,0.01770896612868801,0.01770896612868801
0.10398794063079778,0.1,0.010630141034692231,0.010630141034692231
0.11198701298701298,0.1,0.0035513159406964784,0.0035513159406964784
0.11998608534322819,0.1,0.03321737786023486,0.0
0.1279851576994434,0.1,0.09987631416202838,0.0
0.13598423005565863,-0.001576994434138168,-0.003153988868276336,0.0
0.14398330241187385,0.011740150605696826,0.02348030121139365,0.0
0.15198237476808904,0.02350349230601329,0.04700698461202658,0.0
0.15998144712430426,0.035266834006329795,0.07053366801265959,0.0
0.16798051948051948,0.0470301757066463,0.0940603514132926,0.0
0.17597959183673467,0.05879351740696276,0.11758703481392552,0.0
0.1839786641929499,0.07055685910727927,0.14111371821455854,0.0
0.1919777365491651,0.08232020080759576,0.16464040161519153,0.0
0.19997680890538033,0.09408354250791227,0.18816708501582455,0.0
0.20797588126159555,0.1,0.2,0.0
0.21597495361781074,0.0,0.0008348794063084419,0.0
0.22397402597402596,0.004817762882279003,-0.095182237117721,0.0
0.23197309833024118,0.011268627685678373,-0.08873137231432163,0.0
0.23997217068645638,0.01771949248907772,-0.08228050751092228,0.0
0.2479712430426716,0.02417035729247709,-0.07582964270752292,0.0
0.2559703153988868,0.03062122209587646,-0.06937877790412354,0.0
0.26396938775510204,0.03707208689927583,-0.06292791310072418,0.0
0.27196846011131726,0.0435229517026752,-0.056477048297324806,0.0
0.2799675324675325,0.04997381650607457,-0.05002618349392544,0.0
0.2879666048237477,0.05642468130947394,-0.04357531869052607,0.0
0.29596567717996286,0.06287554611287326,-0.03712445388712675,0.0
0.3039647495361781,0.06932641091627263,-0.030673589083727373,0.0
0.3119638218923933,0.07577727571967201,-0.024222724280327998,0.0
0.3199628942486085,0.08222814052307137,-0.017771859476928636,0.0
0.32796196660482374,0.08867900532647074,-0.011320994673529261,0.0
0.33596103896103896,0.0951298701298701,-0.0048701298701298995,0.0
0.3439601113172542,0.07549860853432293,0.024501391465677074,0.0
0.35195918367346934,-0.047959183673468256,0.1,0.0
0.35995825602968456,-0.09072232529375389,0.09072232529375389,0.0
0.3679573283858998,-0.08005689548546693,0.08005689548546693,0.0
0.375956400742115,-0.06939146567717998,0.06939146567717998,0.0
0.3839554730983302,-0.058726035868893016,0.058726035868893016,0.0
0.39195454545454544,-0.048060606060606054,0.048060606060606054,0.0
0.39995361781076066,-0.0373951762523191,0.0373951762523191,0.0
0.4079526901669759,-0.026729746444032143,0.026729746444032143,0.0
0.4159517625231911,-0.016064316635745174,0.016064316635745174,0.0
0.42395083487940627,-0.005398886827458288,0.005398886827458288,0.0
0.4319499072356215,0.1,0.2956822398380841,0.0
0.4399489795918367,0.1,0.2593228200371059,0.0
0.44794805194805193,0.1,0.22296340023612765,0.0
0.45594712430426715,0.1,0.2,0.0
0.46394619666048237,0.1,0.2,0.0
0.4719452690166976,0.1,0.2,0.0
0.47994434137291275,0.1,0.2,0.0
0.487943413729128,0.1,0.2,0.0
0.4959424860853432,0.1,0.2,0.0
0.5039415584415584,0.1,0.2,0.0
0.5119406307977736,0.1,0.2,0.0
0.5199397031539889,0.1,0.2,0.0
0.5279387755102041,0.1,0.2,0.0
0.5359378478664193,0.1,0.2,0.0
0.5439369202226345,0.1,0.2,0.0
0.5519359925788497,0.1,0.2,0.0
0.559935064935065,0.15974025974026515,0.5662337662337753,0.26623376623377526
0.5679341372912802,0.0,-0.08438384923347338,0.0
0.5759332096474954,0.0,-0.06333365882238068,0.0
0.5839322820037105,0.0,-0.04228346841128827,0.0
0.5919313543599257,0.0,-0.021233278000195574,0.0
0.5999304267161409,0.0,-0.00018308758910287604,0.0
0.6079294990723562,0.0,0.020867102821989822,0.0
0.6159285714285714,0.0,0.04191729323308252,0.0
0.6239276437847866,0.0,0.0629674836441752,0.0
0.6319267161410018,0.0,0.08401767405526792,0.0
0.639925788497217,0.0,0.1,0.0
0.6479248608534323,0.0,0.0,0.0
0.6559239332096475,0.0,0.1,0.0
0.6639230055658627,0.0,0.1,0.0
0.6719220779220779,0.0,0.1,0.0
0.6799211502782931,0.0,0.1,0.0
0.6879202226345084,0.0,0.1,0.0
0.6959192949907236,0.0,0.1,0.0
0.7039183673469387,0.0,0.1,0.0
0.7119174397031539,0.0,0.1,0.0
0.7199165120593691,0.03511794328120826,0.1,0.0
0.7279155844155843,0.09225417439703121,0.1,0.0
0.7359146567717996,0.0,0.0,0.07757956329384938
0.7439137291280148,0.0,0.0,0.016048237476809266
0.75191280148423,-0.010194485317637943,0.0,0.0
0.7599118738404452,-0.02398598938007797,0.0,0.0
0.7679109461966604,-0.03777749344251799,0.0,0.0
0.7759100185528757,-0.05156899750495801,0.0,0.0
0.7839090909090909,-0.06536050156739803,0.0,0.0
0.7919081632653061,-0.07915200562983805,0.0,0.0
0.7999072356215213,-0.09294350969227808,0.0,0.0
0.8079063079777365,0.0,0.0,0.0
0.8159053803339518,0.0,0.0,0.0
0.823904452690167,0.0,0.0,0.0
0.8319035250463822,0.0,0.0,0.0
0.8399025974025973,0.0,0.0,0.0
0.8479016697588125,0.0,0.0,0.0
0.8559007421150278,0.0,0.0,0.0
0.863899814471243,0.0,0.0,0.0
0.8718988868274582,0.0,0.0,0.0
0.8798979591836734,0.0,0.0,0.0
0.8878970315398886,0.0,0.0,0.0
0.8958961038961039,0.0,0.0,0.0
0.9038951762523191,0.0,0.0,0.0
0.9118942486085343,0.0,0.0,0.0
0.9198933209647495,0.0,0.0,0.0
0.9278923933209647,0.0,0.0,0.0
0.93589146567718,0.0,0.0,0.0
0.9438905380333952,0.0,0.0,0.0
0.9518896103896104,0.0,0.0,0.0
0.9598886827458255,0.0,0.0,0.0
0.9678877551020407,0.0,0.0,0.0
0.975886827458256,0.0,0.0,0.0
0.9838858998144712,0.0,0.0,0.0
0.9918849721706864,0.0,0.0,0.0
0.9998840445269016,0.0,0.0,0.0
1.0078831168831168,0.0,0.0,0.0
1.0158821892393322,-0.011781076066784482,0.0,0.0
1.0238812615955473,0.0,0.0,0.0
1.0318803339517624,0.0,0.0,0.0
1.0398794063079777,0.0,0.0,0.0
1.0478784786641928,0.0,0.0,0.0
1.0558775510204081,0.0,0.0,0.0
1.0638766233766233,0.0,0.0,0.0
1.0718756957328386,0.0,0.0,0.0
1.0798747680890537,0.0,0.0,0.0
1.087873840445269,0.0,0.0,0.0
1.0958729128014841,0.0,0.0,0.0
1.1038719851576995,0.0,0.0,0.0
1.1118710575139146,0.0,0.0,0.0
1.11987012987013,0.0,0.0,0.0
1.127869202226345,0.0,0.0,0.0
1.1358682745825603,0.0,0.0,0.0
1.1438673469387755,0.0,0.0,0.0
1.1518664192949908,0.0,0.0,0.0
1.159865491651206,0.0,0.0,0.0
1.167864564007421,0.0,0.0,0.0
1.1758636363636363,0.0,0.0,0.0
1.1838627087198514,0.0,0.0,0.0
1.1918617810760668,0.0,0.0,0.0
1.1998608534322819,0.0,0.0,0.0
1.2078599257884972,0.0,0.0,0.0
1.2158589981447123,0.0,0.0,0.0
1.2238580705009277,0.0,0.0,0.0
1.2318571428571428,0.0,0.0,0.0
1.239856215213358,0.0,0.0,0.0
1.2478552875695732,0.0,0.0,0.0
1.2558543599257885,0.0,0.0,0.0
1.2638534322820036,0.0,0.0,0.0
1.271852504638219,0.0,0.0,0.0
1.279851576994434,0.0,0.0,0.0
1.2878506493506492,0.0,0.0,0.0
1.2958497217068645,0.0,0.0,0.0
1.3038487940630796,0.0,0.0,0.0
1.311847866419295,0.0,0.0,0.0
1.31984693877551,0.0,0.0,0.0
1.3278460111317254,0.0,0.057699443413727854,0.0
1.3358450834879405,0.0,0.0,0.0
1.3438441558441558,0.0,0.0,0.0
1.351843228200371,0.0,0.0,0.0
1.3598423005565863,0.0,0.0,0.0
1.3678413729128014,0.0,0.0,0.0
1.3758404452690167,0.0,0.0,0.0
1.3838395176252318,0.0,0.0,0.0
1.3918385899814472,0.0,0.0,0.0
1.3998376623376623,0.0,0.0,0.0
1.4078367346938774,-0.013945578231289158,0.0,0.0
1.4158358070500927,-0.1,0.0,0.0
1.4238348794063078,0.00518226946798363,0.09481773053201638,0.0
1.4318339517625231,0.015991826706112447,0.08400817329388756,0.0
1.4398330241187383,0.02680138394424096,0.07319861605575904,0.0
1.4478320964749536,0.03761094118236978,0.062389058817630225,0.0
1.4558311688311687,0.048420498420498295,0.05157950157950171,0.0
1.463830241187384,0.059230055658627115,0.04076994434137289,0.0
1.4718293135435991,0.07003961289675563,0.029960387103244376,0.0
1.4798283858998145,0.08084917013488445,0.019150829865115557,0.0
1.4878274582560296,0.09165872737301296,0.008341272626987042,0.0
1.495826530612245,0.008673469387754373,0.0,0.0
1.50382560296846,0.0,0.0,0.0
1.5118246753246753,0.0,0.0,0.0
1.5198237476808905,0.0,0.0,0.0
1.5278228200371058,0.0,0.0,0.0
1.535821892393321,0.0,0.0,0.0
1.543820964749536,0.0,0.0,0.0
1.5518200371057513,0.0,0.0,0.0
1.5598191094619664,0.0,0.0,0.0
1.5678181818181818,0.0,0.0,0.0
1.5758172541743969,0.0,0.0,0.0
1.5838163265306122,0.0,0.0,0.0
1.5918153988868273,0.0,0.0,0.0
1.5998144712430427,0.0,0.0,0.0
1.6078135435992578,0.0,0.00533352623785108,0.0
1.615812615955473,0.0,0.012672124729791751,0.0
1.6238116883116882,0.0,0.02001072322173222,0.0
1.6318107606679035,0.0,0.02734932171367289,0.0
1.6398098330241186,0.0,0.03468792020561336,0.0
1.647808905380334,0.0,0.042026518697554034,0.0
1.655807977736549,0.0,0.049365117189494497,0.0
1.6638070500927644,0.0,0.056703715681435174,0.0
1.6718061224489795,0.0,0.06404231417337564,0.0
1.6798051948051946,0.0,0.07138091266531611,0.0
1.68780426716141,0.0,0.07871951115725678,0.0
1.695803339517625,0.0,0.08605810964919725,0.0
1.7038024118738404,0.0,0.09339670814113792,0.0
1.7118014842300555,0.0,0.019851576994447367,0.0
1.7198005565862708,0.0,0.0,0.0
1.727799628942486,0.0,0.0,0.0
1.7357987012987013,0.0,0.0,0.0
1.7437977736549164,0.0,0.0,0.0
1.7517968460111317,0.0,0.0,0.0
1.7597959183673468,0.0,0.0,0.0
1.7677949907235622,0.0,0.0,0.0
1.7757940630797773,0.0,0.0,0.0
1.7837931354359926,0.0,0.0,0.0
1.7917922077922077,0.0,0.0,0.0
1.7997912801484228,0.0,0.0,0.0
1.8077903525046382,0.0,0.0,0.0
1.8157894248608533,0.0,0.0,0.0
1.8237884972170686,0.0,0.0,0.0
1.8317875695732837,0.0,0.0,0.0
1.839786641929499,0.0,0.0,0.0
1.8477857142857141,0.0,0.0,0.0
1.8557847866419295,0.0,0.0,0.0
1.8637838589981446,0.0,0.0,0.0
1.87178293135436,0.0,0.0,0.0
1.879782003710575,0.0,0.0,0.0
1.8877810760667904,0.0,0.0,0.0
1.8957801484230055,0.0,0.0,0.0
1.9037792207792208,0.0,0.0,0.0
1.911778293135436,0.0,0.0,0.0
1.919777365491651,0.0,0.0,0.0
1.9277764378478663,0.0,0.0,0.0
1.9357755102040815,0.0,0.0,0.0
1.9437745825602968,0.0052424757781900444,0.0,0.0
1.951773654916512,0.016352298495155463,0.0,0.0
1.9597727272727272,0.02746212121212119,0.0,0.0
1.9677717996289423,0.03857194392908661,0.0,0.0
1.9757708719851577,0.04968176664605234,0.0,0.0
1.9837699443413728,0.06079158936301776,0.0,0.0
1.991769016697588,0.07190141207998349,0.0,0.0
1.9997680890538032,0.08301123479694891,0.0,0.0
2.0077671614100185,0.09412105751391464,0.0,0.0
2.0157662337662337,-0.038311688311680525,-0.038311688311680525,-0.06168831168831948
2.0237653061224488,-0.1,-0.09256559766763864,0.0
2.0317643784786643,-0.1,-0.083775408265204,0.0
2.0397634508348794,-0.1,-0.07498521886276982,0.0
2.0477625231910945,-0.1,-0.06619502946033565,0.0
2.0557615955473096,-0.1,-0.05740484005790149,0.0
2.0637606679035247,-0.1,-0.04861465065546732,0.0
2.0717597402597403,-0.1,-0.03982446125303266,0.0
2.0797588126159554,-0.1,-0.031034271850598497,0.0
2.0877578849721705,-0.1,-0.022244082448164337,0.0
2.0957569573283856,-0.1,-0.013453893045730164,0.0
2.103756029684601,-0.1,-0.004663703643295505,0.0
2.1117551020408163,-0.037414965986394516,0.0,0.0
2.1197541743970314,0.1,0.1,0.0
2.1277532467532465,0.1,0.1,0.0
2.135752319109462,0.1,0.1,0.0
2.143751391465677,0.1,0.1,0.0
2.1517504638218923,0.1,0.1,0.0
2.1597495361781074,0.1,0.1,0.0
2.167748608534323,0.1,0.1,0.0
2.175747680890538,0.1,0.1,0.0
2.183746753246753,0.1,0.1,0.0
2.1917458256029683,0.1,0.1,0.0
2.1997448979591834,0.1,0.1,0.0
2.207743970315399,0.1,0.1,0.0
2.215743042671614,0.1,0.1,0.0
2.223742115027829,0.0,0.0,0.0
2.2317411873840443,0.0,0.0,0.0
2.23974025974026,0.0,0.0,0.0
2.247739332096475,0.0,0.0,0.0
2.25573840445269,0.0,0.0,0.0
2.263737476808905,0.0,0.0,0.0
2.2717365491651207,0.0,0.0,0.0
2.279735621521336,0.0,0.0,0.0
2.287734693877551,0.0,0.0,0.0
2.295733766233766,0.0,0.0,0.0
2.3037328385899816,0.0,0.0,0.0
2.3117319109461967,0.0,0.0,0.0
2.319730983302412,0.1,0.0,0.0
2.327730055658627,0.09662956091527566,0.0,0.0
2.335729128014842,0.08675416294463972,0.0,0.0
2.3437282003710576,0.07687876497400323,0.0,0.0
2.3517272727272727,0.06700336700336729,0.0,0.0
2.3597263450834878,0.057127969032731346,0.0,0.0
2.367725417439703,0.047252571062095405,0.0,0.0
2.3757244897959184,0.03737717309145891,0.0,0.0
2.3837235621521335,0.02750177512082297,0.0,0.0
2.3917226345083487,0.017626377150187028,0.0,0.0
2.3997217068645638,0.007750979179551087,0.0,0.0
2.4077207792207793,0.0,0.0,0.0
2.4157198515769944,0.0,0.0,0.0
2.4237189239332095,0.0,0.007812702247918251,0.0
2.4317179962894246,0.0,0.017113949173749744,0.0
2.4397170686456398,0.0,0.026415196099581234,0.0
2.4477161410018553,0.0,0.03571644302541324,0.0
2.4557152133580704,0.0,0.04501768995124473,0.0
2.4637142857142855,0.0,0.05431893687707622,0.0
2.4717133580705006,0.0,0.06362018380290771,0.0
2.479712430426716,0.0,0.07292143072873972,0.0
2.4877115027829313,0.0,0.08222267765457121,0.0
2.4957105751391464,0.0,0.0915239245804027,0.0
2.5037096474953615,0.0,0.1,0.0
2.511708719851577,0.0,0.0,0.0
2.519707792207792,0.0,0.0,0.0
2.5277068645640073,0.0,0.0,0.0
2.5357059369202224,0.0,0.0,0.0
2.543705009276438,0.0,0.0,0.0
2.551704081632653,0.0,0.0,0.0
2.559703153988868,0.0,0.0,0.0
2.5677022263450833,0.0,0.0,0.0
2.5757012987012984,0.0,0.0,0.0
2.583700371057514,0.0,0.0,0.0
2.591699443413729,0.0,0.0,0.0
2.599698515769944,0.0,0.0,0.0
2.6076975881261593,0.0,0.0,0.0
2.615696660482375,0.0,0.0,0.0
2.62369573283859,-0.08478664192949233,-0.1,0.0
2.631694805194805,-0.09382262474367731,-0.09382262474367731,-0.1
2.63969387755102,-0.08329752953813112,-0.08329752953813112,-0.1
2.6476929499072357,-0.07277243433258435,-0.07277243433258435,-0.1
2.655692022263451,-0.06224733912703816,-0.06224733912703816,-0.1
2.663691094619666,-0.051722243921491974,-0.051722243921491974,-0.1
2.671690166975881,-0.041197148715945785,-0.041197148715945785,-0.1
2.6796892393320966,-0.03067205351039902,-0.03067205351039902,-0.1
2.6876883116883117,-0.02014695830485283,-0.02014695830485283,-0.1
2.695687384044527,-0.00962186309930664,-0.00962186309930664,-0.1
2.703686456400742,0.0,0.03432282003709879,-0.1
2.711685528756957,0.5018728097299523,0.3981271902700477,-0.1
2.7196846011131726,0.5107606679035251,0.3892393320964749,-0.1
2.7276836734693877,0.5196485260770974,0.3803514739229025,-0.1
2.735682745825603,0.5285363842506698,0.3714636157493302,-0.1
2.743681818181818,0.5374242424242421,0.36257575757575783,-0.1
2.7516808905380334,0.5463121005978151,0.353687899402185,-0.1
2.7596799628942486,0.5551999587713874,0.34480004122861263,-0.1
2.7676790352504637,0.5640878169449598,0.3359121830550402,-0.1
2.7756781076066788,0.5729756751185321,0.3270243248814679,-0.1
2.7836771799628943,0.5818635332921049,0.318136466707895,-0.1
2.7916762523191094,0.5907513914656773,0.3092486085343227,-0.1
2.7996753246753245,0.5996392496392496,0.30036075036075033,-0.1
2.8076743970315396,0.5985950061842923,0.0007024969078538626,-0.3
2.8156734693877548,0.5819302721088442,0.009034863945577927,-0.3
2.8236725417439703,0.5652655380333951,0.017367230983302454,-0.3
2.8316716141001854,0.548600803957947,0.02569959802102652,-0.3
2.8396706864564005,0.5319360698824989,0.034031965058750585,-0.3
2.8476697588126156,0.5152713358070508,0.04236433209647465,-0.3
2.855668831168831,0.49860660173160165,0.05069669913419918,-0.3
2.8636679035250463,0.48194186765615354,0.059029066171923245,-0.3
2.8716669758812614,0.46527713358070544,0.06736143320964731,-0.3
2.8796660482374765,0.44861239950525733,0.07569380024737138,-0.3
2.887665120593692,0.4319476654298082,0.0840261672850959,-0.3
2.895664192949907,0.4152829313543601,0.09235853432281997,-0.3
2.9036632653061223,0.33367346938776643,0.1,-0.3663265306122336
2.9116623376623374,0.1,0.3,-0.36688311688312814
2.919661410018553,0.10628434907410672,0.2937156509258933,-0.3
2.927660482374768,0.11383064374978133,0.28616935625021866,-0.3
2.935659554730983,0.12137693842545594,0.2786230615745441,-0.3
2.9436586270871983,0.12892323310113055,0.27107676689886945,-0.3
2.9516576994434134,0.13646952777680516,0.26353047222319487,-0.3
2.959656771799629,0.14401582245248018,0.25598417754751984,-0.3
2.967655844155844,0.1515621171281548,0.2484378828718452,-0.3
2.975654916512059,0.1591084118038294,0.2408915881961706,-0.3
2.9836539888682743,0.166654706479504,0.233345293520496,-0.3
2.99165306122449,0.17420100115517906,0.22579899884482096,-0.3
2.999652133580705,0.18174729583085364,0.21825270416914638,-0.3
3.00765120593692,0.18929359050652828,0.21070640949347175,-0.3
3.015650278293135,0.19683988518220286,0.20316011481779717,-0.3
3.0236493506493507,-0.36493506493507155,0.1,-0.28246753246753575
3.031648423005566,-0.5912105751391444,0.16373685837971483,-0.3637368583797148
3.039647495361781,-0.7249828449437047,0.2,-0.4099931379774819
3.047646567717996,-0.7797710117670958,0.2,-0.4319084047068384
3.0556456400742116,-0.8345591785904901,0.2,-0.45382367143619606
3.0636447124304267,-0.8893473454138813,0.2,-0.4757389381655525
3.071643784786642,-0.9441355122372724,0.2,-0.497654204894909
3.079642857142857,-0.9989236790606637,0.2,-0.5195694716242655
3.087641929499072,-1.0537118458840549,0.2,-0.541484738353622
3.0956410018552876,-1.1085000127074491,0.2,-0.5634000050829796
3.1036400742115027,-1.1632881795308403,0.2,-0.5853152718123361
3.111639146567718,-1.5744341372912964,0.3,-0.6872170686456482
3.119638218923933,0.13719851576977204,0.3,-0.15426716141007596
3.1276372912801484,0.34600777879607447,0.3092015557592149,-0.0815968884815702
3.1356363636363636,0.39419496166484036,0.3188389923329681,-0.06232201533406386
3.1436354359925787,0.4423821445336062,0.32847642890672124,-0.043047142186557516
3.1516345083487938,0.4905693274023721,0.3381138654804744,-0.023772269039051164
3.1596335807050093,0.5387565102711406,0.3477513020542281,-0.004497395891543743
3.1676326530612244,0.5869436931399065,0.3573887386279813,0.014777477255962596
3.1756317254174395,0.6351308760086724,0.3670261752017345,0.03405235040346896
3.1836307977736547,0.6833180588774382,0.3766636117754877,0.0533272235509753
3.19162987012987,0.7315052417462067,0.3863010483492414,0.07260209669848272
3.1996289424860853,0.7796924246149726,0.39593848492299455,0.09187696984598906
3.2076280148423004,0.8743970315398994,0.8685992578849749,0.33719851576994975
3.2156270871985155,0.5506493506493528,0.7717996289424874,0.1858998144712437
3.2236261595547306,0.49108179054987855,0.7377610231713593,0.16888051158567963
3.231625231910946,0.43151423045040094,0.7037224174002292,0.15186120870011457
3.2396243042671613,0.37194667035092666,0.6696838116291011,0.1348419058145505
3.2476233766233764,0.3123791102514524,0.6356452058579729,0.11782260292898641
3.2556224489795915,0.2528115501519781,0.6016066000868446,0.10080330004342232
3.263621521335807,0.19324399005250048,0.5675679943157146,0.0837839971578573
3.271620593692022,0.13367642995302614,0.5335293885445864,0.0667646942722932
3.2796196660482373,0.07410886985355192,0.49949078277345826,0.04974539138672912
3.2876187384044524,0.014541309754077525,0.4654521770023301,0.03272608850116504
3.295617810760668,-0.04502625034540009,0.4314135712312,0.01570678561559999
3.303616883116883,-0.4701298701299168,0.27662337662336106,-0.061688311688319473
3.311615955473098,-1.2073344545974711,-0.29755518180084295,0.09755518180084298
3.3196150278293133,-1.2297617602691022,-0.29007941324363257,0.09007941324363258
3.327614100185529,-1.2521890659407346,-0.28260364468642174,0.08260364468642177
3.335613172541744,-1.274616371612366,-0.27512787612921136,0.07512787612921137
3.343612244897959,-1.297043677283997,-0.267652107572001,0.06765210757200096
3.351611317254174,-1.3194709829556284,-0.26017633901479054,0.060176339014790574
3.3596103896103893,-1.3418982886272595,-0.25270057045758015,0.05270057045758018
3.367609461966605,-1.3643255942988919,-0.24522480190036935,0.04522480190036936
3.37560853432282,-1.3867528999705232,-0.23774903334315894,0.03774903334315896
3.383607606679035,-1.4091802056421543,-0.23027326478594856,0.030273264785948564
3.39160667903525,-1.4316075113137856,-0.22279749622873818,0.022797496228738168
3.3996057513914657,-1.454034816985418,-0.21532172767152735,0.015321727671527355
3.407604823747681,-1.4764621226570491,-0.20784595911431697,0.007845959114316944
3.415603896103896,-1.4988894283286802,-0.20037019055710656,0.0003701905571065478
3.423602968460111,-1.5950371057513888,-0.2,0.0
3.4316020408163266,-1.444982993197277,-0.2,0.0
3.4396011131725417,-1.0930386383802544,-0.3,0.0023204538732485873
3.447600185528757,-1.0582600629184495,-0.3,0.01391331236051687
3.455599257884972,-1.0234814874566447,-0.3,0.025506170847785153
3.463598330241187,-0.9887029119948397,-0.3,0.037099029335053435
3.4715974025974026,-0.953924336533033,-0.3,0.04869188782232236
3.4795964749536177,-0.9191457610712281,-0.3,0.060284746309590645
3.487595547309833,-0.8843671856094233,-0.3,0.07187760479685892
3.495594619666048,-0.8495886101476184,-0.3,0.0834704632841272
3.5035936920222635,-0.8148100346858116,-0.3,0.09506332177139613
3.5115927643784786,-0.3962894248608513,-0.4,0.2
3.5195918367346937,-0.1,-0.19695078031212498,0.09695078031212499
3.5275909090909088,-0.1,-0.18754010695187193,0.08754010695187192
3.5355899814471243,-0.1,-0.1781294335916183,0.07812943359161832
3.5435890538033394,-0.1,-0.16871876023136526,0.06871876023136525
3.5515881261595545,-0.1,-0.15930808687111217,0.05930808687111217
3.5595871985157697,-0.1,-0.1498974135108591,0.0498974135108591
3.567586270871985,-0.1,-0.1404867401506055,0.0404867401506055
3.5755853432282003,-0.1,-0.13107606679035244,0.031076066790352436
3.5835844155844154,-0.1,-0.12166539343009937,0.021665393430099364
3.5915834879406305,-0.1,-0.11225472006984628,0.012254720069846278
3.5995825602968456,-0.1,-0.10284404670959321,0.0028440467095932065
3.607581632653061,0.10164753401360556,-0.20164753401360555,0.0
3.6155807050092763,0.10997990105132963,-0.20997990105132963,0.0
3.6235797773654914,0.11831226808905368,-0.21831226808905368,0.0
3.6315788497217065,0.12664463512677776,-0.22664463512677774,0.0
3.639577922077922,0.13497700216450229,-0.23497700216450226,0.0
3.647576994434137,0.14330936920222634,-0.24330936920222634,0.0
3.6555760667903523,0.15164173623995042,-0.2516417362399504,0.0
3.6635751391465674,0.15997410327767447,-0.25997410327767445,0.0
3.671574211502783,0.168306470315399,-0.268306470315399,0.0
3.679573283858998,0.17663883735312308,-0.27663883735312306,0.0
3.687572356215213,0.18497120439084713,-0.2849712043908471,0.0
3.6955714285714283,0.19330357142857119,-0.29330357142857116,0.0
3.703570500927644,0.2785250463821852,-0.3,-0.07852504638218526
3.711569573283859,0.3,-0.3189857761286357,-0.11898577612863571
3.719568645640074,0.19307059099014784,-0.4,-0.3034647045049261
3.727567717996289,0.17753841165769127,-0.4,-0.31123079417115435
3.7355667903525043,0.1620062323252347,-0.4,-0.31899688383738267
3.74356586270872,0.1464740529927773,-0.4,-0.32676297350361133
3.751564935064935,0.13094187366032073,-0.4,-0.33452906316983966
3.75956400742115,0.11540969432786417,-0.4,-0.34229515283606793
3.767563079777365,0.0998775149954076,-0.4,-0.3500612425022962
3.7755621521335807,0.08434533566295019,-0.4,-0.3578273321685249
3.783561224489796,0.06881315633049362,-0.4,-0.3655934218347532
3.791560296846011,0.05328097699803708,-0.4,-0.37335951150098146
3.799559369202226,0.03774879766558051,-0.4,-0.3811256011672097
3.8075584415584416,0.022216618333123078,-0.4,-0.38889169083343844
3.8155575139146567,0.006684439000666537,-0.4,-0.39665778049966677
3.823556586270872,-0.15188620902906352,-0.4,-0.4
3.831555658627087,-0.5182547044791912,-0.3634905910416176,-0.3
3.839554730983302,-0.5753909355950143,-0.24921812880997146,-0.3
3.8475538033395176,-0.3874403114449965,0.00837312570333568,-0.19581343714833216
3.8555528756957327,-0.3481006113324631,0.034599592445024585,-0.18270020377748772
3.863551948051948,-0.30876091121992977,0.060826059186713494,-0.16958697040664328
3.871551020408163,-0.26942121110739636,0.0870525259284024,-0.1564737370357988
3.8795500927643785,-0.23008151099486085,0.11327899267009277,-0.14336050366495362
3.8875491651205936,-0.19074181088232747,0.13950545941178166,-0.13024727029410918
3.8955482374768087,-0.15140211076979412,0.16573192615347057,-0.11713403692326473
3.903547309833024,-0.11206241065726075,0.19195839289515948,-0.10402080355242027
3.9115463821892393,0.8546382189239363,0.5,0.17731910946196816
3.9195454545454544,1.0676767676767691,0.5,0.2
3.9275445269016696,1.1,0.49220889654563127,0.2
3.9355435992578847,1.1,0.4826861913596609,0.2
3.9435426716141,1.1,0.47316348617369003,0.2
3.9515417439703153,1.1,0.46364078098771966,0.2
3.9595408163265304,1.1,0.45411807580174934,0.2
3.9675398886827455,1.1,0.444595370615779,0.2
3.9755389610389607,1.1,0.4350726654298086,0.2
3.983538033395176,1.1,0.42554996024383773,0.2
3.9915371057513913,1.1,0.41602725505786736,0.2
3.9995361781076064,1.1,0.406504549871897,0.2
4.007535250463822,0.9464749536177878,0.24647495361778776,0.1
4.015534322820037,0.39611612876918956,-0.20388387123081045,0.0
4.023533395176252,0.3873259393667554,-0.21267406063324462,0.0
4.031532467532467,0.3785357499643212,-0.2214642500356788,0.0
4.039531539888682,0.36974556056188707,-0.23025443943811297,0.0
4.0475306122448975,0.36095537115945286,-0.2390446288405471,0.0
4.055529684601113,0.3521651817570187,-0.2478348182429813,0.0
4.063528756957329,0.3433749923545836,-0.2566250076454164,0.0
4.071527829313544,0.33458480295214943,-0.2654151970478506,0.0
4.079526901669759,0.32579461354971523,-0.27420538645028475,0.0
4.087525974025974,0.317004424147281,-0.28299557585271895,0.0
4.095525046382189,0.3082142347448469,-0.2917857652551531,0.0
4.103524118738404,0.3,-0.3,-0.006551484230055133
4.111523191094619,0.27384044526903306,-0.3,-0.1
4.119522263450834,0.09667710995204273,-0.2966771099520427,0.0
4.1275213358070495,0.08913081527636817,-0.28913081527636814,0.0
4.1355204081632655,0.08158452060069274,-0.2815845206006927,0.0
4.143519480519481,0.07403822592501817,-0.27403822592501814,0.0
4.151518552875696,0.06649193124934359,-0.26649193124934356,0.0
4.159517625231911,0.05894563657366902,-0.258945636573669,0.0
4.167516697588126,0.05139934189799444,-0.25139934189799445,0.0
4.175515769944341,0.04385304722231986,-0.24385304722231987,0.0
4.183514842300556,0.03630675254664528,-0.2363067525466453,0.0
4.191513914656771,0.0287604578709707,-0.2287604578709707,0.0
4.199512987012987,0.021214163195295288,-0.2212141631952953,0.0
4.207512059369202,0.013667868519620721,-0.21366786851962072,0.0
4.2155111317254175,0.00612157384394614,-0.20612157384394614,0.0
4.223510204081633,0.07551020408161634,-0.12448979591838367,0.07551020408161634
4.231509276437848,0.23653229886995286,-0.031733850565023564,0.16826614943497645
4.239508348794063,0.8039693389317432,0.0,0.3
4.247507421150278,0.8250195293428356,0.0,0.3
4.255506493506493,0.8460697197539281,0.0,0.3
4.263505565862708,0.8671199101650207,0.0,0.3
4.271504638218924,0.8881701005761155,0.0,0.3
4.279503710575139,0.9092202909872079,0.0,0.3
4.287502782931354,0.9302704813983005,0.0,0.3
4.2955018552875694,0.951320671809393,0.0,0.3
4.303500927643785,0.9723708622204854,0.0,0.3
4.3115,0.9934210526315779,0.0,0.3
4.319499072356215,0.5800371057514065,-0.1,0.0900185528757033
4.32749814471243,0.3873561034490481,-0.1,-0.004214632183650642
4.335497217068646,0.3584437937277855,-0.1,-0.013852068757404835
4.343496289424861,0.32953148400652615,-0.1,-0.023489505331157956
4.351495361781076,0.30061917428526674,-0.1,-0.033126941904911084
4.359494434137291,0.2717068645640074,-0.1,-0.042764378478664204
4.367493506493506,0.24279455484274803,-0.1,-0.052401815052417325
4.375492578849721,0.21388224512148865,-0.1,-0.062039251626170445
4.3834916512059365,0.1849699354002293,-0.1,-0.07167668819992357
4.391490723562152,0.1560576256789699,-0.1,-0.0813141247736767
4.399489795918367,0.12714531595771056,-0.1,-0.09095156134742982
4.407488868274583,0.002226345083488443,-0.1,-0.1
4.415487940630798,-0.197235621521336,0.1,0.0
4.423487012987013,-0.18834776334776365,0.1,0.0
4.431486085343228,-0.1794599051741913,0.1,0.0
4.439485157699443,-0.17057204700061893,0.1,0.0
4.447484230055658,-0.16168418882704658,0.1,0.0
4.455483302411873,-0.1527963306534742,0.1,0.0
4.4634823747680885,-0.14390847247990185,0.1,0.0
4.4714814471243045,-0.1350206143063285,0.1,0.0
4.47948051948052,-0.12613275613275615,0.1,0.0
4.487479591836735,-0.1172448979591838,0.1,0.0
4.49547866419295,-0.10835703978561144,0.1,0.0
4.503477736549165,-0.1,0.1477736549165096,0.0
4.51147680890538,-0.22384044526899927,0.1,0.0
4.519475881261595,-0.3,0.1,0.0
4.52747495361781,-0.3,0.1,0.0
4.535474025974025,-0.3,0.1,0.0
4.543473098330241,-0.3,0.1,0.0
4.5514721706864565,-0.3,0.1,0.0
4.559471243042672,-0.3,0.1,0.0
4.567470315398887,-0.3,0.1,0.0
4.575469387755102,-0.3,0.1,0.0
4.583468460111317,-0.3,0.1,0.0
4.591467532467532,-0.3,0.1,0.0
4.599466604823747,-0.3,0.1,0.0
4.607465677179963,-0.3,0.1,0.0
4.615464749536178,-0.27690166975881186,0.12309833024118814,0.0
4.623463821892393,-0.22357452071737666,0.17642547928262334,0.0
4.6314628942486085,-0.16280921459492906,0.2,0.0
4.639461966604824,-0.1,0.2,0.0
4.647461038961039,0.0,0.19459212662337727,0.0
4.655460111317254,0.0,0.18209357606679116,0.0
4.663459183673469,0.0,0.16959502551020508,0.0
4.671458256029684,0.0,0.15709647495361898,0.0
4.6794573283859,0.0,0.1445979243970315,0.0
4.687456400742115,0.0,0.1320993738404454,0.0
4.69545547309833,0.0,0.1196008232838593,0.0
4.703454545454545,0.0,0.10710227272727321,0.0
4.71145361781076,0.0,0.05092764378479146,0.0
4.7194526901669756,-0.2,-0.1,-0.0028855178435010747
4.727451762523191,-0.2,-0.1,-0.012296191203754149
4.735450834879406,-0.2,-0.1,-0.021706864564007222
4.743449907235621,-0.2,-0.1,-0.031117537924260294
4.751448979591837,-0.2,-0.1,-0.040528211284514414
4.759448051948052,-0.2,-0.1,-0.049938884644767485
4.767447124304267,-0.2,-0.1,-0.05934955800502056
4.775446196660482,-0.2,-0.1,-0.06876023136527364
4.783445269016697,-0.2,-0.1,-0.07817090472552671
4.791444341372912,-0.2,-0.1,-0.08758157808577978
4.7994434137291275,-0.2,-0.1,-0.09699225144603285
4.807442486085343,-0.1,0.00632122979060391,-0.2
4.815441558441559,-0.09571814324289532,0.09857271441429845,-0.19857271441429844
4.823440630797774,-0.07195852238285044,0.09065284079428348,-0.1906528407942835
4.831439703153989,-0.04819890152280555,0.08273296717426852,-0.1827329671742685
4.839438775510204,-0.02443928066276066,0.07481309355425356,-0.17481309355425356
4.847437847866419,-0.0006796598027157819,0.0668932199342386,-0.1668932199342386
4.855436920222634,0.02307996105732911,0.058973346314223636,-0.15897334631422363
4.863435992578849,0.046839581917374,0.05105347269420868,-0.15105347269420868
4.871435064935064,0.07059920277741888,0.043133599074193715,-0.1431335990741937
4.8794341372912795,0.09435882363746376,0.03521372545417875,-0.13521372545417876
4.8874332096474955,0.11811844449751127,0.027293851834162913,-0.12729385183416292
4.895432282003711,0.14187806535755618,0.01937397821414795,-0.11937397821414795
4.903431354359926,0.16563768621760103,0.011454104594133,-0.111454104594133
4.911430426716141,0.18939730707764593,0.0035342309741180356,-0.10353423097411804
4.919429499072356,0.5214749536177925,-0.1,-0.03926252319110373
4.927428571428571,0.5956043956043965,-0.1,0.3
4.935427643784786,0.5853491746348899,-0.1,0.3
4.943426716141001,0.5750939536653833,-0.1,0.3
4.951425788497217,0.5648387326958755,-0.1,0.3
4.959424860853432,0.5545835117263689,-0.1,0.3
4.9674239332096475,0.5443282907568623,-0.1,0.3
4.975423005565863,0.5340730697873557,-0.1,0.3
4.983422077922078,0.523817848817849,-0.1,0.3
4.991421150278293,0.5135626278483424,-0.1,0.3
4.999420222634508,0.5033074068788358,-0.1,0.3
5.007419294990723,0.4916141001855328,-0.21677179962893442,0.39161410018553283
5.015418367346938,0.3962018140589572,-0.40379818594104283,0.2962018140589572
5.023417439703154,0.3873139558853839,-0.41268604411461607,0.2873139558853839
5.031416512059369,0.3784260977118117,-0.42157390228818836,0.27842609771181165
5.039415584415584,0.3695382395382394,-0.43046176046176066,0.2695382395382394
5.0474146567717995,0.3606503813646671,-0.4393496186353329,0.2606503813646671
5.055413729128015,0.35176252319109486,-0.4482374768089052,0.2517625231910948
5.06341280148423,0.34287466501752256,-0.4571253349824774,0.24287466501752258
5.071411873840445,0.3339868068439503,-0.4660131931560497,0.23398680684395032
5.07941094619666,0.32509894867037803,-0.47490105132962196,0.22509894867037805
5.087410018552876,0.3162110904968048,-0.4837889095031952,0.2162110904968048
5.095409090909091,0.3073232323232325,-0.4926767676767675,0.20732323232323252
5.103408163265306,0.15918367346940498,-0.5704081632652975,0.12959183673470248
5.111407235621521,-0.28306387490060253,-0.6,0.1
5.119406307977736,-0.5,-0.5932565179181727,0.2
5.127405380333951,-0.5,-0.5848364417537357,0.2
5.1354044526901665,-0.5,-0.5764163655892988,0.2
5.143403525046382,-0.5,-0.5679962894248618,0.2
5.151402597402597,-0.5,-0.5595762132604248,0.2
5.159401669758813,-0.5,-0.5511561370959869,0.2
5.167400742115028,-0.5,-0.5427360609315499,0.2
5.175399814471243,-0.5,-0.534315984767113,0.2
5.183398886827458,-0.5,-0.525895908602676,0.2
5.191397959183673,-0.5,-0.5174758324382389,0.2
5.199397031539888,-0.5,-0.509055756273802,0.2
5.207396103896103,-0.5,-0.500635680109365,0.2
5.2153951762523185,-0.2,-0.5,-0.20132873928792203
5.2233942486085345,-0.2,-0.5,-0.2089469034366992
5.23139332096475,-0.2,-0.5,-0.21656506758547553
5.239392393320965,-0.2,-0.5,-0.22418323173425184
5.24739146567718,-0.2,-0.5,-0.23180139588302817
5.255390538033395,-0.2,-0.5,-0.2394195600318045
5.26338961038961,-0.2,-0.5,-0.24703772418058084
5.271388682745825,-0.2,-0.5,-0.25465588832935715
5.27938775510204,-0.2,-0.5,-0.26227405247813346
5.287386827458255,-0.2,-0.5,-0.2698922166269098
5.295385899814471,-0.2,-0.5,-0.27751038077568696
5.3033849721706865,-0.2,-0.5,-0.28512854492446327
5.311384044526902,-0.2,-0.5,-0.29274670907323963
5.319383116883117,-0.2,-0.5191558441558403,-0.31915584415584025
5.327382189239332,-0.6130084201512768,-0.4956638599495744,-0.5
5.335381261595547,-0.6437740830597963,-0.4854086389800679,-0.5
5.343380333951762,-0.6745397459683159,-0.4751534180105614,-0.5
5.351379406307977,-0.7053054088768353,-0.4648981970410549,-0.5
5.359378478664193,-0.7360710717853584,-0.45464297607154724,-0.5
5.367377551020408,-0.7668367346938779,-0.4443877551020407,-0.5
5.375376623376623,-0.7976023976023974,-0.4341325341325342,-0.5
5.3833756957328385,-0.8283680605109169,-0.4238773131630277,-0.5
5.391374768089054,-0.8591337234194365,-0.4136220921935212,-0.5
5.399373840445269,-0.8898993863279561,-0.40336687122401466,-0.5
5.407372912801484,-0.3627087198516398,-0.3,-0.5
5.415371985157699,0.5049226060696336,-0.5049226060696336,-0.39753869696518324
5.423371057513914,0.5166000839619184,-0.5166000839619184,-0.39169995801904084
5.43137012987013,0.5282775618542044,-0.5282775618542044,-0.38586121907289783
5.439369202226345,0.5399550397464892,-0.5399550397464892,-0.38002248012675544
5.44736827458256,0.551632517638774,-0.551632517638774,-0.37418374118061304
5.455367346938775,0.5633099955310588,-0.5633099955310588,-0.36834500223447064
5.4633664192949905,0.5749874734233436,-0.5749874734233436,-0.36250626328832825
5.471365491651206,0.5866649513156283,-0.5866649513156283,-0.35666752434218585
5.479364564007421,0.5983424292079131,-0.5983424292079131,-0.35082878539604345
5.487363636363636,0.6100199071001979,-0.6100199071001979,-0.34499004644990106
5.495362708719852,0.6216973849924841,-0.6216973849924841,-0.339151307503758
5.503361781076067,0.6333748628847689,-0.6333748628847689,-0.3333125685576156
5.511360853432282,0.6450523407770536,-0.6450523407770536,-0.3274738296114732
5.519359925788497,0.6567298186693384,-0.6567298186693384,-0.3216350906653308
5.527358998144712,0.6684072965616232,-0.6684072965616232,-0.3157963517191884
5.535358070500927,0.680084774453908,-0.680084774453908,-0.309957612773046
5.543357142857142,0.6917622523461928,-0.6917622523461928,-0.3041188738269036
5.5513562152133575,0.5643784786642422,-0.8,-0.2
5.559355287569573,0.3193574282859959,-0.3935475239046681,-0.3
5.567354359925789,0.36550592264878085,-0.3781646924504064,-0.3
5.575353432282004,0.4116544170115607,-0.36278186099614645,-0.3
5.583352504638219,0.4578029113743405,-0.3473990295418865,-0.3
5.591351576994434,0.5039514057371204,-0.33201619808762656,-0.3
5.599350649350649,0.5500999000999002,-0.3166333666333666,-0.3
5.607349721706864,0.59624839446268,-0.30125053517910666,-0.3
5.615348794063079,2.0013487940630794,-0.5013487940630794,0.40134879406307944
5.623347866419294,2.0093478664192945,-0.5093478664192945,0.4093478664192945
5.6313469387755095,2.0173469387755096,-0.5173469387755095,0.41734693877550955
5.6393460111317255,2.0253460111317256,-0.5253460111317255,0.4253460111317255
5.647345083487941,2.0333450834879407,-0.5333450834879405,0.4333450834879406
5.655344155844156,2.041344155844156,-0.5413441558441556,0.44134415584415565
5.663343228200371,2.049343228200371,-0.5493432282003707,0.4493432282003707
5.671342300556586,2.0573423005565856,-0.5573423005565857,0.45734230055658576
5.679341372912801,2.0653413729128007,-0.5653413729128008,0.46534137291280087
5.687340445269016,2.073340445269016,-0.5733404452690158,0.4733404452690159
5.695339517625231,2.081339517625231,-0.581339517625231,0.481339517625231
5.703338589981447,2.089338589981447,-0.589338589981447,0.4893385899814469
5.711337662337662,2.097337662337662,-0.597337662337662,0.49733766233766197
5.7193367346938775,0.6321428571428176,-0.8336734693877664,-0.20051020408164963
5.727335807050093,0.15547309833023742,-0.9698648290485037,-0.43972965809700715
5.735334879406308,-0.111162646876934,-1.0460464705362669,-0.5920929410725337
5.743333951762523,-0.31741755046659065,-1.1,-0.7069670201866363
5.751333024118738,-0.3771121202890913,-1.1,-0.7308448481156365
5.759332096474953,-0.436806690111592,-1.1,-0.7547226760446368
5.767331168831168,-0.49650125993409266,-1.1,-0.778600503973637
5.775330241187384,-0.5561958297565999,-1.1,-0.80247833190264
5.783329313543599,-0.6158903995791005,-1.1,-0.8263561598316402
5.791328385899814,-0.6755849694016012,-1.1,-0.8502339877606405
5.7993274582560295,-0.7352795392241018,-1.1,-0.8741118156896408
5.807326530612245,-0.7949741090466025,-1.1,-0.8979896436186411
5.81532560296846,-0.7348794063081053,-1.0674397031540528,-0.7674397031540526
5.823324675324675,-0.16489225060653737,-0.6882974168688457,-0.4882974168688458
5.83132374768089,-0.11215111419193237,-0.6707170380639774,-0.47071703806397747
5.839322820037106,-0.05940997777732149,-0.6531366592591071,-0.4531366592591072
5.847321892393321,-0.006668841362716477,-0.6355562804542388,-0.43555628045423883
5.855320964749536,0.046072295051888534,-0.6179759016493704,-0.4179759016493705
5.863320037105751,0.09881343146649352,-0.6003955228445021,-0.4003955228445022
5.871319109461966,0.15155456788109856,-0.5828151440396339,-0.38281514403963385
5.879318181818181,0.20429570429570354,-0.5652347652347655,-0.3652347652347655
5.8873172541743966,0.2570368407103086,-0.5476543864298972,-0.3476543864298972
5.895316326530612,0.30977797712491356,-0.5300740076250288,-0.3300740076250288
5.903315398886827,0.36251911353951854,-0.5124936288201605,-0.3124936288201605
5.911314471243043,0.7314471243043075,-0.3371057513913851,-0.33144712430430745
5.919313543599258,1.0953087728597939,-0.30781871190034366,-0.5953087728597938
5.927312615955473,1.0667406573018827,-0.3554322378301957,-0.5667406573018826
5.935311688311688,1.0381725417439713,-0.40304576376004775,-0.5381725417439713
5.943310760667903,1.0096044261860602,-0.45065928968989977,-0.50960442618606
5.951309833024118,0.981036310628149,-0.4982728156197518,-0.4810363106281489
5.959308905380333,0.9524681950702377,-0.5458863415496038,-0.4524681950702376
5.9673079777365485,0.9239000795123264,-0.5934998674794559,-0.42390007951232644
5.9753070500927645,0.8953319639544121,-0.6411133934093132,-0.395331963954412
5.98330612244898,0.8667638483965009,-0.6887269193391653,-0.3667638483965008
5.991305194805195,0.8381957328385896,-0.7363404452690173,-0.33819573283858956
5.99930426716141,0.8096276172806784,-0.7839539711988694,-0.30962761728067834
6.007303339517625,0.724165120593703,-2.0393320964749626,0.8696660482374812
6.01530241187384,0.26465937267005735,-1.6528791635600764,0.6823296863350287
6.023301484230055,0.21980476132679477,-1.593073015102393,0.6599023806633973
6.03130055658627,0.1749501499835322,-1.5332668666447096,0.637475074991766
6.039299628942485,0.13009553864026963,-1.473460718187026,0.6150477693201348
6.047298701298701,0.08524092729700208,-1.4136545697293361,0.5926204636485011
6.0552977736549165,0.04038631595373948,-1.3538484212716526,0.5701931579768698
6.063296846011132,-0.0044682953895230915,-1.2940422728139693,0.5477658523052384
6.071295918367347,-0.049322906732785665,-1.2342361243562858,0.5253385466336071
6.079294990723562,-0.09417751807604824,-1.1744299758986023,0.5029112409619758
6.087294063079777,-0.1390321294193108,-1.1146238274409188,0.4804839352903446
6.095293135435992,-0.1838867407625734,-1.0548176789832353,0.4580566296187133
6.103292207792207,-0.22874135210583596,-0.995011530525552,0.43562932394708204
6.111291280148423,-0.2735959634491035,-0.935205382067862,0.4132020182754482
6.119290352504638,-0.5677411873840515,-0.019352968460129003,0.0677411873840516
6.127289424860853,-0.3882779558104261,0.3765559116208522,-0.1351661325687217
6.1352884972170685,-0.3155591162084655,0.231118232416931,-0.3533226513746035
6.143287569573284,-1.2544453279147094,-0.6816679918720643,-0.39319433401066134
6.151286641929499,-1.3560208498983939,-0.8340312748475909,-0.38049739376270075
6.159285714285714,-1.4575963718820781,-0.9863945578231175,-0.3678004535147402
6.167284786641929,-1.5591718938657626,-1.138757840798644,-0.3551035132667797
6.175283858998144,-1.660747415849447,-1.2911211237741704,-0.34240657301881916
6.18328293135436,-1.7623229378331426,-1.4434844067497141,-0.3297096327708572
6.191282003710575,-1.8638984598168271,-1.5958476897252405,-0.3170126925228966
6.19928107606679,-1.9654739818005114,-1.7482109727007673,-0.30431575227493607
6.207280148423005,-3.2,-3.3789888682745874,-0.2070037105751375
6.2152792207792205,-3.196277056277059,-2.797828282828284,-0.39968975468975493
6.223278293135436,-3.0896227581941904,-2.7356132756132774,-0.3908018965161825
6.231277365491651,-2.982968460111322,-2.673398268398271,-0.3819140383426102
6.239276437847866,-2.876314162028454,-2.611183261183265,-0.3730261801690378
6.247275510204082,-2.7696598639455736,-2.548968253968251,-0.3641383219954645
6.255274582560297,-2.663005565862705,-2.4867532467532447,-0.3552504638218921
6.263273654916512,-2.5563512677798372,-2.424538239538238,-0.3463626056483198
6.271272727272727,-2.449696969696969,-2.3623232323232317,-0.33747474747474737
6.279271799628942,-2.3430426716141004,-2.300108225108225,-0.3285868893011751
6.287270871985157,-2.2363883735312324,-2.2378932178932187,-0.3196990311276027
6.295269944341372,-2.129734075448364,-2.175678210678212,-0.3108111729540303
6.3032690166975875,-2.0230797773654956,-2.1134632034632057,-0.301923314780458
6.311268089053803,2.9097866419295504,0.08453927025353315,0.27886518243661673
6.319267161410019,2.136158914976644,0.39624464205744964,0.19624464205744963
6.327266233766234,1.9798552022689917,0.3870503060158231,0.18705030601582304
6.335265306122449,1.8235514895613398,0.37785596997419646,0.17785596997419645
6.343264378478664,1.6672477768536877,0.3686616339325699,0.16866163393256986
6.351263450834879,1.5109440641460357,0.3594672978909433,0.15946729789094327
6.359262523191094,1.3546403514383836,0.35027296184931667,0.15027296184931668
6.367261595547309,1.1983366387307317,0.3410786258076901,0.1410786258076901
6.375260667903524,1.0420329260230796,0.3318842897660635,0.1318842897660635
6.38325974025974,0.8857292133154102,0.3226899537244359,0.1226899537244359
6.3912588126159555,0.7294255006077581,0.3134956176828093,0.1134956176828093
6.399257884972171,0.573121787900106,0.3043012816411827,0.10430128164118271
6.407256957328386,-0.5216697588125181,0.044582560296870466,0.01486085343229017
6.415256029684601,-0.7981507953404914,0.20739681863803475,-0.6055476139785261
6.423255102040816,-0.7915941786550691,0.23362328537972366,-0.6252174640347927
6.431254174397031,-0.7850375619696469,0.25984975212141254,-0.6448873140910594
6.439253246753246,-0.7784809452842246,0.2860762188631015,-0.664557164147326
6.447252319109461,-0.7719243285988024,0.31230268560479035,-0.6842270142035928
6.455251391465677,-0.7653677119133795,0.3385291523464822,-0.7038968642598616
6.463250463821892,-0.7588110952279572,0.3647556190881711,-0.7235667143161283
6.4712495361781075,-0.752254478542535,0.39098208582986,-0.743236564372395
6.479248608534323,-0.7456978618571127,0.4172085525715489,-0.7629064144286617
6.487247680890538,-0.7391412451716906,0.4434350193132378,-0.7825762644849283
6.495246753246753,-0.7325846284862683,0.4696614860549267,-0.802246114541195
6.503245825602968,-0.7260280118008461,0.49588795279661557,-0.8219159645974617
6.511244897959183,-0.7194713951154239,0.5221144195383045,-0.8415858146537284
6.519243970315399,-0.7129147784300008,0.5483408862799963,-0.8612556647099973
6.527243042671614,-0.7063581617445787,0.5745673530216853,-0.880925514766264
6.535242115027829,-0.7,0.6193692022263296,-0.9
6.543241187384044,-0.6729901051329629,1.0,-0.9
6.5512402597402595,-0.6063311688311679,1.0,-0.9
6.559239332096475,-0.9565332626557108,0.8,-0.8891333156639277
6.56723840445269,-1.0293448829163108,0.8195632552775406,-0.9097816276387704
6.575237476808905,-1.0617735546306961,0.8411823697537975,-0.9205911848768987
6.58323654916512,-1.0942022263450815,0.8628014842300543,-0.9314007421150271
6.591235621521336,-1.1266308980594704,0.8844205987063135,-0.9422102993531567
6.599234693877551,-1.1590595697738555,0.9060397131825704,-0.9530198565912852
6.607233766233766,-1.1914882414882408,0.9276588276588271,-0.9638294138294136
6.615232838589981,-1.223916913202626,0.949277942135084,-0.974638971067542
6.623231910946196,-1.2563455849170113,0.9708970566113408,-0.9854485283056704
6.6312309833024115,-1.2887742566313967,0.9925161710875977,-0.9962580855437988
6.639230055658627,0.6265306122444938,1.8,-0.47699443413736475
6.647229128014842,1.7245825602968323,1.7712501783930388,-0.2904167261310129
6.655228200371058,1.8845640074211514,1.7343313829028113,-0.2781104609676037
6.663227272727273,2.0445454545454527,1.6974125874125878,-0.26580419580419595
6.671226345083488,2.2045269016697535,1.6604937919223646,-0.2534979306407882
6.679225417439703,2.364508348794055,1.623574996432141,-0.24119166547738038
6.687224489795918,2.524489795918356,1.5866562009419178,-0.2288854003139726
6.695223562152133,2.6844712430426574,1.5497374054516944,-0.21657913515056482
6.703222634508348,2.8444526901669587,1.512818609961471,-0.20427286998715705
6.711221706864563,2.8113172541747375,0.4778293135436844,0.1
6.7192207792207785,2.0370932438348244,0.28602072085218316,0.09301036042609158
6.7272198515769945,1.956203748097808,0.26804527735506845,0.08402263867753423
6.73521892393321,1.875314252360801,0.2500698338579558,0.07503491692897789
6.743217996289425,1.7944247566237939,0.23209439036084306,0.06604719518042154
6.75121706864564,1.7135352608867866,0.21411894686373037,0.05705947343186518
6.759216141001855,1.6326457651497794,0.19614350336661768,0.048071751683308836
6.76721521335807,1.5517562694127722,0.17816805986950496,0.03908402993475248
6.775214285714285,1.4708667736757652,0.16019261637239227,0.03009630818619613
6.7832133580705,1.389977277938758,0.14221717287527957,0.021108586437639784
6.791212430426715,1.3090877822017508,0.12424172937816688,0.012120864689083424
6.799211502782931,1.2281982864647347,0.10626628588105219,0.003133142940526079
6.8072105751391465,0.2447278911564359,-0.07368583797155712,-0.17368583797155712
6.815209647495362,-1.6979912295496709,-0.6,-0.7
6.823208719851577,-1.6907193455894753,-0.6,-0.7
6.831207792207792,-1.6834474616292798,-0.6,-0.7
6.839206864564007,-1.6761755776690843,-0.6,-0.7
6.847205936920222,-1.6689036937088888,-0.6,-0.7
6.855205009276437,-1.6616318097486933,-0.6,-0.7
6.863204081632653,-1.654359925788497,-0.6,-0.7
6.871203153988868,-1.6470880418283016,-0.6,-0.7
6.879202226345083,-1.6398161578681059,-0.6,-0.7
6.8872012987012985,-1.6325442739079103,-0.6,-0.7
6.895200371057514,-1.6252723899477148,-0.6,-0.7
6.903199443413729,-1.6180005059875193,-0.6,-0.7
6.911198515769944,-1.6107286220273238,-0.6,-0.7
6.919197588126159,-1.6034567380671283,-0.6,-0.7
6.927196660482374,-1.4950834879406465,-0.6,-0.7349721706864512
6.93519573283859,-1.2608534322819285,-0.5804267161409642,-0.8
6.943194805194805,-0.7129070929070926,-0.719360639360639,-0.5870929070929073
6.95119387755102,-0.7375196232339085,-0.7562794348508628,-0.5624803767660914
6.959192949907235,-0.7621321535607245,-0.7931982303410867,-0.5378678464392755
6.9671920222634505,-0.7867446838875404,-0.8301170258313105,-0.5132553161124596
6.975191094619666,-0.8113572142143562,-0.8670358213215345,-0.4886427857856437
6.983190166975881,-0.8359697445411722,-0.9039546168117583,-0.4640302554588278
6.991189239332096,-0.8605822748679881,-0.9408734123019822,-0.43941772513201194
6.999188311688312,-0.8851948051948068,-0.9777922077922101,-0.4148051948051933
7.007187384044527,-1.7155844155843816,-1.2593692022263403,-0.45936920222634026
7.015186456400742,-3.073173140223826,-1.3066521036567116,-0.7133042073134229
7.023185528756957,-3.167785824007016,-1.3152532567279105,-0.730506513455821
7.031184601113172,-3.262398507790205,-1.3238544097991096,-0.7477088195982191
7.039183673469387,-3.3570111915733944,-1.3324555628703085,-0.7649111257406171
7.0471827458256024,-3.451623875356584,-1.3410567159415077,-0.7821134318830153
7.0551818181818176,-3.5462365591397735,-1.3496578690127066,-0.7993157380254133
7.063180890538033,-3.640849242922963,-1.3582590220839057,-0.8165180441678115
7.071179962894249,-3.735461926706163,-1.3668601751551057,-0.8337203503102115
7.079179035250464,-3.830074610489352,-1.3754613282263046,-0.8509226564526096
7.087178107606679,-3.924687294272542,-1.3840624812975038,-0.8681249625950076
7.095177179962894,-4.019299978055731,-1.3926636343687029,-0.8853272687374057
7.103176252319109,-4.708812615955464,-1.4,-0.791187384044536
7.111175324675324,-3.19088110165697,-0.79696036721899,-0.3989867890729967
7.119174397031539,-3.1288193333759904,-0.7762731111253302,-0.3920910370417767
7.127173469387754,-3.066757565095011,-0.7555858550316703,-0.3851952850105568
7.13517254174397,-3.0046957968140244,-0.7348985989380082,-0.37829953297933605
7.1431716141001855,-2.9426340285330452,-0.7142113428443484,-0.3714037809481161
7.151170686456401,-2.8805722602520656,-0.6935240867506886,-0.36450802891689615
7.159169758812616,-2.818510491971086,-0.6728368306570287,-0.35761227688567626
7.167168831168831,-2.7564487236901067,-0.6521495745633689,-0.3507165248544563
7.175167903525046,-2.694386955409127,-0.631462318469709,-0.34382077282323636
7.183166975881261,-2.6323251871281474,-0.6107750623760493,-0.3369250207920164
7.191166048237476,-2.5702634188471682,-0.5900878062823894,-0.33002926876079647
7.199165120593691,-2.5082016505661886,-0.5694005501887296,-0.3231335167295765
7.207164192949907,-2.4461398822852023,-0.5487132940950674,-0.3162377646983558
7.215163265306122,-2.3840781140042226,-0.5280260380014077,-0.30934201266713585
7.2231623376623375,-2.3220163457232434,-0.5073387819077477,-0.30244626063591595
7.231161410018553,-1.4778061224489978,-0.4979823747680907,0.006052875695727871
7.239160482374768,-0.31173469387767544,-0.3919758812616069,0.3320964749535726
7.247159554730983,1.7967416512059282,0.2483708256029641,1.024185412801482
7.255158627087198,1.9467242578849613,0.3233621289424807,1.0616810644712404
7.263157699443413,2.0967068645639944,0.39835343228199727,1.0991767161409987
7.271156771799629,2.246689471243044,0.4733447356215222,1.136672367810761
7.279155844155844,2.3966720779220774,0.5483360389610388,1.1741680194805193
7.287154916512059,2.5466546846011107,0.6233273423005554,1.2116636711502777
7.295153988868274,2.6966372912801435,0.698318645640072,1.249159322820036
7.3031530612244895,2.846619897959177,0.7733099489795885,1.2866549744897942
7.311152133580705,3.5440166975880913,1.1005411255411093,1.3858688930117455
7.31915120593692,5.263404452689776,1.9604823747678803,1.4424397031540148
7.327150278293135,8.424232909947193,3.083844726701872,1.7
7.33514935064935,8.485764235764231,3.042823842823846,1.7
7.343148423005566,8.547295561581278,3.0018029589458153,1.7
7.351147495361781,8.608826887398315,2.9607820750677893,1.7
7.359146567717996,8.670358213215355,2.9197611911897634,1.7
7.367145640074211,8.731889539032395,2.8787403073117375,1.7
7.375144712430426,8.793420864849434,2.837719423433711,1.7
7.3831437847866415,8.854952190666472,2.796698539555685,1.7
7.391142857142857,8.916483516483511,2.755677655677659,1.7
7.399141929499072,8.978014842300551,2.7146567717996333,1.7
7.407141001855288,7.043166357452057,1.5572665429808223,1.0929499072356168
7.415140074211503,5.26341753484611,0.9926835069692221,0.6945126302269166
7.423139146567718,5.12668125525269,0.965336251050538,0.6740021882879035
7.431138218923933,4.989944975659269,0.9379889951318539,0.6534917463488904
7.439137291280148,4.853208696065848,0.9106417392131697,0.6329813044098772
7.447136363636363,4.716472416472428,0.8832944832944856,0.6124708624708641
7.455135435992578,4.579736136879007,0.8559472273758014,0.591960420531851
7.463134508348793,4.442999857285587,0.8285999714571173,0.571449978592838
7.4711335807050085,4.306263577692166,0.8012527155384331,0.5509395366538249
7.4791326530612245,4.16952729809873,0.773905459619746,0.5304290947148095
7.48713172541744,4.032791018505309,0.7465582037010619,0.5099186527757964
7.495130797773655,3.8960547389118885,0.7192109477823777,0.4894082108367833
7.50312987012987,3.759318459318468,0.6918636918636936,0.4688977688977702
7.511128942486085,3.6225821797250473,0.6645164359450095,0.4483873269587571
7.5191280148423,3.4858459001316264,0.6371691800263253,0.42787688501974397
7.527127087198515,3.349109620538206,0.6098219241076412,0.4073664430807309
7.53512615955473,0.7729128014855766,0.12430426716185888,0.04953617810790593
7.543125231910946,-2.1885312590423993,-1.1,-0.5942656295211994
7.551124304267161,-2.1591768650746372,-1.1,-0.5795884325373185
7.5591233766233765,-2.1298224711068756,-1.1,-0.5649112355534376
7.567122448979592,-2.1004680771391135,-1.1,-0.5502340385695567
7.575121521335807,-2.0711136831713515,-1.1,-0.5355568415856757
7.583120593692022,-2.04175928920359,-1.1,-0.5208796446017948
7.591119666048237,-2.0124048952358278,-1.1,-0.5062024476179139
7.599118738404452,-1.9830505012680661,-1.1,-0.49152525063403296
7.607117810760667,-1.953696107300304,-1.1,-0.47684805365015204
7.615116883116883,-1.924341713332539,-1.1,-0.46217085666626945
7.623115955473098,-1.894987319364777,-1.1,-0.4474936596823885
7.631115027829313,-1.8656329253970152,-1.1,-0.4328164626985076
7.6391141001855285,-1.8362785314292533,-1.1,-0.4181392657146267
7.647113172541744,-1.8069241374614915,-1.1,-0.40346206873074575
7.655112244897959,-0.24387755102053732,-0.8887755102041075,-0.2
7.663111317254174,1.7,0.07475122280316315,-0.33737561140158157
7.671110389610389,1.7,0.2,-0.4
7.679109461966604,1.7,0.2,-0.4
7.68710853432282,1.7,0.2,-0.4
7.695107606679035,1.7,0.2,-0.4
7.70310667903525,1.7,0.2,-0.4
7.711105751391465,1.7,0.2,-0.4
7.7191048237476805,1.7,0.2,-0.4
7.727103896103896,1.3688311688312813,0.08961038961042711,-0.5103896103895729
7.735102968460111,-0.1411873840443323,-0.3102968460110831,-0.8551484230055416
7.743102040816326,-0.8938529628718971,-0.3061470371281029,-0.6692648143594854
7.751101113172542,-0.8842155262981428,-0.3157844737018572,-0.6210776314907139
7.759100185528757,-0.8745780897243896,-0.3254219102756104,-0.5728904486219478
7.767099257884972,-0.8649406531506364,-0.33505934684936367,-0.5247032657531817
7.775098330241187,-0.8553032165768831,-0.3446967834231169,-0.4765160828844156
7.783097402597402,-0.84566578000313,-0.3543342199968701,-0.4283289000156495
7.791096474953617,-0.8360283434293767,-0.36397165657062336,-0.3801417171468834
7.7990955473098325,-0.8263909068556234,-0.37360909314437657,-0.3319545342781173
7.807094619666048,-0.8167534702818703,-0.3832465297181298,-0.2837673514093511
7.815093692022263,-0.807116033708117,-0.39288396629188305,-0.235580168540585
7.823092764378479,-0.8111317254173929,-0.4981447124304345,0.1
7.831091836734694,-2.005363683935113,-0.0946363160648871,0.0
7.839090909090909,-2.0258741258741257,-0.07412587412587407,0.0
7.847089981447124,-2.046384567813139,-0.05361543218686105,0.0
7.855089053803339,-2.066895009752152,-0.033104990247848035,0.0
7.863088126159554,-2.087405451691165,-0.01259454830883501,0.0
7.871087198515769,-2.107915893630178,0.007915893630178014,0.0
7.879086270871984,-2.1284263355691913,0.028426335569191052,0.0
7.8870853432282,-2.1489367775082067,0.04893677750820635,0.0
7.8950844155844155,-2.1694472194472194,0.06944721944721938,0.0
7.903083487940631,-2.1899576613862326,0.0899576613862324,0.0
7.911082560296846,-0.47523191094615785,0.195871985157693,0.6
7.919081632653061,-0.31621911922663437,-0.003243823845326876,0.5
7.927080705009276,-0.35831950004881963,-0.011663900009763934,0.5
7.935079777365491,-0.40041988087100494,-0.02008397617420099,0.5
7.943078849721706,-0.44252026169319025,-0.02850405233863805,0.5
7.951077922077921,-0.4846206425153755,-0.0369241285030751,0.5
7.959076994434137,-0.5267210233375654,-0.0453442046675131,0.5
7.967076066790352,-0.5688214041597508,-0.05376428083195016,0.5
7.9750751391465675,-0.6109217849819361,-0.06218435699638721,0.5
7.983074211502783,-0.6530221658041213,-0.07060443316082426,0.5
7.991073283858998,-0.6951225466263067,-0.07902450932526132,0.5
7.999072356215213,-0.7372229274484918,-0.08744458548969838,0.5
8.007071428571429,-0.7793233082706819,-0.09586466165413637,0.5
8.015070500927644,-1.8977736549165247,-0.20037105751391254,0.19925788497217498
8.023069573283859,-1.6451713699834178,-0.24247143833609702,0.11505712332780596
8.031068645640074,-1.3925690850503107,-0.2845718191582815,0.030856361683436945
8.03906771799629,-1.214348428231742,-0.30713763098068814,-0.014275261961376334
8.047066790352504,-1.0791528391126128,-0.3184039300739489,-0.03680786014789785
8.05506586270872,-0.9439572499934838,-0.32967022916720967,-0.05934045833441937
8.063064935064935,-0.8087616608743547,-0.34093652826047044,-0.0818730565209409
8.07106400742115,-0.6735660717552256,-0.3522028273537312,-0.10440565470746242
8.079063079777365,-0.5383704826360965,-0.363469126446992,-0.12693825289398394
8.08706215213358,-0.40317489351696745,-0.37473542554025274,-0.14947085108050545
8.095061224489795,-0.26797930439783824,-0.3860017246335135,-0.172003449267027
8.10306029684601,-0.13278371527870925,-0.3972680237267743,-0.1945360474535485
8.111059369202225,0.7331632653060058,-0.4,-0.2757421150278187
8.11905844155844,1.9951336020301607,-0.8012165994924598,0.29878340050754015
8.127057513914657,1.9583562578636462,-0.8104109355340885,0.28958906446591154
8.135056586270872,1.92157891369714,-0.819605271575715,0.280394728424285
8.143055658627087,1.8848015695306335,-0.8287996076173416,0.27120039238265836
8.151054730983303,1.8480242253641272,-0.8379939436589683,0.2620060563410318
8.159053803339518,1.8112468811976208,-0.8471882797005948,0.2528117202994052
8.167052875695733,1.7744695370311145,-0.8563826157422214,0.24361738425777862
8.175051948051948,1.737692192864608,-0.865576951783848,0.234423048216152
8.183051020408163,1.7009148486981018,-0.8747712878254745,0.22522871217452545
8.191050092764378,1.6641375045315954,-0.8839656238671012,0.21603437613289886
8.199049165120593,1.6273601603650891,-0.8931599599087278,0.20684004009127227
8.207048237476808,1.3542115027830464,-0.9409647495361589,0.0361410018553642
8.215047309833023,-1.6998349656987548,-0.30005501143374835,-1.0997799542650066
8.223046382189239,-1.6719312249212603,-0.30935625835957986,-1.0625749665616806
8.231045454545454,-1.6440274841437659,-0.3186575052854113,-1.0253699788583548
8.239044526901669,-1.6161237433662714,-0.3279587522112428,-0.9881649911550288
8.247043599257884,-1.588220002588777,-0.33725999913707433,-0.9509600034517027
8.255042671614099,-1.5603162618112825,-0.34656124606290584,-0.9137550157483768
8.263041743970316,-1.5324125210337818,-0.3558624929887394,-0.8765500280450426
8.271040816326531,-1.5045087802562873,-0.36516373991457085,-0.8393450403417166
8.279039888682746,-1.4766050394787928,-0.37446498684040236,-0.8021400526383906
8.287038961038961,-1.4487012987012984,-0.38376623376623387,-0.7649350649350646
8.295038033395176,-1.420797557923804,-0.3930674806920653,-0.7277300772317388
8.303037105751391,-0.14434137291407198,-0.6074211502781237,-0.5888682745828143
8.311036178107607,1.6908987837558886,-0.8781797567511778,-0.14364048649764455
8.319035250463822,1.2631567039232565,-0.8040936995640826,0.20409369956408263
8.327034322820037,1.204626906194853,-0.8105970104227942,0.21059701042279413
8.335033395176252,1.1460971084664495,-0.8171003212815057,0.21710032128150564
8.343032467532467,1.087567310738046,-0.8236036321402171,0.22360363214021714
8.351031539888682,1.0290375130096423,-0.8301069429989286,0.23010694299892864
8.359030612244897,0.9705077152812387,-0.8366102538576402,0.23661025385764015
8.367029684601112,0.9119779175528352,-0.8431135647163517,0.24311356471635165
8.375028756957327,0.8534481198244317,-0.8496168755750632,0.24961687557506315
8.383027829313543,0.7949183220960281,-0.8561201864337746,0.25612018643377465
8.391026901669758,0.7363885243676245,-0.8626234972924862,0.26262349729248613
8.399025974025975,0.677858726639208,-0.8691268081511991,0.2691268081511991
8.40702504638219,0.6193289289108044,-0.8756301190099106,0.27563011900991063
8.415024118738405,0.5607991311824009,-0.8821334298686221,0.2821334298686221
8.42302319109462,0.5022693334539973,-0.8886367407273337,0.28863674072733364
8.431022263450835,0.44373953572559377,-0.8951400515860451,0.2951400515860451
8.43902133580705,0.09679962894250203,-1.0978664192950014,0.3978664192950014
8.447020408163265,-0.2,-0.6591836734694175,0.019387755102063114
8.45501948051948,-0.14640692640693226,-0.3660173160173307,-0.1803896103896016
8.463018552875695,-0.039752628324055544,-0.09938157081013893,-0.3403710575139167
8.47101762523191,0.020070500927644445,0.020070500927644445,-0.39330983302411854
8.479016697588126,0.05206679035250442,0.05206679035250442,-0.3826444032158319
8.48701576994434,0.08406307977736441,0.08406307977736441,-0.3719789734075452
8.495014842300556,0.11605936920222439,0.11605936920222439,-0.36131354359925855
8.503013914656771,0.14805565862708436,0.14805565862708436,-0.3506481137909719
8.511012987012986,0.18005194805194435,0.18005194805194435,-0.3399826839826852
8.519012059369201,0.21204823747680432,0.21204823747680432,-0.32931725417439855
8.527011131725416,0.2440445269016643,0.2440445269016643,-0.3186518243661119
8.535010204081633,0.2760408163265314,0.2760408163265314,-0.30798639455782284
8.543009276437848,1.6037105751392362,0.24953617810759549,0.6523191094620227
8.551008348794063,0.17933209647491583,0.18016697588127106,1.0
8.559007421150278,0.11868645640074336,0.19065677179962834,0.9906567717996283
8.567006493506494,0.14001731601731668,0.17999134199134167,0.9799913419913416
8.575005565862709,0.16134817563389,0.169325912183055,0.969325912183055
8.583004638218924,0.1826790352504633,0.15866048237476835,0.9586604823747683
8.591003710575139,0.20400989486703663,0.14799505256648168,0.9479950525664816
8.599002782931354,0.22534075448360996,0.13732962275819505,0.9373296227581951
8.60700185528757,0.2466716141001833,0.12666419294990838,0.9266641929499084
8.615000927643784,0.2680024737167566,0.1159987631416217,0.9159987631416218
8.623,0.2893333333333299,0.10533333333333506,0.9053333333333351
8.630999072356214,-0.2997217068642639,0.04995361781071066,0.050139146567868026
8.63899814471243,-0.2117919895230837,0.08235839790461674,-0.08235839790461674
8.646997217068645,-0.09415857251992274,0.058831714503984556,-0.058831714503984556
8.65499628942486,0.023474844483238222,0.03530503110335237,-0.03530503110335237
8.662995361781075,0.1411082614863992,0.011778347702720168,-0.011778347702720168
8.670994434137292,0.25874167848958624,-0.01174833569791725,0.01174833569791725
8.678993506493507,0.3763750954927472,-0.03527501909854944,0.03527501909854944
8.686992578849722,0.4940085124959082,-0.058801702499181624,0.058801702499181624
8.694991651205937,0.6116419294990691,-0.08232838589981381,0.08232838589981381
8.702990723562152,0.8658936301793009,-0.16635745207172037,0.16635745207172037
8.710989795918367,1.754591836734849,-0.005102040816498732,0.5
8.718988868274582,1.2653444548367803,0.4826722274183901,0.4884481516122601
8.726987940630798,1.2256796332357138,0.4628398166178569,0.4752265444119046
8.734987012987013,1.1860148116346472,0.4430074058173236,0.46200493721154906
8.742986085343228,1.1463499900335807,0.42317499501679035,0.4487833300111936
8.750985157699443,1.1066851684325143,0.4033425842162571,0.43556172281083805
8.758984230055658,1.0670203468314476,0.38351017341572385,0.42234011561048257
8.766983302411873,1.0273555252303812,0.3636777626151906,0.4091185084101271
8.774982374768088,0.9876907036293148,0.34384535181465736,0.39589690120977156
8.782981447124303,0.9480258820282481,0.3240129410141241,0.382675294009416
8.790980519480518,0.9083610604271817,0.3041805302135908,0.36945368680906054
8.798979591836734,0.8686962388261151,0.2843481194130576,0.35623207960870507
8.80697866419295,0.8290314172250398,0.26451570861251994,0.3430104724083466
8.814977736549165,0.7893665956239733,0.24468329781198667,0.3297888652079911
8.82297680890538,0.7497017740229068,0.2248508870114534,0.31656725800763563
8.830975881261596,0.7100369524218403,0.20501847621092018,0.3033456508072801
8.83897495361781,0.5370467195142439,0.1456822398380813,0.1913644796761626
8.846974025974026,-0.20559785042543594,-0.20111957008508718,-0.4
8.854973098330241,-0.2515695306335689,-0.21031390612671377,-0.4
8.862972170686456,-0.2975412108417018,-0.21950824216834036,-0.4
8.870971243042671,-0.34351289104983473,-0.22870257820996695,-0.4
8.878970315398886,-0.3894845712579677,-0.23789691425159354,-0.4
8.886969387755101,-0.4354562514661007,-0.24709125029322013,-0.4
8.894968460111317,-0.4814279316742336,-0.2562855863348467,-0.4
8.902967532467532,-0.5273996118823665,-0.26547992237647333,-0.4
8.910966604823747,-0.5733712920904994,-0.2746742584180999,-0.4
8.918965677179962,-0.6193429722986324,-0.28386859445972645,-0.4
8.926964749536177,-0.6653146525067654,-0.29306293050135307,-0.4
8.934963821892392,-0.051808905380373214,-0.5518089053803732,-0.2
8.942962894248609,0.881447124304263,0.0037105751391473957,0.14814471243042632
8.950961966604824,1.4720203441878272,-0.1,0.21200339069797122
8.95896103896104,1.5547693685624666,-0.1,0.22579489476041112
8.966960111317254,1.637518392937106,-0.1,0.239586398822851
8.97495918367347,1.7202674173117452,-0.1,0.2533779028852909
8.982958256029685,1.8030164416863845,-0.1,0.2671694069477307
8.9909573283859,1.885765466061024,-0.1,0.2809609110101706
8.998956400742115,1.968514490435663,-0.1,0.2947524150726105
9.00695547309833,-1.1259121830549355,0.7651824366109871,0.034817563389012915
9.014954545454545,-0.4913223140495851,0.4956611570247925,-0.29826446280991703
9.02295361781076,-0.41860347444763035,0.4593017372238152,-0.28372069488952606
9.030952690166975,-0.3458846348456756,0.42294231742283783,-0.2691769269691351
9.03895176252319,-0.27316579524372087,0.38658289762186043,-0.2546331590487442
9.046950834879405,-0.20044695564176612,0.35022347782088303,-0.2400893911283532
9.05494990723562,-0.12772811603981143,0.3138640580199057,-0.2255456232079623
9.062948979591836,-0.05500927643785669,0.27750463821892835,-0.21100185528757132
9.07094805194805,0.017709563164097997,0.241145218417951,-0.19645808736718037
9.078947124304268,0.0904284027660689,0.20478579861696555,-0.1819143194467862
9.086946196660483,0.1631472423680237,0.16842637881598815,-0.16737055152639524
9.094945269016698,0.23586608196997838,0.1320669590150108,-0.1528267836060043
9.102944341372913,0.3085849215719332,0.09570753921403341,-0.13828301568561335
9.110943413729128,0.38130376117388787,0.059348119413056066,-0.12373924776522241
9.118942486085343,0.45402260077584256,0.022988699612078722,-0.10919547984483147
9.126941558441558,1.6470779220779375,-0.3470779220779374,0.2
9.134940630797773,1.9941210575139183,-0.6974804532202507,0.19832030214683383
9.142939703153989,1.944126855287574,-0.6760543665518174,0.18403624436787827
9.150938775510204,1.8941326530612295,-0.654628279883384,0.16975218658892274
9.158937847866419,1.8441384508348853,-0.6332021932149507,0.1554681288099672
9.166936920222634,1.7941442486085408,-0.6117761065465175,0.14118407103101166
9.174935992578849,1.7441500463821964,-0.5903500198780841,0.12690001325205613
9.182935064935064,1.694155844155852,-0.5689239332096508,0.11261595547310058
9.19093413729128,1.6441616419295078,-0.5474978465412175,0.09833189769414503
9.198933209647494,1.5941674397031633,-0.5260717598727842,0.0840478399151895
9.20693228200371,1.544173237476819,-0.5046456732043509,0.06976378213623396
9.214931354359926,1.4941790352504634,-0.4832195865359129,0.055479724357275245
9.222930426716141,1.444184833024119,-0.46179349986747953,0.04119566657831972
9.230929499072356,1.3941906307977745,-0.44036741319904626,0.02691160879936416
9.238928571428572,1.3441964285714303,-0.41894132653061295,0.012627551020408634
9.246927643784787,1.0217068645639649,-0.1680890538033041,0.0
9.254926716141002,0.4306277056276912,0.0230364873221975,-0.0769635126778025
9.262925788497217,0.11955266955267096,-0.06584209441352257,-0.16584209441352257
9.270924860853432,-0.5150278293137468,0.2887291280146899,-0.6037569573284367
9.278923933209647,-0.39914994096813683,0.2711856974194677,-0.5711856974194677
9.286923005565862,-0.2973435655253986,0.2420981615786853,-0.5420981615786853
9.294922077922077,-0.1955371900826603,0.21301062573790294,-0.5130106257379029
9.302921150278292,-0.09373081463992206,0.18392308989712058,-0.4839230898971206
9.310920222634508,0.00807556080281624,0.1548355540563382,-0.45483555405633824
9.318919294990723,0.10988193624555453,0.12574801821555584,-0.42574801821555586
9.326918367346938,0.6132653061220086,0.19183673469377965,-0.35408163265311016
9.334917439703153,0.005810423342887029,0.49806319221903766,-0.2038736155619247
9.342916512059368,0.030050036543538824,0.4899833211521537,-0.22003335769569257
9.350915584415583,0.05428964974419062,0.4819034500852698,-0.23619309982946043
9.3589146567718,0.0785292629448478,0.47382357901838407,-0.2523528419632319
9.366913729128015,0.1027688761454996,0.4657437079515001,-0.26851258409699974
9.37491280148423,0.1270084893461514,0.4576638368846162,-0.2846723262307676
9.382911873840445,0.15124810254680318,0.4495839658177323,-0.30083206836453547
9.39091094619666,0.17548771574745498,0.44150409475084834,-0.31699181049830333
9.398910018552876,0.19972732894810677,0.4334242236839644,-0.3331515526320712
9.40690909090909,0.22396694214875856,0.4253443526170805,-0.3493112947658391
9.414908163265306,0.24820655534941036,0.4172644815501966,-0.3654710368996069
9.42290723562152,0.27244616855006215,0.4091846104833126,-0.38163077903337483
9.430906307977736,0.296685781750714,0.40110473941642866,-0.39779052116714264
9.438905380333951,1.4045269016697524,0.803621521335802,0.10271614100185149
9.446904452690166,1.4445222634508281,0.8356178107606625,0.12671335807049688
9.454903525046381,1.4845176252319037,0.8676141001855231,0.15071057513914232
9.462902597402596,1.5245129870129794,0.8996103896103836,0.17470779220778773
9.470901669758812,1.5645083487940552,0.9316066790352442,0.19870500927643314
9.478900742115027,1.6045037105751307,0.9636029684601047,0.22270222634507858
9.486899814471242,1.6444990723562065,0.9955992578849653,0.246699443413724
9.494898886827459,1.684494434137291,1.0275955473098328,0.27069666048237473
9.502897959183674,1.7244897959183667,1.0595918367346935,0.29469387755102017
9.510897031539889,1.7644851576994425,1.091588126159554,0.31869109461966555
9.518896103896104,1.804480519480518,1.1235844155844146,0.34268831168831093
9.526895176252319,1.8444758812615938,1.155580705009275,0.36668552875695637
9.534894248608534,1.8844712430426696,1.1875769944341357,0.3906827458256018
9.54289332096475,1.8388334879406303,1.2611665120593698,0.3388334879406303
9.550892393320964,0.10217656907552124,-0.10108828453776061,0.09673514638671817
9.55889146567718,0.12168650165165588,-0.11084325082582795,0.06747024752251618
9.566890538033395,0.14119643422779055,-0.12059821711389528,0.03820534865831418
9.57488961038961,0.1607063668039252,-0.1303531834019626,0.008940449794112196
9.582888682745825,0.18021629938005984,-0.14010814969002994,-0.020324449070089803
9.59088775510204,0.19972623195619452,-0.14986311597809726,-0.04958934793429179
9.598886827458255,0.2192361645323292,-0.15961808226616458,-0.07885424679849379
9.60688589981447,0.23874609710846384,-0.16937304855423194,-0.10811914566269579
9.614884972170685,0.2582560296845985,-0.17912801484229926,-0.13738404452689776
9.6228840445269,0.27776596226073313,-0.18888298113036658,-0.16664894339109979
9.630883116883117,0.2972758948368721,-0.1986379474184361,-0.19591384225530825
9.638882189239332,-0.2646567717998895,0.5,0.09410946196664824
9.646881261595547,-0.36339754470453745,0.6073204910590925,-0.27071803576362996
9.654880333951763,-0.320849287490627,0.6158301425018746,-0.2366794299925016
9.662879406307978,-0.27830103027671665,0.6243397939446567,-0.20264082422137328
9.670878478664193,-0.23575277306280623,0.6328494453874387,-0.16860221845024495
9.678877551020408,-0.1932045158488958,0.6413590968302209,-0.1345636126791166
9.686876623376623,-0.15065625863498538,0.6498687482730029,-0.10052500690798827
9.694875695732838,-0.10810800142107496,0.6583783997157849,-0.06648640113685994
9.702874768089053,-0.06555974420716454,0.6668880511585671,-0.03244779536573161
9.710873840445268,-0.02301148699325417,0.6753977026013491,0.0015908104053967143
9.718872912801483,0.019536770220656252,0.6839073540441312,0.0356294161765251
9.726871985157699,0.062085027434566675,0.6924170054869133,0.06966802194765342
9.734871057513914,0.012894248608581946,0.7871057513914181,0.1
9.742870129870129,0.003261511216055234,0.10326151121605524,0.5
9.750869202226344,0.01235136616629976,0.11235136616629976,0.5
9.758868274582559,0.021441221116544288,0.12144122111654429,0.5
9.766867346938776,0.03053107606679083,0.13053107606679085,0.5
9.774866419294991,0.03962093101703536,0.13962093101703538,0.5
9.782865491651206,0.04871078596727988,0.14871078596727988,0.5
9.790864564007421,0.05780064091752441,0.1578006409175244,0.5
9.798863636363636,0.06689049586776893,0.16689049586776894,0.5
9.806862708719851,0.07598035081801346,0.17598035081801347,0.5
9.814861781076067,0.085070205768258,0.185070205768258,0.5
9.822860853432282,0.09416006071850251,0.1941600607185025,0.5
9.830859925788497,-0.18599257884964088,-0.04299628942482044,0.21400742115035912
9.838858998144712,0.0036405642874632344,-0.1,0.10364056428746324
9.846858070500927,0.011186858963137876,-0.1,0.11118685896313787
9.854857142857142,0.018733153638812516,-0.1,0.11873315363881252
9.862856215213357,0.026279448314487155,-0.1,0.12627944831448717
9.870855287569572,0.0338257429901618,-0.1,0.1338257429901618
9.878854359925787,0.04137203766583644,-0.1,0.14137203766583645
9.886853432282003,0.04891833234151108,-0.1,0.14891833234151108
9.894852504638218,0.05646462701718572,-0.1,0.15646462701718572
9.902851576994435,0.06401092169286204,-0.1,0.16401092169286205
9.91085064935065,0.07155721636853668,-0.1,0.17155721636853669
9.918849721706865,0.07910351104421132,-0.1,0.17910351104421132
9.92684879406308,0.08664980571988597,-0.1,0.18664980571988599
9.934847866419295,0.0941961003955606,-0.1,0.19419610039556062
9.94284693877551,-0.20782312925154559,-0.1,0.015306122449072646
9.950846011131725,-0.3700419880871078,-0.6,-0.1
9.95884508348794,-0.2858412264427388,-0.6,-0.1
9.966844155844155,-0.2016404647983698,-0.6,-0.1
9.97484322820037,-0.2,-0.5638004852290613,-0.11206650492364623
9.982842300556586,-0.2,-0.5268816897388375,-0.12437277008705418
9.9908413729128,-0.2,-0.4899628942486136,-0.13667903525046213
9.998840445269016,-0.2,-0.45304409875838975,-0.1489853004138701
10.006839517625231,-0.2,-0.4161253032681659,-0.16129156557727803
10.014838589981446,-0.2,-0.37920650777794207,-0.173597830740686
10.022837662337661,-0.2,-0.3422877122877182,-0.18590409590409396
10.030836734693876,-0.2,-0.30536891679749434,-0.1982103610675019
10.038835807050093,-2.3926522457134687,-0.6981630614283671,-0.8027554078574491
10.046834879406308,-2.322330730493995,-0.6805826826234987,-0.8291259760647519
10.054833951762523,-2.252009215274521,-0.6630023038186302,-0.8554965442720547
10.062833024118738,-2.181687700055047,-0.6454219250137617,-0.8818671124793575
10.070832096474954,-2.111366184835573,-0.6278415462088932,-0.9082376806866602
10.078831168831169,-2.041044669616099,-0.6102611674040247,-0.934608248893963
10.086830241187384,-1.9707231543966248,-0.5926807885991562,-0.9609788171012658
10.094829313543599,-1.9004016391771508,-0.5751004097942877,-0.9873493853085685
10.102828385899814,-1.8300801239576767,-0.5575200309894192,-1.0137199535158712
10.11082745825603,-1.759758608738203,-0.5399396521845508,-1.040090521723174
10.118826530612244,-1.6894370935187288,-0.5223592733796822,-1.0664610899304767
10.12682560296846,-1.619115578299255,-0.5047788945748137,-1.0928316581377795
10.134824675324674,1.447402597402226,-0.5362554112554319,-0.19004329004345522
10.14282374768089,-0.5394011304310091,-0.6164171376795872,-0.7164171376795871
10.150822820037105,-0.651016093540987,-0.6629233723087445,-0.7629233723087445
10.15882189239332,-0.7626310566509649,-0.709429606937902,-0.809429606937902
10.166820964749535,-0.8742460197609427,-0.7559358415670595,-0.8559358415670595
10.174820037105752,-0.9858609828709455,-0.8024420761962273,-0.9024420761962273
10.182819109461967,-1.0974759459809231,-0.8489483108253848,-0.9489483108253847
10.190818181818182,-1.209090909090901,-0.8954545454545422,-0.9954545454545422
10.198817254174397,-1.3207058722008789,-0.9419607800836997,-1.0419607800836996
10.206816326530612,-1.4323208353108567,-0.9884670147128571,-1.088467014712857
10.214815398886827,-1.5439357984208348,-1.0349732493420145,-1.1349732493420146
10.222814471243042,-1.6555507615308125,-1.081479483971172,-1.181479483971172
10.230813543599258,-1.8559369202226803,-2.190677179962887,-1.07203153988866
10.238812615955473,-0.35045370214201266,-1.5628402766065095,-0.3876134255355032
10.246811688311688,-0.2922786304604489,-1.5192089728453366,-0.37306965761511224
10.254810760667903,-0.23410355877888508,-1.475577669084164,-0.35852588969472127
10.262809833024118,-0.1759284870973213,-1.431946365322991,-0.34398212177433035
10.270808905380333,-0.11775341541575751,-1.3883150615618183,-0.3294383538539394
10.278807977736548,-0.059578343734193684,-1.3446837578006452,-0.31489458593354847
10.286807050092763,-0.0014032720526299114,-1.3010524540394726,-0.3003508180131575
10.294806122448978,0.05677179962893386,-1.2574211502782997,-0.2858070500927665
10.302805194805194,0.11494687131049763,-1.2137898465171268,-0.2712632821723756
10.31080426716141,0.1731219429920744,-1.1701585427559442,-0.2567195142519814
10.318803339517626,0.23129701467363817,-1.1265272389947714,-0.24217574633159047
10.32680241187384,0.28947208635520194,-1.0828959352335985,-0.22763197841119953
10.334801484230056,0.3476471580367657,-1.0392646314724256,-0.2130882104908086
10.34280055658627,0.35997217068647974,-1.0,-0.2
10.350799628942486,-0.4797773654916245,-1.039981447124302,-0.16001855287569797
10.358798701298701,-1.5708382526564304,-1.1618063754427383,-0.5326446280991688
10.366797773654916,-0.6140451066790309,-0.5943819573283876,0.09157293599258146
10.374796846011131,-0.6765378594619613,-0.5693848562152154,0.05407728432282317
10.382795918367346,-0.7390306122448919,-0.5443877551020433,0.01658163265306488
10.390794990723561,-0.8015233650278224,-0.5193906539888711,-0.020914019016693416
10.398794063079777,-0.8640161178107528,-0.49439355287569886,-0.058409670686451726
10.406793135435992,-0.9265088705936834,-0.46939645176252665,-0.09590532235621002
10.414792207792207,-0.9890016233766139,-0.4443993506493545,-0.13340097402596832
10.422791280148422,-1.0514943761595443,-0.4194022495361823,-0.17089662569572658
10.430790352504637,-1.4580705009275527,-0.3104823747681118,-0.647588126159441
10.438789424860852,-0.9970325267437742,-0.0029674732562257715,-0.7910975802313227
10.446788497217069,-0.9885228753009903,-0.011477124699009744,-0.7655686259029708
10.454787569573284,-0.9800132238582082,-0.01998677614179183,-0.7400396715746246
10.4627866419295,-0.9715035724154261,-0.02849642758457391,-0.7145107172462783
10.470785714285714,-0.962993920972644,-0.037006079027356,-0.688981762917932
10.47878478664193,-0.9544842695298619,-0.04551573047013808,-0.6634528085895858
10.486783858998145,-0.9459746180870798,-0.05402538191292017,-0.6379238542612395
10.49478293135436,-0.9374649666442978,-0.06253503335570225,-0.6123948999328933
10.502782003710575,-0.9289553152015156,-0.07104468479848433,-0.5868659456045471
10.51078107606679,-0.9204456637587336,-0.07955433624126641,-0.5613369912762007
10.518780148423005,-0.9119360123159516,-0.0880639876840485,-0.5358080369478545
10.52677922077922,-0.9034263608731694,-0.09657363912683059,-0.5102790826195083
10.534778293135435,-0.8443413729130061,-0.1,-0.1
10.54277736549165,-0.4167882910740029,-0.1,-0.10419707276850072
10.550776437847865,-0.45233972376829235,-0.1,-0.11308493094207309
10.55877551020408,-0.48789115646258174,-0.1,-0.12197278911564544
10.566774582560296,-0.5234425891568713,-0.1,-0.1308606472892178
10.57477365491651,-0.5589940218511606,-0.1,-0.13974850546279016
10.582772727272728,-0.5945454545454579,-0.1,-0.14863636363636448
10.590771799628943,-0.6300968872397474,-0.1,-0.15752422180993686
10.598770871985158,-0.6656483199340368,-0.1,-0.1664120799835092
10.606769944341373,-0.7011997526283262,-0.1,-0.17529993815708156
10.614769016697588,-0.7367511853226156,-0.1,-0.1841877963306539
10.622768089053803,-0.772302618016905,-0.1,-0.19307565450422626
10.630767161410018,-1.1534322820036336,-0.1,-0.2883580705009084
10.638766233766233,-0.7906544435956214,-0.20934555640437857,0.0
10.646765306122449,-0.7749699879951998,-0.22503001200480033,0.0
10.654764378478664,-0.759285532394778,-0.24071446760522205,0.0
10.662763450834879,-0.7436010767943563,-0.2563989232056438,0.0
10.670762523191094,-0.7279166211939345,-0.27208337880606553,0.0
10.678761595547309,-0.7122321655935128,-0.28776783440648723,0.0
10.686760667903524,-0.696547709993091,-0.303452290006909,0.0
10.69475974025974,-0.6808632543926693,-0.31913674560733074,0.0
10.702758812615954,-0.6651787987922475,-0.3348212012077525,0.0
10.71075788497217,-0.6494943431918259,-0.3505056568081742,0.0
10.718756957328386,-0.6338098875914007,-0.36619011240859944,0.0
10.726756029684601,-0.6181254319909788,-0.38187456800902114,0.0
10.734755102040817,-0.6024409763905572,-0.3975590236094429,0.0
10.742754174397032,-0.1442589156874977,-0.33606472892187444,0.0
10.750753246753247,0.14259740259739168,-0.3,0.14259740259739168
10.758752319109462,0.13486085343227056,-0.35504638218924317,0.3
10.766751391465677,-0.026959647495364256,-0.3910134508348786,0.28202690166975714
10.774750463821892,-0.06445529916512255,-0.3785149002782925,0.257029800556585
10.782749536178107,-0.10195095083488083,-0.3660163497217064,0.23203269944341276
10.790748608534322,-0.1394466025046391,-0.35351779916512027,0.2070355983302406
10.798747680890537,-0.1769422541743974,-0.3410192486085342,0.18203849721706838
10.806746753246752,-0.2144379058441557,-0.3285206980519481,0.1570413961038962
10.814745825602968,-0.251933557513914,-0.316022147495362,0.132044294990724
10.822744897959183,-0.28942920918367226,-0.3035235969387759,0.10704719387755182
10.830743970315398,-0.4348794063079508,-0.16512059369204923,0.03487940630795078
10.838743042671613,-0.2967693796886359,-0.1,0.2
10.846742115027828,-0.2619908042268313,-0.1,0.2
10.854741187384045,-0.22721222876501895,-0.1,0.2
10.86274025974026,-0.19243365330321432,-0.1,0.2
10.870739332096475,-0.1576550778414097,-0.1,0.2
10.87873840445269,-0.12287650237960507,-0.1,0.2
10.886737476808905,-0.08809792691780044,-0.1,0.2
10.89473654916512,-0.05331935145599581,-0.1,0.2
10.902735621521336,-0.018540775994191183,-0.1,0.2
10.91073469387755,0.016237799467613445,-0.1,0.2
10.918733766233766,0.051016374929418074,-0.1,0.2
10.926732838589981,0.0857949503912227,-0.1,0.2
10.934731910946196,0.02680890538043984,-0.11340445269021993,0.2
10.942730983302411,-0.01402288188002327,-0.2,0.08597711811997674
10.950730055658626,-0.0306876159554714,-0.2,0.06931238404452861
10.958729128014841,-0.04735235003091953,-0.2,0.05264764996908047
10.966728200371056,-0.06401708410636767,-0.2,0.03598291589363234
10.974727272727272,-0.08068181818181579,-0.2,0.01931818181818422
10.982726345083487,-0.09734655225726392,-0.2,0.002653447742736084
10.990725417439704,-0.11401128633271576,-0.2,-0.014011286332715756
10.998724489795919,-0.1306760204081639,-0.2,-0.03067602040816389
11.006723562152134,-0.14734075448361203,-0.2,-0.047340754483612024
11.014722634508349,-0.16400548855906014,-0.2,-0.06400548855906013
11.022721706864564,-0.18067022263450827,-0.2,-0.08067022263450827
11.030720779220779,-0.1973349567099564,-0.2,-0.0973349567099564
11.038719851576994,0.9034944251310386,-0.2,-0.09860222994758457
11.04671892393321,0.94232487346218,-0.2,-0.08307005061512801
11.054717996289424,0.9811553217933213,-0.2,-0.06753787128267146
11.06271706864564,1.0199857701244628,-0.2,-0.05200569195021489
11.070716141001855,1.058816218455604,-0.2,-0.03647351261775833
11.07871521335807,1.0976466667867455,-0.2,-0.020941333285301775
11.086714285714285,1.136477115117887,-0.2,-0.005409153952845219
11.0947133580705,1.1753075634490284,-0.2,0.01012302537961135
11.102712430426715,1.2141380117801697,-0.2,0.02565520471206789
11.11071150278293,1.2529684601113111,-0.2,0.04118738404452446
11.118710575139145,1.2917989084424524,-0.2,0.05671956337698103
11.126709647495362,1.3306293567736025,-0.2,0.07225174270944104
11.134708719851577,1.3694598051047437,-0.2,0.08778392204189758
11.142707792207792,1.570779220779181,-0.11461038961040952,0.27077922077918093
11.150706864564008,1.4073283858998082,-0.1,0.2357761286332694
11.158705936920223,1.1315483218080495,-0.1336903356383901,0.1663096643616099
11.166705009276438,0.7294990723562258,-0.23525046382188713,0.06474953617811288
11.174704081632653,0.6,-0.3,0.0
11.182703153988868,0.6,-0.3,0.0
11.190702226345083,0.6,-0.3,0.0
11.198701298701298,0.6,-0.3,0.0
11.206700371057513,0.6,-0.3,0.0
11.214699443413728,0.6,-0.3,0.0
11.222698515769943,0.6,-0.3,0.0
11.230697588126159,0.7358070500927298,-0.3,0.03395176252318246
11.238696660482374,0.49759772247457185,-0.10080075917514271,0.1991992408248573
11.246695732838589,0.4700147143496921,-0.10999509521676931,0.1900049047832307
11.254694805194804,0.4424317062248123,-0.1191894312583959,0.18081056874160412
11.262693877551019,0.4148486980999326,-0.1283837673000225,0.17161623269997753
11.270692949907236,0.3872656899750467,-0.1375781033416511,0.16242189665834889
11.278692022263451,0.35968268185016694,-0.14677243938327772,0.15322756061672232
11.286691094619666,0.33209967372528715,-0.15596677542490428,0.1440332245750957
11.294690166975881,0.30451666560040735,-0.1651611114665309,0.13483888853346915
11.302689239332096,0.2769336574755276,-0.17435544750815746,0.12564455249184253
11.310688311688311,0.24935064935064782,-0.18354978354978407,0.11645021645021596
11.318687384044527,0.2217676412257681,-0.19274411959141066,0.10725588040858935
11.326686456400742,0.11567717996290884,-0.2,0.1
11.334685528756957,0.0812218393850918,-0.11877816061490822,0.2
11.342684601113172,0.2,-0.1,0.3
11.350683673469387,0.2,-0.1,0.3
11.358682745825602,0.2,-0.1,0.3
11.366681818181817,0.2,-0.1,0.3
11.374680890538032,0.2,-0.1,0.3
11.382679962894247,0.2,-0.1,0.3
11.390679035250463,0.2,-0.1,0.3
11.398678107606678,0.2,-0.1,0.3
11.406677179962895,0.2,-0.1,0.3
11.41467625231911,0.2,-0.1,0.3
11.422675324675325,0.2,-0.1,0.3
11.43067439703154,0.2,-0.1,0.3
11.438673469387755,0.2,-0.1,0.3
11.44667254174397,0.2,-0.1,0.3
11.454671614100185,0.2,-0.1,0.3
11.4626706864564,0.0,-0.06646567717998321,0.3
11.470669758812615,0.01010569517062895,0.0,0.3
11.47866883116883,0.022225501770955065,0.0,0.3
11.486667903525046,0.034345308371281184,0.0,0.3
11.49466697588126,0.046465114971607296,0.0,0.3
11.502666048237476,0.058584921571933415,0.0,0.3
11.510665120593691,0.07070472817225953,0.0,0.3
11.518664192949906,0.08282453477258565,0.0,0.3
11.526663265306121,0.09494434137291176,0.0,0.3
11.534662337662336,0.13885281385280623,0.0,0.3
11.542661410018553,0.2,0.0,0.3
11.550660482374768,0.2117986895563769,-0.1,0.4
11.558659554730983,0.23204950564806054,-0.1,0.4
11.566658627087198,0.2523003217397442,-0.1,0.4
11.574657699443414,0.27255113783142787,-0.1,0.4
11.582656771799629,0.29280195392311154,-0.1,0.4
11.590655844155844,0.3130527700147952,-0.1,0.4
11.598654916512059,0.33330358610647887,-0.1,0.4
11.606653988868274,0.35355440219816253,-0.1,0.4
11.61465306122449,0.37380521828984614,-0.1,0.4
11.622652133580704,0.3940560343815298,-0.1,0.4
11.63065120593692,0.4,0.0,0.4
11.638650278293134,0.4,0.0,0.4
11.64664935064935,0.4,0.0,0.39130755608028395
11.654648423005565,0.4,0.0,0.3822177011300396
11.66264749536178,0.4,0.0,0.3731278461797952
11.670646567717995,0.4,0.0,0.3640379912295509
11.678645640074212,0.4,0.0,0.35494813627930455
11.686644712430427,0.4,0.0,0.3458582813290602
11.694643784786642,0.4,0.0,0.3367684263788159
11.702642857142857,0.4,0.0,0.3276785714285715
11.710641929499072,0.4,0.0,0.31858871647832715
11.718641001855287,0.4,0.0,0.3094988615280828
11.726640074211502,0.4,0.0,0.3004090065778385
11.734639146567718,0.5,0.1,0.2
11.742638218923933,0.5,0.1,0.2
11.750637291280148,0.5,0.1,0.2
11.758636363636363,0.5,0.1,0.2
11.766635435992578,0.5,0.1,0.2
11.774634508348793,0.5,0.1,0.2
11.782633580705008,0.5,0.1,0.2
11.790632653061223,0.5,0.1,0.2
11.798631725417438,0.5,0.1,0.2
11.806630797773654,0.5,0.1,0.2
11.81462987012987,0.5,0.1,0.2
11.822628942486086,0.5,0.1,0.2
11.8306280148423,0.5,0.1,0.2
11.838627087198516,0.5,0.1,0.2
11.84662615955473,0.17476808905388655,-0.03130797773652836,0.06869202226347165
11.854625231910946,-0.2941452760620933,-0.1,0.005854723937906696
11.862624304267161,-0.28401986801625145,-0.1,0.015980131983748525
11.870623376623376,-0.2738944599704096,-0.1,0.026105540029590358
11.878622448979591,-0.2637690519245678,-0.1,0.03623094807543219
11.886621521335806,-0.253643643878726,-0.1,0.04635635612127402
11.894620593692022,-0.24351823583288415,-0.1,0.05648176416711585
11.902619666048237,-0.23339282778704235,-0.1,0.06660717221295769
11.910618738404452,-0.2232674197412005,-0.1,0.0767325802587995
11.918617810760667,-0.21314201169535868,-0.1,0.08685798830464134
11.926616883116882,-0.20301660364951685,-0.1,0.09698339635048317
11.934615955473097,0.3807977736548345,-0.01920222634516547,0.2
11.942615027829312,0.407932320655533,0.0,0.19206767934446703
11.950614100185529,0.4162646876932589,0.0,0.18373531230674112
11.958613172541744,0.42459705473098297,0.0,0.17540294526901704
11.96661224489796,0.432929421768707,0.0,0.16707057823129298
11.974611317254174,0.4412617888064311,0.0,0.1587382111935689
11.98261038961039,0.4495941558441552,0.0,0.15040584415584485
11.990609461966605,0.45792652288187924,0.0,0.1420734771181208
11.99860853432282,0.4662588899196033,0.0,0.1337411100803967
12.006607606679035,0.47459125695732735,0.0,0.12540874304267266
12.01460667903525,0.4829236239950514,0.0,0.11707637600494859
12.022605751391465,0.49125599103277545,0.0,0.10874400896722453
12.03060482374768,0.4995883580704995,0.0,0.10041164192950046
12.038603896103895,0.6371985157699398,0.06280148423006021,-0.025602968460120404
12.04660296846011,0.7165653722303955,-0.004141343057598893,0.1
12.054602040816325,0.7533427163969012,-0.013335679099225294,0.1
12.06260111317254,0.7901200605634068,-0.022530015140851695,0.1
12.070600185528756,0.8268974047299124,-0.0317243511824781,0.1
12.07859925788497,0.863674748896418,-0.0409186872241045,0.1
12.086598330241188,0.9004520930629318,-0.05011302326573294,0.1
12.094597402597403,0.9372294372294374,-0.05930735930735934,0.1
12.102596474953618,0.974006781395943,-0.06850169534898574,0.1
12.110595547309833,1.0107841255624486,-0.07769603139061215,0.1
12.118594619666048,1.0475614697289544,-0.08689036743223855,0.1
12.126593692022263,1.08433881389546,-0.09608470347386495,0.1
12.134592764378478,1.1407235621521317,0.07963821892393425,0.2
12.142591836734693,0.43473428975550343,0.19347342897555037,0.19347342897555037
12.150590909090909,0.3555355535553545,0.18555355535553547,0.18555355535553547
12.158589981447124,0.2763368173552056,0.17763368173552058,0.17763368173552058
12.166589053803339,0.1971380811550567,0.16971380811550568,0.16971380811550568
12.174588126159554,0.11793934495490777,0.1617939344954908,0.1617939344954908
12.182587198515769,0.038740608754758876,0.1538740608754759,0.1538740608754759
12.190586270871984,-0.04045812744539001,0.145954187255461,0.145954187255461
12.1985853432282,-0.11965686364553896,0.1380343136354461,0.1380343136354461
12.206584415584414,-0.1988555998456879,0.1301144400154312,0.1301144400154312
12.21458348794063,-0.27805433604583674,0.12219456639541633,0.12219456639541633
12.222582560296846,-0.35725307224600333,0.11427469277539967,0.11427469277539967
12.230581632653061,-0.43645180844615217,0.10635481915538478,0.10635481915538478
12.238580705009277,-0.8161410018551801,0.020964749536204974,0.020964749536204974
12.246579777365492,0.15292207792216173,-0.057977736549189085,0.1579777365491891
12.254578849721707,0.43779726766740706,-0.23779726766740705,0.2
12.262577922077922,0.5062711261341407,-0.3,0.2125422522682814
12.270576994434137,0.5172287594988189,-0.3,0.23445751899763775
12.278576066790352,0.528186392863497,-0.3,0.2563727857269941
12.286575139146567,0.5391440262281753,-0.3,0.27828805245635047
12.294574211502782,0.5501016595928534,-0.3,0.3002033191857068
12.302573283858997,0.5610592929575315,-0.3,0.32211858591506315
12.310572356215213,0.5720169263222097,-0.3,0.3440338526444195
12.318571428571428,0.5829745596868878,-0.3,0.36594911937377583
12.326570500927643,0.5939321930515661,-0.3,0.3878643861031322
12.334569573283858,0.057606679035496405,0.12847866419290072,0.07152133580709928
12.342568645640073,-0.31227784231789285,0.2,-0.006138921158946437
12.350567717996288,-0.3272293794323137,0.2,-0.013614689716156867
12.358566790352505,-0.3421809165467379,0.2,-0.02109045827336896
12.36656586270872,-0.35713245366115876,0.2,-0.028566226830579387
12.374564935064935,-0.37208399077557963,0.2,-0.036041995387789814
12.38256400742115,-0.3870355278900005,0.2,-0.043517763945000246
12.390563079777365,-0.40198706500442133,0.2,-0.05099353250221068
12.39856215213358,-0.4169386021188422,0.2,-0.05846930105942111
12.406561224489796,-0.431890139233263,0.2,-0.06594506961663153
12.41456029684601,-0.4468416763476839,0.2,-0.07342083817384197
12.422559369202226,-0.4617932134621048,0.2,-0.0808966067310524
12.430558441558441,-0.47674475057652566,0.2,-0.08837237528826283
12.438557513914656,-0.49169628769094653,0.2,-0.09584814384547326
12.446556586270871,-0.3416280148423366,0.1,-0.08054267161411222
12.454555658627086,0.13334879406294842,0.1,0.07778293135431613
12.462554730983301,0.5241510042752204,0.10805033475840681,0.2
12.470553803339516,0.5589295797370257,0.11964319324567524,0.2
12.478552875695732,0.593708155198831,0.13123605173294367,0.2
12.486551948051947,0.6284867306606363,0.1428289102202121,0.2
12.494551020408164,0.6632653061224494,0.15442176870748311,0.2
12.502550092764379,0.6980438815842547,0.16601462719475152,0.2
12.510549165120594,0.73282245704606,0.17760748568201995,0.2
12.518548237476809,0.7676010325078653,0.18920034416928838,0.2
12.526547309833024,0.8,0.28209647495360274,0.1726345083487991
12.534546382189239,-0.30141869925618314,0.5985813007438169,-0.30141869925618314
12.542545454545454,-0.3087572977481236,0.5912427022518764,-0.3087572977481236
12.55054452690167,-0.31609589624006407,0.5839041037599358,-0.31609589624006407
12.558543599257884,-0.32343449473200453,0.5765655052679954,-0.32343449473200453
12.5665426716141,-0.33077309322394505,0.5692269067760549,-0.33077309322394505
12.574541743970315,-0.3381116917158855,0.5618883082841145,-0.3381116917158855
12.58254081632653,-0.34545029020782597,0.554549709792174,-0.34545029020782597
12.590539888682745,-0.35278888869976643,0.5472111113002336,-0.35278888869976643
12.59853896103896,-0.3601274871917069,0.5398725128082931,-0.3601274871917069
12.606538033395175,-0.36746608568364736,0.5325339143163527,-0.36746608568364736
12.61453710575139,-0.3748046841755879,0.5251953158244121,-0.3748046841755879
12.622536178107605,-0.3821432826675283,0.5178567173324717,-0.3821432826675283
12.630535250463822,-0.3894818811594704,0.5105181188405296,-0.3894818811594704
12.638534322820037,-0.3968204796514109,0.5031795203485891,-0.3968204796514109
12.646533395176252,-0.34333256029684445,0.4433325602968444,-0.4
12.654532467532468,-0.20935064935063866,0.4,-0.3093506493506386
12.662531539888683,0.05072784358497151,0.24975738547167617,0.00048522905664766247
12.670530612244898,0.20255102040816217,0.2,0.10255102040816215
12.678529684601113,0.21588280766852094,0.2,0.11588280766852095
12.686528756957328,0.22921459492887974,0.2,0.12921459492887977
12.694527829313543,0.24254638218923855,0.2,0.14254638218923854
12.702526901669758,0.25587816944959735,0.2,0.15587816944959734
12.710525974025973,0.2692099567099561,0.2,0.16920995670995614
12.718525046382188,0.28254174397031495,0.2,0.18254174397031495
12.726524118738404,0.2958735312306737,0.2,0.19587353123067375
12.734523191094619,-0.2953617810762171,0.2,0.04768089053810854
12.742522263450834,-0.19164192949907302,0.2,-0.008358070500927
12.750521335807049,-0.18275407132550064,0.2,-0.01724592867449936
12.758520408163264,-0.1738662131519283,0.2,-0.026133786848071716
12.76651948051948,-0.16497835497835395,0.2,-0.03502164502164605
12.774518552875696,-0.1560904968047816,0.2,-0.043909503195218406
12.782517625231911,-0.14720263863120925,0.2,-0.05279736136879076
12.790516697588126,-0.1383147804576369,0.2,-0.06168521954236312
12.798515769944341,-0.12942692228406455,0.2,-0.07057307771593548
12.806514842300556,-0.12053906411049217,0.2,-0.07946093588950784
12.814513914656771,-0.11165120593691982,0.2,-0.08834879406308019
12.822512987012987,-0.10276334776334746,0.2,-0.09723665223665255
12.830512059369202,0.3024118738403814,0.3487940630798093,0.1
12.838511131725417,0.4,0.30751113172541733,0.1
12.846510204081632,0.4,0.31551020408163244,0.1
12.854509276437847,0.4,0.3235092764378476,0.1
12.862508348794062,0.4,0.3315083487940627,0.1
12.870507421150277,0.4,0.3395074211502779,0.1
12.878506493506492,0.4,0.347506493506493,0.1
12.886505565862707,0.4,0.35550556586270815,0.1
12.894504638218923,0.4,0.3635046382189233,0.1
12.90250371057514,0.4,0.3715037105751402,0.1
12.910502782931355,0.4,0.37950278293135536,0.1
12.91850185528757,0.4,0.3875018552875705,0.1
12.926500927643785,0.4,0.39550092764378564,0.1
12.9345,0.3500000000000444,0.2,0.0
12.942499072356215,-0.21037560821927476,0.2948121958903626,-0.09481219589036263
12.95049814471243,-0.22546819757062403,0.287265901214688,-0.087265901214688
12.958497217068645,-0.2405607869219733,0.27971960653901334,-0.07971960653901336
12.96649628942486,-0.25565337627332263,0.2721733118633387,-0.07217331186333871
12.974495361781075,-0.2707459656246719,0.26462701718766407,-0.06462701718766407
12.98249443413729,-0.2858385549760212,0.25708072251198943,-0.05708072251198943
12.990493506493506,-0.30093114432737045,0.2495344278363148,-0.04953442783631479
12.99849257884972,-0.3160237336787197,0.24198813316064016,-0.04198813316064015
13.006491651205936,-0.331116323030069,0.23444183848496553,-0.0344418384849655
13.014490723562151,-0.34620891238141827,0.2268955438092909,-0.026895543809290864
13.022489795918366,-0.36130150173276754,0.21934924913361625,-0.019349249133616228
13.030488868274581,-0.37639409108411687,0.21180295445794162,-0.011802954457941578
13.038487940630798,-0.3914866804354695,0.2042566597822653,-0.004256659782265262
13.046487012987013,-0.6891774891774712,0.1,-0.2
13.054486085343228,-0.511420325706031,0.1,-0.2
13.062485157699443,-0.33366316223459097,0.1,-0.2
13.070484230055659,0.014465258244057528,0.1,-0.10723262912202877
13.078483302411874,0.04026871745765491,0.1,-0.12013435872882747
13.086482374768089,0.06607217667125229,0.1,-0.13303608833562613
13.094481447124304,0.09187563588484966,0.1,-0.14593781794242483
13.102480519480519,0.11767909509844705,0.1,-0.15883954754922353
13.110479591836734,0.14348255431204443,0.1,-0.17174127715602222
13.11847866419295,0.1692860135256418,0.1,-0.18464300676282092
13.126477736549164,0.19508947273923918,0.1,-0.1975447363696196
13.13447680890538,0.1430426716137927,-0.02384044526896545,-0.3
13.142475881261594,0.6436576264826644,-0.09272372891955592,-0.28544745783911185
13.15047495361781,0.697583956974002,-0.08373600717099966,-0.2674720143419993
13.158474025974025,0.7515102874653395,-0.07474828542244341,-0.2494965708448868
13.16647309833024,0.8054366179566772,-0.06576056367388713,-0.23152112734777425
13.174472170686457,0.8593629484480267,-0.05677284192532889,-0.21354568385065775
13.182471243042672,0.9132892789393643,-0.047785120176772625,-0.19557024035354523
13.190470315398887,0.9672156094307018,-0.03879739842821637,-0.1775947968564327
13.198469387755102,1.0211419399220394,-0.029809676679660113,-0.1596193533593202
13.206468460111317,1.075068270413377,-0.02082195493110385,-0.14164390986220768
13.214467532467532,1.1289946009047145,-0.011834233182547588,-0.12366846636509515
13.222466604823747,1.182920931396052,-0.002846511433991325,-0.10569302286798263
13.230465677179962,-0.032838589981150496,0.1,-0.1
13.238464749536178,-0.3238236687324822,0.09205877708917261,-0.1158824458216548
13.246463821892393,-0.3493526230608284,0.08354912564639053,-0.13290174870721896
13.254462894248608,-0.37488157738917466,0.07503947420360844,-0.14992105159278313
13.262461966604823,-0.40041053171752095,0.06652982276082636,-0.1669403544783473
13.270461038961038,-0.4259394860458672,0.058020171318044274,-0.18395965736391146
13.278460111317253,-0.4514684403742134,0.04951051987526219,-0.20097896024947562
13.286459183673468,-0.47699739470255964,0.0410008684324801,-0.21799826313503978
13.294458256029683,-0.5025263490309059,0.03249121698969802,-0.23501756602060395
13.302457328385898,-0.5280553033592521,0.02398156554691594,-0.2520368689061681
13.310456400742115,-0.553584257687604,0.01547191410413197,-0.269056171791736
13.31845547309833,-0.5791132120159503,0.0069622626613498745,-0.2860754746773002
13.326454545454546,-0.8181818181818666,-0.07272727272728888,-0.3
13.33445361781076,0.6,-0.293544639606054,0.0
13.342452690166976,0.6,-0.2785931024916334,0.0
13.35045176252319,0.6,-0.2636415653772128,0.0
13.358450834879406,0.6,-0.24869002826279216,0.0
13.366449907235621,0.6,-0.23373849114837156,0.0
13.374448979591836,0.6,-0.21878695403395093,0.0
13.382448051948051,0.6,-0.20383541691953033,0.0
13.390447124304266,0.6,-0.18888387980510973,0.0
13.398446196660482,0.6,-0.1739323426906891,0.0
13.406445269016697,0.6,-0.1589808055762685,0.0
13.414444341372912,0.6,-0.14402926846184788,0.0
13.422443413729127,0.6,-0.12907773134742728,0.0
13.430442486085342,0.6,-0.11412619423300668,0.0
13.438441558441557,0.5724025974027178,-0.09448051948054356,-0.011038961038912882
13.446440630797772,0.09198853094959245,0.004005734525203784,-0.20801146905040757
13.454439703153989,-0.05344914825433758,0.0767245741271688,-0.3534491482543376
13.462438775510204,-0.28206782713085776,0.003586434573828444,-0.09641356542617156
13.47043784786642,-0.22325111862927577,0.015349776274144846,-0.08465022372585516
13.478436920222634,-0.16443441012769375,0.02711311797446125,-0.07288688202553875
13.48643599257885,-0.10561770162611173,0.03887645967477765,-0.06112354032522235
13.494435064935065,-0.04680099312452973,0.05063980137509406,-0.04936019862490595
13.50243413729128,0.012015715377052316,0.06240314307541046,-0.03759685692458955
13.510433209647495,0.07083242387863431,0.07416648477572686,-0.025833515224273143
13.51843228200371,0.1296491323802163,0.08592982647604326,-0.014070173523956744
13.526431354359925,0.18846584088179835,0.09769316817635967,-0.002306831823640332
13.53443042671614,0.7886085343228022,0.011391465677197843,0.27721706864560436
13.542429499072355,-0.3254568912204312,-0.09490862175591376,0.09490862175591376
13.55042857142857,-0.3714285714285641,-0.08571428571428717,0.08571428571428717
13.558427643784785,-0.41740025163669703,-0.07651994967266058,0.07651994967266058
13.566426716141,-0.46337193184483,-0.067325613631034,0.067325613631034
13.574425788497216,-0.509343612052963,-0.05813127758940741,0.05813127758940741
13.58242486085343,-0.5553152922610959,-0.04893694154778082,0.04893694154778082
13.590423933209648,-0.6012869724692391,-0.03974260550615218,0.03974260550615218
13.598423005565863,-0.647258652677372,-0.0305482694645256,0.0305482694645256
13.606422077922078,-0.693230332885505,-0.021353933422899013,0.021353933422899013
13.614421150278293,-0.7392020130936379,-0.01215959738127241,0.01215959738127241
13.622420222634508,-0.7851736933017708,-0.002965261339645822,0.002965261339645822
13.630419294990723,-0.6106016432546855,-0.1,-0.1
13.638418367346938,-0.09521898647099587,0.0,0.0
13.646417439703153,-0.06825582122532708,0.0,0.0
13.654416512059369,-0.0412926559796583,0.0,0.0
13.662415584415584,-0.014329490733989522,0.0,0.0
13.670414656771799,0.012633674511679266,0.0,0.0
13.678413729128014,0.03959683975734804,0.0,0.0
13.686412801484229,0.06656000500301684,0.0,0.0
13.694411873840444,0.09352317024868562,0.0,0.0
13.70241094619666,0.12048633549435439,0.0,0.0
13.710410018552874,0.1474495007400232,0.0,0.0
13.71840909090909,0.17441266598569197,0.0,0.0
13.726408163265306,0.2816326530611375,0.0,0.0
13.734407235621521,-0.14072356215210324,0.06371057513915873,-0.26814471243042065
13.742406307977737,-0.3190286375576315,0.0,-0.30634287918587716
13.750405380333952,-0.34278825841767663,0.0,-0.3142627528058922
13.758404452690167,-0.3665478792777217,0.0,-0.3221826264259072
13.766403525046382,-0.3903075001377668,0.0,-0.3301025000459223
13.774402597402597,-0.4140671209978119,0.0,-0.3380223736659373
13.782401669758812,-0.43782674185785697,0.0,-0.34594224728595235
13.790400742115027,-0.4615863627179021,0.0,-0.35386212090596736
13.798399814471242,-0.48534598357794717,0.0,-0.3617819945259824
13.806398886827457,-0.5091056044379922,0.0,-0.3697018681459974
13.814397959183673,-0.5328652252980374,0.0,-0.3776217417660125
13.822397031539888,-0.5566248461580825,0.0,-0.3855416153860275
13.830396103896103,-0.5803844670181275,0.0,-0.3934614890060425
13.838395176252318,-0.5892678749821683,-0.01073212501783169,-0.3892678749821683
13.846394248608533,-0.5277365491651286,-0.07226345083487147,-0.3277365491651285
13.854393320964748,0.06966604823739236,-0.1,0.03933209647478472
13.862392393320965,0.10947742733456998,-0.1,0.10947742733456998
13.87039146567718,0.11973264830407662,-0.1,0.11973264830407662
13.878390538033395,0.12998786927358325,-0.1,0.12998786927358325
13.88638961038961,0.14024309024308987,-0.1,0.14024309024308987
13.894388682745825,0.1504983112125965,-0.1,0.1504983112125965
13.90238775510204,0.16075353218210314,-0.1,0.16075353218210314
13.910386827458256,0.17100875315160977,-0.1,0.17100875315160977
13.91838589981447,0.1812639741211164,-0.1,0.1812639741211164
13.926384972170686,0.19151919509062304,-0.1,0.19151919509062304
13.934384044526901,0.3384044526900645,-0.1,0.2
13.942383116883116,0.19507514956953315,0.0,0.19507514956953315
13.950382189239331,0.1860874278209767,0.0,0.1860874278209767
13.958381261595546,0.1770997060724203,0.0,0.1770997060724203
13.966380333951761,0.16811198432386384,0.0,0.16811198432386384
13.974379406307976,0.1591242625753074,0.0,0.1591242625753074
13.982378478664192,0.15013654082675096,0.0,0.15013654082675096
13.990377551020407,0.14114881907819452,0.0,0.14114881907819452
13.998376623376624,0.1321610973296361,0.0,0.1321610973296361
14.006375695732839,0.12317337558107964,0.0,0.12317337558107964
14.014374768089054,0.1141856538325232,0.0,0.1141856538325232
14.022373840445269,0.10519793208396676,0.0,0.10519793208396676
14.030372912801484,-0.2937847866419226,-0.1,-0.1
14.0383719851577,0.3003834898532978,-0.0996165101467022,-0.1
14.046371057513914,0.30862995619991135,-0.09137004380008865,-0.1
14.05437012987013,0.3168764225465249,-0.0831235774534751,-0.1
14.062369202226344,0.32512288889313845,-0.07487711110686153,-0.1
14.07036827458256,0.33336935523975203,-0.06663064476024798,-0.1
14.078367346938775,0.3416158215863656,-0.05838417841363443,-0.1
14.08636641929499,0.34986228793297913,-0.05013771206702087,-0.1
14.094365491651205,0.3581087542795927,-0.04189124572040732,-0.1
14.10236456400742,0.36635522062620623,-0.03364477937379376,-0.1
14.110363636363635,0.3746016869728198,-0.025398313027180208,-0.1
14.11836270871985,0.38284815331943334,-0.017151846680566657,-0.1
14.126361781076065,0.3910946196660469,-0.008905380333953106,-0.1
14.134360853432282,0.39934108601266227,-0.0006589139873377087,-0.1
14.142359925788497,0.12342963159289834,0.1,-0.1
14.150358998144712,0.1,-0.0029860736009021827,0.0029860736009021827
14.158358070500928,0.1,-0.013111481646744014,0.013111481646744014
14.166357142857143,0.1,-0.023236889692585843,0.023236889692585843
14.174356215213358,0.1,-0.03336229773842767,0.03336229773842767
14.182355287569573,0.1,-0.043487705784269505,0.043487705784269505
14.190354359925788,0.1,-0.05361311383011134,0.05361311383011134
14.198353432282003,0.1,-0.06373852187595316,0.06373852187595316
14.206352504638218,0.1,-0.073863929921795,0.073863929921795
14.214351576994433,0.1,-0.08398933796763683,0.08398933796763683
14.222350649350648,0.1,-0.09411474601347866,0.09411474601347866
14.230349721706864,0.03909596896611926,-0.1,0.06954798448305963
14.238348794063079,-0.1,-0.1,0.0
14.246347866419294,0.048309626881039444,0.0,-0.048309626881039444
14.254346938775509,0.1,0.0,-0.1
14.262346011131724,0.1,0.0,-0.1
14.27034508348794,0.1,0.0,-0.1
14.278344155844156,0.1,0.0,-0.1
14.286343228200371,0.1,0.0,-0.1
14.294342300556586,0.1,0.0,-0.1
14.302341372912801,0.1,0.0,-0.1
14.310340445269016,0.1,0.0,-0.1
14.318339517625231,0.1,0.0,-0.1
14.326338589981447,0.1,0.0,-0.1
14.334337662337662,0.1,-0.1,-0.03311688311694598
14.342336734693877,0.18151927437641266,-0.1,0.08151927437641265
14.350335807050092,0.08979810105860732,-0.09489905052930367,0.1
14.358334879406307,0.07097675433810097,-0.08548837716905049,0.1
14.366333951762522,0.05215540761759463,-0.07607770380879732,0.1
14.374333024118737,0.03333406089708828,-0.06666703044854413,0.1
14.382332096474952,0.01451271417658194,-0.05725635708829097,0.1
14.390331168831167,-0.004308632543924412,-0.0478456837280378,0.1
14.398330241187383,-0.02312997926443075,-0.03843501036778463,0.1
14.4063293135436,-0.04195132598494128,-0.029024337007529363,0.1
14.414328385899815,-0.06077267270544762,-0.019613663647276194,0.1
14.42232745825603,-0.07959401942595398,-0.010202990287023012,0.1
14.430326530612245,-0.09841536614646032,-0.0007923169267698427,0.1
14.43832560296846,0.09933550414600144,-0.2996677520730007,0.0003322479269992822
14.446324675324675,0.08301086668433778,-0.2915054333421689,0.008494566657831111
14.45432374768089,0.06668622922267411,-0.28334311461133704,0.016656885388662942
14.462322820037105,0.05036159176101047,-0.2751807958805052,0.02481920411949477
14.47032189239332,0.034036954299346805,-0.2670184771496734,0.0329815228503266
14.478320964749535,0.01771231683768315,-0.2588561584188416,0.04114384158115843
14.48632003710575,0.001387679376019496,-0.25069383968800973,0.049306160311990255
14.494319109461966,-0.014936958085644172,-0.24253152095717792,0.05746847904282209
14.50231818181818,-0.03126159554730781,-0.2343692022263461,0.06563079777365391
14.510317254174396,-0.047586233008971496,-0.22620688349551427,0.07379311650448575
14.518316326530611,-0.06391087047063515,-0.21804456476468242,0.08195543523531758
14.526315398886826,-0.0802355079322988,-0.2098822460338506,0.0901177539661494
14.534314471243041,-0.09656014539396246,-0.2017199273030188,0.09828007269698123
14.542313543599258,-0.15739585090234945,-0.1713020745488253,0.07130207454882528
14.550312615955473,-0.2301146905043042,-0.1349426547478479,0.0349426547478479
14.558311688311688,-0.2688311688311342,-0.06883116883113423,0.0
14.566310760667903,0.20533993656113364,-0.09466006343886639,-0.0053399365611336205
14.574309833024119,0.2182416661679323,-0.0817583338320677,-0.01824166616793231
14.582308905380334,0.231143395774731,-0.06885660422526901,-0.031143395774731
14.590307977736549,0.2440451253815297,-0.05595487461847032,-0.04404512538152969
14.598307050092764,0.25694685498832837,-0.04305314501167162,-0.05694685498832838
14.606306122448979,0.26984858459512706,-0.03015141540487294,-0.06984858459512706
14.614305194805194,0.28275031420192576,-0.017249685798074246,-0.08275031420192576
14.62230426716141,0.29565204380872445,-0.004347956191275551,-0.09565204380872445
14.630303339517624,0.1848330241187657,0.0,0.0
14.63830241187384,0.39311997526283415,-0.29655998763141705,-0.3759199134199195
14.646301484230055,0.37645524118738605,-0.288227620593693,-0.31759334415585105
14.65430055658627,0.3597905071119379,-0.27989525355596895,-0.2592667748917826
14.662299628942485,0.3431257730364898,-0.2715628865182449,-0.20094020562771417
14.6702987012987,0.3264610389610416,-0.2632305194805208,-0.1426136363636457
14.678297773654917,0.3097963048855898,-0.2548981524427949,-0.0842870670995643
14.686296846011132,0.2931315708101417,-0.24656578540507085,-0.025960497835495866
14.694295918367347,0.2764668367346935,-0.23823341836734677,0.03236607142857256
14.702294990723562,0.2598021026592454,-0.2299010513296227,0.09069264069264105
14.710294063079777,0.24313736858379728,-0.22156868429189863,0.14901920995670948
14.718293135435992,0.22647263450834915,-0.21323631725417458,0.2073457792207779
14.726292207792207,0.209807900432901,-0.20490395021645053,0.26567234848484633
14.734291280148422,-0.3,-0.1854359925788798,-0.2563079777366394
14.742290352504638,-0.3,-0.010137821362325189,0.08986217863767482
14.750289424860853,0.013738765872346728,0.0,0.2
14.758288497217068,0.03451557718719118,0.0,0.2
14.766287569573283,0.05529238850203563,0.0,0.2
14.774286641929498,0.07606919981688008,0.0,0.2
14.782285714285713,0.09684601113172454,0.0,0.2
14.790284786641928,0.11762282244656899,0.0,0.2
14.798283858998143,0.13839963376141345,0.0,0.2
14.806282931354358,0.1591764450762579,0.0,0.2
14.814282003710575,0.17995325639110696,0.0,0.2
14.82228107606679,0.1859461966604404,0.0,0.1859461966604404
14.830280148423006,-0.49660137586812847,0.30113287471062383,0.09886712528937616
14.83827922077922,-0.47536490058614134,0.30821169980461954,0.09178830019538045
14.846278293135436,-0.45412842530415426,0.31529052489861525,0.08470947510138475
14.854277365491651,-0.4328919500221671,0.32236934999261097,0.07763065000738906
14.862276437847866,-0.41165547474018005,0.3294481750866066,0.07055182491339335
14.870275510204081,-0.3904189994581929,0.33652700018060233,0.06347299981939766
14.878274582560296,-0.36918252417620584,0.34360582527459804,0.05639417472540195
14.886273654916511,-0.34794604889421876,0.35068465036859375,0.049315349631406255
14.894272727272726,-0.32670957361223163,0.35776347546258946,0.04223652453741055
14.902271799628942,-0.30547309833024455,0.3648423005565852,0.03515769944341485
14.910270871985157,-0.2842366230482575,0.3719211256505809,0.02807887434941915
14.918269944341372,-0.26300014776627034,0.3789999507445766,0.021000049255423453
14.926269016697587,-0.2417636724842832,0.38607877583857225,0.013921224161427756
14.934268089053802,-0.22052719720229613,0.39315760093256796,0.006842399067432045
14.942267161410017,-0.1732838589983085,0.4089053803338972,0.0
14.950266233766234,0.9824085005903179,0.541204250295159,0.22060212514757946
14.958265306122449,1.2732838589981603,0.6866419294990801,0.29332096474954006
14.966264378478664,1.3,0.6679512714176561,0.3213658190548959
14.97426345083488,1.3,0.632661246316707,0.3448925024555287
14.982262523191094,1.3,0.5973712212157577,0.3684191858561615
14.99026159554731,1.3,0.5620811961148084,0.3919458692567943
14.998260667903525,1.3,0.5267911710138593,0.4154725526574271
15.00625974025974,1.3,0.49150114591291005,0.4389992360580599
15.014258812615955,1.3,0.45621112081196086,0.4625259194586927
15.02225788497217,1.3,0.42092109571101166,0.48605260285932556
15.030256957328385,1.2185760667903816,0.23715213358076323,0.4185760667903816
15.0382560296846,-0.495991394623619,0.1,0.301336201792127
15.046255102040815,-0.4704624402952728,0.1,0.3098458532349091
15.05425417439703,-0.4449334859669265,0.1,0.31835550467769114
15.062253246753246,-0.41940453163858027,0.1,0.32686515612047323
15.07025231910946,-0.39387557731023404,0.1,0.33537480756325533
15.078251391465676,-0.3683466229818878,0.1,0.3438844590060374
15.086250463821893,-0.34281766865353586,0.1,0.3523941104488214
15.094249536178108,-0.31728871432518957,0.1,0.36090376189160345
15.102248608534323,-0.29175975999684334,0.1,0.36941341333438554
15.110247680890538,-0.2662308056684971,0.1,0.37792306477716764
15.118246753246753,-0.24070185134015087,0.1,0.38643271621994973
15.126245825602968,-0.2151728970118046,0.1,0.39494236766273183
15.134244897959183,0.22653061224508284,-0.3102040816323758,0.15102040816338858
15.142243970315398,-1.1184520448495585,-1.5092260224247793,-0.7138390336371688
15.150243042671613,-1.1532306203113631,-1.5266153101556816,-0.7399229652335223
15.158242115027829,-1.1880091957731678,-1.544004597886584,-0.7660068968298758
15.166241187384044,-1.2227877712349724,-1.561393885617486,-0.7920908284262292
15.174240259740259,-1.257566346696777,-1.5787831733483884,-0.8181747600225827
15.182239332096474,-1.2923449221585817,-1.5961724610792907,-0.8442586916189362
15.190238404452689,-1.3271234976203863,-1.613561748810193,-0.8703426232152897
15.198237476808904,-1.361902073082191,-1.6309510365410953,-0.8964265548116431
15.20623654916512,-1.3966806485439953,-1.6483403242719976,-0.9225104864079966
15.214235621521334,-1.4314592240058,-1.6657296120029,-0.9485944180043501
15.222234693877551,-1.4662377994676123,-1.6831188997338062,-0.9746783496007093
15.230233766233766,-1.5,-1.6883116883116975,-1.0116883116883024
15.238232838589981,-0.39875582432834095,0.6007109575266623,-1.1996445212366689
15.246231910946197,-0.35601268960047405,0.6251356059425862,-1.1874321970287067
15.254230983302412,-0.3132695548726071,0.6495602543585102,-1.1752198728207448
15.262230055658627,-0.2705264201447402,0.6739849027744341,-1.1630075486127829
15.270229128014842,-0.2277832854168733,0.6984095511903581,-1.150795224404821
15.278228200371057,-0.18504015068900637,0.722834199606282,-1.1385829001968588
15.286227272727272,-0.14229701596113947,0.747258848022206,-1.126370575988897
15.294226345083487,-0.09955388123327252,0.77168349643813,-1.114158251780935
15.302225417439702,-0.05681074650540563,0.7961081448540539,-1.101945927572973
15.310224489795917,-0.01406761177753868,0.8205327932699779,-1.0897336033650111
15.318223562152133,0.028675522950328214,0.8449574416859018,-1.077521279157049
15.326222634508348,0.07141865767819516,0.8693820901018259,-1.065308954949087
15.334221706864563,0.11416179240606206,0.8938067385177497,-1.0530966307411251
15.342220779220778,0.156904927133929,0.9182313869336738,-1.0408843065331632
15.350219851576993,0.19964806186179596,0.9426560353495976,-1.028671982325201
15.358218923933208,0.2423911965896628,0.9670806837655217,-1.0164596581172392
15.366217996289425,0.2851343313175393,0.9915053321814511,-1.0042473339092746
15.37421706864564,1.0619666048237266,1.422820037105764,-0.5152133580705094
15.382216141001855,0.8119955936920047,1.572802643784797,-0.6152017625231981
15.39021521335807,0.2354359925787275,1.7810142238713937,-0.7810142238713939
15.398214285714285,-0.38571428571428923,1.9214285714285722,-0.9214285714285724
15.4062133580705,-0.4960463182138083,1.949011579553452,-0.9490115795534522
15.414212430426716,-0.6063783507133274,1.9765945876783317,-0.9765945876783318
15.42221150278293,-0.7167103832128465,2.0041775958032115,-1.0041775958032118
15.430210575139146,-0.8270424157123655,2.0317606039280913,-1.0317606039280913
