gyro_time_list,gyro_x_list,gyro_y_list,gyro_z_list
0.0,0.1,0.1,0.0
0.007992610837438423,0.0,0.1,-0.04963054187192117
0.015985221674876846,0.0,0.2,-0.1
0.02397783251231527,0.0,0.2,-0.1
0.03197044334975369,0.0,0.2,-0.1
0.039963054187192114,0.0,0.2,-0.1
0.04795566502463054,0.0,0.2,-0.1
0.055948275862068964,0.0,0.2,-0.1
0.06394088669950738,0.0,0.2,-0.1
0.0719334975369458,0.0,0.2,-0.1
0.07992610837438423,-0.1926108374384226,0.1036945812807887,-0.1
0.08791871921182265,-0.054064039408867295,0.1,0.0
0.09591133004926108,0.0,0.1,0.0
0.1039039408866995,0.0,0.1,0.0
0.11189655172413793,0.0,0.1,0.0
0.11988916256157635,0.0,0.1,0.0
0.12788177339901477,0.0,0.1,0.0
0.1358743842364532,0.0,0.1,0.0
0.1438669950738916,0.0,0.1,0.0
0.15185960591133005,0.0,0.1,0.0
0.15985221674876846,0.0,0.1,0.0
0.1678448275862069,0.0,0.1,0.0
0.1758374384236453,0.0,0.1,0.0
0.18383004926108373,-0.10280202897137004,0.3,0.1
0.19182266009852217,-0.11071550504804176,0.3,0.1
0.19981527093596058,-0.11862898112471346,0.3,0.1
0.207807881773399,-0.12654245720138518,0.3,0.1
0.21580049261083742,-0.13445593327805688,0.3,0.1
0.22379310344827585,-0.14236940935472858,0.3,0.1
0.23178571428571426,-0.15028288543140028,0.3,0.1
0.2397783251231527,-0.158196361508072,0.3,0.1
0.2477709359605911,-0.16610983758474368,0.3,0.1
0.25576354679802954,-0.1740233136614154,0.3,0.1
0.26375615763546795,-0.1819367897380871,0.3,0.1
0.2717487684729064,-0.18985026581475883,0.3,0.1
0.2797413793103448,-0.19776374189143053,0.3,0.1
0.2877339901477832,-0.3,0.25851122058018616,0.0
0.29572660098522163,-0.3,0.22478728168383316,0.049574563367666316
0.3037192118226601,-0.3,0.2974473802060009,0.19489476041200188
0.3117118226600985,-0.2910752770935961,0.3910752770935961,0.1
0.3197044334975369,-0.27858682266009854,0.3785868226600986,0.1
0.3276970443349754,-0.266098368226601,0.36609836822660097,0.1
0.3356896551724138,-0.25360991379310344,0.35360991379310347,0.1
0.3436822660098522,-0.24112145935960594,0.34112145935960597,0.1
0.3516748768472906,-0.22863300492610844,0.3286330049261084,0.1
0.35966748768472906,-0.21614455049261083,0.3161445504926108,0.1
0.36766009852216747,-0.20365609605911333,0.3036560960591133,0.1
0.3756527093596059,0.07389162561576507,0.013054187192117471,0.0
0.38364532019704434,-0.08757277205553068,0.1,0.0
0.39163793103448274,-0.06032523510971794,0.1,0.0
0.39963054187192115,-0.0330776981639052,0.1,0.0
0.40762315270935956,-0.005830161218092447,0.1,0.0
0.415615763546798,0.021417375727720497,0.1,0.0
0.42360837438423643,0.04866491267353326,0.1,0.0
0.43160098522167484,0.07591244961934601,0.1,0.0
0.43959359605911325,0.10315998656515873,0.1,0.0
0.4475862068965517,0.13040752351097168,0.1,0.0
0.4555788177339901,0.15765506045678443,0.1,0.0
0.4635714285714285,0.1849025974025972,0.1,0.0
0.471564039408867,0.0,0.009400656814450192,0.0
0.4795566502463054,0.0,0.0,0.0
0.4875492610837438,0.0,0.0,0.0
0.4955418719211822,0.0,0.0,0.0
0.5035344827586207,0.0,0.0,0.0
0.5115270935960591,0.0,0.0,0.0
0.5195197044334975,0.0,0.0,0.0
0.5275123152709359,0.0,0.0,0.0
0.5355049261083743,0.0,0.0,0.0
0.5434975369458128,0.0,0.0,0.0
0.5514901477832512,0.0,0.0,0.0
0.5594827586206896,0.0,0.0,0.0
0.567475369458128,0.0,0.0,0.0
0.5754679802955665,0.0,0.0,0.0
0.5834605911330049,0.0,0.0,0.0
0.5914532019704433,0.0,0.0,0.0
0.5994458128078818,0.0,0.0,0.0
0.6074384236453202,0.0,0.0,0.0
0.6154310344827586,0.0,0.0,0.0
0.623423645320197,0.0,0.0,0.0
0.6314162561576354,0.0,0.0,0.0
0.6394088669950738,0.0,0.0,0.0
0.6474014778325122,0.0,0.0,0.0
0.6553940886699507,0.0,0.0,0.0
0.6633866995073892,0.0,0.0,0.0
0.6713793103448276,0.0,0.0,0.0
0.679371921182266,0.0,0.0,0.0
0.6873645320197044,0.0,0.0,0.0
0.6953571428571428,0.0,0.0,0.0
0.7033497536945812,0.0,0.0,0.0
0.7113423645320197,0.0,0.0,0.0
0.7193349753694581,0.0,0.0,0.0
0.7273275862068965,0.0,0.0,0.0
0.7353201970443349,0.0,0.0,0.0
0.7433128078817733,0.0,0.0,0.0
0.7513054187192117,0.0,0.0,0.0
0.7592980295566502,0.0,0.0,0.0
0.7672906403940887,0.0,0.0,0.0
0.7752832512315271,0.0,0.0,0.0
0.7832758620689655,0.0,0.0,0.0
0.7912684729064039,0.0,0.0,0.0
0.7992610837438423,0.0,0.0,0.0
0.8072536945812807,0.0,0.0,0.0
0.8152463054187191,0.0,0.0,0.0
0.8232389162561575,0.0,0.0,0.0
0.831231527093596,0.0,0.0,0.0
0.8392241379310345,0.0,0.0,0.0
0.8472167487684729,0.0,0.0,0.0
0.8552093596059113,0.0,0.0,0.0
0.8632019704433497,0.0,0.0,0.0
0.8711945812807881,0.0,0.0,0.0
0.8791871921182265,0.0,0.0,0.0
0.887179802955665,0.0,0.0,0.0
0.8951724137931034,0.0,0.0,0.0
0.9031650246305418,0.0,0.0,0.0
0.9111576354679802,0.0,0.0,0.0
0.9191502463054186,0.0,0.0,0.0
0.927142857142857,0.0,0.0,0.0
0.9351354679802955,0.0,0.0,0.0
0.943128078817734,0.0,0.0,0.0
0.9511206896551724,0.0,0.0,0.0
0.9591133004926108,0.0,0.0,0.0
0.9671059113300492,0.0,0.0,0.0
0.9750985221674876,0.0,0.0,0.0
0.983091133004926,0.0,0.0,0.0
0.9910837438423644,0.0,0.0,0.0
0.9990763546798029,0.0,0.0,0.0
1.0070689655172413,0.0,0.0,0.0
1.0150615763546798,0.0,0.0,0.0
1.0230541871921182,0.0,0.0,0.0
1.0310467980295566,0.0,0.0,0.0
1.039039408866995,0.0,0.0,0.0
1.0470320197044334,0.0,0.0,0.0
1.0550246305418718,0.0,0.0,0.0
1.0630172413793102,0.0,0.0,0.0
1.0710098522167486,0.0,0.0,0.0
1.079002463054187,0.0,0.0,0.0
1.0869950738916256,0.0,0.0,0.0
1.094987684729064,0.0,0.0,0.0
1.1029802955665025,0.0,0.0,0.0
1.1109729064039409,0.0,0.0,0.0
1.1189655172413793,0.0,0.0,0.0
1.1269581280788177,0.0,0.0,0.0
1.134950738916256,0.0,0.0,0.0
1.1429433497536945,0.0,0.0,0.0
1.150935960591133,0.0,0.0,0.0
1.1589285714285713,0.0,0.0,0.0
1.1669211822660097,0.0,0.0,0.0
1.1749137931034481,0.01522988505746983,0.0,0.0
1.1829064039408865,0.09687483447216495,0.0,0.0
1.190899014778325,0.08828062927061828,0.0,0.0
1.1988916256157636,0.07968642406907137,0.0,0.0
1.206884236453202,0.07109221886752469,0.0,0.0
1.2148768472906404,0.06249801366597801,0.0,0.0
1.2228694581280788,0.05390380846443133,0.0,0.0
1.2308620689655172,0.045309603262884655,0.0,0.0
1.2388546798029556,0.03671539806133797,0.0,0.0
1.246847290640394,0.028121192859791297,0.0,0.0
1.2548399014778324,0.01952698765824462,0.0,0.0
1.2628325123152708,0.010932782456697945,0.0,0.0
1.2708251231527092,0.0023385772551512696,0.0,0.0
1.2788177339901476,0.0,0.0,0.0
1.286810344827586,0.0,0.0,0.0
1.2948029556650245,0.0,0.0,0.0
1.3027955665024629,0.0,0.0,0.0
1.3107881773399015,0.0,0.0,0.0
1.31878078817734,0.0,0.0,0.0
1.3267733990147783,0.0,0.0,0.0
1.3347660098522167,0.0,0.0,0.0
1.3427586206896551,0.0,0.0,0.0
1.3507512315270935,0.0,0.0,0.0
1.358743842364532,0.0,0.0,0.0
1.3667364532019703,0.0,0.0,0.0
1.3747290640394088,0.0,0.0,0.0
1.3827216748768472,0.0,0.0,0.0
1.3907142857142856,0.0,0.0,0.0
1.398706896551724,0.0,0.0,0.0
1.4066995073891624,0.0,0.0,0.0
1.4146921182266008,0.0,0.0,0.0
1.4226847290640394,0.0,0.0,0.0
1.4306773399014778,0.0,0.0,0.0
1.4386699507389162,0.0,0.0,0.0
1.4466625615763546,0.0,0.0,0.0
1.454655172413793,0.0,0.0,0.0
1.4626477832512315,0.0,0.0,0.0
1.4706403940886699,0.0,0.0,0.0
1.4786330049261083,0.0,0.0,0.0
1.4866256157635467,0.0,0.0,0.0
1.494618226600985,0.0,0.0,0.0
1.5026108374384235,0.0,0.0,0.0
1.510603448275862,0.0,0.0,0.0
1.5185960591133003,0.0,0.0,0.0
1.5265886699507387,0.0,0.0,0.0
1.5345812807881773,0.0,0.0,0.0
1.5425738916256158,0.0,0.0,0.0
1.5505665024630542,0.0,0.0,0.0
1.5585591133004926,0.0,0.0,0.0
1.566551724137931,0.0,0.0,0.0
1.5745443349753694,0.0,0.0,0.0
1.5825369458128078,0.07684729064039157,0.0,0.0
1.5905295566502462,0.1,0.0,0.0
1.5985221674876846,0.1,0.0,0.0
1.606514778325123,0.1,0.0,0.0
1.6145073891625614,0.1,0.0,0.0
1.6224999999999998,0.1,0.0,0.0
1.6304926108374382,0.1,0.0,0.0
1.6384852216748766,0.1,0.0,0.0
1.646477832512315,0.1,0.0,0.0
1.6544704433497537,0.1,0.0,0.0
1.662463054187192,0.1,0.0,0.0
1.6704556650246305,0.1,0.0,0.0
1.678448275862069,0.24482758620689196,0.1,0.0
1.6864408866995073,0.7323220992049936,0.3053870165341656,0.1
1.6944334975369457,0.7798029556650238,0.3133004926108373,0.1
1.7024261083743841,0.8272838121250539,0.321213968687509,0.1
1.7104187192118225,0.8747646685850841,0.3291274447641807,0.1
1.718411330049261,0.9222455250451143,0.33704092084085235,0.1
1.7264039408866994,0.9697263815051445,0.34495439691752405,0.1
1.7343965517241378,1.0172072379651746,0.35286787299419575,0.1
1.7423891625615762,1.0646880944252048,0.36078134907086745,0.1
1.7503817733990146,1.1121689508852348,0.36869482514753915,0.1
1.758374384236453,1.159649807345265,0.37660830122421085,0.1
1.7663669950738916,1.2071306638052965,0.38452177730088277,0.1
1.77435960591133,1.2546115202653265,0.39243525337755447,0.1
1.7823522167487684,1.4232758620689387,0.43522167487683966,0.13522167487683967
1.7903448275862068,5.5032019704433495,1.1871921182266008,1.0032019704433497
1.7983374384236452,5.5222319962467745,1.1110720150129019,1.0222319962467745
1.8063300492610836,5.5412620220502,1.0349519117992028,1.0412620220501994
1.814322660098522,5.560292047853624,0.9588318085855037,1.060292047853624
1.8223152709359605,5.579322073657049,0.8827117053718047,1.0793220736570488
1.8303078817733989,5.598352099460474,0.8065916021581057,1.0983520994604736
1.8383004926108373,5.617382125263898,0.7304714989444065,1.1173821252638982
1.8462931034482757,5.636412151067323,0.6543513957307076,1.136412151067323
1.854285714285714,5.655442176870748,0.5782312925170084,1.155442176870748
1.8622783251231525,5.674472202674173,0.5021111893033094,1.1744722026741725
1.870270935960591,5.693502228477597,0.42599108608961034,1.1935022284775973
1.8782635467980295,1.8314778325122936,-2.5734975369457733,-0.6578325123152576
1.886256157635468,0.5775437404450486,-0.2850291602966991,0.08128645037087392
1.8942487684729064,0.5224222863937493,-0.24828152426249953,0.03535190532812443
1.9022413793103448,0.4673008323424499,-0.21153388822829994,-0.010582639714625058
1.9102339901477832,0.41217937829115053,-0.17478625219410035,-0.05651718475737455
1.9182266009852216,0.35705792423985117,-0.13803861615990073,-0.10245172980012404
1.92621921182266,0.3019364701885518,-0.10129098012570115,-0.1483862748428735
1.9342118226600984,0.24681501613725237,-0.06454334409150156,-0.19432081988562303
1.9422044334975368,0.191693562085953,-0.02779570805730197,-0.2402553649283725
1.9501970443349752,0.13657210803465364,0.008951927976897645,-0.2861899099711219
1.9581896551724136,0.08145065398335427,0.045699564011097205,-0.33212445501387144
1.966182266009852,0.026329199932054848,0.08244720004529682,-0.37805900005662096
1.9741748768472904,0.0,-0.0365024630541918,-0.1365024630541918
1.9821674876847288,-0.19655707860355573,0.5931141572071115,0.19655707860355573
1.9901600985221675,-0.18786945812807895,0.5757389162561579,0.18786945812807895
1.9981527093596059,-0.17918183765260245,0.5583636753052048,0.17918183765260245
2.006145320197044,-0.17049421717712615,0.5409884343542523,0.17049421717712615
2.0141379310344827,-0.1618065967016494,0.5236131934032988,0.1618065967016494
2.022130541871921,-0.15311897622617313,0.5062379524523462,0.15311897622617313
2.0301231527093595,-0.14443135575069635,0.4888627115013927,0.14443135575069635
2.0381157635467977,-0.13574373527522007,0.47148747055044016,0.13574373527522007
2.0461083743842363,-0.12705611479974332,0.4541122295994866,0.12705611479974332
2.054100985221675,-0.11836849432426655,0.43673698864853305,0.11836849432426655
2.062093596059113,-0.10968087384879026,0.4193617476975805,0.10968087384879026
2.0700862068965518,-0.1009932533733135,0.401986506746627,0.1009932533733135
2.07807881773399,-0.4,-0.20203550515847168,0.0
2.0860714285714286,-0.4,-0.2171159029649597,0.0
2.0940640394088668,-0.4,-0.23219630077144685,0.0
2.1020566502463054,-0.4,-0.24727669857793486,0.0
2.1100492610837436,-0.4,-0.262357096384422,0.0
2.118041871921182,-0.4,-0.27743749419091,0.0
2.1260344827586204,-0.4,-0.2925178919973972,0.0
2.134027093596059,-0.4,-0.30759828980388515,0.0
2.142019704433497,-0.4,-0.32267868761037233,0.0
2.150012315270936,-0.4,-0.33775908541686034,0.0
2.158004926108374,-0.4,-0.3528394832233475,0.0
2.1659975369458127,-0.4,-0.3679198810298355,0.0
2.1739901477832513,-0.4,-0.3830002788363235,0.0
2.1819827586206895,-0.4,-0.39808067664281066,0.0
2.189975369458128,-0.770372976776918,-0.043209007741027344,0.043209007741027344
2.1979679802955663,-0.9,-0.0827996715927713,-0.02759989053092377
2.205960591133005,-0.9,-0.21600985221674995,-0.07200328407225
2.213953201970443,-0.9105471498944402,-0.31054714989444016,-0.10527357494722007
2.2219458128078817,-0.9390921885995781,-0.33909218859957807,-0.11954609429978905
2.22993842364532,-0.9676372273047145,-0.36763722730471443,-0.13381861365235723
2.2379310344827585,-0.9961822660098524,-0.39618226600985235,-0.14809113300492618
2.2459236453201967,-1.0247273047149887,-0.4247273047149887,-0.16236365235749436
2.2539162561576354,-1.0532723434201268,-0.4532723434201267,-0.17663617171006335
2.2619088669950735,-1.081817382125263,-0.48181738212526304,-0.19090869106263153
2.269901477832512,-1.2582624272279401,-0.5,-0.2527541424093134
2.277894088669951,-1.6942230183609515,-0.5,-0.39807433945365056
2.285886699507389,-2.393585112205802,-0.7,-0.7
2.2938793103448276,-2.375823754789272,-0.7,-0.7
2.301871921182266,-2.3580623973727426,-0.7,-0.7
2.3098645320197044,-2.3403010399562123,-0.7,-0.7
2.3178571428571426,-2.3225396825396833,-0.7,-0.7
2.3258497536945812,-2.304778325123153,-0.7,-0.7
2.3338423645320194,-2.2870169677066237,-0.7,-0.7
2.341834975369458,-2.2692556102900934,-0.7,-0.7
2.3498275862068962,-2.2514942528735644,-0.7,-0.7
2.357820197044335,-2.233732895457034,-0.7,-0.7
2.365812807881773,-2.2159715380405047,-0.7,-0.7
2.3738054187192117,-2.2,-0.7402709359605779,-0.7
2.38179802955665,-1.596004378763,-0.8,-0.5
2.3897906403940885,-1.57824302134647,-0.8,-0.5
2.397783251231527,-1.5604816639299397,-0.8,-0.5
2.4057758620689653,-1.5427203065134103,-0.8,-0.5
2.413768472906404,-1.5249589490968802,-0.8,-0.5
2.421761083743842,-1.5071975916803508,-0.8,-0.5
2.4297536945812808,-1.4894362342638208,-0.8,-0.5
2.437746305418719,-1.4716748768472914,-0.8,-0.5
2.4457389162561576,-1.453913519430761,-0.8,-0.5
2.4537315270935958,-1.436152162014232,-0.8,-0.5
2.4617241379310344,-1.4183908045977016,-0.8,-0.5
2.4697167487684726,-1.4006294471811724,-0.8,-0.5
2.477709359605911,-0.44187192118225244,-0.3645320197044369,-0.3645320197044369
2.4857019704433494,-0.9174550115612737,-0.6116366743741825,-0.40581833718709126
2.493694581280788,-0.9419221875942492,-0.6279481250628328,-0.4139740625314164
2.5016871921182267,-0.9663893636272246,-0.6442595757514831,-0.42212978787574157
2.509679802955665,-0.9908565396601987,-0.6605710264401324,-0.43028551322006625
2.5176724137931035,-1.015323715693174,-0.6768824771287827,-0.4384412385643914
2.5256650246305417,-1.0397908917261482,-0.6931939278174322,-0.44659696390871606
2.5336576354679803,-1.0642580677591236,-0.7095053785060824,-0.4547526892530412
2.5416502463054185,-1.0887252437920976,-0.7258168291947318,-0.46290841459736587
2.549642857142857,-1.113192419825073,-0.7421282798833821,-0.47106413994169105
2.5576354679802953,-1.137659595858047,-0.7584397305720315,-0.47921986528601573
2.565628078817734,-1.1621267718910224,-0.7747511812606818,-0.48737559063034086
2.573620689655172,-1.1865939479239966,-0.7910626319493311,-0.49553131597466554
2.5816133004926107,-1.344532019704432,-0.8,-0.5361330049261079
2.589605911330049,-1.6697044334975533,-0.9939408866995106,-0.7939408866995107
2.5975985221674875,-1.2700738916256311,-0.9140147783251262,-0.7140147783251262
2.6055911330049257,-0.852076002814923,-0.7760380014074615,-0.6760380014074614
2.6135837438423644,-0.7835679099225917,-0.7417839549612959,-0.6417839549612958
2.621576354679803,-0.7150598170302604,-0.7075299085151302,-0.6075299085151302
2.629568965517241,-0.6465517241379329,-0.6732758620689665,-0.5732758620689664
2.63756157635468,-0.5780436312456017,-0.6390218156228009,-0.5390218156228008
2.645554187192118,-0.5095355383532743,-0.6047677691766371,-0.5047677691766371
2.6535467980295566,-0.4410274454609429,-0.5705137227304715,-0.47051372273047154
2.661539408866995,-0.37251935256861546,-0.5362596762843077,-0.4362596762843078
2.6695320197044334,-0.3040112596762842,-0.5020056298381421,-0.40200562983814214
2.6775246305418716,-0.30950738916256654,-0.40950738916256657,-0.6
2.6855172413793102,-0.09425287356321864,-0.5942528735632187,-0.5942528735632187
2.6935098522167484,-0.0859272372742205,-0.5859272372742205,-0.5859272372742205
2.701502463054187,-0.0776016009852219,-0.5776016009852218,-0.5776016009852218
2.7094950738916252,-0.06927596469622375,-0.5692759646962238,-0.5692759646962238
2.717487684729064,-0.060950328407225154,-0.5609503284072251,-0.5609503284072251
2.725480295566502,-0.05262469211822701,-0.552624692118227,-0.552624692118227
2.7334729064039407,-0.04429905582922841,-0.5442990558292284,-0.5442990558292284
2.7414655172413793,-0.03597341954022981,-0.5359734195402298,-0.5359734195402298
2.7494581280788175,-0.02764778325123167,-0.5276477832512316,-0.5276477832512316
2.757450738916256,-0.01932214696223307,-0.5193221469622331,-0.5193221469622331
2.7654433497536943,-0.010996510673234927,-0.5109965106732349,-0.5109965106732349
2.773435960591133,-0.002670874384236313,-0.5026708743842363,-0.5026708743842363
2.781428571428571,-0.057142857142895215,-0.4571428571428952,-0.5
2.7894211822660098,0.015959531754859663,-0.40797976587742985,-0.4920202341225702
2.797413793103448,0.03314794215795254,-0.4165739710789763,-0.4834260289210237
2.8054064039408866,0.05033635256104637,-0.4251681762805232,-0.4748318237194768
2.8133990147783248,0.06752476296413926,-0.43376238148206964,-0.4662376185179304
2.8213916256157634,0.08471317336723308,-0.44235658668361655,-0.4576434133163835
2.8293842364532016,0.10190158377032596,-0.450950791885163,-0.449049208114837
2.83737684729064,0.1190899941734198,-0.4595449970867099,-0.4404550029132901
2.845369458128079,0.13627840457651363,-0.46813920228825684,-0.4318607977117432
2.853362068965517,0.15346681497960651,-0.47673340748980325,-0.42326659251019677
2.8613546798029557,0.17065522538270034,-0.48532761269135016,-0.41467238730864986
2.869347290640394,0.18784363578579322,-0.49392181789289663,-0.4060781821071034
2.8773399014778325,-0.03399014778323847,-0.26600985221676154,-0.24400656814450772
2.8853325123152707,-0.08856611610161444,-0.3,-0.20457355355935425
2.8933251231527093,-0.049386651212209344,-0.3,-0.22024533951511627
2.9013177339901475,-0.010207186322806427,-0.3,-0.23591712547087745
2.909310344827586,0.028972278566598675,-0.3,-0.25158891142663947
2.9173029556650243,0.06815174345600161,-0.3,-0.26726069738240066
2.925295566502463,0.10733120834540669,-0.3,-0.2829324833381627
2.933288177339901,0.14651067323480962,-0.3,-0.29860426929392386
2.9412807881773397,0.18569013812421473,-0.3,-0.3142760552496859
2.949273399014778,0.22486960301361766,-0.3,-0.32994784120544707
2.9572660098522165,0.26404906790302274,-0.3,-0.3456196271612091
2.965258620689655,0.3032285327924279,-0.3,-0.3612914131169711
2.9732512315270934,0.3424079976818307,-0.3,-0.37696319907273235
2.981243842364532,0.3815874625712359,-0.3,-0.39263498502849437
2.98923645320197,0.1381773399014981,-0.035270935960599256,-0.26763546798029964
2.997229064039409,-0.21536330049261013,0.1460899014778304,-0.21536330049261013
3.005221674876847,-0.29879042091401287,0.3987904209140129,-0.3
3.0132142857142856,-0.29087694483734094,0.390876944837341,-0.3
3.021206896551724,-0.28296346876066947,0.3829634687606695,-0.3
3.0291995073891624,-0.2750499926839976,0.3750499926839976,-0.3
3.0371921182266006,-0.2671365166073261,0.3671365166073261,-0.3
3.0451847290640393,-0.2592230405306542,0.35922304053065424,-0.3
3.0531773399014774,-0.2513095644539827,0.35130956445398276,-0.3
3.061169950738916,-0.2433960883773108,0.34339608837731084,-0.3
3.0691625615763547,-0.2354826123006389,0.3354826123006389,-0.3
3.077155172413793,-0.22756913622396743,0.32756913622396744,-0.3
3.0851477832512315,-0.21965566014729554,0.3196556601472955,-0.3
3.0931403940886697,-0.21174218407062406,0.31174218407062404,-0.3
3.1011330049261083,-0.20382870799395214,0.3038287079939521,-0.3
3.1091256157635465,-0.21256157635465409,0.45628078817732703,-0.3
3.117118226600985,-0.3,0.5,-0.3
3.1251108374384233,-0.3,0.5,-0.3
3.133103448275862,-0.3,0.5,-0.3
3.1410960591133,-0.3,0.5,-0.3
3.1490886699507388,-0.3,0.5,-0.3
3.157081280788177,-0.3,0.5,-0.3
3.1650738916256156,-0.3,0.5,-0.3
3.1730665024630538,-0.3,0.5,-0.3
3.1810591133004924,-0.1988232074438975,0.3,-0.2988232074438975
3.189051724137931,-0.18994252873563236,0.3,-0.28994252873563237
3.197044334975369,-0.1810618500273677,0.3,-0.28106185002736767
3.205036945812808,-0.17218117131910254,0.3,-0.2721811713191025
3.213029556650246,-0.16330049261083787,0.3,-0.2633004926108379
3.2210221674876847,-0.1544198139025727,0.3,-0.2544198139025727
3.229014778325123,-0.14553913519430806,0.3,-0.24553913519430803
3.2370073891625615,-0.13665845648604288,0.3,-0.2366584564860429
3.2449999999999997,-0.1277777777777782,0.3,-0.22777777777777822
3.2529926108374383,-0.11889709906951307,0.3,-0.21889709906951305
3.2609852216748765,-0.1100164203612484,0.3,-0.2100164203612484
3.268977832512315,-0.10113574165298324,0.3,-0.20113574165298326
3.2769704433497533,0.03300492610837006,0.06699507389162995,0.0
3.284963054187192,0.098036945812808,0.0,0.0
3.29295566502463,0.09004433497536982,0.0,0.0
3.3009482758620687,0.0820517241379312,0.0,0.0
3.3089408866995074,0.07405911330049259,0.0,0.0
3.3169334975369456,0.0660665024630544,0.0,0.0
3.324926108374384,0.05807389162561578,0.0,0.0
3.3329187192118224,0.0500812807881776,0.0,0.0
3.340911330049261,0.04208866995073897,0.0,0.0
3.348903940886699,0.0340960591133008,0.0,0.0
3.356896551724138,0.026103448275862168,0.0,0.0
3.364889162561576,0.018110837438423996,0.0,0.0
3.3728817733990146,0.010118226600985367,0.0,0.0
3.380874384236453,0.002125615763547181,0.0,0.0
3.3888669950738914,0.05133004926108568,0.0,0.0
3.3968596059113296,-0.0859605911329814,-0.1,0.0
3.4048522167487683,-0.1,-0.08953037766830875,0.0
3.412844827586207,-0.1,-0.0788735632183906,0.0
3.420837438423645,-0.1,-0.06821674876847306,0.0
3.4288300492610837,-0.1,-0.057559934318554905,0.0
3.436822660098522,-0.1,-0.04690311986863735,0.0
3.4448152709359605,-0.1,-0.036246305418719205,0.0
3.4528078817733987,-0.1,-0.025589490968801643,0.0
3.4608004926108373,-0.1,-0.014932676518883498,0.0
3.4687931034482755,-0.1,-0.0042758620689659355,0.0
3.476785714285714,-0.0892857142857127,-0.0107142857142873,0.0
3.4847783251231523,-0.19385284561366783,0.09385284561366783,0.0
3.492770935960591,-0.18535006812703098,0.08535006812703097,0.0
3.500763546798029,-0.1768472906403946,0.0768472906403946,0.0
3.5087561576354678,-0.16834451315375776,0.06834451315375775,0.0
3.516748768472906,-0.15984173566712137,0.059841735667121365,0.0
3.5247413793103446,-0.1513389581804845,0.05133895818048451,0.0
3.532733990147783,-0.14283618069384768,0.04283618069384766,0.0
3.5407266009852214,-0.13433340320721127,0.034333403207211274,0.0
3.54871921182266,-0.12583062572057443,0.02583062572057443,0.0
3.556711822660098,-0.11732784823393805,0.017327848233938042,0.0
3.564704433497537,-0.1088250707473012,0.008825070747301197,0.0
3.572697044334975,-0.10032229326066482,0.00032229326066481045,0.0
3.5806896551724137,0.0,-0.08448275862068352,-0.16896551724136705
3.588682266009852,-0.007680765528565501,-0.20768076552856551,-0.0923192344714345
3.5966748768472905,-0.01686767453711563,-0.21686767453711564,-0.08313232546288438
3.6046674876847287,-0.02605458354566525,-0.22605458354566527,-0.07394541645433475
3.6126600985221673,-0.035241492554215374,-0.2352414925542154,-0.06475850744578462
3.6206527093596055,-0.044428401562764994,-0.244428401562765,-0.05557159843723501
3.628645320197044,-0.053615310571315127,-0.25361531057131514,-0.04638468942868488
3.6366379310344823,-0.06280221957986475,-0.2628022195798647,-0.03719778042013526
3.644630541871921,-0.07198912858841487,-0.27198912858841484,-0.028010871411585134
3.6526231527093596,-0.081176037596965,-0.28117603759696497,-0.018823962403035008
3.6606157635467977,-0.09036294660551462,-0.2903629466055146,-0.009637053394485381
3.6686083743842364,-0.09954985561406475,-0.2995498556140647,-0.0004501443859352555
3.6766009852216746,0.013300492610849174,-0.11330049261084921,0.09334975369457542
3.684593596059113,0.2,-0.3,0.0
3.6925862068965514,0.2,-0.3,0.0
3.70057881773399,0.2,-0.3,0.0
3.708571428571428,0.2,-0.3,0.0
3.716564039408867,0.2,-0.3,0.0
3.724556650246305,0.2,-0.3,0.0
3.7325492610837436,0.2,-0.3,0.0
3.740541871921182,0.2,-0.3,0.0
3.7485344827586204,0.2,-0.3,0.0
3.756527093596059,0.2,-0.3,0.0
3.7645197044334973,0.2,-0.3,0.0
3.772512315270936,0.2,-0.3,0.0
3.780504926108374,0.2,-0.3,0.0
3.7884975369458127,0.1550246305418721,-0.3,0.0
3.796490147783251,0.12075123152709041,-0.3,0.0
3.8044827586206895,0.18735632183907894,-0.3,0.0
3.8124753694581277,0.3,-0.19465327775672686,0.005346722243273146
3.8204679802955663,0.3,-0.18235695339143665,0.01764304660856336
3.8284605911330045,0.3,-0.17006062902614713,0.029939370973852884
3.836453201970443,0.3,-0.15776430466085692,0.04223569533914309
3.8444458128078813,0.3,-0.1454679802955674,0.054532019704432624
3.85243842364532,0.3,-0.1331716559302772,0.06682834406972284
3.860431034482758,0.3,-0.12087533156498766,0.07912466843501235
3.868423645320197,0.3,-0.10857900719969744,0.09142099280030257
3.8764162561576354,0.3,-0.2,0.02918719211822174
3.8844088669950736,0.40469028403731244,-0.004690284037312434,0.004690284037312434
3.8924014778325122,0.41319306152394925,-0.013193061523949248,0.013193061523949248
3.9003940886699504,0.4216958390105856,-0.021695839010585586,0.021695839010585586
3.908386699507389,0.4301986164972224,-0.0301986164972224,0.0301986164972224
3.9163793103448272,0.43870139398385877,-0.03870139398385874,0.03870139398385874
3.924371921182266,0.44720417147049557,-0.047204171470495555,0.047204171470495555
3.932364532019704,0.4557069489571319,-0.055706948957131894,0.055706948957131894
3.9403571428571427,0.4642097264437687,-0.06420972644376871,0.06420972644376871
3.948349753694581,0.47271250393040504,-0.07271250393040504,0.07271250393040504
3.9563423645320195,0.48121528141704184,-0.08121528141704186,0.08121528141704186
3.9643349753694577,0.4897180589036782,-0.0897180589036782,0.0897180589036782
3.9723275862068963,0.498220836390315,-0.09822083639031502,0.09822083639031502
3.980320197044335,0.4002501539408867,-0.19974984605911333,0.1
3.988312807881773,0.4064943811576353,-0.19350561884236472,0.1
3.9963054187192117,0.41273860837438425,-0.18726139162561578,0.1
4.00429802955665,0.41898283559113286,-0.1810171644088672,0.1
4.012290640394088,0.4252270628078814,-0.1747729371921186,0.1
4.020283251231527,0.43147129002463075,-0.16852870997536928,0.1
4.028275862068965,0.4377155172413793,-0.1622844827586207,0.1
4.036268472906404,0.4439597444581279,-0.1560402555418721,0.1
4.044261083743842,0.4502039716748765,-0.1497960283251235,0.1
4.052253694581281,0.4564481988916258,-0.1435518011083742,0.1
4.060246305418719,0.4626924261083744,-0.13730757389162562,0.1
4.068238916256157,0.468936653325123,-0.131063346674877,0.1
4.076231527093595,0.4751808805418716,-0.1248191194581284,0.1
4.0842241379310344,0.4814251077586209,-0.11857489224137911,0.1
4.092216748768473,0.48766933497536946,-0.11233066502463052,0.1
4.100209359605911,0.49391356219211807,-0.10608643780788192,0.1
4.10820197044335,0.5,-0.1,0.12019704433501738
4.116194581280788,0.5019950738916257,0.1,0.29800492610837437
4.124187192118226,0.5092610837438422,0.1,0.29073891625615783
4.1321798029556644,0.5165270935960586,0.1,0.28347290640394135
4.1401724137931035,0.523793103448276,0.1,0.27620689655172403
4.148165024630542,0.5310591133004925,0.1,0.2689408866995075
4.15615763546798,0.538325123152709,0.1,0.261674876847291
4.164150246305418,0.5455911330049255,0.1,0.2544088669950745
4.172142857142857,0.5528571428571428,0.1,0.24714285714285716
4.180135467980295,0.5601231527093593,0.1,0.23987684729064068
4.1881280788177335,0.5673891625615758,0.1,0.23261083743842415
4.196120689655172,0.5746551724137924,0.1,0.22534482758620766
4.204113300492611,0.5819211822660096,0.1,0.21807881773399035
4.212105911330049,0.5891871921182261,0.1,0.2108128078817738
4.220098522167487,0.5964532019704427,0.1,0.20354679802955733
4.228091133004926,0.6,0.1681855500820979,0.2
4.236083743842364,0.698029556650247,0.5,0.20197044334975292
4.244076354679803,0.6834975369458139,0.5,0.21650246305418605
4.252068965517241,0.6689655172413808,0.5,0.23103448275861918
4.26006157635468,0.654433497536946,0.5,0.24556650246305395
4.268054187192118,0.6399014778325129,0.5,0.2600985221674871
4.276046798029556,0.6253694581280798,0.5,0.2746305418719202
4.284039408866994,0.6108374384236466,0.5,0.28916256157635334
4.2920320197044335,0.5483990147783384,0.5483990147783384,0.3
4.300024630541872,0.39448680747688847,0.6,0.5055131925231116
4.30801724137931,0.383538025507795,0.6,0.516461974492205
4.316009852216748,0.3725892435387015,0.6,0.5274107564612985
4.324002463054187,0.36164046156960683,0.6,0.5383595384303932
4.331995073891625,0.35069167960051334,0.6,0.5493083203994866
4.3399876847290635,0.33974289763141985,0.6,0.5602571023685802
4.347980295566503,0.32879411566232514,0.6,0.5712058843376748
4.355972906403941,0.31784533369323165,0.6,0.5821546663067683
4.363965517241379,0.30689655172413816,0.6,0.5931034482758618
4.371958128078817,-0.06387520525445224,0.7319376026272261,0.7159688013136131
4.379950738916256,-0.4049261083743707,0.5049261083743707,0.6024630541871854
4.387943349753694,-0.4,0.48378908213531735,0.6
4.395935960591133,-0.4,0.467477631446668,0.6
4.403928571428571,-0.4,0.4511661807580186,0.6
4.41192118226601,-0.4,0.4348547300693674,0.6
4.419913793103448,-0.4,0.418543279380718,0.6
4.427906403940886,-0.4,0.40223182869206864,0.6
4.435899014778325,-0.4,0.38592037800341744,0.6
4.4438916256157635,-0.4,0.3696089273147681,0.6
4.451884236453202,-0.4,0.35329747662611866,0.6
4.45987684729064,-0.4,0.3369860259374693,0.6
4.467869458128079,-0.4,0.32067457524881815,0.6
4.475862068965517,-0.4,0.30436312456016873,0.6
4.483854679802955,-0.4731834975369438,0.3,0.5268165024630562
4.4918472906403935,-0.7,0.2,0.47152709359606365
4.4998399014778325,-0.6977299960058572,0.2,0.4
4.507832512315271,-0.6761283450938622,0.2,0.4
4.515825123152709,-0.6545266941818674,0.2,0.4
4.523817733990147,-0.6329250432698725,0.2,0.4
4.531810344827586,-0.6113233923578751,0.2,0.4
4.539802955665024,-0.5897217414458803,0.2,0.4
4.5477955665024625,-0.5681200905338855,0.2,0.4
4.555788177339902,-0.5465184396218882,0.2,0.4
4.56378078817734,-0.5249167887098933,0.2,0.4
4.571773399014778,-0.5033151377978984,0.2,0.4
4.579766009852216,0.0017022441160364928,-0.09914887794198175,0.09914887794198175
4.587758620689655,0.019463601532567796,-0.09026819923371611,0.09026819923371611
4.595751231527093,0.03722495894909713,-0.08138752052545144,0.08138752052545144
4.603743842364532,0.05498631636562646,-0.07250684181718678,0.07250684181718678
4.61173645320197,0.07274767378215578,-0.0636261631089221,0.0636261631089221
4.619729064039409,0.09050903119868708,-0.05474548440065646,0.05474548440065646
4.627721674876847,0.10827038861521641,-0.0458648056923918,0.0458648056923918
4.635714285714285,0.12603174603174574,-0.03698412698412713,0.03698412698412713
4.643706896551723,0.1437931034482751,-0.02810344827586246,0.02810344827586246
4.6516995073891625,0.16155446086480638,-0.019222769567596817,0.019222769567596817
4.659692118226601,0.17931581828133572,-0.010342090859332145,0.010342090859332145
4.667684729064039,0.19707717569786504,-0.0014614121510674871,0.0014614121510674871
4.675677339901478,0.5983392674242797,0.2,0.0
4.683669950738916,0.5904257913476082,0.2,0.0
4.691662561576354,0.5825123152709367,0.2,0.0
4.6996551724137925,0.5745988391942652,0.2,0.0
4.707647783251232,0.5666853631175929,0.2,0.0
4.71564039408867,0.5587718870409214,0.2,0.0
4.723633004926108,0.5508584109642499,0.2,0.0
4.731625615763546,0.5429449348875784,0.2,0.0
4.739618226600985,0.5350314588109061,0.2,0.0
4.747610837438423,0.5271179827342346,0.2,0.0
4.755603448275862,0.5192045066575631,0.2,0.0
4.7635960591133,0.5112910305808916,0.2,0.0
4.771588669950739,0.5033775545042194,0.2,0.0
4.779581280788177,0.5,0.10837438423646494,0.0
4.787573891625615,0.2,0.2,0.1
4.795566502463054,0.2,0.2,0.1
4.8035591133004925,0.2,0.2,0.1
4.811551724137931,0.2,0.2,0.1
4.819544334975369,0.2,0.2,0.1
4.827536945812808,0.2,0.2,0.1
4.835529556650246,0.2,0.2,0.1
4.843522167487684,0.2,0.2,0.1
4.8515147783251225,0.2,0.2,0.1
4.8595073891625615,0.2,0.2,0.1
4.8675,0.2,0.2,0.1
4.875492610837438,0.2,0.2,0.1
4.883485221674876,0.2,0.2,0.1
4.891477832512315,0.1,0.3,0.12477832512314979
4.899470443349753,0.1,0.3,0.19865587614356195
4.9074630541871915,0.1,0.3,0.17581984517945293
4.915455665024631,0.1,0.3,0.1529838142153414
4.923448275862069,0.1,0.3,0.13014778325123239
4.931440886699507,0.1,0.3,0.10731175228712338
4.939433497536945,0.1,0.3,0.08447572132301435
4.947426108374384,0.1,0.3,0.06163969035890282
4.955418719211822,0.1,0.3,0.0388036593947938
4.963411330049261,0.1,0.3,0.015967628430684805
4.971403940886699,0.008078817733974291,0.18384236453205144,0.0
4.979396551724138,0.1,0.1,0.1
4.987389162561576,0.1,0.1,0.1
4.995381773399014,0.1,0.1,0.1
5.003374384236453,0.1,0.1,0.1
5.0113669950738915,0.1,0.1,0.1
5.01935960591133,0.1,0.1,0.1
5.027352216748768,0.1,0.1,0.1
5.035344827586207,0.1,0.1,0.1
5.043337438423645,0.1,0.1,0.1
5.051330049261083,0.1,0.1,0.1
5.0593226600985215,0.1,0.1,0.1
5.067315270935961,0.1,0.1,0.1
5.075307881773399,0.1,0.1,0.1
5.083300492610837,0.1,0.1,0.1
5.091293103448275,0.1,0.1,0.1
5.099285714285714,0.1,0.1,0.1
5.107278325123152,-0.23916256157632676,-0.20825123152710195,-0.05566502463053069
5.115270935960591,-0.1,-0.17233410605621785,0.11844392929585476
5.12326354679803,-0.1,-0.13707258765575114,0.14195160822949923
5.131256157635468,-0.1,-0.10181106925528838,0.16545928716314107
5.139248768472906,-0.1,-0.06654955085482558,0.18896696609678293
5.147241379310344,-0.1,-0.03128803245436282,0.2124746450304248
5.155233990147783,-0.1,0.0039734859461038885,0.23598232396406926
5.1632266009852215,-0.1,0.03923500434656668,0.25949000289771107
5.17121921182266,-0.1,0.07449652274702945,0.282997681831353
5.179211822660098,0.08940886699512082,-0.2105911330048792,-0.2364532019707249
5.187204433497537,-0.10299479766124929,-0.19401040467750144,0.0
5.195197044334975,-0.1104645274158644,-0.1790709451682712,0.0
5.203189655172413,-0.1179342571704795,-0.164131485659041,0.0
5.2111822660098515,-0.12540398692509463,-0.14919202614981075,0.0
5.2191748768472905,-0.13287371667971057,-0.13425256664057889,0.0
5.227167487684729,-0.14034344643432567,-0.11931310713134866,0.0
5.235160098522167,-0.1478131761889408,-0.10437364762211844,0.0
5.243152709359606,-0.15528290594355673,-0.08943418811288655,0.0
5.251145320197044,-0.16275263569817183,-0.07449472860365633,0.0
5.259137931034482,-0.17022236545278696,-0.0595552690944261,0.0
5.2671305418719205,-0.1776920952074021,-0.04461580958519587,0.0
5.27512315270936,-0.185161824962018,-0.029676350075964003,0.0
5.283115763546798,-0.19263155471663312,-0.014736890566733774,0.0
5.291108374384236,-0.2,0.005418719211781095,0.005418719211781095
5.299100985221674,-0.3,0.2,0.0979802955665155
5.307093596059113,-0.26133004926108794,0.16133004926108793,0.07733990147782414
5.315086206896551,-0.2,0.0948563218390814,0.1948563218390814
5.32307881773399,-0.2,0.08153530377668433,0.18153530377668434
5.331071428571428,-0.2,0.06821428571428727,0.16821428571428726
5.339064039408867,-0.2,0.054893267651888726,0.15489326765188874
5.347056650246305,-0.2,0.04157224958949166,0.14157224958949166
5.355049261083743,-0.2,0.028251231527094592,0.1282512315270946
5.363041871921182,-0.2,0.014930213464696057,0.11493021346469606
5.3710344827586205,-0.2,0.0016091954022989935,0.101609195402299
5.379027093596059,0.0,0.1,0.1
5.387019704433497,0.0,0.1,0.1
5.395012315270936,0.0,0.1,0.1
5.403004926108374,0.0,0.1,0.1
5.410997536945812,0.0,0.1,0.1
5.4189901477832505,0.0,0.1,0.1
5.42698275862069,0.0,0.1,0.1
5.434975369458128,0.0,0.1,0.1
5.442967980295566,0.0,0.1,0.1
5.450960591133004,0.0,0.1,0.1
5.458953201970443,0.0,0.1,0.1
5.466945812807881,0.0,0.1,0.1
5.47493842364532,0.1,0.15802251935258155,0.1
5.482931034482759,0.0,0.1,0.0
5.490923645320197,0.0,0.1,0.0
5.498916256157635,0.0,0.1,0.0
5.506908866995073,0.0,0.1,0.0
5.514901477832512,0.0,0.1,0.0
5.5228940886699505,0.0,0.1,0.0
5.530886699507389,0.0,0.1,0.0
5.538879310344827,0.0,0.1,0.0
5.546871921182266,0.0,0.1,0.0
5.554864532019704,0.0,0.1,0.0
5.562857142857142,0.0,0.1,0.0
5.570849753694581,0.0,0.1,0.0
5.5788423645320195,-0.09919774806474357,-0.1,0.0
5.586834975369458,-0.09158573774337384,-0.1,0.0
5.594827586206896,-0.08397372742200411,-0.1,0.0
5.602820197044335,-0.07636171710063352,-0.1,0.0
5.610812807881773,-0.06874970677926379,-0.1,0.0
5.618805418719211,-0.06113769645789406,-0.1,0.0
5.6267980295566495,-0.05352568613652432,-0.1,0.0
5.634790640394089,-0.045913675815153744,-0.1,0.0
5.642783251231527,-0.038301665493784005,-0.1,0.0
5.650775862068965,-0.030689655172414274,-0.1,0.0
5.658768472906403,-0.023077644851044535,-0.1,0.0
5.666761083743842,-0.015465634529673963,-0.1,0.0
5.67475369458128,-0.007853624208304225,-0.1,0.0
5.682746305418719,-0.00024161388693448582,-0.1,0.0
5.690738916256158,0.0,-0.1,0.0
5.698731527093596,0.0,0.0,0.0
5.706724137931034,0.0,0.0,0.0
5.714716748768472,0.0,0.0,0.0
5.722709359605911,0.0,0.0,0.0
5.7307019704433495,0.0,0.0,0.0
5.738694581280788,0.0,0.0,0.0
5.746687192118226,0.0,0.0,0.0
5.754679802955665,0.0,0.0,0.0
5.762672413793103,0.0,0.0,0.0
5.770665024630541,0.08325123152706866,-0.08325123152706866,0.0
5.7786576354679795,0.1,0.0,0.0
5.786650246305419,0.1,0.0,0.0
5.794642857142857,0.1,0.0,0.0
5.802635467980295,0.1,0.0,0.0
5.810628078817734,0.1,0.0,0.0
5.818620689655172,0.1,0.0,0.0
5.82661330049261,0.1,0.0,0.0
5.834605911330049,0.1,0.0,0.0
5.842598522167488,0.1,0.0,0.0
5.850591133004926,0.1,0.0,0.0
5.858583743842364,0.1,0.0,0.0
5.866576354679802,0.1,0.0,0.0
5.874568965517241,0.0,-0.1,0.0
5.8825615763546795,0.1,0.0,0.0
5.890554187192118,0.1,0.0,0.0
5.898546798029556,0.1,0.0,0.0
5.906539408866995,0.1,0.0,0.0
5.914532019704433,0.1,0.0,0.0
5.922524630541871,0.1,0.0,0.0
5.93051724137931,0.1,0.0,0.0
5.9385098522167485,0.1,0.0,0.0
5.946502463054187,0.1,0.0,0.0
5.954495073891625,0.1,0.0,0.0
5.962487684729064,0.1,0.0,0.0
5.970480295566502,0.02598522167489857,0.0,0.0
5.97847290640394,0.1,0.0,0.0
5.9864655172413785,0.1,0.006099544567337853,0.0
5.994458128078818,0.1,0.013639743470582272,0.0
6.002450738916256,0.1,0.021179942373825852,0.0
6.010443349753694,0.1,0.028720141277069434,0.0
6.018435960591132,0.1,0.03626034018031302,0.0
6.026428571428571,0.1,0.04380053908355743,0.0
6.034421182266009,0.1,0.05134073798680101,0.0
6.042413793103448,0.1,0.058880936890044595,0.0
6.050406403940887,0.1,0.06642113579328901,0.0
6.058399014778325,0.1,0.0739613346965326,0.0
6.066391625615763,0.1,0.08150153359977617,0.0
6.074384236453201,0.1,0.08904173250301976,0.0
6.08237684729064,0.1,0.09658193140626417,0.0
6.0903694581280785,0.1257026948710491,0.1,0.025702694871049096
6.098362068965517,0.17271805273833404,0.1,0.07271805273833404
6.106354679802955,0.13226600985227002,0.0,0.0
6.114347290640394,0.09130508131452841,0.1,-0.008694918685471596
6.122339901477832,0.08035629934543506,0.1,-0.01964370065456494
6.13033251231527,0.06940751737634172,0.1,-0.030592482623658285
6.138325123152709,0.05845873540724716,0.1,-0.04154126459275285
6.146317733990148,0.04750995343815381,0.1,-0.05249004656184619
6.154310344827586,0.03656117146906046,0.1,-0.06343882853093954
6.162302955665024,0.025612389499967123,0.1,-0.07438761050003288
6.170295566502463,0.014663607530872563,0.1,-0.08533639246912744
6.178288177339901,0.0037148255617792114,0.1,-0.0962851744382208
6.186280788177339,0.03596059113303206,0.1,0.0
6.194273399014778,0.0,0.09372214403002674,-0.0062778559699732716
6.202266009852217,0.0,0.08420713112831352,-0.015792868871686495
6.210258620689655,0.0,0.07469211822660134,-0.025307881773398665
6.218251231527093,0.0,0.06517710532488917,-0.034822894675110835
6.226243842364531,0.0,0.055662092423177004,-0.044337907576823
6.23423645320197,0.0,0.04614707952146378,-0.05385292047853622
6.2422290640394085,0.0,0.036632066619751616,-0.06336793338024839
6.250221674876847,0.0,0.02711705371803945,-0.07288294628196056
6.258214285714286,0.0,0.017602040816326214,-0.08239795918367379
6.266206896551724,0.0,0.008087027914614048,-0.09191297208538596
6.274199507389162,0.0,0.0,-0.1
6.2821921182266,0.09649217777296663,0.0,-0.003507822227033367
6.290184729064039,0.08770908894061602,0.0,-0.012290911059383978
6.2981773399014775,0.07892600010826639,0.0,-0.021073999891733614
6.306169950738916,0.07014291127591676,0.0,-0.02985708872408325
6.314162561576354,0.06135982244356712,0.0,-0.038640177556432884
6.322155172413793,0.05257673361121651,0.0,-0.0474232663887835
6.330147783251231,0.04379364477886687,0.0,-0.05620635522113313
6.338140394088669,0.03501055594651724,0.0,-0.06498944405348277
6.3461330049261075,0.026227467114167596,0.0,-0.07377253288583241
6.354125615763547,0.017444378281816997,0.0,-0.08255562171818301
6.362118226600985,0.008661289449467355,0.0,-0.09133871055053265
6.370110837438423,0.0,0.0,-0.0944581280788552
6.378103448275862,0.0,0.0,0.0
6.3860960591133,0.0,0.0,0.0
6.394088669950738,0.0,0.0,0.0
6.402081280788177,0.0,0.0,0.0
6.410073891625616,0.0,0.0,0.0
6.418066502463054,0.0,0.0,0.0
6.426059113300492,0.0,0.0,0.0
6.43405172413793,0.0,0.0,0.0
6.442044334975369,0.0,0.0,0.0
6.4500369458128075,0.0,0.0,0.0
6.458029556650246,0.0,0.0,0.0
6.466022167487684,0.0,0.0,0.0
6.474014778325123,0.0,0.0,0.0
6.482007389162561,0.0,0.0,-0.016789819376020487
6.49,0.0,0.0,0.0
