accel_time_list,vertical_Accel_x,vertical_Accel_y,vertical_Accel_z
0.0,1.716,-2.738,10.632
0.007998542274052478,-1.1398036969889997,-1.9543998579023445,8.896897493691355
0.015997084548104955,-1.0180779822132935,-1.973623245216454,8.95214792855918
0.02399562682215743,-0.8963522674375873,-1.9928466325305632,9.007398363427004
0.03199416909620991,-0.7746265526618811,-2.0120700198446726,9.062648798294829
0.03999271137026239,-0.6529008378861748,-2.031293407158782,9.117899233162653
0.04799125364431486,-0.5311751231104688,-2.050516794472891,9.173149668030478
0.05598979591836734,-0.4094494083347625,-2.0697401817870005,9.228400102898302
0.06398833819241982,-0.28772369355905625,-2.08896356910111,9.283650537766126
0.0719868804664723,-0.16599797878335032,-2.108186956415219,9.338900972633951
0.07998542274052478,-0.044272264007643836,-2.1274103437293284,9.394151407501777
0.08798396501457725,0.0774534507680622,-2.146633731043438,9.449401842369602
0.09598250728862973,0.19917916554376824,-2.1658571183575472,9.504652277237426
0.10398104956268221,0.32090488031947473,-2.1850805056716562,9.55990271210525
0.11197959183673468,0.44263059509518077,-2.2043038929857657,9.615153146973075
0.11997813411078717,0.564356309870887,-2.223527280299875,9.6704035818409
0.12797667638483964,0.02544023323615452,-2.219221574344023,8.94504956268222
0.13597521865889212,0.1394925443391643,-2.5927467353012634,9.225575938411078
0.1439737609329446,0.10491551263362497,-2.59716259718173,9.231324890670553
0.1519723032069971,0.07033848092808552,-2.601578459062196,9.237073842930029
0.15997084548104956,0.03576144922254618,-2.6059943209426626,9.242822795189504
0.16796938775510203,0.0011844175170068472,-2.610410182823129,9.24857174744898
0.1759679300291545,-0.03339261418853248,-2.6148260447035954,9.254320699708455
0.18396647230320698,-0.06796964589407184,-2.619241906584062,9.26006965196793
0.19196501457725945,-0.10254667759961114,-2.6236577684645286,9.265818604227405
0.19996355685131195,-0.13712370930515064,-2.628073630344995,9.27156755648688
0.20796209912536442,-0.17170074101068997,-2.6324894922254614,9.277316508746356
0.2159606413994169,-0.2062777727162293,-2.6369053541059277,9.283065461005831
0.22395918367346937,-0.24085480442176863,-2.641321215986394,9.288814413265307
0.23195772594752184,0.07960183256976294,-2.4847509371095384,9.572159100374845
0.23995626822157434,-0.10600989341872583,-2.427792907326865,9.492683171629308
0.24795481049562682,-0.13118563303541558,-2.417696386751422,9.481668785547006
0.2559533527696793,-0.1563613726521053,-2.4075998661759783,9.470654399464705
0.2639518950437318,-0.18153711226879515,-2.3975033456005352,9.459640013382401
0.27195043731778423,-0.20671285188548483,-2.3874068250250917,9.4486256273001
0.27994897959183673,-0.23188859150217467,-2.3773103044496486,9.437611241217798
0.2879475218658892,-0.25706433111886434,-2.367213783874205,9.426596855135497
0.2959460641399417,-0.2822400707355542,-2.357117263298762,9.415582469053195
0.3039446064139942,-0.12483381924198256,-2.5288239067055396,9.43144023323615
0.3119431486880466,-0.12944229834791066,-2.528939747327503,9.307927235179786
0.3199416909620991,-0.11411175898931003,-2.443621963070943,9.271267249757047
0.32794023323615157,-0.11018064730412963,-2.4248078200538807,9.278739214673212
0.33593877551020407,-0.10633324722293983,-2.4064820459829503,9.286535262206149
0.34393731778425657,-0.10248584714175002,-2.38815627191202,9.294331309739086
0.351935860058309,-0.09863844706056023,-2.3698304978410896,9.302127357272024
0.3599344023323615,-0.09479104697937042,-2.351504723770159,9.30992340480496
0.36793294460641396,-0.09094364689818063,-2.333178949699229,9.317719452337897
0.37593148688046646,-0.08709624681699082,-2.3148531756282984,9.325515499870836
0.3839300291545189,-0.08324884673580105,-2.296527401557368,9.333311547403772
0.3919285714285714,-0.07940144665461123,-2.2782016274864376,9.341107594936709
0.3999271137026239,-0.030571428571429776,-2.270807580174927,9.346145772594753
0.40792565597667635,0.0019758309037901482,-2.3339358746355687,9.217777886297375
0.41592419825072885,-0.006182682215743403,-2.3354555976676385,9.225536472303206
0.4239227405247813,-0.014341195335276901,-2.3369753206997084,9.233295058309038
0.4319212827988338,-0.022499708454810453,-2.3384950437317786,9.241053644314869
0.4399198250728863,-0.030658221574344002,-2.3400147667638485,9.248812230320699
0.44791836734693874,-0.0388167346938775,-2.3415344897959183,9.25657081632653
0.45591690962099124,-0.04697524781341105,-2.3430542128279885,9.264329402332361
0.4639154518950437,-0.055133760932944545,-2.3445739358600584,9.272087988338193
0.4719139941690962,-0.06329227405247809,-2.346093658892128,9.279846574344024
0.4799125364431487,-0.07145078717201164,-2.347613381924198,9.287605160349855
0.48791107871720113,-0.07960930029154514,-2.3491331049562683,9.295363746355685
0.49590962099125363,-0.0877678134110787,-2.350652827988338,9.303122332361516
0.5039081632653061,-0.08637244897959231,-2.3111326530612266,9.327255102040816
0.5119067055393586,-0.32630443197687237,-2.5584580689418623,9.64837511331063
0.5199052478134111,-0.32758151015508247,-2.564574601269079,9.645753742313252
0.5279037900874636,-0.3288585883332925,-2.5706911335962954,9.643132371315872
0.535902332361516,-0.33013566651150256,-2.5768076659235124,9.640511000318494
0.5439008746355685,-0.3314127446897126,-2.582924198250729,9.637889629321116
0.551899416909621,-0.33268982286792265,-2.5890407305779455,9.635268258323737
0.5598979591836735,-0.33396690104613275,-2.595157262905162,9.632646887326358
0.567896501457726,-0.3352439792243428,-2.6012737952323786,9.63002551632898
0.5758950437317784,-0.33652105740255284,-2.607390327559595,9.627404145331601
0.5838935860058309,-0.3377981355807629,-2.613506859886812,9.624782774334223
0.5918921282798834,-0.339075213758973,-2.6196233922140286,9.622161403336845
0.5998906705539359,-0.340352291937183,-2.625739924541245,9.619540032339465
0.6078892128279884,-0.34162937011539307,-2.6318564568684617,9.616918661342087
0.6158877551020407,-0.3429064482936031,-2.6379729891956782,9.614297290344709
0.6238862973760932,-0.34418352647181316,-2.644089521522895,9.61167591934733
0.6318848396501457,-0.39405976676384535,-2.454564139941693,9.700249271137029
0.6398833819241982,-0.3257752218626854,-2.5958108160061513,9.740829301893442
0.6478819241982507,-0.3170735110370679,-2.5974808413161186,9.74047771761766
0.6558804664723031,-0.30837180021145044,-2.5991508666260854,9.740126133341876
0.6638790087463556,-0.2996700893858329,-2.6008208919360523,9.739774549066095
0.6718775510204081,-0.29096837856021535,-2.6024909172460196,9.739422964790311
0.6798760932944606,-0.2822666677345978,-2.6041609425559864,9.73907138051453
0.6878746355685131,-0.2735649569089802,-2.6058309678659533,9.738719796238746
0.6958731778425655,-0.26486324608336276,-2.60750099317592,9.738368211962964
0.703871720116618,-0.2561615352577452,-2.6091710184858874,9.738016627687182
0.7118702623906705,-0.24745982443212766,-2.6108410437958542,9.737665043411399
0.719868804664723,-0.23875811360651011,-2.612511069105821,9.737313459135617
0.7278673469387755,-0.231,-2.614,9.737
0.7358658892128279,-0.08833381924198505,-2.571287172011661,9.45072157434403
0.7438644314868804,-0.12477137998056331,-2.4768939504373177,9.357588799805638
0.7518629737609329,-0.1874266277939745,-2.4389008746355687,9.298266277939748
0.7598615160349854,-0.1,-2.5755232365867453,9.113442213132588
0.7678600583090378,-0.1,-2.7642649580087877,9.044798007049302
0.7758586005830903,-0.1,-2.9530066794308327,8.976153800966015
0.7838571428571428,-0.1,-3.1417484008528778,8.907509594882729
0.7918556851311953,-0.1,-3.330490122274923,8.838865388799443
0.7998542274052478,-0.1,-3.519231843696968,8.770221182716156
0.8078527696793002,-0.1,-3.70797356511901,8.701576976632872
0.8158513119533527,-0.1,-3.8967152865410553,8.632932770549585
0.8238498542274052,-0.1,-4.0854570079631,8.564288564466299
0.8318483965014577,-0.03586005830903771,-4.032236151603499,8.36072303206997
0.8398469387755102,-0.20432240311855082,-3.9802102728731943,8.3900350836964
0.8478454810495626,-0.2133095292691715,-3.982726668195368,8.377632849608544
0.8558440233236151,-0.22229665541979227,-3.985243063517542,8.365230615520687
0.8638425655976676,-0.23128378157041304,-3.9877594588397156,8.35282838143283
0.8718411078717201,-0.24027090772103382,-3.9902758541618892,8.340426147344974
0.8798396501457726,-0.2492580338716546,-3.9927922494840633,8.328023913257116
0.887838192419825,-0.25824516002227527,-3.995308644806237,8.31562167916926
0.8958367346938775,-0.267232286172896,-3.9978250401284106,8.303219445081403
0.90383527696793,-0.27621941232351677,-4.000341435450585,8.290817210993547
0.9118338192419825,-0.28520653847413757,-4.002857830772759,8.27841497690569
0.919832361516035,-0.2941936646247584,-4.005374226094932,8.266012742817832
0.9278309037900874,-0.630515063168122,-4.0854334305150655,8.013039844509237
0.9358294460641399,-0.7978971884320233,-3.672373814550451,7.749976609362957
0.9438279883381924,-0.7887034616802387,-3.652147615696525,7.719269562011997
0.9518265306122449,-0.7795097349284542,-3.6319214168425993,7.688562514661037
0.9598250728862974,-0.7703160081766697,-3.6116952179886734,7.6578554673100765
0.9678236151603498,-0.7611222814248854,-3.5914690191347476,7.627148419959116
0.9758221574344023,-0.7519285546731008,-3.5712428202808217,7.596441372608156
0.9838206997084548,-0.7427348279213163,-3.551016621426896,7.565734325257196
0.9918192419825073,-0.7335411011695319,-3.53079042257297,7.535027277906236
0.9998177842565598,-0.7243473744177473,-3.510564223719044,7.504320230555276
1.0078163265306121,-0.7151536476659629,-3.4903380248651183,7.473613183204316
1.0158148688046647,-0.7059599209141785,-3.4701118260111925,7.442906135853356
1.0238134110787172,-0.459329446064138,-3.120056851311952,7.019954810495621
1.0318119533527697,-0.5660558100791346,-3.5045737192836324,6.1346039150354
1.0398104956268222,-0.5848655652737283,-3.5003089731130546,6.021926271460965
1.0478090379008747,-0.567091026886945,-3.4783574182053774,5.972513054745708
1.0558075801749272,-0.5493164885001618,-3.4564058632976997,5.92309983803045
1.0638061224489794,-0.5315419501133789,-3.434454308390023,5.873686621315193
1.071804664723032,-0.5137674117265956,-3.4125027534823458,5.824273404599936
1.0798032069970844,-0.4959928733398123,-3.390551198574668,5.774860187884678
1.087801749271137,-0.478218334953029,-3.3685996436669905,5.72544697116942
1.0958002915451894,-0.4604437965662457,-3.3466480887593133,5.676033754454163
1.103798833819242,-0.44266925817946234,-3.3246965338516357,5.626620537738905
1.1117973760932944,-0.424894719792679,-3.3027449789439585,5.577207321023648
1.119795918367347,-0.40712018140589573,-3.280793424036281,5.52779410430839
1.1277944606413994,-0.42478219144800256,-2.4525931729834873,4.005408041788138
1.135793002915452,-0.08950996112730225,-2.9678326044703685,3.632809280855193
1.1437915451895042,-0.049675482437872384,-3.1902542690545594,3.4988359711231434
1.1517900874635567,-0.12242412883520684,-3.301091211995001,3.4557961960294326
1.1597886297376092,-0.19517277523254128,-3.4119281549354423,3.4127564209357213
1.1677871720116617,-0.2679214216298757,-3.522765097875884,3.3697166458420105
1.1757857142857142,-0.34067006802721017,-3.6336020408163257,3.3266768707482997
1.1837842565597667,-0.4134187144245446,-3.744438983756767,3.2836370956545884
1.1917827988338192,-0.48616736082187906,-3.8552759266972085,3.2405973205608776
1.1997813411078717,-0.5589160072192135,-3.96611286963765,3.1975575454671668
1.2077798833819242,-2.5916137026238832,-5.616982507288621,4.964054664723045
1.2157784256559767,-2.9639655714613298,-5.931531922560356,4.659921937956564
1.223776967930029,-2.831764945785702,-6.086739591181573,4.605549824745309
1.2317755102040815,-2.69956432011007,-6.241947259802793,4.551177711534054
1.239774052478134,-2.5673636944344382,-6.397154928424015,4.496805598322798
1.2477725947521865,-2.4351630687588064,-6.552362597045235,4.4424334851115415
1.255771137026239,-2.3029624430831745,-6.707570265666456,4.388061371900286
1.2637696793002915,-2.1707618174075427,-6.862777934287678,4.33368925868903
1.271768221574344,-2.038561191731911,-7.017985602908899,4.2793171454777745
1.2797667638483965,-1.906360566056279,-7.17319327153012,4.224945032266518
1.287765306122449,-1.7741599403806472,-7.328400940151341,4.170572919055263
1.2957638483965015,-1.6419593147050155,-7.4836086087725615,4.116200805844007
1.3037623906705538,-4.67743995061582,-9.640646144463611,5.595833194502289
1.3117609329446063,-4.488821264949133,-9.83873249241387,5.64953769262807
1.3197594752186588,-4.300202579282446,-10.03681884036413,5.703242190753851
1.3277580174927113,-4.111583893615758,-10.23490518831439,5.756946688879633
1.3357565597667638,-3.922965207949071,-10.43299153626465,5.810651187005414
1.3437551020408163,-3.7343465222823835,-10.631077884214909,5.864355685131195
1.3517536443148688,-3.545727836615696,-10.829164232165168,5.918060183256976
1.3597521865889213,-3.357109150949009,-11.027250580115428,5.971764681382757
1.3677507288629738,-3.1684904652823214,-11.225336928065687,6.025469179508538
1.3757492711370263,-2.9798717796156344,-11.423423276015948,6.079173677634319
1.3837478134110786,-2.791253093948952,-11.621509623966201,6.1328781757601
1.391746355685131,-2.602634408282265,-11.81959597191646,6.18658267388588
1.3997448979591836,-2.4140157226155776,-12.01768231986672,6.240287172011661
1.407743440233236,-2.8881007415388575,-15.634587907212573,4.600739098745095
1.4157419825072886,-2.523384601977442,-15.673189567752566,4.199855637596659
1.423740524781341,-2.158668462416027,-15.711791228292558,3.798972176448224
1.4317390670553936,-1.7939523228546115,-15.75039288883255,3.3980887152997887
1.439737609329446,-1.4292361832931961,-15.788994549372543,2.9972052541513534
1.4477361516034986,-1.0645200437317806,-15.827596209912535,2.596321793002918
1.455734693877551,-0.6998039041703654,-15.86619787045253,2.195438331854483
1.4637332361516033,-0.33508776460895984,-15.90479953099252,1.7945548707060586
1.4717317784256558,0.029628374952455516,-15.943401191532512,1.3936714095576237
1.4797303206997083,0.39434451451387087,-15.982002852072505,0.9927879484091884
1.4877288629737608,0.7590606540752862,-16.020604512612497,0.5919044872607531
1.4957274052478133,1.1237767936367011,-16.05920617315249,0.19102102611231775
1.5037259475218658,1.0262244897959178,-14.606850062473965,0.6256289046230777
1.5117244897959183,0.9515714285714283,-13.944113702623905,1.2716064139941707
1.5197230320699708,0.8769183673469387,-13.281377342773844,1.917583923365264
1.5277215743440233,0.05941830844892076,-11.600262184527491,2.826669979680184
1.5357201166180756,0.014901169125660085,-11.53643543304768,2.8065524339605976
1.5437186588921281,-0.029615970197601815,-11.472608681567868,2.7864348882410113
1.5517172011661806,-0.07413310952086372,-11.408781930088054,2.7663173425214245
1.5597157434402331,-0.11865024884412562,-11.344955178608242,2.7461997968018377
1.5677142857142856,-0.16316738816738752,-11.281128427128428,2.7260822510822513
1.5757128279883381,-0.20768452749064942,-11.217301675648615,2.7059647053626645
1.5837113702623906,-0.2522016668139113,-11.153474924168803,2.685847159643078
1.5917099125364431,-0.2967188061371732,-11.089648172688989,2.6657296139234914
1.5997084548104956,-0.3412359454604351,-11.025821421209177,2.645612068203905
1.6077069970845481,-0.385753084783697,-10.961994669729364,2.6254945224843182
1.6157055393586004,-0.4302702241069577,-10.898167918249552,2.6053769767647323
1.623704081632653,-0.4747873634302196,-10.83434116676974,2.5852594310451456
1.6317026239067054,-0.4048061224490219,-9.980682215743451,0.7940189504374048
1.639701166180758,0.32455420090113674,-10.012887073567839,-1.4397765514368899
1.6476997084548104,0.5092478134110764,-9.621374010828827,-2.1607880049979085
1.655698250728863,0.693941425921016,-9.229860948089815,-2.881799458558927
1.6636967930029154,0.8786350384309557,-8.838347885350803,-3.6028109121199456
1.671695335276968,1.0633286509408955,-8.446834822611791,-4.3238223656809645
1.6796938775510204,1.248022263450835,-8.05532175987278,-5.044833819241983
1.687692419825073,1.4327158759607748,-7.663808697133769,-5.765845272803002
1.6956909620991252,1.617409488470709,-7.272295634394768,-6.4868567263640005
1.7036895043731777,1.8021031009806487,-6.8807825716557565,-7.207868179925019
1.7116880466472302,1.9867967134905884,-6.489269508916745,-7.928879633486038
1.7196865889212827,1.3460895043731782,-4.940163848396503,-8.914849562682223
1.7276851311953352,1.1592923331494758,-4.754008037191711,-8.603359073359075
1.7356836734693877,1.1903137065637064,-4.7496845008273585,-8.571581081081082
1.7436822157434402,1.221335079977937,-4.745360964463005,-8.539803088803088
1.7516807580174927,1.2523564533921676,-4.741037428098653,-8.508025096525097
1.7596793002915452,1.2833778268063982,-4.7367138917343,-8.476247104247104
1.7676778425655977,1.3143992002206288,-4.732390355369947,-8.444469111969113
1.77567638483965,1.3454205736348586,-4.728066819005595,-8.41269111969112
1.7836749271137025,1.3764419470490892,-4.723743282641242,-8.380913127413129
1.791673469387755,1.4074633204633198,-4.719419746276889,-8.349135135135135
1.7996720116618075,1.6995218658891862,-5.104742711370224,-8.020529883381954
1.80767055393586,1.8923998978089027,-6.483330467975113,-7.965203751014397
1.8156690962099125,1.8879471010790179,-6.51985989299991,-7.967265230981937
1.823667638483965,1.8834943043491328,-6.556389318024706,-7.969326710949476
1.8316661807580175,1.879041507619248,-6.592918743049503,-7.971388190917015
1.83966472303207,1.874588710889363,-6.629448168074299,-7.973449670884555
1.8476632653061225,1.8701359141594782,-6.665977593099096,-7.9755111508520935
1.8556618075801747,1.8656831174295934,-6.7025070181238915,-7.977572630819632
1.8636603498542272,1.8612303206997085,-6.739036443148688,-7.979634110787172
1.8716588921282797,1.8567775239698237,-6.7755658681734845,-7.981695590754711
1.8796574344023322,1.8523247272399388,-6.812095293198281,-7.983757070722251
1.8876559766763847,1.8478719305100537,-6.8486247182230775,-7.98581855068979
1.8956545189504372,1.8434191337801689,-6.885154143247874,-7.987880030657329
1.9036530612244897,1.6486493506493505,-7.458486085343228,-7.892372912801484
1.9116516034985422,1.5163098330241196,-7.814057646435195,-7.69095507553671
1.9196501457725947,1.3009755262524403,-8.089742691309814,-7.054413058014817
1.9276486880466472,1.2417569609757397,-8.141769906652046,-6.965475138417096
1.9356472303206995,1.1825383956990407,-8.193797121994276,-6.876537218819377
1.943645772594752,1.12331983042234,-8.245824337336508,-6.787599299221656
1.9516443148688045,1.0641012651456394,-8.297851552678738,-6.698661379623934
1.959642857142857,1.0048826998689389,-8.34987876802097,-6.6097234600262125
1.9676413994169095,0.9456641345922381,-8.401905983363202,-6.520785540428491
1.975639941690962,0.8864455693155375,-8.453933198705434,-6.43184762083077
1.9836384839650145,0.8272270040388369,-8.505960414047664,-6.342909701233048
1.991637026239067,0.7680084387621362,-8.557987629389896,-6.253971781635327
1.9996355685131195,0.7087898734854357,-8.610014844732127,-6.165033862037606
2.007634110787172,0.6495713082087367,-8.662042060074358,-6.076095942439887
2.0156326530612243,0.590352742932036,-8.714069275416588,-5.9871580228421655
2.023631195335277,0.5311341776553353,-8.76609649075882,-5.898220103244444
2.0316297376093293,0.5189256559766768,-8.624252915451896,-5.6461523323615195
2.039628279883382,0.4989293002915456,-8.611588556851313,-5.4988458454810525
2.0476268221574343,0.5265423443043311,-8.810877726650043,-5.059770416944746
2.055625364431487,0.5273132881379746,-8.908787593522781,-4.851904685798586
2.0636239067055393,0.5280842319716182,-9.00669746039552,-4.644038954652427
2.071622448979592,0.5288551758052619,-9.104607327268258,-4.436173223506268
2.0796209912536443,0.5296261196389055,-9.202517194140997,-4.228307492360109
2.087619533527697,0.5303970634725491,-9.300427061013735,-4.02044176121395
2.0956180758017493,0.5311680073061927,-9.398336927886474,-3.812576030067791
2.103616618075802,0.5319389511398364,-9.496246794759212,-3.6047102989216313
2.1116151603498543,0.53270989497348,-9.594156661631951,-3.3968445677754726
2.119613702623907,0.5334808388071236,-9.69206652850469,-3.188978836629313
2.127612244897959,-1.3504897959183941,-9.60814285714286,-1.5052857142858143
2.1356107871720114,-0.4112238419177189,-9.555369047619047,-0.8868235341755739
2.143609329446064,-0.43219779721412316,-9.542304761904761,-0.9306377712989946
2.1516078717201164,-0.45317175251052744,-9.529240476190477,-0.9744520084224154
2.159606413994169,-0.4741457078069317,-9.516176190476191,-1.0182662455458362
2.1676049562682214,-0.495119663103336,-9.503111904761905,-1.062080482669257
2.175603498542274,-0.5160936183997402,-9.490047619047619,-1.1058947197926776
2.1836020408163264,-0.5370675736961446,-9.476983333333333,-1.1497089569160985
2.191600583090379,-0.5580415289925488,-9.463919047619047,-1.1935231940395192
2.1995991253644314,-0.579015484288953,-9.450854761904761,-1.2373374311629401
2.207597667638484,-0.5999894395853573,-9.437790476190477,-1.2811516682863608
2.2155962099125364,-0.6209633948817616,-9.424726190476191,-1.3249659054097815
2.223594752186589,-0.6419373501781658,-9.411661904761905,-1.3687801425332022
2.2315932944606414,-0.9946362973760935,-9.191359329446062,-2.7820736151603604
2.239591836734694,-0.7120055033249235,-9.133910341664755,-3.4588667736757635
2.2475903790087464,-0.565695089592817,-9.100657974907458,-3.538762325154782
2.255588921282799,-0.4193846758607105,-9.067405608150162,-3.618657876633801
2.2635874635568514,-0.2730742621286041,-9.034153241392865,-3.69855342811282
2.271586005830904,-0.12676384839649757,-9.000900874635567,-3.778448979591839
2.2795845481049564,0.019546565335608945,-8.967648507878272,-3.8583445310708573
2.2875830903790084,0.16585697906770724,-8.934396141120976,-3.938240082549872
2.295581632653061,0.31216739279981365,-8.901143774363678,-4.018135634028891
2.3035801749271134,0.45847780653192016,-8.86789140760638,-4.098031185507909
2.311578717201166,0.6047882202640267,-8.834639040849085,-4.177926736986928
2.3195772594752184,0.7510986339961332,-8.801386674091788,-4.257822288465947
2.327575801749271,1.6442793002915421,-8.01797609329446,-5.76912915451894
2.3355743440233234,1.6906804795754575,-7.949265338880335,-5.882504700756707
2.343572886297376,1.6992182494185473,-7.950613407802928,-5.879988305434534
2.3515714285714284,1.707756019261637,-7.951961476725522,-5.87747191011236
2.359569970845481,1.7162937891047267,-7.953309545648115,-5.8749555147901855
2.3675685131195334,1.7248315589478165,-7.954657614570708,-5.872439119468012
2.375567055393586,1.7333693287909062,-7.956005683493301,-5.869922724145838
2.3835655976676384,1.741907098633996,-7.957353752415894,-5.867406328823664
2.391564139941691,1.7504448684770857,-7.9587018213384875,-5.864889933501491
2.3995626822157434,1.7589826383201757,-7.960049890261081,-5.862373538179317
2.407561224489796,1.7675204081632654,-7.961397959183674,-5.859857142857143
2.4155597667638484,1.7760581780063551,-7.962746028106267,-5.85734074753497
2.423558309037901,1.7810967930029153,-7.956630320699708,-5.841377259475219
2.4315568513119534,1.7238017492711386,-7.937096209912536,-5.3643994169096105
2.439555393586006,1.7336666309380895,-7.900334012176299,-5.300444670725433
2.447553935860058,1.7354310152632482,-7.866810709998287,-5.289270236666096
2.4555524781341105,1.7371953995884069,-7.833287407820272,-5.2780958026067575
2.463551020408163,1.7389597839135653,-7.799764105642258,-5.266921368547419
2.4715495626822155,1.740724168238724,-7.766240803464244,-5.255746934488081
2.479548104956268,1.7424885525638827,-7.73271750128623,-5.244572500428744
2.4875466472303205,1.7442529368890414,-7.699194199108216,-5.233398066369405
2.495545189504373,1.7460173212142,-7.665670896930202,-5.222223632310067
2.5035437317784255,1.7593593294460637,-7.661108600583083,-5.262431729834786
2.511542274052478,1.837916256157635,-8.197916256157635,-5.800346335578566
2.5195408163265305,1.8514310344827583,-8.211431034482757,-5.820204785362421
2.527539358600583,1.8649458128078815,-8.224945812807881,-5.840063235146275
2.5355379008746355,1.8784605911330048,-8.238460591133004,-5.859921684930129
2.543536443148688,1.8919753694581278,-8.251975369458128,-5.879780134713984
2.5515349854227405,1.905490147783251,-8.26549014778325,-5.899638584497838
2.559533527696793,1.9190049261083744,-8.279004926108374,-5.919497034281693
2.5675320699708455,1.9325197044334976,-8.292519704433497,-5.939355484065548
2.575530612244898,1.946034482758621,-8.306034482758621,-5.959213933849402
2.5835291545189505,1.9595492610837442,-8.319549261083743,-5.979072383633256
2.591527696793003,1.9730640394088672,-8.333064039408868,-5.998930833417111
2.599526239067055,1.984,-8.344,-6.015
2.6075247813411075,2.152765523230569,-8.214217046088951,-5.8038492649339375
2.61552332361516,2.1491917064698223,-8.232766856894731,-5.801551811302029
2.6235218658892125,2.1456178897090754,-8.251316667700513,-5.7992543576701205
2.631520408163265,2.1420440729483285,-8.269866478506295,-5.796956904038211
2.6395189504373175,2.1384702561875817,-8.288416289312076,-5.794659450406303
2.64751749271137,2.134896439426835,-8.306966100117856,-5.792361996774394
2.6555160349854225,2.131322622666088,-8.325515910923638,-5.790064543142485
2.663514577259475,2.127748805905341,-8.34406572172942,-5.787767089510576
2.6715131195335275,2.1241749891445942,-8.362615532535202,-5.785469635878668
2.67951166180758,2.1206011723838474,-8.381165343340982,-5.783172182246759
2.6875102040816325,2.1170273556231005,-8.399715154146763,-5.78087472861485
2.695508746355685,2.1134535388623537,-8.418264964952545,-5.778577274982942
2.7035072886297375,2.1373265306122438,-8.428074829931973,-5.789954324586978
2.71150583090379,2.221311224489795,-8.41874319727891,-5.831280126336249
2.7195043731778425,2.073408163265304,-8.27358309037901,-5.924569484936826
2.727502915451895,1.9922704933550412,-8.384748059520655,-5.628708738783082
2.7355014577259475,1.9505118700541437,-8.477406497292796,-5.417526447313618
2.7435,1.9087532467532462,-8.570064935064936,-5.206344155844153
2.7514985422740526,1.8669946234523487,-8.662723372837076,-4.99516186437469
2.7594970845481046,1.8252360001514536,-8.755381810609212,-4.783979572905237
2.767495626822157,1.783477376850556,-8.848040248381352,-4.572797281435773
2.7754941690962096,1.7417187535496585,-8.940698686153493,-4.361614989966308
2.783492711370262,1.699960130248761,-9.033357123925633,-4.150432698496845
2.7914912536443146,1.6582015069478637,-9.126015561697775,-3.93925040702738
2.799489795918367,1.6072448979591891,-9.192673469387763,-3.6915306122449207
2.8074883381924196,1.5207915202711124,-9.046860070768235,-3.3373561834990406
2.815486880466472,1.5142969773990185,-9.046108071067255,-3.339270364556079
2.8234854227405246,1.5078024345269245,-9.045356071366276,-3.341184545613117
2.831483965014577,1.5013078916548306,-9.044604071665297,-3.3430987266701555
2.8394825072886296,1.4948133487827366,-9.043852071964317,-3.3450129077271935
2.847481049562682,1.4883188059106427,-9.043100072263337,-3.346927088784232
2.8554795918367346,1.481824263038549,-9.042348072562358,-3.34884126984127
2.863478134110787,1.475329720166455,-9.04159607286138,-3.3507554508983084
2.8714766763848396,1.468835177294361,-9.0408440731604,-3.3526696319553464
2.879475218658892,1.4623406344222671,-9.040092073459421,-3.354583813012385
2.8874737609329446,1.4558460915501732,-9.03934007375844,-3.356497994069423
2.895472303206997,1.4493515486780792,-9.038588074057461,-3.358412175126461
2.9034708454810496,1.4428570058059855,-9.037836074356482,-3.3603263561834993
2.911469387755102,1.4363624629338916,-9.037084074655503,-3.3622405372405373
2.919467930029154,1.429867920061798,-9.036332074954524,-3.3641547182975757
2.9274664723032067,1.3763799805636565,-9.02260058309038,-3.4565626822157394
2.935465014577259,1.292,-8.999,-3.611
2.9434635568513117,1.292,-8.999,-3.611
2.951462099125364,1.292,-8.999,-3.611
2.9594606413994167,1.292,-8.999,-3.611
2.967459183673469,1.292,-8.999,-3.611
2.9754577259475217,1.292,-8.999,-3.611
2.983456268221574,1.292,-8.999,-3.611
2.9914548104956267,1.292,-8.999,-3.611
2.999453352769679,1.292,-8.999,-3.611
3.0074518950437317,1.292,-8.999,-3.611
3.015450437317784,1.292,-8.999,-3.611
3.0234489795918367,1.292,-8.999,-3.611
3.031447521865889,1.188,-9.088,-3.649
3.0394460641399417,1.1922973760932944,-9.034282798833818,-3.64309110787172
3.047444606413994,1.1558960770564994,-8.994560209617301,-3.621351920876849
3.0554431486880467,1.0246794848138157,-9.016024652175517,-3.566880835516846
3.063441690962099,0.8934628925711321,-9.037489094733735,-3.512409750156843
3.0714402332361512,0.7622463003284555,-9.05895353729195,-3.4579386647968433
3.0794387755102037,0.6310297080857717,-9.080417979850166,-3.4034675794368403
3.0874373177842562,0.4998131158430881,-9.101882422408384,-3.3489964940768373
3.0954358600583087,0.3685965236004043,-9.1233468649666,-3.2945254087168347
3.1034344023323612,0.2373799313577205,-9.144811307524817,-3.2400543233568317
3.1114329446064137,0.10616333911503673,-9.166275750083033,-3.1855832379968287
3.1194314868804662,-0.025053253127647057,-9.18774019264125,-3.1311121526368257
3.1274300291545187,0.08125655976676331,-9.338720116618076,-3.0612798833819244
3.1354285714285712,0.22538961038961036,-9.479731601731602,-2.924597402597403
3.1434271137026237,0.2275710310098065,-9.517421702447212,-2.91114530877286
3.1514256559766762,0.22975245163000263,-9.555111803162823,-2.897693214948317
3.1594241982507287,0.23193387225019874,-9.592801903878435,-2.8842411211237744
3.1674227405247812,0.23411529287039487,-9.630492004594046,-2.8707890272992316
3.1754212827988337,0.236296713490591,-9.668182105309656,-2.8573369334746888
3.1834198250728862,0.2384781341107871,-9.705872206025267,-2.843884839650146
3.1914183673469387,0.24065955473098324,-9.743562306740879,-2.830432745825603
3.1994169096209912,0.24284097535117938,-9.781252407456488,-2.8169806520010603
3.2074154518950437,-0.6384601554907589,-11.990593051506274,-2.7437849854227396
3.2154139941690962,-0.1793244383467677,-11.084408026067573,-2.1252314868804634
3.2234125364431487,-0.15899873092094016,-10.951820425312984,-2.280403206997082
3.231411078717201,-0.13867302349511373,-10.819232824558403,-2.435574927113692
3.2394096209912533,-0.1183473160692862,-10.686645223803815,-2.5907466472303105
3.247408163265306,-0.09802160864345866,-10.554057623049228,-2.7459183673469294
3.2554067055393583,-0.07769590121763112,-10.42147002229464,-2.901090087463548
3.263405247813411,-0.05737019379180358,-10.288882421540052,-3.0562618075801664
3.2714037900874633,-0.03704448636597604,-10.156294820785464,-3.211433527696785
3.279402332361516,-0.016718778940148504,-10.023707220030875,-3.3666052478134034
3.2874008746355683,0.003606928485679034,-9.891119619276287,-3.5217769679300224
3.295399416909621,0.023932635911506572,-9.758532018521699,-3.6769486880466404
3.3033979591836733,1.162208142440649,-7.535335381091213,-4.065694606413994
3.311396501457726,1.1862853870411132,-7.5086463675849355,-4.086833610995418
3.3193950437317783,1.2103626316415774,-7.481957354078658,-4.107972615576843
3.327393586005831,1.2344398762420417,-7.455268340572381,-4.129111620158267
3.3353921282798833,1.2585171208425059,-7.428579327066104,-4.150250624739692
3.343390670553936,1.2825943654429701,-7.401890313559827,-4.171389629321116
3.3513892128279883,1.3066716100434341,-7.375201300053549,-4.1925286339025405
3.359387755102041,1.3307488546438984,-7.348512286547272,-4.213667638483965
3.3673862973760933,1.3548260992443626,-7.3218232730409945,-4.234806643065389
3.375384839650146,1.3789033438448268,-7.295134259534717,-4.255945647646814
3.3833833819241983,1.402980588445291,-7.26844524602844,-4.277084652228238
3.3913819241982504,1.427057833045754,-7.241756232522165,-4.298223656809662
3.399380466472303,1.4511350776462182,-7.2150672190158875,-4.319362661391086
3.4073790087463554,1.2422892435169541,-7.201159275740375,-4.939113088844556
3.415377551020408,1.320590762620836,-7.020139634801293,-5.164756176154667
3.4233760932944604,1.3988922817247178,-6.839119993862211,-5.390399263464778
3.431374635568513,1.3463962293488843,-6.889110165208939,-5.322257570456757
3.4393731778425654,1.2828344800777471,-6.958644159378036,-5.229261185617107
3.447371720116618,1.21927273080661,-7.028178153547132,-5.1362648007774565
3.4553702623906704,1.155710981535473,-7.097712147716228,-5.043268415937806
3.463368804664723,1.092149232264336,-7.167246141885324,-4.950272031098156
3.4713673469387754,1.028587482993199,-7.236780136054421,-4.857275646258506
3.479365889212828,0.9650257337220618,-7.306314130223517,-4.764279261418856
3.4873644314868804,0.9014639844509248,-7.375848124392613,-4.671282876579205
3.495362973760933,0.8379022351797878,-7.445382118561709,-4.578286491739555
3.5033615160349854,1.0299344023323616,-8.320669096209912,-4.509485422740525
3.511360058309038,0.892384203833509,-8.843877194342783,-5.088453942063148
3.5193586005830904,0.8853216611872712,-8.867617548539172,-5.133041560697228
3.527357142857143,0.8782591185410334,-8.891357902735562,-5.177629179331307
3.5353556851311954,0.8711965758947956,-8.915098256931952,-5.222216797965387
3.543354227405248,0.8641340332485578,-8.938838611128341,-5.2668044165994665
3.5513527696793,0.8570714906023204,-8.96257896532473,-5.311392035233544
3.5593513119533524,0.8500089479560825,-8.986319319521119,-5.355979653867624
3.567349854227405,0.8429464053098447,-9.010059673717508,-5.4005672725017035
3.5753483965014574,0.8358838626636068,-9.0338000279139,-5.445154891135783
3.58334693877551,0.828821320017369,-9.05754038211029,-5.489742509769863
3.5913454810495624,0.8217587773711311,-9.08128073630668,-5.534330128403942
3.599344023323615,0.7941865889213072,-9.133241982507254,-5.590932944606398
3.6073425655976674,0.6226461370262414,-9.255765123906706,-5.686541545189503
3.61534110787172,0.5172065902773129,-9.503925418672452,-5.487918367346942
3.6233396501457724,0.35491058715845664,-9.52289870499695,-5.40393367346939
3.631338192419825,0.1926145840396004,-9.541871991321445,-5.319948979591839
3.6393367346938774,0.03031858092074413,-9.560845277645942,-5.235964285714288
3.64733527696793,-0.13197742219811204,-9.579818563970438,-5.151979591836736
3.6553338192419824,-0.2942734253169683,-9.598791850294935,-5.067994897959185
3.663332361516035,-0.4565694284358246,-9.61776513661943,-4.984010204081633
3.6713309037900874,-0.6188654315546807,-9.636738422943928,-4.900025510204082
3.67932944606414,-0.7811614346735369,-9.655711709268424,-4.816040816326531
3.6873279883381924,-0.9434574377923932,-9.674684995592921,-4.732056122448979
3.695326530612245,-1.1057534409112495,-9.693658281917418,-4.648071428571428
3.703325072886297,-1.0348607871720246,-9.400908406219662,-4.37415913508263
3.7113236151603495,-0.9688915195591676,-8.943682888540033,-4.2320979719988445
3.719322157434402,-0.829048873866667,-8.909227629513346,-4.266025854611859
3.7273206997084545,-0.6892062281741663,-8.874772370486658,-4.299953737224873
3.735319241982507,-0.5493635824816656,-8.84031711145997,-4.333881619837887
3.7433177842565595,-0.409520936789165,-8.805861852433283,-4.367809502450901
3.751316326530612,-0.2696782910966643,-8.771406593406596,-4.401737385063914
3.7593148688046645,-0.1298356454041637,-8.736951334379908,-4.435665267676928
3.767313411078717,0.010007000288337009,-8.70249607535322,-4.469593150289942
3.7753119533527695,0.1498496459808376,-8.668040816326531,-4.503521032902956
3.783310495626822,0.2896922916733382,-8.633585557299844,-4.53744891551597
3.7913090379008745,0.42953493736583903,-8.599130298273156,-4.571376798128984
3.799307580174927,0.5732274052478123,-8.506944606414,-4.589851311953354
3.8073061224489795,0.6560408163265306,-8.0094693877551,-4.4837278911564615
3.815304664723032,0.7615263605442187,-7.817949101068997,-4.460086613216715
3.8233032069970845,0.8428952119309265,-7.730106077595874,-4.414789807131643
3.831301749271137,0.8741202904238622,-7.783634783583764,-4.3174229367571195
3.8393002915451895,0.905345368916798,-7.837163489571654,-4.220056066382596
3.847298833819242,0.9365704474097336,-7.890692195559543,-4.122689196008072
3.8552973760932945,0.9677955259026694,-7.944220901547434,-4.025322325633549
3.8632959183673465,0.9990206043956033,-7.99774960753532,-3.9279554552590303
3.871294460641399,1.030245682888539,-8.051278313523209,-3.8305885848845067
3.8792930029154515,1.0614707613814747,-8.1048070195111,-3.733221714509983
3.887291545189504,1.0926958398744104,-8.15833572549899,-3.6358548441354595
3.8952900874635565,1.123920918367346,-8.211864431486879,-3.538487973760936
3.903288629737609,1.1551459968602817,-8.265393137474769,-3.441121103386412
3.9112871720116615,1.1863710753532175,-8.31892184346266,-3.3437542330118886
3.919285714285714,1.217596153846153,-8.372450549450548,-3.246387362637365
3.9272842565597665,0.9045459183673544,-8.702407434402293,-0.8935138483967846
3.935282798833819,1.5096696376509822,-9.018331736776343,0.9065594752186578
3.9432813411078715,1.4082024156601451,-9.060038421491045,0.9393534985422729
3.951279883381924,1.3067351936693081,-9.101745106205746,0.972147521865888
3.9592784256559765,1.205267971678471,-9.143451790920448,1.0049415451895032
3.967276967930029,1.1038007496876343,-9.18515847563515,1.0377355685131182
3.9752755102040815,1.002333527696797,-9.226865160349853,1.0705295918367332
3.983274052478134,0.9008663057059602,-9.268571845064555,1.1033236151603485
3.9912725947521865,0.7993990837151231,-9.310278529779257,1.1361176384839635
3.999271137026239,0.6979318617242861,-9.35198521449396,1.1689116618075786
4.0072696793002915,0.6287874959508519,-10.216747651441501,-2.5764381276320756
4.015268221574344,2.935922578555113,-9.527095562034374,-4.369000323939008
4.0232667638483965,3.087721826642745,-9.381592004933841,-5.034318120654856
4.031265306122449,3.0903367346938775,-9.356673469387756,-5.048469387755102
4.0392638483965015,3.09295164274501,-9.331754933841667,-5.062620654855349
4.047262390670554,3.0955665507961423,-9.306836398295582,-5.076771921955595
4.0552609329446065,3.098181458847275,-9.281917862749495,-5.090923189055843
4.063259475218659,3.1007963668984075,-9.25699932720341,-5.105074456156089
4.0712580174927115,3.1034112749495404,-9.23208079165732,-5.119225723256336
4.079256559766764,3.106026183000673,-9.207162256111236,-5.133376990356582
4.0872551020408165,3.1086410910518056,-9.182243720565149,-5.1475282574568295
4.095253644314869,3.111255999102938,-9.157325185019063,-5.1616795245570755
4.103252186588921,3.1138709071540704,-9.132406649472978,-5.175830791657321
4.111250728862974,3.116485815205203,-9.10748811392689,-5.189982058757568
4.119249271137026,3.1191007232563353,-9.082569578380804,-5.204133325857814
4.127247813411079,2.9607264334305192,-11.058839650145812,-5.200398931000976
4.135246355685131,3.015212250971817,-11.566918549562681,-5.260037247934888
4.143244897959184,3.018045068027211,-11.539923469387753,-5.275451105442178
4.151243440233236,3.0208778850826046,-11.512928389212828,-5.290864962949465
4.159241982507289,3.0237107021379983,-11.485933309037899,-5.306278820456755
4.167240524781341,3.0265435191933916,-11.458938228862973,-5.321692677964043
4.175239067055394,3.0293763362487853,-11.431943148688044,-5.3371065354713325
4.183237609329446,3.032209153304179,-11.40494806851312,-5.35252039297862
4.191236151603499,3.035041970359573,-11.37795298833819,-5.367934250485909
4.199234693877551,3.037874787414966,-11.350957908163265,-5.383348107993197
4.207233236151604,3.04070760447036,-11.323962827988336,-5.398761965500487
4.215231778425656,3.043540421525753,-11.29696774781341,-5.414175823007774
4.223230320699709,3.0463732385811473,-11.269972667638482,-5.429589680515064
4.231228862973761,2.71920213799806,-9.325570092322643,-5.605838070942659
4.239227405247814,2.5165724003887266,-9.354231535471332,-5.801135811467445
4.247225947521866,2.409984569437531,-8.592461992462491,-3.833482187300007
4.255224489795918,2.382672473867597,-8.601045793927327,-3.827239422598308
4.263223032069971,2.35536037829766,-8.609629595392164,-3.820996657896608
4.271221574344023,2.3280482827277265,-8.618213396857,-3.8147538931949088
4.279220116618076,2.3007361871577894,-8.626797198321837,-3.8085111284932087
4.287218658892128,2.2734240915878554,-8.635380999786674,-3.8022683637915096
4.295217201166181,2.2461119960179183,-8.643964801251512,-3.79602559908981
4.303215743440233,2.218799900447985,-8.652548602716347,-3.789782834388111
4.311214285714286,2.1914878048780477,-8.661132404181185,-3.7835400696864108
4.319212827988338,2.1641757093081138,-8.66971620564602,-3.7772973049847116
4.327211370262391,2.0598381924198272,-8.570399416909623,-3.5999854227405295
4.335209912536443,1.8439296810408636,-8.844913580784123,-3.291586571515605
4.343208454810496,1.7366059570949894,-8.926928484400158,-3.1410468430442506
4.351206997084548,1.629282233149127,-9.008943388016185,-2.9905071145729134
4.359205539358601,1.5219585092032526,-9.09095829163222,-2.8399673861015593
4.367204081632653,1.4146347852573902,-9.172973195248245,-2.6894276576302216
4.375202623906706,1.307311061311516,-9.254988098864281,-2.538887929158867
4.383201166180758,1.1999873373656536,-9.337003002480307,-2.38834820068753
4.391199708454811,1.0926636134197794,-9.419017906096343,-2.2378084722161757
4.399198250728863,0.9962274052478031,-9.509606413994156,-2.087134110787177
4.407196793002916,0.8347735612878643,-9.88549266383572,-2.0763052509823754
4.415195335276968,0.7597437571301808,-9.882101977436937,-1.9981455824565848
4.42319387755102,0.6847139529724973,-9.878711291038154,-1.919985913930794
4.431192419825073,0.6096841488148054,-9.87532060463937,-1.8418262454049943
4.439190962099125,0.5346543446571219,-9.871929918240587,-1.7636665768792035
4.447189504373178,0.45962454049942997,-9.868539231841805,-1.685506908353404
4.45518804664723,0.38459473634174646,-9.865148545443022,-1.6073472398276132
4.463186588921283,0.30956493218405456,-9.861757859044237,-1.5291875713018137
4.471185131195335,0.2345351280263711,-9.858367172645455,-1.4510279027760227
4.479183673469388,0.15950532386867922,-9.854976486246672,-1.3728682342502232
4.48718221574344,0.08447551971099565,-9.85158579984789,-1.2947085657244326
4.495180758017493,0.009445715553303757,-9.848195113449107,-1.216548897198633
4.503179300291545,-0.2339565904557313,-9.793818812336966,-1.1770283105723491
4.511177842565598,-0.23202010127359216,-9.78573607488108,-1.1782912382998312
4.51917638483965,-0.23008361209145323,-9.777653337425196,-1.1795541660273132
4.527174927113703,-0.2281471229093141,-9.769570599969311,-1.1808170937547953
4.535173469387755,-0.22621063372717518,-9.761487862513427,-1.182080021482277
4.543172011661808,-0.22427414454503602,-9.753405125057542,-1.1833429492097591
4.55117055393586,-0.2223376553628971,-9.745322387601657,-1.184605876937241
4.559169096209913,-0.22040116618075797,-9.737239650145773,-1.185868804664723
4.567167638483965,-0.21846467699861905,-9.729156912689888,-1.187131732392205
4.575166180758017,-0.21652818781648012,-9.721074175234005,-1.1883946601196869
4.58316472303207,-0.21459169863434097,-9.71299143777812,-1.189657587847169
4.591163265306122,-0.21265520945220204,-9.704908700322235,-1.1909205155746507
4.599161807580175,-0.23772157434402616,-9.577752915451882,-1.2326632653061267
4.607160349854227,-0.2504905910416117,-9.350396766498813,-1.2229435462496703
4.61515889212828,-0.5179178814382939,-8.869989310009716,-1.910611758989319
4.623157434402332,-0.6365182420097546,-8.781247295714014,-2.165969592109207
4.631155976676385,-0.6315098089970299,-8.774818560802158,-2.1558779733522244
4.639154518950437,-0.6265013759843057,-8.768389825890303,-2.1457863545952427
4.64715306122449,-0.621492942971581,-8.761961090978447,-2.13569473583826
4.655151603498542,-0.6164845099588568,-8.755532356066594,-2.1256031170812784
4.663150145772595,-0.611476076946132,-8.749103621154738,-2.1155114983242957
4.671148688046647,-0.6064676439334079,-8.742674886242883,-2.1054198795673145
4.6791472303207,-0.6014592109206831,-8.736246151331027,-2.095328260810332
4.687145772594752,-0.596450777907959,-8.729817416419172,-2.08523664205335
4.695144314868805,-0.5914423448952342,-8.723388681507316,-2.0751450232963675
4.703142857142857,-0.58643391188251,-8.71695994659546,-2.065053404539386
4.71114139941691,-0.5814254788697854,-8.710531211683605,-2.054961785782403
4.719139941690962,-0.5764170458570611,-8.70410247677175,-2.044870167025422
4.727138483965014,-0.43978134110800443,-8.609427113702772,-1.9866297376093713
4.735137026239067,-0.1850970998925922,-8.296219241982506,-1.7686586159275797
4.743135568513119,-0.13853716433942592,-8.30901690962099,-1.6965033450974467
4.751134110787172,-0.09197722878625443,-8.321814577259474,-1.6243480742673055
4.759132653061224,-0.04541729323308813,-8.334612244897958,-1.5521928034371726
4.767131195335277,0.001142642320083348,-8.347409912536442,-1.4800375326070316
4.775129737609329,0.047702577873249635,-8.360207580174926,-1.4078822617768987
4.783128279883382,0.09426251342642114,-8.37300524781341,-1.3357269909467577
4.791126822157434,0.14082244897958743,-8.385802915451894,-1.2635717201166248
4.799125364431487,0.18738238453275893,-8.398600583090378,-1.1914164492864838
4.807123906705539,0.23394232008592522,-8.411398250728862,-1.1192611784563509
4.815122448979592,0.2805022556390967,-8.424195918367346,-1.04710590762621
4.823120991253644,0.327062191192263,-8.43699358600583,-0.9749506367960771
4.831119533527697,0.9037201166180854,-9.10514285714287,-0.9613644314868793
4.839118075801749,1.0473320861678002,-9.769816893424036,-0.9761099125364429
4.847116618075802,1.133805215419505,-9.828917233560093,-1.05129620991254
4.855115160349854,1.2202783446712004,-9.888017573696144,-1.1264825072886286
4.863113702623907,1.3067514739229056,-9.947117913832201,-1.2016688046647257
4.871112244897959,1.393224603174601,-10.006218253968251,-1.2768551020408143
4.879110787172012,1.4796977324263059,-10.06531859410431,-1.3520413994169114
4.887109329446064,1.5661708616780015,-10.12441893424036,-1.4272276967930002
4.895107871720116,1.6526439909296968,-10.183519274376412,-1.5024139941690888
4.903106413994169,1.7391171201814017,-10.242619614512469,-1.5776002915451859
4.911104956268221,1.8255902494330973,-10.301719954648519,-1.6527865889212747
4.919103498542274,1.9120633786848023,-10.360820294784578,-1.7279728862973718
4.927102040816326,2.266734693877528,-12.24281632653059,-1.5475408163265512
4.935100583090379,2.344840239439243,-12.286879691086162,-1.1355859903231786
4.943099125364431,2.2255428323305098,-12.24178152720055,-1.2498630357918157
4.951097667638484,2.106245425221763,-12.196683363314932,-1.3641400812604654
4.959096209912536,1.9869480181130297,-12.15158519942932,-1.4784171267291022
4.967094752186589,1.867650611004283,-12.106487035543703,-1.592694172197752
4.975093294460641,1.7483532038955494,-12.061388871658089,-1.706971217666389
4.983091836734694,1.6290557967868025,-12.016290707772471,-1.8212482631350386
4.991090379008746,1.509758389678069,-11.97119254388686,-1.9355253086036757
4.999088921282799,1.3904609825693224,-11.926094380001242,-2.0498023540723254
5.007087463556851,1.271163575460589,-11.880996216115628,-2.164079399540962
5.015086005830904,1.151866168351842,-11.83589805223001,-2.278356445009612
5.023084548104956,1.0325687612431087,-11.790799888344399,-2.392633490478249
5.031083090379009,0.9760276967931052,-13.38716763848381,-1.7214329446060777
5.039081632653061,0.6065528970208716,-8.940657987332868,-0.5443525686136411
5.047080174927113,0.7271745920042776,-8.873359907509808,-0.7782409771790262
5.055078717201166,0.8477962869876972,-8.806061827686742,-1.0121293857444371
5.063077259475218,0.9684179819711032,-8.738763747863683,-1.246017794309822
5.071075801749271,1.0890396769545228,-8.671465668040616,-1.479906202875233
5.079074344023323,1.2096613719379286,-8.604167588217559,-1.713794611440618
5.087072886297376,1.3302830669213481,-8.536869508394492,-1.9476830200060289
5.095071428571428,1.4509047619047541,-8.469571428571433,-2.181571428571414
5.103069970845481,1.5715264568881735,-8.402273348748366,-2.4154598371368246
5.111068513119533,1.6921481518715797,-8.334975268925309,-2.6493482457022095
5.119067055393586,1.8127698468549993,-8.267677189102242,-2.88323665426762
5.127065597667638,2.6891608490754417,-6.2089272135468665,-6.203814129957264
5.135064139941691,2.7087737130077083,-6.200052118694836,-6.303083709413317
5.143062682215743,2.728386576939973,-6.191177023842806,-6.40235328886936
5.151061224489796,2.7479994408722397,-6.182301928990774,-6.5016228683254145
5.159059766763848,2.767612304804504,-6.173426834138744,-6.600892447781457
5.167058309037901,2.7872251687367706,-6.164551739286712,-6.700162027237511
5.175056851311953,2.8068380326690354,-6.155676644434682,-6.799431606693553
5.183055393586006,2.826450896601302,-6.146801549582651,-6.898701186149608
5.191053935860058,2.8460637605335664,-6.1379264547306205,-6.9979707656056505
5.19905247813411,2.865676624465831,-6.1290513598785905,-7.097240345061693
5.207051020408163,0.38463775510211096,-6.309112244897876,-6.301204081632804
5.215049562682215,0.24179195466308687,-6.442494906148657,-6.0755845644838935
5.223048104956268,0.22453667245389392,-6.422633357355784,-6.131843974186784
5.23104664723032,0.20728139024470288,-6.402771808562913,-6.188103383889667
5.239045189504373,0.1900261080355099,-6.38291025977004,-6.244362793592556
5.247043731778425,0.17277082582631886,-6.363048710977169,-6.30062220329544
5.255042274052478,0.15551554361712588,-6.343187162184296,-6.356881612998329
5.26304081632653,0.13826026140793485,-6.323325613391425,-6.413141022701213
5.271039358600583,0.1210049791987419,-6.303464064598551,-6.469400432404102
5.279037900874635,0.10374969698955086,-6.283602515805681,-6.525659842106985
5.287036443148688,0.08649441478035788,-6.263740967012808,-6.581919251809875
5.29503498542274,0.06923913257116684,-6.243879418219937,-6.638178661512758
5.303033527696793,0.57488988095238,-6.087597971331388,-7.680462934280855
5.311032069970845,0.5585595238095238,-6.061269436345968,-7.684045614674441
5.319030612244898,0.5422291666666657,-6.034940901360543,-7.687628295068027
5.32702915451895,0.5258988095238094,-6.008612366375122,-7.691210975461613
5.335027696793003,0.5095684523809514,-5.982283831389697,-7.694793655855199
5.343026239067055,0.4932380952380951,-5.955955296404276,-7.698376336248785
5.351024781341108,0.476907738095237,-5.929626761418852,-7.7019590166423715
5.35902332361516,0.46057738095238077,-5.903298226433431,-7.705541697035957
5.367021865889212,0.4442470238095245,-5.876969691448009,-7.709124377429543
5.375020408163265,0.4279166666666664,-5.850641156462585,-7.712707057823129
5.383018950437317,0.41158630952381015,-5.824312621477164,-7.716289738216715
5.39101749271137,0.39525595238095207,-5.79798408649174,-7.719872418610302
5.399016034985422,-0.025777696792973436,-5.799705539358574,-7.910659620991191
5.407014577259475,0.05524302593217935,-5.858401902715977,-8.049708823078099
5.415013119533527,0.11350609176001077,-5.980737501918057,-7.89571583550714
5.42301166180758,0.17176915758784866,-6.103073101120151,-7.741722847936163
5.431010204081632,0.23003222341568008,-6.22540870032223,-7.587729860365204
5.439008746355685,0.288295289243518,-6.347744299524323,-7.433736872794228
5.447007288629737,0.34655835507134947,-6.470079898726403,-7.279743885223269
5.45500583090379,0.4048214208991873,-6.592415497928496,-7.125750897652293
5.463004373177842,0.46308448672701874,-6.714751097130575,-6.971757910081333
5.471002915451895,0.5213475525548567,-6.837086696332669,-6.817764922510357
5.479001457725947,0.5796106183826881,-6.959422295534749,-6.6637719349393985
5.487,0.6378736842105259,-7.081757894736842,-6.509778947368423
5.494998542274052,0.6961367500383574,-7.204093493938921,-6.355785959797463
5.502997084548105,0.7427813411078741,-7.904408163265302,-5.485288629737596
5.510995626822157,0.6666104956268226,-7.7748650299217426,-5.243655071351849
5.518994169096209,0.6474139941690976,-7.790693724106182,-5.239192726714746
5.526992711370262,0.6282174927113705,-7.8065224182906245,-5.234730382077643
5.534991253644314,0.6090209912536455,-7.822351112475064,-5.23026803744054
5.542989795918367,0.5898244897959184,-7.838179806659506,-5.225805692803437
5.550988338192419,0.5706279883381934,-7.854008500843945,-5.221343348166334
5.558986880466472,0.5514314868804663,-7.869837195028388,-5.216881003529231
5.566985422740524,0.5322349854227413,-7.885665889212827,-5.212418658892128
5.574983965014577,0.5130384839650142,-7.901494583397269,-5.207956314255025
5.582982507288629,0.49384198250728917,-7.917323277581708,-5.203493969617923
5.590981049562682,0.47464548104956206,-7.93315197176615,-5.199031624980819
5.598979591836734,0.45544897959183706,-7.94898066595059,-5.194569280343717
5.606978134110787,1.2407740524780837,-7.2628965014577345,-4.050830903790096
5.614976676384839,1.3278705026751607,-7.324673885880878,-4.0360627302726435
5.622975218658892,1.4099654310703853,-7.3875195751770075,-4.0220872553102875
5.630973760932944,1.4920603594656008,-7.450365264473131,-4.008111780347933
5.638972303206997,1.5741552878608251,-7.513210953769261,-3.994136305385577
5.646970845481049,1.6562502162560406,-7.576056643065384,-3.9801608304232223
5.654969387755102,1.7383451446512652,-7.638902332361514,-3.966185355460866
5.662967930029154,1.8204400730464807,-7.701748021657638,-3.9522098804985113
5.670966472303206,1.9025350014416962,-7.764593710953761,-3.9382344055361567
5.678965014577259,1.9846299298369208,-7.827439400249891,-3.9242589305738003
5.686963556851311,2.0667248582321363,-7.890285089546015,-3.9102834556114456
5.694962099125364,2.1488197866273606,-7.953130778842144,-3.8963079806490897
5.702960641399416,5.277096209913652,-9.912995626822505,-4.320427113700593
5.710959183673469,4.170193226226658,-8.289326096396014,-6.533373425966127
5.718957725947521,4.265750279139003,-7.987764034489201,-6.651990106072814
5.726956268221574,4.361307332051359,-7.686201972582356,-6.770606786179513
5.734954810495626,4.456864384963704,-7.384639910675543,-6.8892234662862
5.742953352769679,4.55242143787606,-7.0830778487686965,-7.007840146392899
5.750951895043731,4.647978490788404,-6.781515786861884,-7.126456826499586
5.758950437317784,4.74353554370076,-6.479953724955038,-7.245073506606286
5.766948979591836,4.839092596613105,-6.178391663048225,-7.363690186712972
5.774947521865889,4.93464964952546,-5.876829601141379,-7.482306866819672
5.782946064139941,5.030206702437805,-5.5752675392345665,-7.600923546926358
5.790944606413994,5.125763755350161,-5.27370547732772,-7.719540227033058
5.798943148688046,5.221320808262506,-4.972143415420907,-7.838156907139745
5.806941690962099,2.812711934543397,-5.91151697545378,-6.70154274428665
5.814940233236151,2.7003023135521493,-5.983675867582056,-6.5843167967647895
5.822938775510204,2.587892692560889,-6.05583475971034,-6.467090849242917
5.830937317784256,2.4754830715696414,-6.127993651838616,-6.349864901721057
5.838935860058308,2.3630734505783937,-6.200152543966892,-6.232638954199198
5.846934402332361,2.2506638295871335,-6.272311436095176,-6.115413006677325
5.854932944606413,2.1382542085958858,-6.344470328223452,-5.998187059155465
5.862931486880466,2.0258445876046256,-6.416629220351736,-5.880961111633592
5.870930029154518,1.9134349666133776,-6.488788112480012,-5.763735164111733
5.878928571428571,1.8010253456221175,-6.5609470046082965,-5.646509216589859
5.886927113702623,1.6886157246308697,-6.633105896736573,-5.529283269067999
5.894925655976676,1.5762061036396093,-6.705264788864857,-5.412057321546127
5.902924198250728,1.544118950437332,-7.253868221574205,-5.535616909621024
5.910922740524781,1.472673469387742,-9.02325655976662,-5.718138483964895
5.918921282798833,2.1156214377642937,-10.624684028051377,-8.596729283219078
5.926919825072886,2.175142121713552,-10.568910408951224,-8.614167546555302
5.934918367346938,2.2346628056628037,-10.513136789851078,-8.631605809891523
5.942916909620991,2.2941834896120623,-10.457363170750925,-8.649044073227747
5.950915451895043,2.3537041735613142,-10.401589551650778,-8.666482336563968
5.958913994169096,2.413224857510573,-10.345815932550625,-8.683920599900192
5.966912536443148,2.4727455414598243,-10.29004231345048,-8.701358863236413
5.974911078717201,2.532266225409083,-10.234268694350327,-8.718797126572637
5.982909620991253,2.591786909358335,-10.178495075250181,-8.736235389908858
5.990908163265305,2.6513075933075867,-10.122721456150034,-8.75367365324508
5.998906705539358,2.7108282772568453,-10.06694783704988,-8.771111916581303
6.00690524781341,2.770348961206097,-10.011174217949735,-8.788550179917525
6.014903790087463,2.8298696451553553,-9.955400598849582,-8.805988443253748
6.022902332361515,2.8893903291046072,-9.899626979749435,-8.823426706589968
6.030900874635568,2.9477813411078677,-8.96888921282807,-9.014615160349837
6.03889941690962,1.5264361651637453,-7.252920333581937,-6.043982456437731
6.046897959183673,1.4769568106312312,-7.261104888467014,-5.981575225439015
6.054896501457725,1.427477456098723,-7.269289443352091,-5.919167994440307
6.062895043731778,1.3779981015662088,-7.277473998237168,-5.85676076344159
6.07089358600583,1.3285187470337005,-7.285658553122245,-5.794353532442882
6.078892128279883,1.2790393925011867,-7.293843108007322,-5.731946301444166
6.086890670553935,1.2295600379686782,-7.302027662892399,-5.669539070445457
6.094889212827988,1.1800806834361643,-7.310212217777476,-5.607131839446741
6.10288775510204,1.1306013289036558,-7.318396772662553,-5.544724608448032
6.110886297376093,1.081121974371142,-7.326581327547631,-5.482317377449316
6.118884839650145,1.0316426198386335,-7.334765882432707,-5.419910146450607
6.126883381924198,1.1440539358600228,-7.6567069970845525,-5.403539358600566
6.13488192419825,1.9391071428571403,-7.968123177842562,-5.856211005830903
6.1428804664723025,2.1736209912536193,-8.178402332361513,-6.2078906705538515
6.150879008746355,2.1206369722492178,-8.226760411042724,-6.134078231292518
6.1588775510204075,2.0613885109599437,-8.275245401864446,-6.040761904761911
6.16687609329446,2.002140049670663,-8.323730392686175,-5.947445578231294
6.1748746355685125,1.9428915883813886,-8.372215383507896,-5.854129251700687
6.182873177842565,1.883643127092108,-8.420700374329625,-5.76081292517007
6.1908717201166175,1.8243946658028338,-8.469185365151347,-5.667496598639463
6.19887026239067,1.765146204513553,-8.517670355973076,-5.574180272108846
6.2068688046647225,1.7058977432242788,-8.5661553467948,-5.480863945578239
6.214867346938775,1.646649281934998,-8.614640337616526,-5.387547619047622
6.2228658892128275,1.587400820645724,-8.66312532843825,-5.294231292517015
6.23086443148688,1.070778425655974,-8.379556851311948,-4.910778425655974
6.2388629737609325,1.0338301115477262,-8.321728039041705,-4.964339776904548
6.246861516034985,1.0031400526048928,-8.276692768411712,-5.025719894790214
6.2548600583090375,0.9724499936620629,-8.231657497781724,-5.087100012675874
6.26285860058309,0.9417599347192295,-8.18662222715173,-5.148480130561541
6.2708571428571425,0.9110698757763994,-8.141586956521742,-5.209860248447201
6.278855685131195,0.880379816833566,-8.096551685891749,-5.271240366332868
6.2868542274052475,0.849689757890736,-8.05151641526176,-5.332620484218528
6.2948527696793,0.8189996989479026,-8.006481144631767,-5.394000602104195
6.3028513119533525,0.7883096400050726,-7.961445874001778,-5.455380719989855
6.3108498542274045,0.7576195810622426,-7.916410603371789,-5.516760837875515
6.3188483965014575,0.7269295221194092,-7.8713753327417955,-5.578140955761182
6.3268469387755095,0.36729591836735576,-8.047357142857164,-5.340607142857178
6.3348454810495625,0.388863820182451,-7.812912348349479,-5.18677616853193
6.3428440233236145,0.3853375811153958,-7.7929589955798,-5.163296576695196
6.3508425655976675,0.38181134204834016,-7.77300564281012,-5.13981698485846
6.3588411078717195,0.378285102981285,-7.753052290040442,-5.116337393021727
6.3668396501457725,0.37475886391422936,-7.7330989372707615,-5.092857801184991
6.3748381924198245,0.3712326248471742,-7.713145584501083,-5.069378209348257
6.3828367346938775,0.36770638578011855,-7.693192231731403,-5.045898617511521
6.3908352769679295,0.3641801467130633,-7.673238878961724,-5.022419025674788
6.3988338192419825,0.36065390764600774,-7.653285526192044,-4.998939433838052
6.4068323615160345,0.3571276685789525,-7.633332173422366,-4.975459842001318
6.4148309037900875,0.35360142951189694,-7.613378820652685,-4.951980250164582
6.4228294460641395,0.3500751904448417,-7.593425467883007,-4.928500658327849
6.4308279883381925,0.6737352521555742,-6.785727436263258,-4.647409838099373
6.4388265306122445,0.6904981545809811,-6.763773990447243,-4.641708749457229
6.4468250728862975,0.7072610570063899,-6.741820544631226,-4.6360076608150855
6.4548236151603495,0.7240239594317968,-6.719867098815211,-4.630306572172942
6.462822157434402,0.7407868618572038,-6.697913652999196,-4.624605483530798
6.4708206997084545,0.7575497642826124,-6.675960207183178,-4.618904394888655
6.478819241982507,0.7743126667080193,-6.654006761367163,-4.613203306246511
6.4868177842565595,0.7910755691334281,-6.632053315551145,-4.607502217604368
6.494816326530612,0.8078384715588351,-6.61009986973513,-4.601801128962224
6.5028148688046645,0.8246013739842438,-6.588146423919112,-4.59610004032008
6.510813411078717,0.8413642764096507,-6.566192978103097,-4.590398951677936
6.5188119533527695,0.8581271788350595,-6.544239532287079,-4.584697863035792
6.526810495626822,0.9249585357952635,-6.341065759637192,-4.5104502753482345
6.5348090379008745,1.062711208292837,-6.272633786848075,-4.51489390994493
6.542807580174927,1.0809053803339503,-6.490322024913841,-4.560425921017753
6.5508061224489795,1.01448469387755,-7.002775510204082,-4.811158163265304
6.558804664723032,1.1042283381924143,-6.908072769679306,-4.965530029154509
6.5668032069970845,1.1939719825072888,-6.813370029154519,-5.119901895043732
6.574801749271137,1.2837156268221532,-6.718667288629742,-5.274273760932937
6.5828002915451895,1.3734592711370275,-6.623964548104955,-5.42864562682216
6.590798833819242,1.463202915451892,-6.529261807580178,-5.583017492711365
6.5987973760932945,1.5838688046647378,-6.547658892128318,-5.793763848396528
6.606795918367347,2.2457959183673344,-7.883755102040801,-6.881673469387735
6.6147944606413995,2.3789803041346413,-8.07585414457991,-7.02836923535648
6.622793002915452,2.410701795653325,-8.158475450569835,-6.987467598727804
6.630791545189504,2.4424232871720086,-8.24109675655976,-6.946565962099129
6.638790087463557,2.474144778690696,-8.323718062549693,-6.9056643254704495
6.646788629737609,2.5058662702093795,-8.406339368539617,-6.864762688841774
6.654787172011662,2.5375877617280667,-8.48896067452955,-6.823861052213094
6.662785714285714,2.5693092532467507,-8.571581980519474,-6.782959415584418
6.670784256559767,2.601030744765438,-8.654203286509407,-6.742057778955739
6.678782798833819,2.6327522362841216,-8.736824592499332,-6.701156142327064
6.686781341107872,2.6644737278028088,-8.819445898489265,-6.660254505698384
6.694779883381924,2.6961952193214924,-8.902067204479188,-6.619352869069709
6.702778425655977,2.4178969873663916,-8.7564198250729,-6.94391107871722
6.710776967930029,2.268236484345292,-8.647967438838887,-6.784386598428189
6.718775510204082,2.2585860692102933,-8.671354480922803,-6.795080301685891
6.726774052478134,2.2489356540752956,-8.694741523006716,-6.805774004943591
6.734772594752187,2.239285238940297,-8.718128565090632,-6.8164677082012926
6.742771137026239,2.2296348238052994,-8.741515607174545,-6.8271614114589925
6.750769679300292,2.2199844086703004,-8.764902649258461,-6.837855114716693
6.758768221574344,2.210333993535303,-8.788289691342374,-6.848548817974394
6.766766763848397,2.2006835784003043,-8.81167673342629,-6.859242521232095
6.774765306122449,2.1910331632653066,-8.835063775510203,-6.869936224489795
6.782763848396501,2.181382748130309,-8.858450817594116,-6.880629927747495
6.790762390670554,2.17173233299531,-8.881837859678033,-6.891323631005196
6.798760932944606,2.1972419825072587,-10.04820408163165,-7.206514577259207
6.806759475218659,3.1922572145080825,-8.706593331521477,-6.054404284231847
6.814758017492711,3.1107127538666877,-8.56539872510749,-6.206105450412597
6.822756559766764,3.0291682932252835,-8.424204118693488,-6.357806616593363
6.830755102040816,2.9476238325838886,-8.283009512279502,-6.509507782774112
6.838753644314869,2.866079371942485,-8.1418149058655,-6.661208948954879
6.846752186588921,2.78453491130109,-8.000620299451512,-6.812910115135629
6.854750728862974,2.702990450659686,-7.859425693037511,-6.964611281316396
6.862749271137026,2.621445990018291,-7.718231086623525,-7.116312447497145
6.870747813411079,2.539901529376887,-7.5770364802095225,-7.268013613677912
6.878746355685131,2.4583570687354923,-7.435841873795536,-7.419714779858661
6.886744897959184,2.376812608094088,-7.294647267381534,-7.571415946039427
6.894743440233236,2.2952681474526933,-7.153452660967547,-7.723117112220177
6.902741982507289,2.2137236868112895,-7.012258054553545,-7.8748182784009435
6.910740524781341,2.132179226169894,-6.871063448139559,-8.026519444581693
6.918739067055394,2.0506347655284904,-6.7298688417255565,-8.178220610762459
6.926737609329446,1.776998833819236,-5.9058134110787694,-8.165083381924205
6.934736151603498,1.8745810495626731,-5.057967930029234,-8.046704956268233
6.942734693877551,1.7440816326530721,-5.027265306122441,-8.279428571428554
6.950733236151603,1.152730036265377,-5.936886688473289,-9.225181238000433
6.958731778425656,1.1564366778070112,-6.0287723814264345,-9.163436393372683
6.966730320699708,1.160143319348645,-6.12065807437957,-9.101691548744938
6.974728862973761,1.1638499608902795,-6.212543767332715,-9.039946704117188
6.982727405247813,1.1675566024319133,-6.304429460285849,-8.978201859489445
6.990725947521866,1.1712632439735475,-6.396315153238994,-8.916457014861695
6.998724489795918,1.1749698855151816,-6.488200846192129,-8.854712170233952
7.006723032069971,1.1786765270568158,-6.580086539145274,-8.792967325606202
7.014721574344023,1.1823831685984496,-6.671972232098409,-8.731222480978458
7.022720116618076,1.1860898101400839,-6.763857925051554,-8.669477636350708
7.030718658892128,1.1603556851312036,-6.9471399416909305,-8.422208454810551
7.038717201166181,0.555074829931953,-8.073705053449988,-5.706405247813344
7.046715743440233,0.11337458021183186,-7.842205299479648,-5.3130697125143005
7.054714285714286,0.08502531645569505,-7.778014466546109,-5.3780705244122995
7.062712827988338,0.05667605269956141,-7.713823633612578,-5.443071336310291
7.070711370262391,0.028326788943424608,-7.64963280067904,-5.508072148208291
7.078709912536443,-2.247481270903351e-05,-7.585441967745509,-5.573072960106283
7.086708454810496,-0.02837173856884584,-7.521251134811971,-5.638073772004282
7.094706997084548,-0.05672100232497948,-7.45706030187844,-5.703074583902274
7.1027055393586,-0.08507026608111312,-7.392869468944909,-5.768075395800267
7.110704081632653,-0.11341952983724993,-7.32867863601137,-5.833076207698266
7.118702623906705,-0.14176879359338357,-7.264487803077839,-5.898077019596258
7.126701166180758,0.1534103498541586,-6.73599344023326,-6.592943148688028
7.13469970845481,0.5329403262824887,-6.3123022455182705,-7.043806525649772
7.142698250728863,0.5356632342906769,-6.221510281620245,-7.098264685813536
7.150696793002915,0.5383861422988647,-6.130718317722228,-7.152722845977295
7.158695335276968,0.541109050307053,-6.039926353824202,-7.2071810061410595
7.16669387755102,0.5438319583152409,-5.9491343899261855,-7.261639166304818
7.174692419825073,0.5465548663234291,-5.85834242602816,-7.316097326468582
7.182690962099125,0.5492777743316171,-5.767550462130144,-7.370555486632341
7.190689504373178,0.5520006823398053,-5.676758498232117,-7.425013646796105
7.19868804664723,0.5547235903479931,-5.585966534334101,-7.479471806959864
7.206686588921283,0.5574464983561814,-5.495174570436075,-7.533929967123628
7.214685131195335,0.5601694063643693,-5.404382606538059,-7.588388127287387
7.222683673469388,0.5628923143725575,-5.313590642640032,-7.642846287451151
7.23068221574344,0.36379494655005995,-4.875065111758983,-7.3173751214771885
7.238680758017493,0.250051855734268,-5.065569676024503,-6.858852540374095
7.246679300291545,0.2518492809643921,-5.087048907524485,-6.834677171028926
7.254677842565597,0.2536467061945161,-5.108528139024468,-6.810501801683758
7.26267638483965,0.2554441314246404,-5.130007370524453,-6.786326432338587
7.270674927113702,0.25724155665476445,-5.151486602024435,-6.762151062993419
7.278673469387755,0.2590389818848887,-5.17296583352442,-6.737975693648248
7.286672011661807,0.26083640711501277,-5.194445065024402,-6.713800324303079
7.29467055393586,0.262633832345137,-5.215924296524387,-6.689624954957908
7.302669096209912,0.26443125757526104,-5.23740352802437,-6.665449585612739
7.310667638483965,0.2662286828053853,-5.258882759524354,-6.641274216267568
7.318666180758017,0.26802610803550936,-5.2803619910243365,-6.617098846922399
7.32666472303207,0.3938950437317715,-5.267190962099127,-6.232752186588927
7.334663265306122,0.4013265306122438,-5.296068513119536,-6.635153061224461
7.342661807580175,0.39482465639316955,-5.30336443148688,-6.696903373594335
7.350660349854227,0.3873339580730255,-5.313140427599611,-6.7427362904345385
7.35865889212828,0.3798432597528807,-5.322916423712342,-6.788569207274747
7.366657434402332,0.37235256143273665,-5.332692419825072,-6.83440212411495
7.374655976676385,0.36486186311259183,-5.342468415937804,-6.880235040955159
7.382654518950437,0.3573711647924478,-5.352244412050535,-6.926067957795362
7.39065306122449,0.3498804664723029,-5.362020408163266,-6.971900874635571
7.398651603498542,0.46094023323610034,-5.407489795918352,-7.224467930029062
7.406650145772594,1.5837992941537296,-6.546583243823858,-7.237194261163105
7.414648688046647,1.7761010894583293,-6.435782384532766,-7.297730596900411
7.422647230320699,1.9684028847629076,-6.324981525241687,-7.358266932637711
7.430645772594752,2.160704680067507,-6.214180665950596,-7.418803268375017
7.438644314868804,2.3530064753720854,-6.103379806659516,-7.479339604112316
7.446642857142857,2.5453082706766854,-5.992578947368425,-7.5398759398496225
7.454641399416909,2.7376100659812637,-5.881778088077345,-7.600412275586922
7.462639941690962,2.9299118612858637,-5.770977228786254,-7.660948611324228
7.470638483965014,3.122213656590442,-5.660176369495175,-7.721484947061527
7.478637026239067,3.3145154518950415,-5.549375510204083,-7.7820212827988335
7.486635568513119,3.5068172471996197,-5.4385746509130035,-7.842557618536133
7.494634110787172,3.6991190425042197,-5.327773791621912,-7.903093954273439
7.502632653061224,3.272217474489796,-4.8905997023809515,-9.023331207482993
7.510631195335277,3.2749669733965012,-4.898181653911564,-9.04016147351798
7.518629737609329,3.2777164723032066,-4.905763605442177,-9.056991739552963
7.526628279883382,3.2804659712099125,-4.913345556972789,-9.07382200558795
7.534626822157434,3.283215470116618,-4.920927508503401,-9.090652271622934
7.542625364431487,3.2859649690233237,-4.928509460034014,-9.107482537657921
7.550623906705539,3.288714467930029,-4.936091411564625,-9.124312803692906
7.558622448979592,3.291463966836735,-4.943673363095238,-9.141143069727892
7.566620991253644,3.2942134657434403,-4.95125531462585,-9.157973335762877
7.574619533527696,3.2969629646501457,-4.958837266156462,-9.17480360179786
7.582618075801749,3.2997124635568515,-4.966419217687075,-9.191633867832847
7.590616618075801,3.302461962463557,-4.974001169217686,-9.208464133867832
7.598615160349854,3.419112244897947,-4.800758017492731,-9.14925801749272
7.606613702623906,3.2505050315056874,-6.204421847079865,-13.742287595222441
7.614612244897959,3.267878209348254,-6.062770243581315,-13.590057274522724
7.622610787172011,3.2852513871908187,-5.9211186400827795,-13.437826953823024
7.630609329446064,3.302624565033385,-5.779467036584229,-13.285596633123307
7.638607871720116,3.31999774287595,-5.637815433085695,-13.133366312423606
7.646606413994169,3.3373709207185165,-5.496163829587144,-12.981135991723889
7.654604956268221,3.3547440985610812,-5.354512226088609,-12.828905671024188
7.662603498542274,3.372117276403648,-5.212860622590059,-12.676675350324471
7.670602040816326,3.3894904542462125,-5.071209019091524,-12.52444502962477
7.678600583090379,3.406863632088779,-4.929557415592973,-12.372214708925053
7.686599125364431,3.424236809931344,-4.787905812094438,-12.219984388225352
7.694597667638484,3.4416099877739104,-4.646254208595888,-12.067754067525636
7.702596209912536,3.4952174441204975,-4.350061224489836,-11.570190233236223
7.710594752186589,3.5756472303206976,-3.9394693877551132,-10.81699416909623
7.718593294460641,3.339456997084649,-4.916703352769483,-9.8541384839652
7.726591836734693,1.850992766726972,-5.539165073624389,-7.615241539653845
7.734590379008746,1.6645963575303706,-5.5237754732996285,-7.554695612060382
7.742588921282798,1.4781999483337898,-5.50838587297487,-7.494149684466923
7.750587463556851,1.2918035391371883,-5.49299627265011,-7.43360375687346
7.758586005830903,1.1054071299406074,-5.477606672325352,-7.373057829280002
7.766584548104956,0.9190107207440059,-5.462217072000591,-7.312511901686538
7.774583090379008,0.7326143115474251,-5.446827471675833,-7.25196597409308
7.782581632653061,0.5462179023508236,-5.431437871351073,-7.191420046499616
7.790580174927113,0.3598214931542427,-5.416048271026314,-7.130874118906158
7.798578717201166,0.17342508395764122,-5.400658670701554,-7.070328191312694
7.806577259475218,0.09041399416904608,-5.498444606414049,-7.852115160349843
7.814575801749271,1.1564858912952938,-5.169979765375535,-8.067175829515481
7.822574344023323,1.1493443356934616,-5.2947189365542044,-8.027944884076083
7.830572886297376,1.1422027800916286,-5.419458107732888,-7.98871393863668
7.838571428571428,1.1350612244897964,-5.5441972789115574,-7.9494829931972815
7.846569970845481,1.1279196688879634,-5.668936450090241,-7.910252047757878
7.854568513119533,1.1207781132861312,-5.7936756212689104,-7.871021102318481
7.862567055393586,1.1136365576842981,-5.918414792447594,-7.8317901568790775
7.870565597667638,1.106495002082466,-6.0431539636262634,-7.792559211439679
7.87856413994169,1.0993534464806336,-6.167893134804933,-7.753328266000281
7.886562682215743,1.0922118908788006,-6.2926323059836164,-7.714097320560878
7.894561224489795,1.0850703352769684,-6.417371477162286,-7.67486637512148
7.902559766763848,0.6860655976676275,-6.441889212827996,-8.171470845481029
7.9105583090379,0.13383668817071107,-6.485976846969791,-7.445487997022519
7.918556851311953,0.10924542522176114,-6.4908270268593755,-7.427789094969295
7.926555393586005,0.08465416227281394,-6.495677206748961,-7.410090192916074
7.934553935860058,0.06006289932386401,-6.500527386638546,-7.39239129086285
7.94255247813411,0.03547163637491681,-6.50537756652813,-7.3746923888096285
7.950551020408163,0.010880373425966872,-6.510227746417716,-7.356993486756405
7.958549562682215,-0.01371088952298033,-6.515077926307301,-7.339294584703183
7.966548104956268,-0.03830215247193028,-6.519928106196886,-7.32159568264996
7.97454664723032,-0.06289341542087748,-6.5247782860864705,-7.303896780596738
7.982545189504373,-0.0874846783698274,-6.529628465976056,-7.286197878543515
7.990543731778425,-0.1120759413187746,-6.53447864586564,-7.268498976490293
7.998542274052478,-0.23098250728863523,-6.543880466472303,-7.100163265306114
8.006540816326531,-0.22416326530612649,-6.454312244897935,-6.576426530612283
8.014539358600583,-0.22077223841917615,-6.418491383219954,-6.6355048914804025
8.022537900874635,-0.20948540654356956,-6.417869274376417,-6.641014998380305
8.030536443148687,-0.19819857466796298,-6.4172471655328795,-6.646525105280207
8.03853498542274,-0.1869117427923564,-6.416625056689342,-6.65203521218011
8.046533527696793,-0.17562491091674728,-6.416002947845804,-6.657545319080013
8.054532069970845,-0.1643380790411407,-6.4153808390022675,-6.663055425979915
8.062530612244897,-0.15305124716553412,-6.41475873015873,-6.668565532879818
8.07052915451895,-0.14176441528992753,-6.414136621315192,-6.67407563977972
8.078527696793003,-0.13047758341431842,-6.4135145124716555,-6.679585746679624
8.086526239067055,-0.11919075153871185,-6.412892403628118,-6.685095853579527
8.094524781341107,-0.10790391966310527,-6.41227029478458,-6.690605960479428
8.10252332361516,-0.1846224489794903,-6.028160349854267,-6.891989795918344
8.110521865889213,-0.25705240816326547,-5.847879603498542,-6.950819405247813
8.118520408163265,-0.24988571428571482,-5.844808163265306,-6.946212244897959
8.126518950437317,-0.24271902040816418,-5.84173672303207,-6.941605084548105
8.13451749271137,-0.23555232653061353,-5.838665282798834,-6.936997924198251
8.142516034985423,-0.2283856326530613,-5.835593842565597,-6.932390763848396
8.150514577259475,-0.22121893877551066,-5.832522402332361,-6.9277836034985425
8.158513119533527,-0.21405224489796001,-5.829450962099125,-6.923176443148688
8.16651166180758,-0.20688555102040937,-5.826379521865889,-6.918569282798834
8.174510204081633,-0.19971885714285714,-5.823308081632653,-6.91396212244898
8.182508746355685,-0.1925521632653065,-5.820236641399417,-6.909354962099125
8.190507288629737,-0.18538546938775585,-5.817165201166181,-6.904747801749271
8.19850583090379,-0.1782187755102052,-5.814093760932945,-6.9001406413994175
8.206504373177841,-0.17105208163265456,-5.811022320699709,-6.895533481049563
8.214502915451895,-0.1638853877551023,-5.807950880466472,-6.890926320699708
8.222501457725947,-0.15671869387755166,-5.804879440233236,-6.886319160349855
8.2305,-0.028000000000216713,-5.713000000000157,-6.784000000000174
8.238498542274051,0.11221127087198644,-5.75206973893453,-6.503372448979588
8.246497084548105,0.10648504174397058,-5.774701977869069,-6.517369897959183
8.254495626822157,0.10075881261595598,-5.797334216803603,-6.531367346938774
8.26249416909621,0.09503258348794139,-5.819966455738136,-6.545364795918365
8.270492711370261,0.0893063543599268,-5.84259869467267,-6.559362244897956
8.278491253644315,0.08358012523191094,-5.865230933607209,-6.573359693877551
8.286489795918367,0.07785389610389634,-5.887863172541743,-6.587357142857142
8.29448833819242,0.07212766697588174,-5.910495411476277,-6.601354591836733
8.302486880466471,0.06640143784786716,-5.93312765041081,-6.615352040816324
8.310485422740525,0.06067520871985129,-5.95575988934535,-6.629349489795919
8.318483965014577,0.0549489795918367,-5.978392128279883,-6.64334693877551
8.32648250728863,0.08741010689989678,-6.263765792031053,-6.875598153547096
8.334481049562681,0.3025918367346774,-7.053612244897953,-7.568632653061228
8.342479591836735,0.3781079734219268,-7.067453251067867,-7.5510637161841485
8.350478134110787,0.37680588514475555,-7.0447597125228825,-7.551156722489661
8.35847667638484,0.3755037968675843,-7.022066173977898,-7.551249728795173
8.366475218658891,0.374201708590413,-6.999372635432913,-7.551342735100684
8.374473760932943,0.37289962031324175,-6.976679096887928,-7.5514357414061966
8.382472303206997,0.3715975320360702,-6.953985558342938,-7.551528747711709
8.39047084548105,0.37029544375889895,-6.9312920197979535,-7.551621754017221
8.398469387755101,0.3689933554817277,-6.908598481252969,-7.551714760322733
8.406467930029153,0.3676912672045564,-6.885904942707984,-7.5518077666282455
8.414466472303207,0.3663891789273849,-6.863211404162994,-7.551900772933758
8.42246501457726,0.3650870906502136,-6.8405178656180095,-7.55199377923927
8.430463556851311,-0.43321282798836047,-10.358768354094918,-10.466545719586557
8.438462099125363,0.3511316812437645,-8.676298833819658,-9.223610301263683
8.446460641399417,0.9783987143911073,-7.262936457199044,-8.288360989146096
8.45445918367347,1.1336475288910812,-7.110578682075233,-8.36680452421933
8.462457725947521,1.288896343391055,-6.958220906951422,-8.445248059292563
8.470456268221573,1.444145157891029,-6.805863131827612,-8.523691594365795
8.478454810495627,1.5993939723910373,-6.653505356703768,-8.602135129439047
8.48645335276968,1.7546427868910113,-6.501147581579957,-8.68057866451228
8.494451895043731,1.909891601390985,-6.348789806456146,-8.759022199585512
8.502450437317783,2.065140415890959,-6.1964320313323356,-8.837465734658746
8.510448979591835,2.220389230390933,-6.044074256208526,-8.91590926973198
8.51844752186589,2.375638044890941,-5.891716481084681,-8.99435280480523
8.526446064139941,2.7455976676385148,-4.602198250728794,-7.615586005830831
8.534444606413993,2.953253598760932,-4.064221574344026,-7.560678799198243
8.542443148688045,2.9595024599125352,-4.032227405247818,-7.645413356413982
8.5504416909621,2.96575132106414,-4.000233236151603,-7.7301479136297395
8.558440233236151,2.9720001822157434,-3.9682390670553946,-7.814882470845479
8.566438775510203,2.9782490433673465,-3.9362448979591864,-7.8996170280612175
8.574437317784255,2.9844979045189497,-3.904250728862978,-7.984351585276956
8.58243586005831,2.990746765670554,-3.872256559766763,-8.069086142492715
8.590434402332361,2.9969956268221574,-3.8402623906705546,-8.153820699708453
8.598432944606413,3.0032444879737605,-3.8082682215743464,-8.238555256924192
8.606431486880465,3.0094933491253637,-3.776274052478138,-8.323289814139931
8.61443002915452,3.015742210276968,-3.744279883381923,-8.408024371355689
8.622428571428571,3.0219910714285714,-3.7122857142857146,-8.492758928571428
8.630427113702623,3.4750510204082006,-4.414946064140007,-8.517451895043958
8.638425655976675,3.4274766446951497,-4.320514038534678,-8.398663550513373
8.64642419825073,3.3978298738750157,-4.256438759665356,-8.401532592850806
8.654422740524781,3.368183103054888,-4.192363480796048,-8.404401635188238
8.662421282798833,3.3385363322347605,-4.12828820192674,-8.40727067752567
8.670419825072885,3.3088895614146328,-4.064212923057432,-8.4101397198631
8.678418367346938,3.2792427905945054,-4.000137644188124,-8.413008762200532
8.686416909620991,3.249596019774371,-3.936062365318802,-8.415877804537965
8.694415451895043,3.2199492489542436,-3.871987086449494,-8.418746846875397
8.702413994169095,3.190302478134116,-3.807911807580186,-8.421615889212827
8.710412536443148,3.1606557073139885,-3.743836528710878,-8.424484931550259
8.718411078717201,3.131008936493854,-3.679761249841556,-8.427353973887692
8.726409620991253,2.7059416909621397,-2.830870262390729,-8.673720116618018
8.734408163265305,2.4380732292917178,-2.9615426170468107,-8.874331332533016
8.742406705539358,2.429133682044248,-3.0205906791287833,-8.853158720631113
8.750405247813411,2.420194134796776,-3.0796387412107693,-8.831986108729206
8.758403790087463,2.411254587549306,-3.1386868032927424,-8.810813496827302
8.766402332361515,2.402315040301836,-3.1977348653747155,-8.7896408849254
8.774400874635568,2.393375493054366,-3.256782927456688,-8.768468273023498
8.782399416909621,2.384435945806894,-3.315830989538674,-8.74729566112159
8.790397959183673,2.3754963985594237,-3.3748790516206473,-8.726123049219687
8.798396501457725,2.3503469387755334,-3.458226433430477,-8.70084548104957
8.806395043731778,2.2797462231645853,-3.6767271402067268,-8.62629194275113
8.814393586005831,2.2190341902994617,-4.017633448184572,-8.39621229790611
8.822392128279883,1.8816411343758424,-5.018905512854451,-7.7686902994964475
8.830390670553935,1.8595270664250254,-4.943431802064455,-7.577095973524545
8.838389212827988,1.8664447246079894,-4.943972244109999,-7.559693739658027
8.84638775510204,1.8733623827909534,-4.9445126861555435,-7.542291505791508
8.854386297376093,1.8802800409739189,-4.945053128201088,-7.524889271924986
8.862384839650145,1.8871976991568828,-4.945593570246632,-7.507487038058467
8.870383381924198,1.8941153573398468,-4.946134012292176,-7.490084804191948
8.87838192419825,1.9010330155228106,-4.94667445433772,-7.472682570325429
8.886380466472303,1.907950673705776,-4.947214896383264,-7.455280336458907
8.894379008746355,1.91486833188874,-4.947755338428808,-7.4378781025923875
8.902377551020408,2.0453657525510205,-4.880476934523809,-7.043394345238094
8.91037609329446,2.0531143403790084,-4.8693956207483,-7.030563350340136
8.918374635568513,2.060862928206998,-4.858314306972788,-7.017732355442175
8.926373177842565,2.068611516034986,-4.847232993197278,-7.004901360544216
8.934371720116618,2.076360103862974,-4.836151679421769,-6.992070365646258
8.94237026239067,2.084108691690962,-4.825070365646259,-6.979239370748299
8.950368804664723,2.091857279518951,-4.813989051870747,-6.966408375850338
8.958367346938775,2.099605867346939,-4.802907738095238,-6.95357738095238
8.966365889212828,2.107354455174927,-4.791826424319728,-6.940746386054421
8.97436443148688,2.115103043002915,-4.780745110544218,-6.927915391156462
8.982362973760932,2.122851630830903,-4.769663796768708,-6.9150843962585045
8.990361516034985,2.1306002186588926,-4.758582482993196,-6.902253401360543
8.998360058309038,2.14358090379009,-4.73683819241982,-6.903142128279889
9.00635860058309,2.225368434056431,-4.3820362207837125,-7.78632573998122
9.014357142857142,2.2275375302663436,-4.388136803874091,-7.800018159806292
9.022355685131195,2.2297066264762564,-4.394237386964471,-7.813710579631367
9.030354227405248,2.2318757226861687,-4.400337970054849,-7.82740299945644
9.0383527696793,2.234044818896081,-4.406438553145229,-7.841095419281512
9.046351311953352,2.236213915105994,-4.4125391362356075,-7.854787839106584
9.054349854227405,2.2383830113159067,-4.418639719325987,-7.86848025893166
9.062348396501458,2.240552107525819,-4.424740302416366,-7.882172678756732
9.07034693877551,2.2427212037357314,-4.430840885506745,-7.895865098581805
9.078345481049562,2.244890299945644,-4.436941468597124,-7.909557518406877
9.086344023323615,2.247059396155557,-4.443042051687503,-7.923249938231952
9.094342565597668,2.2492284923654693,-4.449142634777882,-7.936942358057024
9.10234110787172,2.2513975885753816,-4.4552432178682615,-7.9506347778820965
9.110339650145772,2.2535666847852944,-4.46134380095864,-7.964327197707169
9.118338192419825,2.255735780995207,-4.46744438404902,-7.978019617532245
9.126336734693878,2.8885408163265955,-5.043918367346969,-7.818056122449007
9.13433527696793,3.386985729630198,-5.459232162037748,-8.231341107871721
9.142333819241982,3.400456958723338,-5.476071198404173,-8.26333527696793
9.150332361516034,3.413928187816478,-5.492910234770598,-8.295329446064137
9.158330903790088,3.4273994169096214,-5.509749271137027,-8.327323615160351
9.16632944606414,3.440870646002762,-5.526588307503452,-8.35931778425656
9.174327988338192,3.454341875095902,-5.543427343869878,-8.391311953352767
9.182326530612244,3.467813104189042,-5.560266380236302,-8.423306122448976
9.190325072886298,3.4812843332821855,-5.577105416602731,-8.455300291545191
9.19832361516035,3.4947555623753255,-5.593944452969157,-8.4872944606414
9.206322157434402,3.5082267914684655,-5.610783489335582,-8.519288629737606
9.214320699708454,3.521698020561606,-5.627622525702007,-8.551282798833814
9.222319241982508,3.535169249654749,-5.644461562068436,-8.58327696793003
9.23031778425656,3.3358517604844287,-5.6530307243776665,-9.474281004709578
9.238316326530612,3.082359497645238,-5.5976562009419215,-9.448439560439562
9.246314868804664,3.1571918367346714,-6.283161516034863,-9.985447230320604
9.254313411078718,2.886916274201985,-7.923111871122056,-11.639763885774075
9.26231195335277,2.855332286760857,-7.737504672198543,-11.49435448904836
9.270310495626822,2.8237482993197287,-7.55189747327503,-11.348945092322648
9.278309037900874,2.792164311878601,-7.366290274351518,-11.203535695596933
9.286307580174928,2.7605803244374654,-7.180683075427964,-11.058126298871189
9.29430612244898,2.7289963369963375,-6.995075876504451,-10.912716902145476
9.302304664723032,2.697412349555209,-6.809468677580938,-10.767307505419762
9.310303206997084,2.6658283621140813,-6.6238614786574255,-10.62189810869405
9.318301749271136,2.634244374672953,-6.438254279733912,-10.476488711968335
9.32630029154519,2.602660387231818,-6.252647080810358,-10.33107931524259
9.334298833819242,2.259447521865886,-6.073027696793025,-9.507586005830955
9.342297376093294,2.2916254661333046,-5.555970913282263,-8.305861346531978
9.350295918367346,2.2352636449928918,-5.506398552444243,-8.235827598481267
9.3582944606414,2.178901823852466,-5.456826191606212,-8.16579385043054
9.366293002915452,2.1225400027120527,-5.407253830768192,-8.095760102379828
9.374291545189504,2.06617818157164,-5.357681469930172,-8.025726354329118
9.382290087463556,2.0098163604312265,-5.308109109092151,-7.955692606278405
9.39028862973761,1.953454539290801,-5.25853674825412,-7.8856588582276785
9.398287172011662,1.8970927181503878,-5.2089643874161,-7.815625110176967
9.406285714285714,1.8407308970099747,-5.159392026578081,-7.745591362126255
9.414284256559766,1.7843690758695616,-5.10981966574006,-7.675557614075544
9.42228279883382,1.6670772594752405,-5.036406705539368,-7.573498542274065
9.430281341107872,1.7919523056707582,-4.708610376544985,-7.565128587853651
9.438279883381924,1.8166238656428344,-4.6999359011210124,-7.609627520223377
9.446278425655976,1.8412954256149106,-4.69126142569704,-7.654126452593103
9.454276967930028,1.8659669855869867,-4.682586950273069,-7.698625384962829
9.462275510204082,1.8906385455590684,-4.673912474849095,-7.743124317332566
9.470274052478134,1.9153101055311446,-4.6652379994251225,-7.787623249702293
9.478272594752186,1.9399816655032207,-4.656563524001151,-7.832122182072019
9.486271137026238,1.9646532254752969,-4.647889048577179,-7.876621114441745
9.494269679300292,1.9893247854473786,-4.639214573153205,-7.921120046811482
9.502268221574344,2.043565597667651,-4.05427405247815,-8.170749271137007
9.510266763848396,1.7496372115432135,-4.67180914908336,-8.23253232939665
9.518265306122448,1.7433332756831557,-4.680824455205809,-8.242903320650292
9.526263848396502,1.7370293398230963,-4.68983976132826,-8.253274311903938
9.534262390670554,1.7307254039630384,-4.698855067450708,-8.263645303157583
9.542260932944606,1.7244214681029804,-4.707870373573157,-8.274016294411226
9.550259475218658,1.7181175322429225,-4.716885679695605,-8.28438728566487
9.558258017492712,1.7118135963828631,-4.725900985818056,-8.294758276918516
9.566256559766764,1.705509660522805,-4.734916291940504,-8.30512926817216
9.574255102040816,1.6992057246627472,-4.743931598062953,-8.315500259425804
9.582253644314868,1.6929017888026892,-4.752946904185401,-8.325871250679448
9.590252186588922,1.6865978529426298,-4.761962210307852,-8.336242241933093
9.598250728862974,1.680293917082572,-4.7709775164303005,-8.346613233186737
9.606249271137026,1.6739899812225139,-4.779992822552749,-8.356984224440382
9.614247813411078,1.667686045362456,-4.7890081286751975,-8.367355215694024
9.62224635568513,1.661382109502398,-4.798023434797646,-8.377726206947669
9.630244897959184,1.3542081632653251,-4.894089795918362,-8.316302040816332
9.638243440233236,0.9625462099125679,-5.014601166180748,-8.234716909620998
9.646241982507288,0.5708842565598107,-5.135112536443135,-8.153131778425665
9.65424052478134,0.1863097667638724,-5.256209183673447,-8.047903061224623
9.662239067055394,0.1710918809082076,-5.601947345171838,-7.805917042141532
9.670237609329446,0.17315211149394827,-5.637698405336161,-7.800099920487676
9.678236151603498,0.17521234207968892,-5.673449465500484,-7.7942827988338195
9.68623469387755,0.17727257266542956,-5.709200525664808,-7.788465677179964
9.694233236151604,0.17933280325117068,-5.7449515858291385,-7.782648555526106
9.702231778425656,0.18139303383691135,-5.780702645993462,-7.776831433872251
9.710230320699708,0.183453264422652,-5.816453706157785,-7.771014312218394
9.71822886297376,0.18551349500839265,-5.852204766322108,-7.765197190564538
9.726227405247814,0.20437376093294882,-5.773311953352744,-7.679476967930009
9.734225947521866,0.14949854227405382,-5.246746355685126,-7.758342565597666
9.742224489795918,0.23221660482374767,-4.904192949907236,-7.681066326530612
9.75022303206997,0.23467070302146817,-4.890013715875962,-7.670068330903791
9.758221574344024,0.2371248012191892,-4.875834481844684,-7.659070335276967
9.766220116618076,0.23957889941690969,-4.8616552478134105,-7.648072339650145
9.774218658892128,0.24203299761463018,-4.847476013782137,-7.637074344023324
9.78221720116618,0.24448709581235067,-4.833296779750863,-7.626076348396503
9.790215743440232,0.24694119401007114,-4.819117545719589,-7.6150783527696815
9.798214285714286,0.2493952922077922,-4.8049383116883115,-7.604080357142857
9.806212827988338,0.2518493904055127,-4.790759077657038,-7.593082361516036
9.81421137026239,0.25430348860323315,-4.776579843625764,-7.582084365889215
9.822209912536442,0.2567575868009537,-4.76240060959449,-7.571086370262393
9.830208454810496,0.571383381924211,-4.798938775510238,-7.492513119533547
9.838206997084548,0.5008269861516038,-4.984983509475218,-7.511616891399417
9.8462055393586,0.49595287445335334,-5.001855434584546,-7.509492278607872
9.854204081632652,0.49107876275510287,-5.018727359693875,-7.507367665816327
9.862202623906706,0.4862046510568513,-5.035599284803207,-7.505243053024781
9.870201166180758,0.4813305393586009,-5.052471209912536,-7.503118440233236
9.87819970845481,0.4764564276603504,-5.069343135021864,-7.500993827441691
9.886198250728862,0.47158231596209993,-5.086215060131193,-7.4988692146501466
9.894196793002916,0.4667082042638484,-5.103086985240525,-7.496744601858601
9.902195335276968,0.5962463556851317,-5.510879980563656,-7.9590597667638505
9.91019387755102,0.8322579547948212,-5.915172152732061,-8.491246214614879
9.918192419825072,0.9644489168939396,-5.875695476347223,-8.50672726417756
9.926190962099124,1.096639878993058,-5.836218799962386,-8.522208313740242
9.934189504373178,1.228830841092206,-5.796742123577539,-8.537689363302926
9.94218804664723,1.3610218031913244,-5.757265447192702,-8.553170412865608
9.950186588921282,1.4932127652904428,-5.717788770807863,-8.568651462428289
9.958185131195334,1.6254037273895614,-5.678312094423026,-8.58413251199097
9.966183673469388,1.7575946894887091,-5.6388354180381794,-8.599613561553655
9.97418221574344,1.8897856515878275,-5.599358741653342,-8.615094611116335
9.982180758017492,2.021976613686946,-5.559882065268504,-8.630575660679018
9.990179300291544,2.1541675757860643,-5.520405388883667,-8.646056710241698
9.998177842565598,2.2863585378852123,-5.48092871249882,-8.661537759804384
10.00617638483965,2.119178323134591,-8.523592958062347,-11.094577451702818
10.014174927113702,2.127264761477589,-8.505134783583765,-11.075416108672671
10.022173469387754,2.1353511998205863,-8.486676609105183,-11.056254765642525
10.030172011661808,2.143437638163586,-8.468218434626596,-11.037093422612374
10.03817055393586,2.1515240765065835,-8.449760260148015,-11.017932079582227
10.046169096209912,2.1596105148495814,-8.431302085669433,-10.99877073655208
10.054167638483964,2.1676969531925794,-8.412843911190851,-10.979609393521933
10.062166180758018,2.1757833915355786,-8.394385736712266,-10.960448050491781
10.07016472303207,2.1838698298785766,-8.375927562233684,-10.941286707461634
10.078163265306122,2.191956268221574,-8.357469387755103,-10.922125364431487
10.086161807580174,2.200042706564572,-8.339011213276521,-10.902964021401342
10.094160349854226,2.2081291449075695,-8.32055303879794,-10.883802678371195
10.10215889212828,2.440300728862976,-4.315915889212845,-9.562159620991247
10.110157434402332,2.385612244897926,-3.4179314868804394,-10.185584548104785
10.118155976676384,2.982977842565607,-2.432562870862645,-9.36791924198251
10.126154518950436,2.8997930029154646,-2.303362888012367,-9.353521865889215
10.13415306122449,2.816608163265304,-2.174162905162061,-9.339124489795918
10.142151603498542,2.7334233236151615,-2.0449629223117833,-9.324727113702624
10.150150145772594,2.650238483965019,-1.9157629394615059,-9.310329737609331
10.158148688046646,2.5670536443148766,-1.7865629566112284,-9.295932361516037
10.1661472303207,2.483868804664716,-1.6573629737609221,-9.28153498542274
10.174145772594752,2.4006839650145735,-1.5281629909106444,-9.267137609329446
10.182144314868804,2.3174991253644315,-1.398963008060367,-9.252740233236151
10.190142857142856,2.234314285714289,-1.2697630252100893,-9.23834285714286
10.19814139941691,2.1270459183673243,-1.0682587463556283,-9.211161807580165
10.206139941690962,1.7167575315840748,-2.070506316812336,-9.503846452866858
10.214138483965014,1.7506793168566133,-2.786911310628146,-9.642232937980385
10.222137026239066,1.7315009939040569,-2.8303579379803825,-9.667501060164323
10.23013556851312,1.7123226709514963,-2.8738045653326294,-9.692769182348265
10.238134110787172,1.6931443479989399,-2.917251192684866,-9.718037304532203
10.246132653061224,1.6739660250463835,-2.960697820037103,-9.74330542671614
10.254131195335276,1.654787702093827,-3.00414444738934,-9.768573548900076
10.262129737609328,1.6356093791412705,-3.0475910747415766,-9.793841671084014
10.270128279883382,1.6164310561887099,-3.091037702093823,-9.819109793267955
10.278126822157434,1.5972527332361535,-3.13448432944606,-9.844377915451892
10.286125364431486,1.578074410283597,-3.177930956798297,-9.86964603763583
10.294123906705538,1.5588960873310407,-3.2213775841505337,-9.894914159819766
10.302122448979592,1.2838707482993217,-3.4278299319727896,-9.360931972789123
10.310120991253644,1.240019691866895,-3.341106577360008,-8.86582906906605
10.318119533527696,1.2458806926711572,-3.3413134362119234,-8.849969890419223
10.326118075801748,1.2517416934754193,-3.3415202950638383,-8.834110711772395
10.334116618075802,1.257602694279683,-3.3417271539157536,-8.818251533125565
10.342115160349854,1.263463695083945,-3.341934012767669,-8.802392354478737
10.350113702623906,1.2693246958882074,-3.3421408716195837,-8.78653317583191
10.358112244897958,1.2751856966924695,-3.342347730471499,-8.770673997185083
10.366110787172012,1.281046697496733,-3.3425545893234143,-8.754814818538252
10.374109329446064,1.2869076983009953,-3.342761448175329,-8.738955639891426
10.382107871720116,1.2927686991052574,-3.3429683070272445,-8.723096461244598
10.390106413994168,1.2986296999095197,-3.3431751658791593,-8.70723728259777
10.39810495626822,1.3044907007137818,-3.3433820247310746,-8.691378103950944
10.406103498542274,1.3103517015180455,-3.34358888358299,-8.675518925304113
10.414102040816326,1.3162127023223076,-3.3437957424349047,-8.659659746657285
10.422100583090378,1.3220670553935852,-3.3435725218658954,-8.64328753644316
10.43009912536443,1.3273994169096204,-3.3095787172011706,-8.586631195335285
10.438097667638484,1.1269628279883344,-2.543839212827974,-8.854815889212821
10.446096209912536,1.0829708454810472,-2.375069970845472,-8.76603206997084
10.454094752186588,1.102048445723373,-2.2602669153004427,-8.76364759001931
10.46209329446064,1.1291603877172378,-2.152338533186935,-8.772269395327704
10.470091836734694,1.1562723297111086,-2.044410151073403,-8.7808912006361
10.478090379008746,1.1833842717049734,-1.9364817689598954,-8.789513005944494
10.486088921282798,1.2104962136988382,-1.8285533868463877,-8.798134811252888
10.49408746355685,1.2376081556927028,-1.7206250047328802,-8.806756616561282
10.502086005830904,1.2647200976865736,-1.6126966226193487,-8.815378421869678
10.510084548104956,1.2918320396804384,-1.504768240505841,-8.82400022717807
10.518083090379008,1.3189439816743032,-1.3968398583923332,-8.832622032486464
10.52608163265306,1.3533061224489231,-1.2831836734693325,-8.732897959183834
10.534080174927114,1.5082514577259252,-1.285236151603506,-8.104242711370256
10.542078717201166,1.6659791753436068,-1.1395147855060352,-8.273309454394003
10.550077259475218,1.671121095376926,-0.984971522282386,-8.297495522698874
10.55807580174927,1.6762630154102454,-0.8304282590587366,-8.321681591003747
10.566074344023322,1.6814049354435645,-0.6758849958350873,-8.345867659308619
10.574072886297376,1.6865468554768848,-0.5213417326114037,-8.370053727613495
10.582071428571428,1.6916887755102041,-0.3667984693877544,-8.394239795918368
10.59006997084548,1.6968306955435233,-0.2122552061641051,-8.41842586422324
10.598068513119532,1.7019726155768424,-0.057711942940455785,-8.442611932528111
10.606067055393586,1.707114535610163,0.09683132028322783,-8.46679800083299
10.614065597667638,1.712256455643482,0.25137458350687725,-8.49098406913786
10.62206413994169,1.7173983756768012,0.40591784673052667,-8.515170137442732
10.630062682215742,1.2013571428571297,0.7406545189503992,-8.954491253644262
10.638061224489796,1.295989084005697,0.9705182724252485,-9.299548647365926
10.646059766763848,1.3325405620720046,0.9561953013763647,-9.345400755983457
10.6540583090379,1.369092040138312,0.9418723303274807,-9.391252864600986
10.662056851311952,1.4056435182046196,0.9275493592785969,-9.437104973218517
10.670055393586006,1.4421949962709353,0.9132263882297098,-9.482957081836059
10.678053935860058,1.4787464743372427,0.898903417180826,-9.52880919045359
10.68605247813411,1.5152979524035501,0.8845804461319421,-9.57466129907112
10.694051020408162,1.5518494304698578,0.8702574750830583,-9.620513407688652
10.702049562682216,1.5884009085361734,0.8559345040341713,-9.666365516306191
10.710048104956268,1.6249523866024809,0.8416115329852873,-9.712217624923722
10.71804664723032,1.6615038646687885,0.8272885619364034,-9.758069733541253
10.726045189504372,1.9088319639544058,0.7236268221574103,-11.099330241187383
10.734043731778424,1.991725947521847,1.0115743440232579,-11.10951020408163
10.742042274052478,2.000969336904198,1.0961923181232613,-11.100969336904198
10.75004081632653,1.986367346938777,1.114979591836733,-11.086367346938777
10.758039358600582,1.9717653569733562,1.1337668655502042,-11.071765356973357
10.766037900874634,1.9571633670079354,1.1525541392636756,-11.057163367007936
10.774036443148688,1.9425613770425112,1.1713414129771513,-11.042561377042512
10.78203498542274,1.9279593870770904,1.1901286866906227,-11.02795938707709
10.790033527696792,1.9133573971116695,1.2089159604040942,-11.013357397111669
10.798032069970844,1.8987554071462487,1.2277032341175655,-10.998755407146248
10.806030612244898,1.8841534171808245,1.246490507831041,-10.984153417180824
10.81402915451895,1.8695514272154037,1.2652777815445126,-10.969551427215404
10.822027696793002,1.8607609329446373,1.2647507288628703,-10.948297376093258
10.830026239067054,1.9922565597666655,0.7206093294465175,-10.48438483965039
10.838024781341108,1.9259380466472316,1.104345221898274,-10.119656867508903
10.84602332361516,1.9059416909621014,1.258805960479413,-10.224082280531249
10.854021865889212,1.885945335276971,1.4132666990605518,-10.328507693553595
10.862020408163264,1.865948979591841,1.5677274376416908,-10.432933106575941
10.870018950437316,1.8459526239067108,1.7221881762228295,-10.537358519598287
10.87801749271137,1.8259562682215762,1.8766489148040026,-10.641783932620658
10.886016034985422,1.805959912536446,2.0311096533851414,-10.746209345643004
10.894014577259474,1.785963556851316,2.18557039196628,-10.85063475866535
10.902013119533526,1.7659672011661858,2.3400311305474193,-10.955060171687697
10.91001166180758,1.745970845481051,2.494491869128592,-11.059485584710066
10.918010204081632,1.7259744897959208,2.648952607709731,-11.163910997732412
10.926008746355684,1.603448979591731,2.9834927113704857,-11.293827988339158
10.934007288629736,1.4894618418796066,2.527130852340942,-10.594370948379348
10.94200583090379,1.5013812382095693,2.498587034813926,-10.614132052821128
10.950004373177842,1.513300634539529,2.470043217286917,-10.633893157262904
10.958002915451894,1.525220030869489,2.4414993997599077,-10.653654261704679
10.966001457725946,1.537139427199449,2.4129555822328985,-10.673415366146456
10.974,1.5490588235294114,2.384411764705883,-10.693176470588234
10.981998542274052,1.5609782198593714,2.355867947178874,-10.712937575030011
10.989997084548104,1.572897616189331,2.3273241296518647,-10.732698679471786
10.997995626822156,1.584817012519291,2.2987803121248556,-10.752459783913562
11.00599416909621,1.5967364088492535,2.2702364945978397,-10.772220888355342
11.013992711370262,1.6086558051792135,2.241692677070831,-10.791981992797117
11.021991253644314,1.6205752015091734,2.2131488595438213,-10.811743097238892
11.029989795918366,1.6324945978391332,2.184605042016812,-10.831504201680668
11.037988338192418,0.590679300291783,1.243597667638427,-10.586014577259053
11.045986880466472,0.5963921127721603,1.3959206624899152,-10.564444590906273
11.053985422740524,0.6037950189194212,1.548063147447417,-10.539853327957324
11.061983965014576,0.6111979250666822,1.7002056324049186,-10.515262065008377
11.069982507288628,0.6186008312139433,1.8523481173624203,-10.49067080205943
11.077981049562682,0.626003737361206,2.004490602319956,-10.466079539110478
11.085979591836734,0.6334066435084669,2.1566330872774575,-10.44148827616153
11.093978134110786,0.6408095496557279,2.3087755722349597,-10.416897013212582
11.101976676384838,0.6482124558029889,2.460918057192461,-10.392305750263635
11.109975218658892,0.6556153619502516,2.613060542149997,-10.367714487314682
11.117973760932944,0.6630182680975125,2.7652030271074985,-10.343123224365735
11.125972303206996,0.6704211742447735,2.9173455120650003,-10.318531961416788
11.133970845481048,1.0728163265306285,2.6067988338192976,-10.1
11.141969387755102,1.0681605442176878,2.2589605442176808,-10.053537414965986
11.149967930029154,1.0958888241010671,1.9731459669582316,-10.00021379980564
11.157966472303206,1.2725496598639459,1.1113517978620029,-9.928720544217686
11.165965014577258,1.3322721088435336,1.265990281827007,-9.833164625850346
11.173963556851312,1.3919945578231347,1.4206287657920456,-9.737608707482984
11.181962099125364,1.4517170068027228,1.57526724975705,-9.642052789115644
11.189960641399416,1.5114394557823105,1.7299057337220543,-9.546496870748303
11.197959183673468,1.5711619047618983,1.8845442176870584,-9.450940952380963
11.20595772594752,1.6308843537414863,2.039182701652063,-9.355385034013622
11.213956268221574,1.6906068027210872,2.193821185617101,-9.25982911564626
11.221954810495626,1.7503292517006752,2.3484596695821054,-9.16427319727892
11.229953352769678,2.180934402332407,2.532205539358422,-8.787174927113805
11.23795189504373,1.6877645772594823,4.603625364431504,-8.142386115160363
11.245950437317784,1.5881228511108807,4.616577058409575,-8.121095807781241
11.253948979591836,1.4542162209711467,4.701527093596059,-8.13902357494722
11.261947521865888,1.3203095908314126,4.786477128782543,-8.1569513421132
11.26994606413994,1.1864029606916788,4.871427163969027,-8.174879109279178
11.277944606413994,1.052496330551915,4.956377199155531,-8.192806876445161
11.285943148688046,0.9185897004121811,5.041327234342015,-8.21073464361114
11.293941690962098,0.7846830702724471,5.126277269528499,-8.228662410777119
11.30194023323615,0.8183443877550646,5.181470116618075,-8.065056122449036
11.309938775510204,0.8951224489795266,4.267795918367242,-7.9106530612245685
11.317937317784256,0.8039582118561713,3.8494683291684013,-7.975122917534361
11.325935860058308,0.8092905733722059,3.835280438706095,-7.968552686380675
11.33393440233236,0.8146229348882406,3.8210925482437887,-7.961982455226989
11.341932944606413,0.8199552964042751,3.806904657781482,-7.955412224073304
11.349931486880466,0.8252876579203109,3.7927167673191726,-7.948841992919617
11.357930029154518,0.8306200194363456,3.7785288768568663,-7.942271761765931
11.36592857142857,0.8359523809523801,3.76434098639456,-7.935701530612246
11.373927113702623,0.8412847424684148,3.7501530959322533,-7.92913129945856
11.381925655976676,0.8466171039844506,3.735965205469944,-7.922561068304873
11.389924198250728,0.8519494655004851,3.7217773150076376,-7.915990837151187
11.39792274052478,0.8701000971817257,3.7911141885325317,-8.029568999028147
11.405921282798833,0.9003594509232264,4.186600826044702,-8.235490524781342
11.413919825072886,0.9010926506316813,4.200065038872693,-8.22629220116618
11.421918367346938,0.9018258503401361,4.21352925170068,-8.21709387755102
11.42991690962099,0.9025590500485908,4.226993464528668,-8.207895553935861
11.437915451895043,0.9032922497570456,4.240457677356655,-8.1986972303207
11.445913994169096,0.9040254494655006,4.253921890184646,-8.18949890670554
11.453912536443148,0.9047586491739553,4.267386103012633,-8.180300583090379
11.4619110787172,0.9054918488824101,4.280850315840621,-8.17110225947522
11.469909620991253,0.9062250485908648,4.294314528668608,-8.16190393586006
11.477908163265306,0.9069582482993198,4.307778741496599,-8.152705612244898
11.485906705539358,0.9076914480077746,4.321242954324586,-8.143507288629738
11.49390524781341,0.9084246477162293,4.334707167152574,-8.134308965014577
11.501903790087463,0.9091578474246841,4.3481713799805615,-8.125110641399418
11.509902332361515,0.9098910471331388,4.361635592808549,-8.11591231778426
11.517900874635568,0.9106242468415938,4.375099805636539,-8.106713994169096
11.52589941690962,1.020639212827983,4.415790816326535,-7.907467201166189
11.533897959183673,0.6445306122449879,4.434367346938764,-7.815591836734694
11.541896501457725,0.005241982507303141,4.527516763848385,-7.857583819241925
11.549895043731778,0.07318913994169979,4.643494169096222,-7.847513666180752
11.55789358600583,0.16737197521866268,4.765871865889218,-7.775026876822155
11.565892128279883,0.26155481049562557,4.888249562682214,-7.702540087463558
11.573890670553935,0.35573764577258843,5.010627259475211,-7.630053298104961
11.581889212827988,0.4499204810495722,5.133004956268234,-7.557566508746349
11.58988775510204,0.5441033163265351,5.25538265306123,-7.485079719387752
11.597886297376093,0.638286151603498,5.377760349854227,-7.412592930029155
11.605884839650145,0.7324689868804609,5.500138046647223,-7.340106140670558
11.613883381924198,0.8266518221574447,5.622515743440246,-7.267619351311945
11.62188192419825,0.9208346574344075,5.744893440233243,-7.195132561953349
11.629880466472303,0.9615976676384868,6.0521273080660745,-7.455862001943608
11.637879008746355,1.0927488338192368,6.5653506478781996,-8.209453401360543
11.645877551020408,1.2151265306122583,6.558329705215419,-8.241180952380956
11.65387609329446,1.3375042274052524,6.55130876255264,-8.27290850340136
11.661874635568513,1.4598819241982466,6.5442878198898615,-8.304636054421767
11.669873177842565,1.582259620991241,6.537266877227082,-8.336363605442173
11.677871720116617,1.704637317784235,6.530245934564303,-8.36809115646258
11.68587026239067,1.8270150145772566,6.523224991901523,-8.399818707482993
11.693868804664723,1.9493927113702507,6.516204049238744,-8.431546258503397
11.701867346938775,2.0717704081632453,6.509183106575965,-8.463273809523804
11.709865889212827,2.1941481049562395,6.502162163913186,-8.49500136054421
11.71786443148688,2.3165258017492607,6.495141221250406,-8.526728911564623
11.725862973760933,2.438903498542255,6.488120278587627,-8.558456462585028
11.733861516034985,1.999030612244892,8.143768221574305,-7.802769679300309
11.741860058309037,1.9903398583923415,8.066618908788044,-7.730019575177025
11.74985860058309,2.0102669172932317,8.01615904557312,-7.764846248273743
11.757857142857143,2.0308947368421033,7.967466165413539,-7.801330827067666
11.765855685131195,2.051522556390975,7.918773285253957,-7.837815405861588
11.773854227405247,2.0721503759398465,7.870080405094376,-7.874299984655511
11.7818527696793,2.0927781954887226,7.821387524934784,-7.910784563449441
11.789851311953353,2.113406015037594,7.7726946447752026,-7.947269142243364
11.797849854227405,2.134033834586466,7.724001764615621,-7.983753721037286
11.805848396501457,1.5517871720117606,8.754897959184142,-9.735892128280739
11.813846938775509,1.452748209810244,8.47366398138203,-9.039014679556056
11.821845481049563,1.4035641910899659,8.432548667587332,-8.776045061633656
11.829844023323615,1.3543801723696989,8.391433353792644,-8.513075443711315
11.837842565597667,1.3051961536494316,8.350318039997955,-8.250105825788975
11.845841107871719,1.2560121349291646,8.309202726203267,-7.987136207866632
11.853839650145773,1.2068281162088865,8.268087412408569,-7.724166589944232
11.861838192419825,1.1576440974886193,8.226972098613881,-7.461196972021892
11.869836734693877,1.1084600787683523,8.185856784819192,-7.198227354099551
11.877835276967929,1.0592760600480853,8.144741471024505,-6.935257736177209
11.885833819241983,1.0100920413278072,8.103626157229806,-6.672288118254809
11.893832361516035,0.9609080226075399,8.062510843435119,-6.409318500332468
11.901830903790087,0.9117240038872728,8.021395529640431,-6.146348882410127
11.909829446064139,0.8625399851670057,7.980280215845742,-5.883379264487785
11.917827988338193,0.8133559664467277,7.939164902051044,-5.620409646565386
11.925826530612245,0.8,7.852479199372058,-5.384960753532187
11.933825072886297,0.8,7.748805786050691,-5.159771024893489
11.941823615160349,0.8,7.645132372729323,-4.934581296254791
11.949822157434403,0.9103862973760926,7.442775510204077,-4.150651603498565
11.957820699708455,0.9559779883381903,7.7227244897959055,-2.71811268221581
11.965819241982507,0.9663830903790077,7.7774793002915406,-2.6577390254060838
11.973817784256559,0.9759813411078702,7.827070262390663,-2.6288300083298672
11.98181632653061,0.9855795918367326,7.876661224489785,-2.5999209912536503
11.989814868804665,0.9951778425655972,7.926252186588919,-2.5710119741774276
11.997813411078717,1.0047760932944596,7.975843148688042,-2.5421029571012106
12.005811953352769,1.014374344023322,8.025434110787163,-2.513193940024994
12.01381049562682,1.0239725947521845,8.075025072886287,-2.4842849229487776
12.021809037900875,1.033570845481049,8.12461603498542,-2.4553759058725544
12.029807580174927,0.9099504373177767,8.724253644314901,-2.8885102040816584
12.037806122448979,0.41642790230846377,9.134112579458018,-5.664071595851457
12.04580466472303,0.4271800411030911,9.03275400277208,-5.633388663193618
12.053803206997085,0.4379321798977209,8.93139542608612,-5.602705730535773
12.061801749271137,0.44868431869234826,8.83003684940018,-5.572022797877933
12.069800291545189,0.4594364574869756,8.728678272714243,-5.5413398652200945
12.07779883381924,0.470188596281603,8.627319696028303,-5.510656932562255
12.085797376093295,0.48094073507623275,8.525961119342343,-5.479973999904409
12.093795918367347,0.4916928738708601,8.424602542656405,-5.449291067246571
12.101794460641399,0.32193075801747895,8.66875947521877,-5.402212099125486
12.10979300291545,0.36033248827481,8.59004696412726,-5.124427177082032
12.117791545189505,0.3878057421726469,8.640733378755233,-4.9541973317277135
12.125790087463557,0.41527899607047775,8.691419793383192,-4.783967486373433
12.133788629737609,0.44275224996830853,8.742106208011153,-4.613737641019152
12.14178717201166,0.47022550386613937,8.792792622639112,-4.443507795664871
12.149785714285713,0.4976987577639702,8.843479037267072,-4.2732779503105895
12.157784256559767,0.525172011661807,8.894165451895043,-4.1030481049562715
12.165782798833819,0.5526452655596379,8.944851866523004,-3.9328182596019907
12.17378134110787,0.5801185194574687,8.995538281150964,-3.7625884142477095
12.181779883381923,0.6075917733552996,9.046224695778923,-3.5923585688934287
12.189778425655977,0.6350650272531365,9.096911110406895,-3.4221287235391102
12.197776967930029,0.7768374635568049,8.910306851312031,-2.6798185131196703
12.20577551020408,0.7903716759431046,8.83885466914039,-2.664625231910942
12.213774052478133,0.7897253290926762,8.789328341726312,-2.692014179697847
12.221772594752187,0.7890789822422476,8.73980201431222,-2.719403127484759
12.229771137026239,0.7884326353918192,8.69027568689814,-2.746792075271664
12.23776967930029,0.7877862885413908,8.640749359484062,-2.7741810230585697
12.245768221574343,0.7871399416909622,8.591223032069982,-2.8015699708454753
12.253766763848397,0.7864935948405337,8.54169670465589,-2.8289589186323867
12.261765306122449,0.7858472479901052,8.492170377241811,-2.8563478664192923
12.2697638483965,0.7852009011396768,8.44264404982773,-2.883736814206198
12.277762390670553,0.7845545542892484,8.39311772241365,-2.9111257619931035
12.285760932944605,0.7839082074388198,8.34359139499957,-2.9385147097800086
12.293759475218659,0.7832618605883913,8.29406506758548,-2.9659036575669204
12.30175801749271,0.8439015225137684,8.080201274160457,-3.2880941582982377
12.309756559766763,0.828793164885003,8.087014847208724,-3.326605658136267
12.317755102040815,0.8136848072562376,8.09382842025699,-3.3651171579742964
12.325753644314869,0.945076530612323,7.884457725947406,-3.6701814868806117
12.33375218658892,1.6928417823419293,6.990525738653677,-4.433842130455587
12.341750728862973,1.769245768243322,6.893588181541285,-4.525168769853345
12.349749271137025,1.8456497541447145,6.796650624428893,-4.616495409251104
12.357747813411079,1.9220537400461242,6.69971306731648,-4.707822048648882
12.36574635568513,1.9984577259475167,6.602775510204088,-4.799148688046641
12.373744897959183,2.0748617118489094,6.505837953091697,-4.890475327444399
12.381743440233235,2.151265697750302,6.4089003959793045,-4.981801966842157
12.389741982507289,2.2276696836517114,6.311962838866892,-5.073128606239936
12.39774052478134,2.3903061224489632,6.377288629737583,-4.898297376093339
12.405739067055393,2.0102497570457127,7.577241820537635,-3.175056851312101
12.413737609329445,1.7621844023323612,8.845028425655974,-1.867653373594344
12.421736151603499,1.7641840379008746,8.86702441690962,-1.8205191066222408
12.42973469387755,1.7661836734693876,8.889020408163264,-1.7733848396501481
12.437733236151603,1.7681833090379007,8.911016399416907,-1.7262505726780555
12.445731778425655,1.7701829446064137,8.93301239067055,-1.6791163057059628
12.453730320699707,1.7721825801749267,8.955008381924193,-1.6319820387338702
12.46172886297376,1.7741822157434401,8.977004373177842,-1.5848477717617668
12.469727405247813,1.7761818513119532,8.999000364431485,-1.5377135047896742
12.477725947521865,1.7781814868804662,9.020996355685128,-1.4905792378175815
12.485724489795917,1.7801811224489792,9.042992346938771,-1.4434449708454888
12.49372303206997,1.7821807580174926,9.06498833819242,-1.3963107038733857
12.501721574344023,1.433570153061222,9.515091472303194,-1.313531341107873
12.509720116618075,1.460457725947533,10.04899416909614,-1.42693002915447
12.517718658892127,1.5517937569116185,10.070579169598876,-1.5343970041218344
12.52571720116618,1.652097315773604,10.057707952146375,-1.620818035588623
12.533715743440233,1.7524008746355675,10.044836734693877,-1.7072390670553927
12.541714285714285,1.852704433497531,10.03196551724138,-1.7936600985221625
12.549712827988337,1.9530079923594943,10.019094299788883,-1.880081129988932
12.55771137026239,2.05331155122148,10.006223082336382,-1.9665021614557205
12.565709912536443,2.1536151100834435,9.993351864883884,-2.0529231929224903
12.573708454810495,2.2539186689454067,9.980480647431387,-2.13934422438926
12.581706997084547,2.3542222278073703,9.96760942997889,-2.2257652558560297
12.5897055393586,2.4545257866693557,9.954738212526388,-2.3121862873228185
12.597704081632653,2.6142959183672905,9.892306122449021,-2.6691122448977302
12.605702623906705,1.224309037900866,10.125122448979596,-3.8801370262390105
12.613701166180757,1.3946217261402791,9.895045984627616,-4.037438920078065
12.621699708454809,1.3905894031756745,9.898681685661277,-4.060641303038332
12.629698250728863,1.3865570802110687,9.902317386694937,-4.083843685998604
12.637696793002915,1.382524757246464,9.905953087728598,-4.10704606895887
12.645695335276967,1.3784924342818592,9.909588788762257,-4.130248451919137
12.653693877551019,1.3744601113172545,9.913224489795917,-4.153450834879403
12.661692419825073,1.370427788352649,9.916860190829578,-4.176653217839675
12.669690962099125,1.3663954653880441,9.920495891863238,-4.199855600799942
12.677689504373177,1.3623631424234395,9.924131592896899,-4.223057983760208
12.685688046647229,1.3583308194588346,9.927767293930557,-4.246260366720476
12.693686588921283,1.354298496494229,9.93140299496422,-4.269462749680747
12.701685131195335,1.3502661735296244,9.935038695997878,-4.292665132641014
12.709683673469387,1.3462338505650195,9.938674397031539,-4.315867515601281
12.717682215743439,1.342201527600415,9.9423100980652,-4.339069898561547
12.725680758017493,1.3381692046358091,9.94594579909886,-4.362272281521818
12.733679300291545,1.3540379008746348,9.977289601554906,-4.291761516034988
12.741677842565597,1.37803352769679,10.01994849368318,-4.182981341107885
12.749676384839649,2.789013316523547,9.911490347490368,-7.440712946182333
12.757674927113703,2.6590910487747266,9.810860038610041,-7.4491438420928215
12.765673469387755,2.529168781025935,9.710229729729738,-7.457574738003309
12.773672011661807,2.3992465132771432,9.609599420849435,-7.466005633913796
12.781670553935859,2.2693242455283515,9.508969111969131,-7.474436529824284
12.789669096209911,2.13940197777956,9.408338803088828,-7.482867425734771
