accel_time_list,vertical_Accel_x,vertical_Accel_y,vertical_Accel_z
0.0,-0.182,-9.827,-0.227
0.007998799039231386,-0.31516726297704833,-9.751062424939951,-0.8458603466106218
0.015997598078462773,-0.38057410928742996,-9.751562349879903,-0.8046998598879103
0.02399639711769416,-0.44598095559781165,-9.752062274819856,-0.7635393731651987
0.031995196156925546,-0.5113878019081933,-9.752562199759808,-0.7223788864424873
0.03999399519615693,-0.576794648218575,-9.75306212469976,-0.6812183997197758
0.04799279423538832,-0.6422014945289567,-9.753562049639712,-0.6400579129970643
0.05599159327461971,-0.7076083408393383,-9.754061974579663,-0.5988974262743527
0.06399039231385109,-0.77301518714972,-9.754561899519615,-0.5577369395516412
0.07198919135308247,-0.8384220334601016,-9.755061824459567,-0.5165764528289297
0.07998799039231386,-0.9038288797704832,-9.755561749399519,-0.4754159661062182
0.08798678943154525,-0.9692357260808651,-9.75606167433947,-0.43425547938350667
0.09598558847077664,-1.0346425723912467,-9.756561599279424,-0.3930949926607952
0.10398438751000802,0.3284711769415791,-9.557169335468371,-0.6493630904723833
0.11198318654923942,-0.505176941553241,-9.81389095276221,-0.2718733386709388
0.1199819855884708,-0.3420433938059538,-9.751941030096805,-0.4655364518887838
0.12798078462770218,-0.3126841655142295,-9.747850735133563,-0.47962524565106635
0.13597958366693358,-0.2833249372225052,-9.74376044017032,-0.4937140394133489
0.14397838270616495,-0.25396570893078096,-9.739670145207075,-0.5078028331756315
0.15197718174539634,-0.2246064806390566,-9.735579850243832,-0.521891626937914
0.1599759807846277,-0.19524725234733237,-9.73148955528059,-0.5359804207001966
0.1679747798238591,-0.16588802405560804,-9.727399260317346,-0.5500692144624791
0.1759735788630905,-0.13652879576388371,-9.723308965354102,-0.5641580082247617
0.18397237790232188,-0.1071695674721595,-9.719218670390859,-0.5782468019870441
0.19197117694155327,-0.07781033918043517,-9.715128375427616,-0.5923355957493268
0.19996997598078467,-0.04845111088871085,-9.711038080464373,-0.6064243895116093
0.20796877502001604,-0.1070544435548324,-9.819282626100883,-0.8192826261008826
0.21596757405924744,-0.1245990194217231,-9.80835044943171,-0.816564443307223
0.22396637309847883,-0.15230619959885455,-9.795651325183858,-0.8121115036358983
0.2319651721377102,-0.1800133797759859,-9.782952200936005,-0.8076585639645737
0.2399639711769416,-0.20772055995311733,-9.770253076688155,-0.8032056242932489
0.24796277021617297,-0.23542774013024864,-9.757553952440302,-0.7987526846219243
0.25596156925540436,-0.26313492030738006,-9.74485482819245,-0.7942997449505996
0.26396036829463576,-0.29084210048451153,-9.7321557039446,-0.7898468052792749
0.27195916733386716,-0.31854928066164295,-9.719456579696747,-0.7853938656079502
0.2799579663730985,-0.3462564608387742,-9.706757455448894,-0.7809409259366256
0.2879567654123299,-0.3739636410159056,-9.694058331201044,-0.7764879862653009
0.2959555644515613,-0.4016708211930371,-9.681359206953191,-0.7720350465939761
0.3039543634907927,-0.42937800137016846,-9.668660082705339,-0.7675821069226515
0.3119531625300241,-0.5708074993328,-9.67167165732586,-0.610734907926342
0.3199519615692554,-0.6150675206832134,-9.62527862289832,-0.724317854283427
0.3279507606084868,-0.6323082829900283,-9.590596659145499,-0.7944288157798967
0.3359495596477182,-0.6033256215361898,-9.575949507658075,-0.7901697149927734
0.3439483586869496,-0.5743429600823514,-9.561302356170652,-0.7859106142056502
0.351947157726181,-0.545360298628513,-9.546655204683226,-0.781651513418527
0.3599459567654124,-0.5163776371746746,-9.532008053195803,-0.7773924126314038
0.36794475580464375,-0.48739497572083634,-9.51736090170838,-0.7731333118442806
0.37594355484387515,-0.4584123142669979,-9.502713750220956,-0.7688742110571574
0.38394235388310655,-0.4294296528131595,-9.488066598733532,-0.7646151102700341
0.39194115292233794,-0.40044699135932105,-9.473419447246108,-0.7603560094829109
0.39993995196156934,-0.3714643299054826,-9.458772295758685,-0.7560969086957878
0.4079387510008007,0.7497155724579629,-9.88181321724046,-0.6131049172671484
0.4159375500400321,0.3297786228983149,-9.786494195356285,-0.7844125300240208
0.4239363490792635,-0.09015832666133305,-9.69117517347211,-0.955720142780893
0.43193514811849487,-0.510095276220981,-9.595856151587936,-1.1270277555377652
0.43993394715772627,-0.9300322257806292,-9.500537129703762,-1.2983353682946377
0.44793274619695767,-1.0888859659155896,-9.49461434544461,-1.2928275191581824
0.455931545236189,-1.0854579091844905,-9.544257685513491,-1.1774162758778446
0.4639303442754204,-1.0820298524533913,-9.59390102558237,-1.0620050325975057
0.4719291433146518,-1.0786017957222922,-9.643544365651252,-0.946593789317167
0.4799279423538832,-1.0751737389911928,-9.693187705720133,-0.8311825460368283
0.4879267413931146,-1.0717456822600937,-9.742831045789012,-0.7157713027564896
0.49592554043234593,-1.0683176255289946,-9.792474385857894,-0.6003600594761517
0.5039243394715773,-1.0648895687978954,-9.842117725926775,-0.484948816195813
0.5119231385108087,-0.9073675024229909,-9.735747351565463,-0.9338039020690235
0.5199219375500401,-0.8932222578062449,-9.733558206565252,-0.9147751801441152
0.5279207365892715,-0.8790770131894988,-9.731369061565042,-0.8957464582192067
0.5359195356285029,-0.8649317685727528,-9.729179916564831,-0.8767177362942984
0.5439183346677343,-0.8507865239560067,-9.72699077156462,-0.8576890143693899
0.5519171337069657,-0.8366412793392607,-9.72480162656441,-0.8386602924444816
0.559915932746197,-0.8224960347225148,-9.7226124815642,-0.8196315705195735
0.5679147317854284,-0.8083507901057687,-9.72042333656399,-0.800602848594665
0.5759135308246598,-0.7942055454890227,-9.718234191563779,-0.7815741266697567
0.5839123298638912,-0.7800603008722766,-9.716045046563567,-0.7625454047448483
0.5919111289031226,-0.7659150562555306,-9.713855901563356,-0.7435166828199399
0.599909927942354,-0.7517698116387845,-9.711666756563146,-0.7244879608950315
0.6079087269815854,0.3975556445156877,-9.761535628502806,-0.6050200160128033
0.6159075260208168,0.45556832738918424,-9.75263421646408,-0.5066080136836745
0.6239063250600482,0.46538503530096825,-9.721366183856174,-0.5247871024092005
0.6319051240992796,0.4752017432127522,-9.69009815124827,-0.5429661911347263
0.6399039231385109,0.4850184511245361,-9.658830118640367,-0.561145279860252
0.6479027221777423,0.4948351590363201,-9.627562086032462,-0.5793243685857778
0.6559015212169736,0.504651866948104,-9.596294053424558,-0.5975034573113038
0.663900320256205,0.5144685748598881,-9.565026020816653,-0.6156825460368297
0.6718991192954364,0.5242852827716721,-9.533757988208748,-0.6338616347623556
0.6798979183346678,0.5341019906834561,-9.502489955600844,-0.6520407234878816
0.6878967173738992,0.5439186985952401,-9.471221922992939,-0.6702198122134074
0.6958955164131306,0.553735406507024,-9.439953890385034,-0.6883989009389333
0.703894315452362,0.4157726180944828,-8.963250600480345,-0.4317053642913789
0.7118931144915934,0.4042137710168131,-8.533504603682937,-0.10400820656524523
0.7198919135308248,0.23984819855884315,-8.247047878302636,0.05783827061649699
0.7278907125700561,0.2500874517796063,-8.137459003566489,0.1010040987335323
0.7358895116092875,0.32353097023073085,-8.090556954654632,0.10236753038794674
0.7438883106485189,0.3969744886818555,-8.043654905742775,0.10373096204236118
0.7518871096877503,0.47041800713298004,-7.996752856830919,0.10509439369677562
0.7598859087269817,0.5438615255841046,-7.949850807919062,0.10645782535119007
0.7678847077662131,0.6173050440352292,-7.902948759007205,0.1078212570056045
0.7758835068054445,0.6907485624863539,-7.856046710095349,0.10918468866001894
0.7838823058446759,0.7641920809374785,-7.809144661183492,0.1105481203144334
0.7918811048839073,0.8376355993886029,-7.762242612271635,0.11191155196884783
0.7998799039231387,0.9110791178397275,-7.715340563359778,0.11327498362326227
0.8078787029623701,0.9845226362908521,-7.668438514447921,0.11463841527767671
0.8158775020016014,-1.3870480384307806,-7.917647718174554,-3.2318991192955444
0.8238763010408328,-1.262195992087785,-7.8971782367070125,-3.485097513304764
0.8318751000800642,-1.1019377007488314,-7.862830452597372,-3.6415916639193737
0.8398738991192956,-0.9416794094098778,-7.828482668487731,-3.798085814533983
0.847872698158527,-0.7814211180709242,-7.79413488437809,-3.9545799651485924
0.8558714971977583,-0.6211628267319707,-7.759787100268449,-4.111074115763202
0.8638702962369897,-0.460904535393017,-7.725439316158809,-4.267568266377811
0.8718690952762211,-0.30064624405406337,-7.6910915320491675,-4.42406241699242
0.8798678943154525,-0.14038795271510973,-7.656743747939527,-4.5805565676070295
0.8878666933546839,0.01987033862384391,-7.622395963829886,-4.7370507182216395
0.8958654923939153,0.18012862996279733,-7.5880481797202455,-4.893544868836249
0.9038642914331466,0.2991357085668534,-7.283722511342406,-5.712244128636244
0.911863090472378,-0.4794203362690525,-7.391421937550051,-5.2394003202561805
0.9198618895116094,-0.42025801974913124,-7.412222960590694,-5.22657401476737
0.9278606885508408,-0.29334374165999305,-7.4134672182190195,-5.257680455475492
0.9358594875900722,-0.16642946357085486,-7.414711475847344,-5.2887868961836135
0.9438582866293036,-0.03951518548171662,-7.415955733475669,-5.319893336891736
0.951857085668535,0.08739909260742151,-7.417199991103994,-5.350999777599858
0.9598558847077664,0.21431337069655976,-7.418444248732319,-5.38210621830798
0.9678546837469978,0.3412276487856979,-7.419688506360644,-5.413212659016103
0.9758534827862292,0.468141926874836,-7.420932763988969,-5.444319099724225
0.9838522818254605,0.5950562049639726,-7.422177021617293,-5.475425540432346
0.9918510808646919,0.7219704830531107,-7.423421279245619,-5.506531981140468
0.9998498799039233,0.8488847611422489,-7.424665536873944,-5.537638421848591
1.0078486789431547,-0.8593402722178263,-7.647347477982421,-6.1915596477181625
1.015847477982386,-0.7187664023692036,-7.631033583856332,-6.314854188727328
1.0238462770216175,-0.5218067271021078,-7.5790843943972375,-6.4533280215570334
1.0318450760608489,-0.32484705183501206,-7.527135204938143,-6.5918018543867385
1.0398438751000803,-0.12788737656791638,-7.475186015479049,-6.7302756872164435
1.0478426741393116,0.06907229869917941,-7.423236826019955,-6.868749520046148
1.055841473178543,0.2660319739662752,-7.371287636560861,-7.007223352875853
1.0638402722177744,0.4629916492333709,-7.319338447101766,-7.145697185705558
1.0718390712570058,0.6599513245004666,-7.267389257642672,-7.284171018535263
1.0798378702962372,0.8569109997675625,-7.215440068183578,-7.422644851364968
1.0878366693354686,1.0538706750346583,-7.163490878724484,-7.561118684194672
1.0958354683747,1.250830350301754,-7.1115416892653895,-7.699592517024377
1.1038342674139314,0.6274051240992217,-7.811392313851168,-8.224932746196941
1.1118330664531626,0.4585193245505487,-7.90093871460805,-8.113306426959749
1.119831865492394,0.24559444261291463,-7.9333709132011485,-8.079803485141055
1.1278306645316254,0.3186187726651919,-7.888859949135778,-8.135606871379457
1.1358294635708568,0.39164310271746916,-7.8443489850704085,-8.191410257617859
1.1438282626100882,0.4646674327697464,-7.799838021005038,-8.247213643856263
1.1518270616493196,0.5376917628220237,-7.755327056939668,-8.303017030094665
1.159825860688551,0.610716092874301,-7.710816092874298,-8.358820416333067
1.1678246597277824,0.6837404229265782,-7.666305128808928,-8.41462380257147
1.1758234587670138,0.7567647529788555,-7.621794164743559,-8.470427188809873
1.1838222578062452,0.8297890830311327,-7.577283200678188,-8.526230575048276
1.1918210568454766,0.90281341308341,-7.532772236612818,-8.582033961286678
1.199819855884708,0.9758377431356873,-7.488261272547448,-8.63783734752508
1.2078186549239394,0.6585465038697472,-7.183650186816111,-8.924049306111566
1.2158174539631708,2.1089047237790246,-6.458095276220975,-9.576261008807082
1.2238162530024022,2.128330974303253,-6.285693788364019,-9.69235216268253
1.2318150520416336,2.147090062526212,-6.11038677608753,-9.784814470624122
1.239813851080865,2.165849150749171,-5.935079763811043,-9.877276778565713
1.2478126501200963,2.1846082389721304,-5.7597727515345545,-9.969739086507305
1.2558114491593277,2.2033673271950898,-5.584465739258067,-10.062201394448897
1.2638102481985591,2.222126415418049,-5.409158726981579,-10.154663702390486
1.2718090472377905,2.2408855036410085,-5.233851714705091,-10.247126010332078
1.2798078462770217,2.2596445918639674,-5.058544702428608,-10.339588318273668
1.287806645316253,2.2784036800869267,-4.88323769015212,-10.43205062621526
1.2958054443554845,2.297162768309886,-4.707930677875632,-10.524512934156851
1.303804243394716,1.9369425540432204,-4.264520216172931,-10.588081465172133
1.3118030424339473,1.9827331465172142,-3.9083470776621243,-10.635073658927142
1.3198018414731787,2.0022730698844797,-3.6940935319684263,-10.6784957108544
1.32780064051241,2.0218129932517446,-3.4798399862747287,-10.721917762781656
1.3357994395516415,2.04135291661901,-3.2655864405810306,-10.765339814708911
1.3437982385908729,2.060892839986275,-3.0513328948873326,-10.808761866636168
1.3517970376301043,2.0804327633535404,-2.8370793491936346,-10.852183918563425
1.3597958366693357,2.0999726867208057,-2.6228258034999365,-10.89560597049068
1.367794635708567,2.119512610088071,-2.408572257806239,-10.939028022417936
1.3757934347477985,2.1390525334553363,-2.1943187121125405,-10.982450074345193
1.3837922337870299,2.272022761066002,-2.0979589385794317,-10.826956708223713
1.3917910328262613,2.042420617575138,-1.864195702507951,-10.209365611408046
1.3997898318654927,1.940453945138089,-1.8246340748274281,-10.204681629988675
1.407788630904724,1.8384872727010402,-1.7850724471469053,-10.199997648569306
1.4157874299439555,1.7365206002639912,-1.7455108194663824,-10.195313667149936
1.4237862289831869,1.6345539278269423,-1.7059491917858596,-10.190629685730567
1.4317850280224182,1.5325872553898936,-1.6663875641053367,-10.185945704311196
1.4397838270616496,1.4306205829528447,-1.6268259364248139,-10.181261722891827
1.447782626100881,1.3286539105157957,-1.587264308744291,-10.176577741472457
1.4557814251401122,1.2266872380787497,-1.5477026810637693,-10.171893760053088
1.4637802241793436,1.124720565641701,-1.5081410533832464,-10.167209778633719
1.471779023218575,1.022753893204652,-1.4685794257027236,-10.162525797214348
1.4797778222578064,0.9207872207676031,-1.4290177980222007,-10.15784181579498
1.4877766212970378,0.8188205483305542,-1.389456170341678,-10.153157834375609
1.4957754203362692,0.7168538758935052,-1.349894542661155,-10.14847385295624
1.5037742193755006,0.6318190552441918,-1.0231605284227292,-9.86243835068054
1.511773018414732,0.5027784227381724,-0.6955932746196499,-9.70827522017612
1.5197718174539634,0.4199672636985988,-0.49444542600372343,-9.619043432498808
1.5277706164931948,0.4069355124549072,-0.4713477703511115,-9.61436997688038
1.5357694155324262,0.3939037612112157,-0.4482501146984995,-9.609696521261952
1.5437682145716576,0.3808720099675241,-0.42515245904588755,-9.605023065643525
1.551767013610889,0.3678402587238325,-0.4020548033932756,-9.600349610025098
1.5597658126501204,0.3548085074801409,-0.37895714774066364,-9.595676154406672
1.5677646116893518,0.3417767562364494,-0.3558594920880517,-9.591002698788243
1.5757634107285832,0.3287450049927578,-0.3327618364354397,-9.586329243169816
1.5837622097678146,0.3157132537490662,-0.30966418078282776,-9.581655787551389
1.591761008807046,0.3026815025053746,-0.2865665251302158,-9.576982331932962
1.5997598078462774,0.2896497512616831,-0.26346886947760384,-9.572308876314535
1.6077586068855088,-0.30088057112358124,-0.35784614358154626,-10.996503602882356
1.6157574059247402,-0.6769619695756722,-1.0340820656525818,-13.066136108887271
1.6237562049639713,-0.5690906218951054,-1.439382783335102,-12.854603031823046
1.6317550040032027,-0.4024650370899115,-1.4746545959659296,-12.703975045096316
1.6397538030424341,-0.2358394522847176,-1.5099264085967572,-12.553347058369585
1.6477526020816655,-0.06921386747952363,-1.5451982212275848,-12.402719071642855
1.655751401120897,0.09741171732567022,-1.5804700338584126,-12.252091084916124
1.6637502001601283,0.26403730213086407,-1.6157418464892401,-12.101463098189392
1.6717489991993597,0.4306628869360579,-1.6510136591200677,-11.950835111462661
1.679747798238591,0.597288471741252,-1.6862854717508955,-11.80020712473593
1.6877465972778225,0.7639140565464458,-1.721557284381723,-11.6495791380092
1.695745396317054,0.9305396413516397,-1.7568290970125506,-11.49895115128247
1.7037441953562853,0.5098356685347951,-2.0628620896717718,-10.10499839871894
1.7117429943955167,0.3519328707410375,-3.734176621297037,-9.269057788452985
1.719741793434748,0.36197580731251694,-3.7037811849479576,-9.269679917267148
1.7277405924739795,0.37201874388399636,-3.673385748598878,-9.27030204608131
1.7357393915132109,0.38206168045547584,-3.6429903122497986,-9.270924174895471
1.7437381905524423,0.39210461702695526,-3.6125948759007196,-9.271546303709634
1.7517369895916737,0.4021475535984347,-3.58219943955164,-9.272168432523797
1.759735788630905,0.41219049016991416,-3.5518040032025606,-9.27279056133796
1.7677345876701365,0.4222334267413936,-3.5214085668534816,-9.27341269015212
1.7757333867093679,0.432276363312873,-3.491013130504402,-9.274034818966284
1.7837321857485993,0.4423192998843525,-3.4606176941553226,-9.274656947780446
1.7917309847878307,0.4523622364558319,-3.4302222578062436,-9.27527907659461
1.7997297838270618,0.4624051730273111,-3.399826821457165,-9.275901205408772
1.8077285828662932,-0.2551937720389078,-4.179982862886058,-11.86669880585319
1.8157273819055246,-0.2573211122089161,-4.311537578999374,-11.775563552970032
1.823726180944756,-0.2594484523789245,-4.443092295112691,-11.684428300086875
1.8317249799839874,-0.2615757925489329,-4.5746470112260065,-11.593293047203717
1.8397237790232188,-0.2637031327189412,-4.706201727339323,-11.50215779432056
1.8477225780624502,-0.26583047288894956,-4.837756443452639,-11.411022541437402
1.8557213771016816,-0.2679578130589579,-4.969311159565955,-11.319887288554245
1.863720176140913,-0.27008515322896626,-5.100865875679272,-11.228752035671087
1.8717189751801444,-0.2722124933989746,-5.232420591792588,-11.13761678278793
1.8797177742193758,-0.27433983356898295,-5.363975307905904,-11.046481529904773
1.8877165732586072,-0.2764671737389913,-5.495530024019221,-10.955346277021613
1.8957153722978386,-0.27859451390899964,-5.627084740132537,-10.864211024138456
1.90371417133707,-0.2714399211677024,-5.642805198004549,-10.69710340580155
1.9117129703763014,-0.2462129395824339,-5.43299054628317,-10.382073782102589
1.9197117694155328,-0.6171473080903771,-5.620784276201453,-8.608061268527013
1.9277105684547642,-0.6749922816301848,-5.719501161905138,-8.496370720967013
1.9357093674939956,-0.7328372551699924,-5.818218047608823,-8.384680173407013
1.943708166533227,-0.7906822287098,-5.9169349333125085,-8.272989625847014
1.9517069655724584,-0.8485272022496076,-6.015651819016194,-8.161299078287014
1.9597057646116898,-0.9063721757894153,-6.114368704719879,-8.049608530727014
1.967704563650921,-0.9642171493292213,-6.213085590423561,-7.937917983167018
1.9757033626901523,-1.022062122869029,-6.311802476127246,-7.826227435607018
1.9837021617293837,-1.0799070964088366,-6.410519361830932,-7.714536888047019
1.9917009607686151,-1.1377520699486443,-6.509236247534616,-7.6028463404870195
1.9996997598078465,-1.195597043488452,-6.607953133238302,-7.491155792927019
2.007698558847078,-0.9612752201761324,-6.005524219375475,-7.518581915532428
2.0156973578863093,-0.8299409201779968,-5.6863289142942275,-7.530782970562493
2.0236961569255407,-0.7307000065168355,-5.711441422905768,-7.473210219338258
2.031694955964772,-0.6314590928556743,-5.736553931517308,-7.415637468114023
2.0396937550040035,-0.532218179194513,-5.761666440128849,-7.358064716889788
2.047692554043235,-0.4329772655333517,-5.7867789487403885,-7.300491965665553
2.0556913530824663,-0.3337363518721904,-5.811891457351929,-7.242919214441318
2.0636901521216977,-0.23449543821102914,-5.837003965963469,-7.1853464632170825
2.071688951160929,-0.13525452454986786,-5.86211647457501,-7.127773711992848
2.0796877502001605,-0.03601361088870658,-5.88722898318655,-7.070200960768613
2.087686549239392,0.06322730277245481,-5.912341491798091,-7.012628209544378
2.0956853482786233,0.16246821643361598,-5.93745400040963,-6.9550554583201425
2.1036841473178547,0.2875940752602074,-5.641980784627675,-6.646943154523592
2.111682946357086,0.3546829463570862,-5.026445288098606,-5.9885811770295385
2.1196817453963175,0.3626817453963176,-4.957268861242836,-6.029366262240565
2.127680544435549,0.37068054443554893,-4.888092434387065,-6.07015134745159
2.1356793434747803,0.3786793434747803,-4.818916007531295,-6.1109364326626165
2.1436781425140117,0.3866781425140117,-4.749739580675525,-6.151721517873643
2.151676941553243,0.3946769415532431,-4.6805631538197545,-6.192506603084668
2.1596757405924745,0.40267574059247446,-4.6113867269639846,-6.233291688295695
2.167674539631706,0.41067453963170586,-4.542210300108214,-6.27407677350672
2.1756733386709373,0.41867333867093726,-4.473033873252444,-6.314861858717746
2.1836721377101687,0.42667213771016865,-4.403857446396673,-6.355646943928772
2.1916709367494,0.43467093674940005,-4.334681019540903,-6.396432029139798
2.1996697357886315,0.4426697357886314,-4.265504592685133,-6.437217114350823
2.207668534827863,0.8127325860689064,-4.590614891913556,-6.179025620496366
2.2156673338670942,0.9845043802483853,-5.65601476530062,-5.679080599363215
2.223666132906325,0.9905499841733854,-5.740095164503699,-5.716005287951293
2.2316649319455566,0.9965955880983859,-5.824175563706782,-5.752929976539372
2.239663730984788,1.0026411920233862,-5.908255962909865,-5.789854665127452
2.2476625300240194,1.0086867959483867,-5.992336362112948,-5.826779353715532
2.255661329063251,1.0147323998733873,-6.076416761316032,-5.8637040423036115
2.263660128102482,1.0207780037983876,-6.160497160519115,-5.900628730891691
2.2716589271417136,1.026823607723388,-6.244577559722198,-5.937553419479771
2.279657726180945,1.0328692116483886,-6.328657958925281,-5.974478108067851
2.2876565252201764,1.038914815573389,-6.412738358128364,-6.01140279665593
2.2956553242594078,1.0449604194983895,-6.4968187573314475,-6.04832748524401
2.303654123298639,0.9263205230851287,-6.83286255671205,-6.213373632239132
2.3116529223378706,0.5473485697648927,-7.578334958876201,-6.593478637455425
2.319651721377102,0.13286534682290663,-7.947734041778883,-6.808719047965648
2.3276505204163334,-0.40411780535539654,-9.701446357085665,-8.65408344453341
2.3356493194555648,-0.4301583400053388,-9.645454763811045,-8.74118147851615
2.343648118494796,-0.45619887465528103,-9.589463170536426,-8.828279512498893
2.3516469175340275,-0.4822394093052233,-9.533471577261807,-8.915377546481634
2.359645716573259,-0.5082799439551655,-9.477479983987187,-9.002475580464377
2.3676445156124903,-0.5343204786051078,-9.421488390712566,-9.089573614447119
2.3756433146517217,-0.5603610132550501,-9.365496797437947,-9.17667164842986
2.383642113690953,-0.5864015479049923,-9.309505204163328,-9.263769682412603
2.3916409127301845,-0.6124420825549346,-9.253513610888707,-9.350867716395344
2.399639711769416,-0.6384826172048768,-9.197522017614087,-9.437965750378087
2.4076385108086473,-0.664523151854819,-9.141530424339468,-9.525063784360828
2.4156373098478787,-0.6905636865047613,-9.085538831064849,-9.612161818343571
2.42363610888711,1.1197403522818703,-6.682661329063203,-10.568671096877505
2.4316349079263415,1.599924512583039,-5.754263789409894,-9.741626338908965
2.439633706965573,1.5894396003289113,-5.513110807564958,-9.74270725769805
2.4476325060048043,1.5789546880747836,-5.271957825720022,-9.743788176487135
2.4556313050440357,1.5684697758206558,-5.030804843875085,-9.74486909527622
2.463630104083267,1.5579848635665283,-4.789651862030149,-9.745950014065306
2.4716289031224985,1.5474999513124006,-4.548498880185212,-9.747030932854392
2.47962770216173,1.5370150390582729,-4.307345898340277,-9.748111851643477
2.4876265012009613,1.5265301268041451,-4.06619291649534,-9.749192770432561
2.4956253002401927,1.5160452145500174,-3.8250399346504036,-9.750273689221647
2.503624099279424,0.6046333066452295,-5.084790832666716,-9.354934547638031
2.5116228983186555,0.6822460351259719,-6.860427303544954,-10.358475018312525
2.519621697357887,0.6619086631006921,-6.696792297667912,-10.41812563667956
2.5276204963971183,0.6415712910754122,-6.53315729179087,-10.477776255046594
2.5356192954363497,0.6212339190501324,-6.369522285913827,-10.537426873413628
2.543618094475581,0.6008965470248525,-6.205887280036785,-10.597077491780663
2.5516168935148125,0.5805591749995727,-6.0422522741597415,-10.656728110147696
2.5596156925540434,0.5602218029742939,-5.878617268282708,-10.716378728514728
2.567614491593275,0.5398844309490141,-5.714982262405666,-10.776029346881762
2.575613290632506,0.5195470589237342,-5.551347256528623,-10.835679965248797
2.5836120896717376,0.4992096868984544,-5.387712250651581,-10.89533058361583
2.591610888710969,0.47887231487317455,-5.224077244774538,-10.954981201982864
2.5996096877502004,0.4585349428478947,-5.060442238897496,-11.0146318203499
2.607608486789432,0.6937315852682244,-4.423193154523593,-10.373237990392287
2.615607285828663,0.6011805168272535,-2.453463649080169,-8.173923727487738
2.6236060848678946,0.5722193478921054,-2.1422460083008787,-8.178520738429825
2.631604883907126,0.5432581789569573,-1.831028367521589,-8.183117749371911
2.6396036829463574,0.5142970100218092,-1.5198107267422993,-8.187714760313998
2.647602481985589,0.4853358410866611,-1.2085930859630094,-8.192311771256087
2.65560128102482,0.456374672151513,-0.8973754451837195,-8.196908782198173
2.6636000800640516,0.4274135032163649,-0.5861578044044298,-8.20150579314026
2.671598879103283,0.3984523342812168,-0.27494016362514007,-8.206102804082347
2.6795976781425144,0.36949116534606874,0.036277477154150084,-8.210699815024434
2.6875964771817458,0.3405299964109206,0.3474951179334398,-8.21529682596652
2.695595276220977,0.3115688274757725,0.6587127587127295,-8.219893836908609
2.7035940752602086,0.5854922604750196,0.9141856151587734,-8.497874566319723
2.71159287429944,0.8944373721199205,0.3655547415710314,-8.622947300062272
2.7195916733386714,0.9273213237256495,0.3190728315986091,-8.622236295703228
2.7275904723779028,0.9602052753313783,0.2725909216261868,-8.621525291344186
2.735589271417134,0.9930892269371073,0.22610901165376449,-8.620814286985143
2.7435880704563655,1.0259731785428363,0.1796271016813422,-8.6201032826261
2.751586869495597,1.0588571301485652,0.1331451917089199,-8.619392278267057
2.7595856685348283,1.0917410817542943,0.08666328173649762,-8.618681273908015
2.7675844675740597,1.1246250333600232,0.040181371764075324,-8.617970269548973
2.775583266613291,1.157508984965752,-0.006300538208346973,-8.61725926518993
2.7835820656525225,1.1903929365714812,-0.05278244818076927,-8.616548260830887
2.791580864691754,1.22327688817721,-0.09926435815319162,-8.615837256471844
2.7995796637309853,1.2561608397829391,-0.14574626812561386,-8.615126252112802
2.8075784627702167,1.9318278622899245,1.8911293034427938,-7.924563250600575
2.815577261809448,1.9725393532217061,1.9373316392244249,-8.003849131479098
2.8235760608486795,1.9541073380443468,1.9598499973892176,-8.024802507223171
2.831574859887911,1.9356753228669876,1.9823683555540104,-8.045755882967246
2.8395736589271423,1.9172433076896283,2.004886713718803,-8.066709258711318
2.8475724579663737,1.8988112925122689,2.027405071883596,-8.087662634455393
2.855571257005605,1.8803792773349097,2.0499234300483886,-8.108616010199466
2.8635700560448365,1.8619472621575504,2.0724417882131814,-8.129569385943539
2.871568855084068,1.8435152469801912,2.094960146377974,-8.150522761687613
2.8795676541232993,1.8250832318028318,2.1174785045427664,-8.171476137431686
2.8875664531625307,1.8066512166254725,2.139996862707559,-8.19242951317576
2.895565252201762,1.7882192014481133,2.162515220872352,-8.213382888919833
2.903564051240993,1.389442954363452,2.616078462770208,-9.609542033627022
2.9115628502802244,0.8113114491593267,2.754144779653511,-11.357499429330703
2.919561649319456,0.7873150520416325,2.780693984975215,-11.526665519649768
2.9275604483586872,0.7633186549239382,2.8072431902969193,-11.695831609968831
2.9355592473979186,0.739322257806244,2.8337923956186235,-11.864997700287896
2.94355804643715,0.7153258606885499,2.8603416009403277,-12.03416379060696
2.9515568454763814,0.6913294635708556,2.886890806262032,-12.203329880926024
2.959555644515613,0.6673330664531614,2.9134400115837362,-12.372495971245089
2.967554443554844,0.6433366693354672,2.9399892169054405,-12.541662061564153
2.9755532425940756,0.619340272217773,2.9665384222271447,-12.710828151883218
2.983552041633307,0.5953438751000788,2.9930876275488494,-12.879994242202283
2.9915508406725384,0.5713474779823846,3.0196368328705536,-13.049160332521346
2.99954963971177,0.5473510808646903,3.046186038192258,-13.218326422840411
3.007548438751001,0.6538730984788083,3.1370474379503492,-13.691975780624404
3.0155472377902326,0.367204963971159,3.387538350680562,-10.593210248198499
3.023546036829464,0.11311518075219314,3.6037468861164794,-9.775313121383183
3.0315448358686954,0.06714739893180016,3.4937887119822357,-9.776933131315179
3.039543634907927,0.02117961711140716,3.3838305378479916,-9.778553141247176
3.047542433947158,-0.024788164708985816,3.2738723637137475,-9.780173151179172
3.0555412329863896,-0.0707559465293788,3.1639141895795038,-9.781793161111167
3.063540032025621,-0.1167237283497718,3.0539560154452596,-9.783413171043165
3.0715388310648524,-0.1626915101701648,2.9439978413110155,-9.78503318097516
3.0795376301040838,-0.20865929199055777,2.834039667176772,-9.786653190907156
3.087536429143315,-0.25462707381095073,2.7240814930425277,-9.788273200839154
3.0955352281825466,-0.30059485563134375,2.614123318908284,-9.78989321077115
3.103534027221778,0.5588478783026762,2.10691673338665,-9.560740592474007
3.1115328262610094,-0.3064972573803728,1.6119252295453304,-11.083372412823877
3.1195316253002408,-0.3161979285556109,1.4265062603274024,-11.115793077014805
3.127530424339472,-0.325898599730849,1.2410872911094741,-11.148213741205732
3.1355292233787035,-0.33559927090608704,1.0556683218915461,-11.18063440539666
3.143528022417935,-0.34529994208132514,0.870249352673618,-11.213055069587586
3.1515268214571663,-0.35500061325656324,0.6848303834556899,-11.245475733778514
3.1595256204963977,-0.36470128443180133,0.4994114142377619,-11.27789639796944
3.167524419535629,-0.3744019556070394,0.3139924450198337,-11.310317062160369
3.1755232185748605,-0.3841026267822775,0.1285734758019057,-11.342737726351295
3.183522017614092,-0.3938032979575156,-0.05684549341602252,-11.375158390542223
3.1915208166533233,-0.4035039691327537,-0.24226446263395052,-11.40757905473315
3.1995196156925547,-0.41320464030799176,-0.42768343185187874,-11.439999718924078
3.207518414731786,1.2712741418941562,-2.0397330122162485,-10.479574963196352
3.2155172137710175,1.2292159404943266,-2.2670537203956957,-10.365011518892521
3.223516012810249,1.187157739094497,-2.4943744285751426,-10.250448074588691
3.2315148118494803,1.1450995376946673,-2.72169513675459,-10.13588463028486
3.2395136108887117,1.1030413362948377,-2.949015844934037,-10.02132118598103
3.2475124099279427,1.0609831348950103,-3.1763365531134715,-9.906757741677206
3.255511208967174,1.0189249334951809,-3.403657261292919,-9.792194297373376
3.2635100080064054,0.9768667320953511,-3.630977969472366,-9.677630853069545
3.271508807045637,0.9348085306955215,-3.8582986776518133,-9.563067408765715
3.2795076060848682,0.892750329295692,-4.085619385831261,-9.448503964461885
3.2875064051240996,0.8506921278958623,-4.312940094010708,-9.333940520158054
3.295505204163331,0.8086339264960327,-4.540260802190155,-9.219377075854224
3.3035040032025624,0.8526959567654055,-4.302015612489931,-8.707304043234595
3.311502802241794,0.4715458387328402,-2.2020973892516134,-9.477447392965916
3.3195016012810252,0.4405401847250978,-2.303525459542898,-9.43027921718818
3.3275004003202566,0.4095345307173555,-2.4049535298341826,-9.383111041410444
3.335499199359488,0.37852887670961316,-2.5063816001254677,-9.33594286563271
3.3434979983987194,0.34752322270187086,-2.6078096704167524,-9.288774689854973
3.351496797437951,0.3165175686941285,-2.709237740708037,-9.241606514077239
3.359495596477182,0.2855119146863862,-2.8106658109993217,-9.194438338299502
3.3674943955164136,0.2545062606786439,-2.9120938812906063,-9.147270162521767
3.375493194555645,0.22350060667090155,-3.0135219515818914,-9.100101986744031
3.3834919935948764,0.1924949526631592,-3.114950021873176,-9.052933810966296
3.391490792634108,0.1614892986554169,-3.2163780921644607,-9.00576563518856
3.399489591673339,0.13048364464767453,-3.3178061624557458,-8.958597459410825
3.4074883907125706,0.1774191353082626,-3.085301441152896,-8.699719375500353
3.415487189751802,0.2876696468285831,-2.902937105239732,-8.380805889155742
3.4234859887910334,0.3959507034198875,-2.7144096991879065,-7.887659041518886
3.431484787830265,0.44367391281446555,-2.619765817917485,-7.84413643546416
3.439483586869496,0.4871410707513414,-2.531884275841719,-7.834664173444017
3.4474823859087276,0.5306082286882172,-2.444002733765953,-7.825191911423875
3.455481184947959,0.574075386625093,-2.356121191690187,-7.815719649403732
3.4634799839871904,0.6175425445619689,-2.2682396496144213,-7.80624738738359
3.4714787830264218,0.6610097024988447,-2.1803581075386553,-7.796775125363448
3.479477582065653,0.7044768604357206,-2.0924765654628894,-7.787302863343306
3.4874763811048846,0.7479440183725964,-2.0045950233871235,-7.777830601323163
3.495475180144116,0.7914111763094722,-1.9167134813113575,-7.76835833930302
3.5034739791833474,0.7725752602081565,-2.0019061916199936,-7.764157993061116
3.5114727782225788,0.5914475400545148,-2.272444917731945,-7.769090305952627
3.51947157726181,0.5821006288176601,-2.364565917902868,-7.770618166443267
3.5274703763010415,0.5727537175808055,-2.4566869180737916,-7.772146026933907
3.535469175340273,0.5634068063439508,-2.548807918244715,-7.773673887424547
3.5434679743795043,0.5540598951070962,-2.6409289184156384,-7.775201747915186
3.5514667734187357,0.5447129838702415,-2.7330499185865618,-7.776729608405826
3.559465572457967,0.5353660726333869,-2.825170918757485,-7.778257468896466
3.5674643714971985,0.5260191613965322,-2.9172919189284086,-7.7797853293871055
3.57546317053643,0.5166722501596774,-3.009412919099332,-7.781313189877745
3.5834619695756613,0.5073253389228228,-3.1015339192702553,-7.7828410503683845
3.5914607686148923,0.49797842768596867,-3.193654919441174,-7.784368910859024
3.5994595676541237,0.488631516449114,-3.2857759196120973,-7.785896771349663
3.607458366693355,-0.4535503602882355,-5.426361649319501,-11.220506805444447
3.6154571657325865,-0.40938985855350285,-5.571130024019205,-11.78514336802776
3.623455964771818,-0.3044278400498112,-5.413020429677066,-11.852777657681706
3.6314547638110493,-0.19946582154611958,-5.254910835334925,-11.920411947335651
3.6394535628502807,-0.09450380304242789,-5.096801240992785,-11.988046236989597
3.647452361889512,0.010458215461263742,-4.938691646650645,-12.055680526643542
3.6554511609287434,0.11542023396495538,-4.780582052308505,-12.123314816297487
3.663449959967975,0.22038225246864707,-4.622472457966365,-12.190949105951432
3.6714487590072062,0.32534427097233865,-4.464362863624225,-12.258583395605378
3.6794475580464376,0.43030628947603033,-4.3062532692820845,-12.326217685259323
3.687446357085669,0.5352683079797219,-4.148143674939945,-12.393851974913266
3.6954451561249004,0.6402303264834136,-3.9900340805978045,-12.461486264567212
3.703443955164132,0.9116641313048623,-3.3253376701359674,-11.261293634907823
3.7114427542033632,0.6984710435014653,-2.4169983987189614,-9.005395249532963
3.7194415532425946,0.6687120707318517,-2.254958211730661,-9.040314737811759
3.727440352281826,0.6389530979622381,-2.09291802474236,-9.075234226090553
3.7354391513210574,0.6091941251926245,-1.9308778377540596,-9.110153714369348
3.743437950360289,0.5794351524230109,-1.768837650765759,-9.145073202648144
3.75143674939952,0.5496761796533973,-1.6067974637774585,-9.17999269092694
3.7594355484387516,0.5199172068837837,-1.4447572767891577,-9.214912179205733
3.767434347477983,0.49015823411417014,-1.282717089800857,-9.249831667484528
3.7754331465172144,0.46039926134455655,-1.1206769028125565,-9.284751155763324
3.783431945556446,0.43064028857494296,-0.9586367158242559,-9.319670644042118
3.791430744595677,0.4008813158053294,-0.7965965288359553,-9.354590132320913
3.7994295436349086,0.3711223430357158,-0.6345563418476547,-9.389509620599709
3.80742834267414,-0.3199816653322759,-1.1039672538030882,-10.957078702962423
3.8154271417133714,-0.46873638911131293,-1.795516212970507,-11.70620916733394
3.823425940752603,-0.5176579528683183,-2.062812293208058,-11.852973858604955
3.831424739791834,-0.5110083488477525,-2.02648039877685,-11.833025046543257
3.8394235388310656,-0.5043587448271866,-1.9901485043456424,-11.81307623448156
3.847422337870297,-0.49770914080662065,-1.9538166099144347,-11.793127422419863
3.8554211369095284,-0.4910595367860548,-1.9174847154832269,-11.773178610358164
3.8634199359487598,-0.48440993276548894,-1.8811528210520192,-11.753229798296466
3.871418734987991,-0.477760328744923,-1.8448209266208113,-11.73328098623477
3.8794175340272226,-0.47111072472435717,-1.8084890321896037,-11.713332174173072
3.887416333066454,-0.46446112070379125,-1.7721571377583958,-11.693383362111375
3.8954151321056854,-0.4578115166832254,-1.735825243327188,-11.673434550049677
3.9034139311449167,0.28430664531643957,-1.2508182546035218,-10.499562850279874
3.911412730184148,0.4509158337422621,-0.19152603803471185,-8.618118989815505
3.9194115292233795,0.4453252752739821,-0.02208911214991771,-8.582081389843053
3.9274103282626105,0.43973471680570236,0.14734781373486705,-8.546043789870604
3.935409127301842,0.43414415833742237,0.3167847396196612,-8.510006189898153
3.9434079263410733,0.4285535998691423,0.4862216655044554,-8.473968589925702
3.9514067253803047,0.4229630414008623,0.6556585913892496,-8.437930989953252
3.959405524419536,0.41737248293258233,0.8250955172740437,-8.401893389980799
3.9674043234587675,0.41178192446430234,0.994532443158838,-8.365855790008348
3.975403122497999,0.4061913659960223,1.1639693690436321,-8.329818190035898
3.9834019215372303,0.4006008075277423,1.3334062949284262,-8.293780590063445
3.9914007205764617,0.3950102490594623,1.5028432208132205,-8.257742990090994
3.999399519615693,0.38941969059118225,1.6722801466980146,-8.221705390118544
4.007398318654925,0.968792433947163,2.810096677341807,-8.009819255404448
4.015397117694156,0.9813824659727776,2.565506084867903,-8.27221377101681
4.023395916733388,0.9745390490169903,2.659625286896198,-8.233997286718258
4.031394715772619,0.9676956320612038,2.7537444889244824,-8.19578080241971
4.0393935148118505,0.9608522151054166,2.847863690952777,-8.157564318121157
4.0473923138510814,0.9540087981496301,2.9419828929810614,-8.11934783382261
4.055391112890313,0.9471653811938429,3.0361020950093565,-8.081131349524057
4.063389911929544,0.9403219642380564,3.1302212970376404,-8.04291486522551
4.071388710968776,0.9334785472822691,3.2243404990659355,-8.004698380926957
4.079387510008007,0.9266351303264826,3.31845970109422,-7.96648189662841
4.087386309047239,0.9197917133706954,3.4125789031225144,-7.928265412329857
4.09538510808647,0.9129482964149089,3.5066981051507993,-7.89004892803131
4.103383907125701,1.2054895916733428,3.4724367493995216,-7.788335668534826
4.111382706164933,1.2506494055459425,4.172305551968458,-7.356577950532471
4.119381505204164,1.2536597062596315,4.20206452473807,-7.388659155281215
4.127380304243395,1.2566700069733208,4.231823497507685,-7.420740360029962
4.135379103282626,1.25968030768701,4.261582470277297,-7.452821564778705
4.143377902321858,1.2626906084006992,4.291341443046912,-7.484902769527452
4.151376701361089,1.2657009091143885,4.321100415816525,-7.5169839742761955
4.159375500400321,1.2687112098280777,4.35085938858614,-7.549065179024943
4.167374299439552,1.271721510541767,4.380618361355752,-7.581146383773686
4.175373098478784,1.2747318112554562,4.410377334125367,-7.613227588522433
4.183371897518015,1.2777421119691452,4.440136306894979,-7.645308793271177
4.191370696557247,1.2807524126828347,4.469895279664594,-7.677389998019923
4.1993694955964775,1.2837627133965237,4.499654252434206,-7.709471202768667
4.207368294635709,1.2400636509207328,4.669684147317854,-8.649568454763893
4.21536709367494,1.2176329063250595,4.422287406395704,-10.33791989356191
4.223365892714172,1.2096341072858277,4.406760325907783,-10.357963942919044
4.231364691753403,1.2016353082465967,4.391233245419865,-10.378007992276174
4.239363490792635,1.1936365092073649,4.375706164931944,-10.39805204163331
4.247362289831866,1.185637710168134,4.360179084444025,-10.41809609099044
4.255361088871098,1.177638911128902,4.344652003956104,-10.438140140347574
4.263359887910329,1.1696401120896711,4.329124923468185,-10.458184189704706
4.271358686949561,1.1616413130504393,4.313597842980265,-10.47822823906184
4.2793574859887915,1.1536425140112083,4.298070762492346,-10.498272288418972
4.287356285028023,1.1456437149719765,4.282543682004425,-10.518316337776106
4.295355084067254,1.1376449159327455,4.267016601516506,-10.538360387133238
4.303353883106486,0.7368017614090867,4.592077341873607,-12.0930606885511
4.311352682145717,0.419917854283426,5.7001705097411195,-13.127136820567545
4.319351481184949,0.4135188150520406,5.642045903389369,-12.938720665421195
4.32735028022418,0.4071197758206559,5.583921297037624,-12.750304510274868
4.335349079263412,0.40072073658927043,5.5257966906858735,-12.56188835512852
4.343347878302643,0.39432169735788575,5.467672084334129,-12.373472199982192
4.3513466773418745,0.38792265812650034,5.409547477982378,-12.185056044835843
4.3593454763811055,0.3815236188951156,5.351422871630634,-11.996639889689515
4.367344275420337,0.3751245796637302,5.2932982652788825,-11.808223734543168
4.375343074459568,0.3687255404323455,5.235173658927138,-11.61980757939684
4.3833418734988,0.36232650120096005,5.177049052575388,-11.431391424250492
4.391340672538031,0.35592746196957536,5.118924446223643,-11.242975269104164
4.399339471577263,0.34952842273818996,5.060799839871892,-11.054559113957815
4.407338270616494,0.21513090472376564,3.3677483987188928,-8.387781224979934
4.415337069655726,0.4283740799090844,4.354093984865297,-9.148044370980683
4.423335868694957,0.4005072961595056,4.256044190190853,-9.335113058188504
4.4313346677341885,0.3726405124099237,4.157994395516398,-9.522181745396345
4.4393334667734194,0.34477372866034484,4.059944600841954,-9.709250432604167
4.44733226581265,0.31690694491076604,3.9618948061675097,-9.896319119811988
4.455331064851882,0.28904016116118414,3.863845011493055,-10.083387807019829
4.463329863891113,0.2611733774116053,3.765795216818611,-10.270456494227648
4.471328662930345,0.23330659366202341,3.667745422144156,-10.457525181435491
4.479327461969576,0.2054398099124446,3.5696956274697125,-10.64459386864331
4.487326261008808,0.1775730261628627,3.4716458327952573,-10.831662555851153
4.495325060048039,0.1497062424132839,3.3735960381208137,-11.018731243058973
4.503323859087271,0.12183945866370194,3.2755462434463585,-11.205799930266814
4.511322658126502,-0.2125516413130811,2.0905756605282235,-11.552899119294942
4.519321457165733,-0.275755882867219,1.6265223075011273,-11.023983306185166
4.527320256204964,-0.31372719324885534,1.3211888407277272,-10.947489044108844
4.535319055244196,-0.3516985036304959,1.0158553739542935,-10.870994782032511
4.543317854283427,-0.3896698140121322,0.7105219071808933,-10.79450051995619
4.551316653322659,-0.4276411243937728,0.4051884404074595,-10.718006257879857
4.55931545236189,-0.46561243477540903,0.09985497363405949,-10.641511995803533
4.567314251401122,-0.5035837451570496,-0.20547849313937427,-10.565017733727203
4.575313050440353,-0.5415550555386859,-0.5108119599127743,-10.488523471650879
4.583311849479585,-0.5795263659203265,-0.8161454266862085,-10.412029209574548
4.5913106485188155,-0.6174976763019628,-1.1214788934596085,-10.335534947498225
4.599309447558047,-0.657094475580472,-1.4180944755804719,-10.24343314651717
4.607308246597278,-0.7370824659727832,-1.4980824659727832,-9.763505204163302
4.61530704563651,-0.8090218732362889,-0.42983810655078764,-9.148485529407136
4.623305844675741,-0.7724372022207899,-0.23301519904446516,-9.163696360366984
4.631304643714973,-0.7358525312052869,-0.03619229153812081,-9.178907191326834
4.639303442754204,-0.6992678601897879,0.16063061596820166,-9.194118022286684
4.647302241793436,-0.6626831891742849,0.357453523474546,-9.209328853246534
4.655301040832667,-0.6260985181587859,0.5542764309808685,-9.224539684206384
4.6632998398718986,-0.5895138471432829,0.7510993384872129,-9.239750515166234
4.6712986389111295,-0.5529291761277839,0.9479222459935353,-9.254961346126084
4.679297437950361,-0.5918666933546978,1.1750855350947766,-9.10514351481181
4.687296236989592,-1.7895757869453441,0.23939572710800192,-7.9201397749778755
4.695295036028824,-1.7776477532903494,0.2372907799924146,-7.910176358630762
4.703293835068055,-1.765719719635356,0.23518583287682754,-7.90021294228365
4.711292634107287,-1.7537916859803613,0.23308088576124023,-7.890249525936537
4.719291433146518,-1.7418636523253679,0.23097593864565313,-7.8802861095894245
4.72729023218575,-1.729935618670373,0.22887099153006582,-7.870322693242311
4.735289031224981,-1.7180075850153795,0.22676604441447876,-7.860359276895199
4.7432878302642125,-1.7060795513603848,0.22466109729889144,-7.850395860548086
4.7512866293034435,-1.6941515177053914,0.22255615018330435,-7.840432444200974
4.759285428342675,-1.6822234840503967,0.22045120306771704,-7.8304690278538605
4.767284227381906,-1.670295450395403,0.21834625595212998,-7.820505611506748
4.775283026421138,-1.6583674167404083,0.21624130883654266,-7.810542195159635
4.783281825460369,-1.646439383085415,0.21413636172095557,-7.800578778812523
4.7912806244996,-1.6345113494304215,0.2120314146053685,-7.79061536246541
4.799279423538832,-1.573262610087969,0.13874699759793302,-7.79636829463574
4.807278222578063,-1.8291550972736952,-0.1280398256749729,-7.970436968131207
4.815277021617295,-1.8270935511295634,-0.12325703862058683,-8.000782927372828
4.823275820656526,-1.8250320049854316,-0.1184742515662013,-8.031128886614447
4.831274619695757,-1.8229704588412996,-0.11369146451181522,-8.06147484585607
4.839273418734988,-1.820908912697168,-0.10890867745742969,-8.091820805097688
4.84727221777422,-1.818847366553036,-0.10412589040304361,-8.12216676433931
4.855271016813451,-1.8167858204089042,-0.09934310334865806,-8.152512723580928
4.863269815852683,-1.8147242742647725,-0.094560316294272,-8.18285868282255
4.871268614891914,-1.8126627281206407,-0.08977752923988644,-8.21320464206417
4.879267413931146,-1.8106011819765087,-0.08499474218550038,-8.243550601305792
4.887266212970377,-1.808539635832377,-0.08021195513111484,-8.27389656054741
4.895265012009609,-1.806478089688245,-0.07542916807672875,-8.304242519789032
4.90326381104884,-1.5155602481984345,-0.28586589271426854,-8.680488190552493
4.911262610088071,-2.0001625211279963,-1.0093795747709164,-10.59828767013612
4.919261409127302,-1.830143603771898,-0.8977518904012043,-10.7014721777422
4.927260208166534,-1.660124686415781,-0.7861242060314797,-10.80465668534829
4.935259007205765,-1.4901057690596828,-0.6744965216617675,-10.90784119295437
4.943257806244997,-1.3200868517035658,-0.5628688372920431,-11.011025700560461
4.951256605284228,-1.1500679343474678,-0.4512411529223309,-11.11421020816654
4.95925540432346,-0.9800490169913507,-0.33961346855260643,-11.217394715772631
4.967254203362691,-0.8100300996352525,-0.22798578418289428,-11.32057922337871
4.975253002401923,-0.6400111822791354,-0.11635809981316969,-11.4237637309848
4.9832518014411535,-0.46999226492303725,-0.004730415443457536,-11.526948238590881
4.991250600480385,-0.2999733475669202,0.10689726892626683,-11.630132746196972
4.999249399519616,-0.12995443021082198,0.21852495329597899,-11.733317253803051
5.007248198558848,1.370488390712573,-0.30254763811045715,-10.793852415265539
5.015246997598079,1.3862279630155758,-0.12683208502283516,-10.756868720783073
5.023245796637311,1.4019675353185803,0.04888346806480631,-10.719885026300604
5.031244595676542,1.4177071076215833,0.2245990211524283,-10.682901331818139
5.039243394715774,1.4334466799245877,0.4003145742400697,-10.645917637335668
5.047242193755005,1.4491862522275907,0.5760301273276918,-10.608933942853202
5.0552409927942366,1.4649258245305952,0.7517456804153331,-10.571950248370733
5.0632397918334675,1.480665396833598,0.9274612335029551,-10.534966553888268
5.071238590872699,1.4964049691366026,1.1031767865905966,-10.497982859405797
5.07923738991193,1.5121445414396055,1.2788923396782186,-10.460999164923331
5.087236188951162,1.52788411374261,1.4546078927658599,-10.424015470440862
5.095234987990393,1.543623686045613,1.6303234458534819,-10.387031775958397
5.103233787029625,0.9658646917530367,2.709793434747881,-10.995410728583414
5.111232586068856,0.5447455837010006,2.154952664259048,-12.053087418871272
5.119231385108087,0.5198982505153045,1.9897859734596093,-12.077679471236566
5.127230184147319,0.49505091732960566,1.8246192826601524,-12.102271523601864
5.13522898318655,0.4702035841439096,1.6594525918607137,-12.126863575967159
5.1432277822257815,0.44535625095821074,1.4942859010612568,-12.151455628332457
5.151226581265012,0.42050891777251465,1.3291192102618181,-12.176047680697751
5.159225380304244,0.39566158458681583,1.1639525194623614,-12.20063973306305
5.167224179343475,0.3708142514011198,0.9987858286629228,-12.225231785428344
5.175222978382707,0.3459669182154209,0.8336191378634659,-12.249823837793642
5.183221777421938,0.3211195850297248,0.6684524470640272,-12.274415890158938
5.19122057646117,0.296272251844026,0.5032857562645703,-12.299007942524234
5.199219375500401,0.27142491865832996,0.3381190654651318,-12.32359999488953
5.207218174539633,0.8699786568385142,3.6295644080481804,-8.370653009364005
5.215216973578864,0.8691961656281546,3.6502569533887996,-8.321269119643537
5.223215772618095,0.868413674417795,3.670949498729421,-8.271885229923063
5.231214571657326,0.8676311832074355,3.69164204407004,-8.222501340202593
5.239213370696558,0.8668486919970758,3.7123345894106614,-8.173117450482119
5.247212169735789,0.8660662007867163,3.7330271347512807,-8.12373356076165
5.255210968775021,0.8652837095763567,3.7537196800919017,-8.074349671041176
5.263209767814252,0.8645012183659971,3.774412225432521,-8.024965781320706
5.271208566853484,0.8637187271556375,3.7951047707731425,-7.975581891600232
5.279207365892715,0.8629362359452779,3.8157973161137613,-7.926198001879762
5.287206164931947,0.8621537447349182,3.8364898614543828,-7.8768141121592885
5.295204963971178,0.8613712535245588,3.857182406795002,-7.827430222438819
5.303203763010409,0.9703510808646765,4.017630104083276,-7.504678742994451
5.31120256204964,0.9532025620496404,3.910016279690405,-7.757469175340291
5.319201361088872,0.9660355672773533,3.8545716526162104,-7.842301257476572
5.327200160128103,0.9814685442471636,3.8539129279894504,-7.856604992229078
5.335198959167335,0.9969015212169756,3.85325420336269,-7.870908726981588
5.343197758206566,1.012334498186786,3.85259547873593,-7.885212461734095
5.351196557245798,1.027767475156598,3.8519367541091696,-7.899516196486603
5.359195356285029,1.0432004521264084,3.851278029482409,-7.91381993123911
5.367194155324261,1.0586334290962205,3.850619304855649,-7.928123665991619
5.3751929543634915,1.0740664060660308,3.8499605802288888,-7.942427400744126
5.383191753402723,1.0894993830358428,3.8493018556021283,-7.956731135496635
5.391190552441954,1.104932360005653,3.8486431309753684,-7.9710348702491425
5.399189351481186,1.1078815052040851,3.967291433147288,-7.934821857485665
5.407188150520417,1.0862543368027813,5.059342857619436,-6.823852698825721
5.415186949559649,1.1395796637309936,5.1204170211169036,-6.765778084967965
5.42318574859888,1.1929049906592,5.181491184614365,-6.707703471110215
5.431184547638112,1.246230317587412,5.242565348111833,-6.649628857252459
5.439183346677343,1.2995556445156184,5.303639511609294,-6.59155424339471
5.4471821457165746,1.3528809714438306,5.364713675106763,-6.533479629536954
5.4551809447558055,1.406206298372037,5.425787838604224,-6.475405015679204
5.4631797437950365,1.4595316253002433,5.4868620021016845,-6.417330401821454
5.471178542834268,1.5128569522284554,5.547936165599153,-6.359255787963698
5.479177341873499,1.5661822791566617,5.6090103290966145,-6.301181174105948
5.487176140912731,1.619507606084874,5.670084492594082,-6.243106560248192
5.495174939951962,1.6728329330130802,5.7311586560915435,-6.185031946390443
5.503173738991194,1.6144827862289615,6.32274979984003,-6.614556044836122
5.511172538030425,1.5204808836316264,6.975460105718977,-8.31653718243413
5.519171337069657,1.4236352092426474,6.901578725345856,-8.43067058377887
5.527170136108888,1.3267895348536791,6.827697344972744,-8.544803985123595
5.5351689351481195,1.2299438604647,6.7538159645996245,-8.658937386468333
5.54316773418735,1.1330981860757317,6.679934584226513,-8.773070787813058
5.551166533226582,1.0362525116867527,6.606053203853393,-8.887204189157796
5.559165332265813,0.9394068372977843,6.532171823480281,-9.001337590502523
5.567164131305045,0.8425611629088051,6.4582904431071615,-9.11547099184726
5.575162930344276,0.7457154885198368,6.38440906273405,-9.229604393191986
5.583161729383508,0.6488698141308578,6.31052768236093,-9.343737794536723
5.591160528422739,0.5520241397418895,6.236646301987818,-9.45787119588145
5.599159327461971,0.4551784653529103,6.1627649216146985,-9.572004597226188
5.607158126501202,-0.4273536592715042,7.22752368776742,-11.391923487176838
5.615156925540433,-0.44524344637000124,7.254014334047887,-11.388053100544951
5.623155724579664,-0.4631332334684962,7.280504980328351,-11.384182713913065
5.631154523618896,-0.48102302056699325,7.306995626608817,-11.380312327281178
5.639153322658127,-0.4989128076654883,7.333486272889281,-11.376441940649293
5.647152121697359,-0.5168025947639854,7.359976919169748,-11.372571554017407
5.65515092073659,-0.5346923818624804,7.386467565450212,-11.36870116738552
5.663149719775822,-0.5525821689609773,7.412958211730678,-11.364830780753634
5.671148518815053,-0.5704719560594724,7.439448858011142,-11.360960394121749
5.679147317854285,-0.5883617431579695,7.465939504291609,-11.357090007489862
5.687146116893516,-0.6062515302564645,7.492430150572073,-11.353219620857976
5.695144915932747,-0.6241413173549615,7.518920796852539,-11.34934923422609
5.703143714971978,-0.6024965972777363,6.573753602882118,-9.913819055243922
5.71114251401121,0.013754683747060847,5.340544755804529,-8.15584179343459
5.719141313050441,0.21890630151180154,4.942360241134071,-7.708070762492352
5.727140112089673,0.2515602222954892,4.834894023454039,-7.750699656195552
5.735138911128904,0.28421414307917325,4.727427805774018,-7.793328549898748
5.743137710168136,0.31686806386286087,4.619961588093985,-7.835957443601948
5.751136509207367,0.34952198464654494,4.512495370413965,-7.878586337305143
5.759135308246599,0.38217590543023255,4.405029152733932,-7.921215231008343
5.7671341072858295,0.4148298262139166,4.297562935053912,-7.963844124711539
5.775132906325061,0.44748374699760424,4.190096717373879,-8.00647301841474
5.783131705364292,0.48013766778128825,4.082630499693859,-8.049101912117935
5.791130504403524,0.5127915885649759,3.975164282013826,-8.091730805821134
5.799129303442755,0.5454455093486599,3.8676980643338053,-8.13435969952433
5.807128102481986,-0.18313370696565048,5.186839071257018,-10.672763010408469
5.815126901521218,-0.8494478382706103,4.375427582065615,-11.715049639711765
5.823125700560449,-0.8111424784271823,4.146750805088493,-11.69016448714527
5.831124499599681,-0.7728371185837503,3.918074028111344,-11.66527933457877
5.839123298638912,-0.7345317587403224,3.6893972511342215,-11.640394182012274
5.8471220976781435,-0.6962263988968902,3.460720474157073,-11.615509029445775
5.8551208967173745,-0.6579210390534622,3.2320436971799498,-11.59062387687928
5.863119695756606,-0.61961567921003,3.0033669202028013,-11.56573872431278
5.871118494795837,-0.5813103193666023,2.774690143225678,-11.540853571746284
5.879117293835069,-0.5430049595231701,2.5460133662485296,-11.515968419179785
5.8871160928743,-0.5046995996797421,2.317336589271407,-11.49108326661329
5.895114891913532,-0.46639423983630995,2.0886598122942583,-11.466198114046792
5.903113690952763,-0.13962049639703444,0.871008006405062,-10.08351561248965
5.911112489991995,-0.05018161467950121,0.9657260992467334,-8.792800129899838
5.919111289031226,-0.06454680479077314,0.9027151517131996,-8.79092286073757
5.9271100880704575,-0.07891199490204667,0.839704204179659,-8.7890455915753
5.935108887109688,-0.09327718501331861,0.7766932566461252,-8.787168322413033
5.94310768614892,-0.10764237512459213,0.7136823091125846,-8.785291053250765
5.951106485188151,-0.12200756523586406,0.6506713615790507,-8.783413784088495
5.959105284227383,-0.1363727553471376,0.5876604140455101,-8.781536514926227
5.967104083266614,-0.15073794545840954,0.5246494665119763,-8.779659245763959
5.975102882305846,-0.16510313556968306,0.46163851897843566,-8.77778197660169
5.983101681345077,-0.179468325680955,0.3986275714449019,-8.775904707439421
5.991100480384309,-0.19383351579222854,0.33561662391136116,-8.774027438277153
5.99909927942354,-0.20819870590350048,0.2726056763778275,-8.772150169114884
6.007098078462771,-0.41780684547646435,0.8569685748601097,-8.6543134507606
6.015096877502002,-1.7706015059238391,1.6113332103885338,-8.240295076510645
6.023095676541234,-1.7581089995591959,1.592459639621807,-8.215489812074376
6.031094475580465,-1.7456164931945544,1.5735860688550822,-8.190684547638108
6.039093274619697,-1.7331239868299113,1.5547124980883553,-8.16587928320184
6.047092073658928,-1.7206314804652696,1.5358389273216304,-8.141074018765572
6.05509087269816,-1.7081389741006265,1.5169653565549035,-8.116268754329303
6.063089671737391,-1.6956464677359848,1.4980917857881788,-8.091463489893036
6.071088470776623,-1.6831539613713418,1.4792182150214517,-8.066658225456765
6.079087269815854,-1.6706614550067,1.460344644254727,-8.0418529610205
6.087086068855085,-1.658168948642057,1.441471073488,-8.017047696584228
6.095084867894316,-1.6456764422774155,1.4225975027212752,-7.992242432147962
6.103083666933548,-1.4161824659727755,1.118155324259371,-7.6892349879903445
6.111082465972779,-1.4366184947958427,0.9686701361088839,-7.451354763811037
6.119081265012011,-1.4441431974848105,0.9938565047159805,-7.60471634868871
6.127080064051242,-1.3934191060165164,1.0889641762190316,-7.6248108926165346
6.135078863090474,-1.3426950145482168,1.1840718477220933,-7.64490543654436
6.143077662129705,-1.291970923079923,1.2791795192251445,-7.664999980472184
6.151076461168936,-1.241246831611629,1.3742871907281957,-7.685094524400009
6.1590752602081675,-1.1905227401433294,1.4693948622312574,-7.705189068327835
6.1670740592473985,-1.1397986486750356,1.5645025337343084,-7.725283612255659
6.17507285828663,-1.089074557206736,1.65961020523737,-7.745378156183485
6.183071657325861,-1.038350465738442,1.7547178767404212,-7.765472700111309
6.191070456365093,-0.9876263742701424,1.849825548243483,-7.785567244039136
6.199069255404324,-0.9369022828018485,1.944933219746534,-7.80566178796696
6.207068054443556,-1.0288673002918425,1.8861408180307582,-9.441225832278738
6.215066853482787,-0.9829387122601293,1.7598802052394567,-9.577721467496582
6.223065652522019,-0.9370101242284109,1.6336195924481411,-9.714217102714441
6.23106445156125,-0.8910815361966977,1.5073589796568396,-9.850712737932286
6.2390632506004815,-0.8451529481649793,1.3810983668655241,-9.987208373150146
6.2470620496397125,-0.7992243601332661,1.2548377540742226,-10.123704008367989
6.255060848678944,-0.7532957721015479,1.128577141282907,-10.26019964358585
6.263059647718175,-0.7073671840698346,1.0023165284916056,-10.396695278803694
6.271058446757407,-0.6614385960381163,0.8760559157002901,-10.533190914021553
6.279057245796638,-0.6155100080064031,0.7497953029089885,-10.669686549239398
6.28705604483587,-0.5695814199746847,0.6235346901176728,-10.806182184457256
6.295054843875101,-0.5236528319429715,0.4972740773263713,-10.942677819675101
6.303053642914333,-0.3435980784621393,1.2485012009620466,-13.900723779023071
6.311052441953564,0.9302774049026468,1.7031240013287197,-12.405502048447259
6.3190512409927955,0.9433818203498988,1.6684909033609818,-12.29547601485442
6.327050040032026,0.9564862357971495,1.633857805393248,-12.185449981261595
6.335048839071258,0.9695906512444017,1.5992247074255102,-12.075423947668758
6.343047638110489,0.9826950666916523,1.5645916094577763,-11.965397914075933
6.351046437149721,0.9957994821389045,1.5299585114900385,-11.855371880483094
6.359045236188952,1.008903897586155,1.4953254135223046,-11.74534584689027
6.367044035228184,1.0220083130334072,1.4606923155545668,-11.635319813297432
6.375042834267415,1.0351127284806578,1.426059217586833,-11.525293779704606
6.383041633306647,1.04821714392791,1.3914261196190951,-11.41526774611177
6.391040432345878,1.0613215593751608,1.3567930216513613,-11.305241712518944
6.399039231385109,1.0744259748224128,1.3221599236836235,-11.195215678926106
6.40703803042434,0.1649975464242361,2.7766816851330685,-12.424012676808113
6.415036829463572,0.16448149487331792,2.920058007696504,-12.426678943154524
6.423035628502803,0.1639654433223998,3.063434330259923,-12.429345209500934
6.431034427542035,0.16344939177148163,3.2068106528233584,-12.432011475847345
6.439033226581266,0.1629333402205635,3.350186975386778,-12.434677742193754
6.447032025620498,0.1624172886696453,3.493563297950213,-12.437344008540165
6.455030824659729,0.16190123711872717,3.6369396205136324,-12.440010274886577
6.463029623698961,0.161385185567809,3.780315943077068,-12.442676541232986
6.471028422738192,0.16086913401689087,3.9236922656404873,-12.445342807579397
6.479027221777423,0.16035308246597269,4.067068588203922,-12.448009073925808
6.487026020816654,0.15983703091505455,4.210444910767341,-12.450675340272218
6.495024819855885,0.15932097936413644,4.353821233330761,-12.453341606618629
6.503023618895117,0.42689751801444076,3.757559247397871,-12.052462570055956
6.511022417934348,0.7349543634909051,3.268556445156069,-11.11447077662099
6.51902121697358,0.9929820367922194,3.1539159001620045,-8.95739724803097
6.527020016012811,0.9467564190887565,3.2844079356508544,-8.83536905803712
6.535018815052043,0.9005308013852884,3.414899971139719,-8.713340868043257
6.543017614091274,0.8543051836818255,3.545392006628569,-8.591312678049407
6.5510164131305055,0.8080795659783575,3.6758840421174335,-8.469284488055544
6.5590152121697365,0.7618539482748945,3.8063760776062834,-8.347256298061694
6.567014011208968,0.7156283305714265,3.936868113095148,-8.225228108067832
6.575012810248199,0.6694027128679636,4.067360148583998,-8.103199918073981
6.583011609287431,0.6231770951644955,4.197852184072863,-7.981171728080118
6.591010408326662,0.5769514774610327,4.328344219561712,-7.8591435380862675
6.599009207365894,0.5307258597575646,4.458836255050577,-7.737115348092404
6.607008006405125,0.471257073744109,4.842747781203691,-7.154480128783872
6.615006805444357,0.5367791509803697,4.888357954448673,-7.102743215849266
6.623005604483588,0.6023012282166229,4.933968127693649,-7.051006302914666
6.6310044035228195,0.6678233054528836,4.9795783009386305,-6.999269389980061
6.6390032025620505,0.733345382689137,5.025188474183607,-6.947532477045461
6.647002001601282,0.7988674599253975,5.070798647428588,-6.895795564110855
6.655000800640513,0.8643895371616509,5.1164088206735645,-6.844058651176255
6.662999599679745,0.9299116143979115,5.162018993918546,-6.7923217382416485
6.670998398718976,0.9954336916341648,5.207629167163523,-6.740584825307049
6.678997197758208,1.0609557688704254,5.253239340408504,-6.688847912372443
6.686995996797439,1.126477846106679,5.29884951365348,-6.637110999437843
6.694994795836671,1.1919999233429395,5.344459686898462,-6.585374086503237
6.702993594875902,1.7427566052842733,5.188981585268155,-6.894449959968015
6.7109923939151335,1.5867415932745157,4.737049439551634,-6.270479383506598
6.718991192954364,1.612397873354866,4.901043927276667,-6.116808179127559
6.726989991993596,1.6388208724282836,5.065243992947191,-5.964471500796121
6.734988791032827,1.6652438715016984,5.2294440586176965,-5.8121348224646985
6.742987590072059,1.691666870575116,5.393644124288221,-5.659798144133259
6.75098638911129,1.7180898696485307,5.557844189958727,-5.507461465801838
6.758985188150522,1.7445128687219484,5.7220442556292515,-5.355124787470399
6.766983987189753,1.7709358677953633,5.886244321299757,-5.202788109138978
6.774982786228985,1.7973588668687808,6.050444386970281,-5.050451430807539
6.782981585268216,1.8237818659421956,6.214644452640787,-4.898114752476117
6.790980384307447,1.850204865015613,6.378844518311311,-4.7457780741446784
6.798979183346678,1.876627864089028,6.543044583981818,-4.593441395813256
6.80697798238591,1.9055030236955484,8.36775828748105,-5.731817083454005
6.814976781425141,1.8850805580634695,8.382139107030307,-5.771215423402557
6.822975580464373,1.8646580924313882,8.396519926579565,-5.810613763351114
6.830974379503604,1.8442356267993092,8.410900746128819,-5.850012103299666
6.838973178542835,1.8238131611672304,8.425281565678075,-5.889410443248218
6.846971977582067,1.803390695535149,8.439662385227333,-5.928808783196775
6.854970776621298,1.78296822990307,8.454043204776587,-5.968207123145327
6.86296957566053,1.762545764270989,8.468424024325845,-6.007605463093884
6.8709683746997605,1.74212329863891,8.482804843875101,-6.047003803042436
6.878967173738992,1.7217008330068286,8.497185663424359,-6.086402142990993
6.886965972778223,1.7012783673747498,8.511566482973613,-6.125800482939546
6.894964771817455,1.6808559017426685,8.525947302522871,-6.165198822888103
6.902963570856686,1.637475220176136,8.545965212169737,-6.291946837469992
6.910962369895918,1.5164690609629998,8.662325288802574,-6.609614777536402
6.918961168935149,1.0207860288229433,9.95855484387554,-7.46152502001624
6.926959967974381,0.8973595078594517,11.283892207436848,-8.0187097728816
6.934958767013612,0.8938157361332101,11.39648289771058,-8.04381992682754
6.9429575660528435,0.8902719644069681,11.509073587984325,-8.068930080773482
6.9509563650920745,0.8867281926807266,11.621664278258057,-8.094040234719422
6.958955164131306,0.8831844209544846,11.734254968531802,-8.119150388665366
6.966953963170537,0.879640649228243,11.846845658805535,-8.144260542611306
6.974952762209769,0.876096877502001,11.95943634907928,-8.16937069655725
6.982951561249,0.8725531057757595,12.072027039353012,-8.19448085050319
6.990950360288232,0.8690093340495175,12.184617729626757,-8.219591004449132
6.998949159327463,0.865465562323276,12.297208419900489,-8.244701158395072
7.006947958366695,0.4957757517842228,7.004400759317128,-5.027579930611157
7.014946757405926,0.49388356276418965,6.982468568403108,-5.040911262343209
7.0229455564451575,0.49199137374415636,6.960536377489085,-5.054242594075262
7.0309443554843885,0.4900991847241232,6.9386041865750645,-5.067573925807314
7.03894315452362,0.4882069957040899,6.916671995661042,-5.080905257539366
7.046941953562851,0.48631480668405674,6.894739804747021,-5.094236589271418
7.054940752602083,0.4844226176640234,6.8728076138329985,-5.107567921003471
7.062939551641314,0.48253042864399026,6.850875422918978,-5.120899252735523
7.070938350680546,0.4806382396239569,6.8289432320049555,-5.134230584467576
7.078937149719777,0.4787460506039238,6.807011041090934,-5.147561916199628
7.086935948759009,0.4768538615838904,6.785078850176912,-5.160893247931681
7.09493474779824,0.4749616725638573,6.763146659262891,-5.174224579663733
7.1029335468374715,0.13498198558805558,7.308402722178303,-8.247377902322757
7.110932345876702,-0.0026078904790476365,7.643845747431261,-9.651664293935168
7.118931144915934,0.016305936415802632,7.498284269081906,-9.805891137910356
7.126929943955165,0.0352197633106508,7.352722790732568,-9.960117981885528
7.134928742994397,0.05413359020550107,7.207161312383214,-10.114344825860716
7.142927542033628,0.07304741710034925,7.061599834033876,-10.268571669835888
7.15092634107286,0.0919612439951995,6.916038355684521,-10.422798513811077
7.158925140112091,0.11087507089004768,6.770476877335183,-10.577025357786248
7.166923939151323,0.12978889778489797,6.624915398985829,-10.731252201761437
7.174922738190554,0.14870272467974613,6.479353920636491,-10.88547904573661
7.1829215372297845,0.16761655157459432,6.3337924422871525,-11.03970588971178
7.190920336269016,0.18653037846944456,6.188230963937798,-11.19393273368697
7.198919135308247,0.20544420536429275,6.04266948558846,-11.348159577662141
7.206917934347479,0.23113874325266937,2.8597425079848935,-9.470472093804068
7.21491673338671,0.25848947545133005,2.9707796000241102,-9.396160670471858
7.222915532425942,0.2858402076499938,3.0818166920633394,-9.321849247139639
7.230914331465173,0.3131909398486545,3.192853784102556,-9.247537823807429
7.238913130504405,0.3405416720473182,3.3038908761417853,-9.17322640047521
7.246911929543636,0.3678924042459789,3.414927968181002,-9.098914977143
7.254910728582868,0.39524313644464265,3.5259650602202313,-9.024603553810783
7.2629095276220985,0.42259386864330334,3.637002152259448,-8.950292130478573
7.27090832666133,0.4499446008419671,3.748039244298677,-8.875980707146354
7.278907125700561,0.47729533304062777,3.859076336337894,-8.801669283814144
7.286905924739793,0.5046460652392915,3.970113428377123,-8.727357860481925
7.294904723779024,0.5319967974379521,4.08115052041634,-8.653046437149715
7.302903522818256,0.4648067253802825,4.246127582065681,-8.431924779823811
7.310902321857487,0.29832300125813205,4.459025162987552,-8.033219489877567
7.318901120896719,0.13327421937546713,4.644428142513983,-7.487678943154367
7.32689991993595,0.040922297331529606,4.514522777715833,-7.39546424988092
7.3348987189751815,-0.03683817940429411,4.388769506744619,-7.4261431879681
7.3428975180144125,-0.11459865614010921,4.263016235773417,-7.456822126055277
7.350896317053644,-0.19235913287593293,4.137262964802202,-7.4875010641424575
7.358895116092875,-0.270119609611748,4.011509693831002,-7.518180002229634
7.366893915132107,-0.3478800863475718,3.885756422859786,-7.548858940316816
7.374892714171338,-0.4256405630833868,3.7600031518885855,-7.579537878403992
7.38289151321057,-0.5034010398192106,3.6342498809173702,-7.610216816491173
7.390890312249801,-0.5811615165550257,3.508496609946169,-7.64089575457835
7.398889111289033,-0.6589219932908494,3.3827433389749544,-7.67157469266553
7.406887910328264,-0.5010406690944169,2.7017471783878744,-6.803370240278249
7.4148867093674955,-0.5104156056027639,2.717486750690879,-6.833731273190602
7.4228855084067265,-0.5197905421111099,2.733226322993882,-6.864092306102952
7.430884307445958,-0.5291654786194568,2.7489658952968865,-6.894453339015305
7.438883106485189,-0.5385404151278028,2.764705467599889,-6.9248143719276545
7.446881905524421,-0.5479153516361498,2.7804450399028937,-6.955175404840007
7.454880704563652,-0.5572902881444958,2.796184612205897,-6.985536437752358
7.462879503602884,-0.5666652246528427,2.8119241845089014,-7.015897470664711
7.470878302642115,-0.5760401611611887,2.827663756811904,-7.046258503577061
7.478877101681347,-0.5854150976695357,2.8434033291149086,-7.076619536489414
7.486875900720578,-0.5947900341778817,2.8591429014179113,-7.106980569401763
7.4948746997598095,-0.6041649706862287,2.874882473720916,-7.137341602314116
7.50287349879904,-0.581228983186564,3.124828662930421,-7.968826261009018
7.510872297838271,-0.34324531625300314,3.018791966906859,-8.13829763811049
7.518871096877503,-0.35710990125433834,3.0179032114580555,-8.182291032826265
7.526869895916734,-0.37097448625567203,3.0170144560092518,-8.226284427542037
7.534868694955966,-0.3848390712570072,3.0161257005604485,-8.27027782225781
7.542867493995197,-0.3987036562583409,3.0152369451116448,-8.314271216973582
7.550866293034429,-0.4125682412596761,3.0143481896628415,-8.358264611689357
7.55886509207366,-0.4264328262610098,3.0134594342140377,-8.402258006405127
7.566863891112892,-0.440297411262345,3.0125706787652344,-8.446251401120902
7.5748626901521225,-0.4541619962636787,3.0116819233164307,-8.490244795836672
7.582861489191354,-0.4680265812650139,3.0107931678676274,-8.534238190552447
7.590860288230585,-0.48189116626634754,3.0099044124188237,-8.578231585268217
7.598859087269817,-0.4957557512676828,3.0090156569700204,-8.622224979983994
7.606857886309048,-1.8623524152655637,4.342087937016407,-13.32645956765442
7.61485668534828,-1.6350817697636026,4.500111872106401,-13.323719523444835
7.622855484387511,-1.399986632784466,4.634613416820426,-13.259294413791897
7.630854283426743,-1.164891495805303,4.769114961534466,-13.194869304138953
7.638853082465974,-0.9297963588261662,4.9036165062484915,-13.130444194486017
7.646851881505206,-0.6947012218470032,5.038118050962532,-13.066019084833073
7.6548506805444365,-0.45960608486786647,5.172619595676557,-13.001593975180137
7.662849479583668,-0.22451094788870374,5.307121140390597,-12.937168865527193
7.670848278622899,0.010584189090433016,5.4416226851046225,-12.872743755874257
7.678847077662131,0.24567932606959575,5.576124229818664,-12.808318646221313
7.686845876701362,0.4807744630487325,5.710625774532689,-12.743893536568377
7.694844675740594,0.7158696000278955,5.845127319246728,-12.679468426915433
7.702843474779825,2.2918686949561637,4.831131305043836,-10.647436349078905
7.710842273819057,1.0532193243956784,5.508541692928817,-8.096553378873319
7.718841072858288,0.9924624891402429,5.547429471236567,-8.15858661823076
7.7268398718975195,0.9317056538848006,5.586317249544322,-8.220619857588208
7.7348386709367505,0.8709488186293651,5.625205027852074,-8.282653096945648
7.742837469975982,0.8101919833739228,5.664092806159829,-8.344686336303095
7.750836269015213,0.7494351481184874,5.702980584467579,-8.406719575660535
7.758835068054445,0.6886783128630452,5.741868362775334,-8.468752815017982
7.766833867093676,0.6279214776076096,5.780756141083085,-8.530786054375424
7.774832666132908,0.5671646423521675,5.81964391939084,-8.592819293732871
7.782831465172139,0.5064078070967319,5.858531697698591,-8.654852533090311
7.790830264211371,0.44565097184128977,5.897419476006346,-8.716885772447759
7.798829063250602,0.38489413658585425,5.936307254314096,-8.778919011805199
7.8068278622898335,0.07001421136912506,6.359828763010437,-9.697782626100917
7.8148266613290645,-0.10352721717603722,7.516834032743435,-8.651747789035818
7.822825460368296,-0.08238096684243575,7.502215537947597,-8.577460092211687
7.830824259407527,-0.06123471650883661,7.487597043151761,-8.503172395387566
7.838823058446759,-0.040088466175235135,7.472978548355924,-8.428884698563435
7.84682185748599,-0.018942215841635995,7.458360053560088,-8.354597001739313
7.854820656525221,0.0022040344919631305,7.443741558764252,-8.28030930491519
7.862819455564453,0.0233502848255646,7.429123063968414,-8.20602160809106
7.870818254603684,0.04449653515916373,7.414504569172578,-8.131733911266938
7.878817053642916,0.06564278549276521,7.399886074376741,-8.057446214442807
7.886815852682147,0.08678903582636434,7.385267579580905,-7.983158517618685
7.894814651721378,0.10793528615996582,7.370649084785067,-7.908870820794555
7.902813450760609,0.04858633573522078,7.221951160928728,-6.495249532959562
7.910812249799841,-0.06412678099469578,7.227498054357477,-4.693313803731125
7.918811048839072,-0.11461382439285245,7.311184414198033,-4.47975447024284
7.926809847878304,-0.16510086779101474,7.394870774038599,-4.266195136754532
7.934808646917535,-0.2155879111891714,7.478557133879155,-4.052635803266248
7.942807445956767,-0.26607495458733366,7.562243493719721,-3.8390764697779396
7.950806244995998,-0.31656199798549034,7.645929853560276,-3.625517136289655
7.95880504403523,-0.36704904138365263,7.729616213400842,-3.4119578028013464
7.9668038430744605,-0.4175360847818093,7.813302573241398,-3.1983984693130623
7.974802642113692,-0.46802312817997155,7.896988933081963,-2.984839135824754
7.982801441152923,-0.5185101715781282,7.98067529292252,-2.7712798023364695
7.990800240192155,-0.5689972149762905,8.064361652763084,-2.5577204688481614
7.998799039231386,-0.6194842583744471,8.148048012603642,-2.344161135359877
8.006797838270618,-0.2942193755000716,8.007574059247418,-2.66698278622931
8.01479663730985,0.11867239245946973,7.847400174685167,-3.2775362835723185
8.02279543634908,0.24192910828663336,7.772974744795836,-3.270734462570054
8.030794235388312,0.30921900520417117,7.760276651321055,-3.232240242193751
8.038793034427544,0.37650890212170895,7.747578557846275,-3.1937460218174474
8.046791833466775,0.4437987990392468,7.734880464371495,-3.1552518014411444
8.054790632506005,0.5110886959567696,7.722182370896717,-3.1167575810648493
8.062789431545237,0.5783785928743075,7.709484277421936,-3.0782633606885463
8.07078823058447,0.6456684897918452,7.696786183947156,-3.039769140312243
8.078787029623701,0.712958386709383,7.684088090472375,-3.00127491993594
8.086785828662931,0.7802482836269059,7.671389996997597,-2.9627806995596453
8.094784627702163,0.8475381805444436,7.658691903522817,-2.924286479183342
8.102783426741395,0.928101681345098,7.853890712570152,-2.751096076861438
8.110782225780627,1.3094115292235542,8.774658126501347,-2.570202562049783
8.118781024819857,1.4439343474779849,8.825797788230584,-2.553509607686148
8.126779823859088,1.5559175340272315,8.856429552733097,-2.5149699395880307
8.13477862289832,1.6679007205764784,8.887061317235611,-2.4764302714899133
8.142777421937552,1.7798839071257253,8.917693081738124,-2.437890603391796
8.150776220976782,1.8918670936749473,8.94832484624063,-2.399350935293687
8.158775020016014,2.003850280224194,8.978956610743143,-2.3608112671955697
8.166773819055246,2.1158334667734406,9.009588375245656,-2.3222715990974523
8.174772618094478,2.2278166533226877,9.04022013974817,-2.283731930999335
8.182771417133708,2.3397998398719095,9.070851904250675,-2.245192262901226
8.19077021617294,2.4517830264211566,9.10148366875319,-2.206652594803108
8.198769015212171,2.5637662129704033,9.132115433255702,-2.168112926704991
8.206767814251402,1.686636349079167,10.189344595676497,-4.368401921537305
8.214766613290633,1.0820319811404648,9.903517124810959,-4.832663642024732
8.222765412329865,1.0626571123565478,9.890363544168666,-4.841906698692289
8.230764211369097,1.0432822435726306,9.877209963526374,-4.851149755359845
8.238763010408327,1.0239073747887177,9.864056382884083,-4.8603928120274
8.246761809447559,1.0045325060048005,9.85090280224179,-4.8696358686949575
8.25476060848679,0.9851576372208835,9.837749221599498,-4.878878925362514
8.262759407526023,0.9657827684369662,9.824595640957208,-4.8881219820300705
8.270758206565253,0.9464078996530534,9.811442060314917,-4.897365038697625
8.278757005604485,0.9270330308691362,9.798288479672625,-4.906608095365183
8.286755804643716,0.9076581620852191,9.785134899030332,-4.915851152032739
8.294754603682948,0.8882832933013018,9.77198131838804,-4.925094208700296
8.302753402722178,0.5558374699759945,12.346931945556348,-5.58890392313851
8.31075220176141,0.3930361506596593,12.680147531068323,-4.454059321370135
8.318751000800642,0.40590378389668463,12.554688107007326,-4.403023505761122
8.326749799839874,0.4187714171337099,12.429228682946329,-4.35198769015211
8.334748598879104,0.43163905037073236,12.30376925888536,-4.300951874543109
8.342747397918336,0.4445066836077577,12.178309834824363,-4.2499160589340965
8.350746196957568,0.457374316844783,12.052850410763366,-4.198880243325084
8.3587449959968,0.4702419500818083,11.927390986702369,-4.147844427716071
8.36674379503603,0.48310958331883075,11.8019315626414,-4.09680861210707
8.374742594075261,0.4959772165558561,11.676472138580403,-4.045772796498057
8.382741393114493,0.5088448497928814,11.551012714519405,-3.9947369808890447
8.390740192153725,0.5217124830299067,11.42555329045841,-3.9437011652800322
8.398738991192955,0.5345801162669291,11.30009386639744,-3.892665349671031
8.406737790232187,0.700980184147293,7.796585668534902,-3.1141481184948496
8.414736589271419,0.14301443913752726,9.613072002429533,-3.9579196322575627
8.42273538831065,0.20295946182234537,9.631827807073249,-4.1463970808831405
8.43073418734988,0.2629044845071502,9.65058361171696,-4.334874529508677
8.438732986389113,0.32284950719196825,9.669339416360677,-4.523351978134256
8.446731785428344,0.3827945298767864,9.688095221004394,-4.711829426759834
8.454730584467576,0.4427395525616045,9.70685102564811,-4.900306875385413
8.462729383506806,0.5026845752464093,9.725606830291822,-5.088784324010949
8.470728182546038,0.5626295979312275,9.744362634935538,-5.277261772636527
8.47872698158527,0.6225746206160455,9.763118439579253,-5.465739221262106
8.486725780624502,0.6825196433008637,9.781874244222971,-5.654216669887685
8.494724579663732,0.7424646659856684,9.800630048866681,-5.84269411851322
8.502723378702964,0.5011305488835356,10.53773481007029,-6.185727470865601
8.510722177742196,0.3367107908548549,10.667493105595629,-6.392807490436859
8.518720976781427,-0.6363537051863614,8.671284019808404,-6.749740730856308
8.526719775820657,-0.5848058891557673,8.485830382824773,-6.846713825381296
8.53471857485989,-0.5332580731251618,8.300376745841099,-6.9436869199063045
8.542717373899121,-0.4817102570945563,8.114923108857427,-7.040660014431314
8.550716172938351,-0.43016244106396223,7.929469471873795,-7.137633108956301
8.558714971977583,-0.37861462503335674,7.7440158348901225,-7.2346062034813094
8.566713771016815,-0.3270668090027512,7.55856219790645,-7.331579298006319
8.574712570056047,-0.2755189929721457,7.373108560922777,-7.428552392531327
8.582711369095277,-0.22397117694155166,7.187654923939146,-7.525525487056314
8.590710168134509,-0.17242336091094618,7.002201286955472,-7.622498581581324
8.59870896717374,-0.12087554488034069,6.8167476499718,-7.719471676106332
8.606707766212972,-1.334505471043604,5.1956706698693695,-7.560182546036756
8.614706565252202,-1.4238337442681324,5.438822239609885,-7.4347866247543415
8.622705364291434,-1.3555712661037795,5.548987517286577,-7.37834055426158
8.630704163330666,-1.2873087879394267,5.659152794963268,-7.32189448376882
8.638702962369898,-1.2190463097750739,5.769318072639961,-7.26544841327606
8.646701761409128,-1.1507838316107362,5.879483350316628,-7.209002342783312
8.65470056044836,-1.0825213534463836,5.98964862799332,-7.152556272290552
8.662699359487592,-1.0142588752820307,6.099813905670012,-7.096110201797791
8.670698158526823,-0.9459963971176778,6.209979183346704,-7.039664131305031
8.678696957566054,-0.8777339189533402,6.3201444610233715,-6.983218060812283
8.686695756605285,-0.8094714407889874,6.430309738700063,-6.926771990319523
8.694694555644517,-0.7412089626246345,6.540475016376755,-6.8703259198267626
8.702693354683749,-0.6520176140912617,6.468857485988771,-6.851252201761331
8.71069215372298,-0.6139834867894315,6.400609087269816,-6.61100050040032
8.718690952762211,-0.6031155533122141,6.380264315800465,-6.585004403522817
8.726689751801443,-0.5922476198349969,6.359919544331114,-6.559008306645312
8.734688550840675,-0.5813796863577795,6.339574772861764,-6.533012209767809
8.742687349879905,-0.5705117528805645,6.319230001392417,-6.507016112890311
8.750686148919137,-0.5596438194033473,6.298885229923067,-6.481020016012807
8.758684947958368,-0.5487758859261299,6.2785404584537154,-6.455023919135303
8.7666837469976,-0.5379079524489127,6.258195686984364,-6.429027822257799
8.77468254603683,-0.5270400189716977,6.237850915515018,-6.403031725380301
8.782681345076062,-0.5161720854944805,6.217506144045667,-6.377035628502797
8.790680144115294,-0.5053041520172631,6.197161372576317,-6.351039531625293
8.798678943154526,-0.49443621854004577,6.176816601106966,-6.325043434747789
8.806677742193756,-0.5629229383506957,5.869368094475568,-5.7413953162529685
8.814676541232988,-0.6460280695144484,5.862083125323796,-5.437701973343373
8.82267534027222,-0.7291214760043518,5.910358230113514,-5.386886073564723
8.830674139311451,-0.8122148824942552,5.95863333490323,-5.336070173786073
8.838672938350681,-0.8953082889841402,6.006908439692937,-5.285254274007435
8.846671737389913,-0.9784016954740437,6.055183544482655,-5.234438374228784
8.854670536429145,-1.0614951019639471,6.103458649272373,-5.183622474450134
8.862669335468377,-1.1445885084538505,6.15173375406209,-5.132806574671484
8.870668134507607,-1.2276819149437355,6.200008858851796,-5.081990674892846
8.878666933546839,-1.3107753214336388,6.248283963641514,-5.031174775114196
8.88666573258607,-1.3938687279235422,6.296559068431232,-4.980358875335546
8.8946645316253,-1.4769621344134274,6.344834173220939,-4.929542975556908
8.902663330664533,-0.948481785428274,6.773774819855989,-5.580747598078887
8.910662129703764,-0.30775921382267535,7.865141429272457,-5.7205508664996545
8.918660928742996,-0.3468071145088179,7.925433452138065,-5.754094217309337
8.926659727782226,-0.3858550151949518,7.985725475003659,-5.7876375681190115
8.934658526821458,-0.4249029158810943,8.046017497869267,-5.821180918928693
8.94265732586069,-0.4639508165672369,8.106309520734875,-5.854724269738375
8.950656124899922,-0.5029987172533794,8.166601543600482,-5.888267620548057
8.958654923939152,-0.5420466179395134,8.226893566466076,-5.921810971357732
8.966653722978384,-0.5810945186256559,8.287185589331685,-5.9553543221674135
8.974652522017616,-0.6201424193117984,8.347477612197293,-5.988897672977096
8.982651321056847,-0.659190319997941,8.4077696350629,-6.022441023786778
8.990650120096078,-0.6982382206840748,8.468061657928494,-6.055984374596452
8.99864891913531,-0.7372861213702173,8.528353680794103,-6.089527725406134
9.006647718174541,0.15594675740642006,11.657489991994167,-7.444299439551595
9.014646517213773,1.5918516161243534,11.356182118728645,-7.1380276805714375
9.022645316253003,1.5674957224206305,11.194678277453404,-7.187997706029998
9.030644115292235,1.5431398287169023,11.033174436178129,-7.2379677314885695
9.038642914331467,1.5187839350131738,10.871670594902854,-7.287937756947142
9.046641713370699,1.4944280413094455,10.710166753627577,-7.337907782405713
9.054640512409929,1.4700721476057226,10.548662912352338,-7.387877807864274
9.06263931144916,1.4457162539019943,10.387159071077061,-7.437847833322846
9.070638110488392,1.421360360198266,10.225655229801786,-7.487817858781417
9.078636909527624,1.3970044664945378,10.064151388526511,-7.5377878842399895
9.086635708566854,1.3726485727908149,9.90264754725127,-7.58775790969855
9.094634507606086,1.3482926790870864,9.741143705975995,-7.6377279351571215
9.102633306645318,-0.5579895916740354,8.277351881505078,-4.46837830264245
9.11063210568455,-0.5253525013559232,9.635826609674865,-5.982949753351081
9.11863090472378,-0.5242343896622673,9.735682584777512,-6.027760229689133
9.126629703763012,-0.5231162779686113,9.835538559880181,-6.072570706027196
9.134628502802244,-0.5219981662749552,9.93539453498285,-6.117381182365258
9.142627301841475,-0.5208800545812992,10.035250510085518,-6.16219165870332
9.150626100880705,-0.5197619428876433,10.135106485188164,-6.207002135041372
9.158624899919937,-0.5186438311939873,10.234962460290832,-6.251812611379434
9.16662369895917,-0.5175257195003312,10.334818435393501,-6.296623087717497
9.174622497998401,-0.5164076078066752,10.43467441049617,-6.341433564055559
9.182621297037631,-0.5152894961130193,10.534530385598817,-6.386244040393612
9.190620096076863,-0.5141713844193633,10.634386360701484,-6.431054516731674
9.198618895116095,-0.5130532727257072,10.734242335804154,-6.475864993069735
9.206617694155327,-0.28820124099272376,10.746488430744481,-5.699131104883856
9.214616493194557,0.41543209952577687,9.457964956580646,-3.702678696803577
9.222615292233789,0.4469878012299994,9.418586253618274,-3.451991060980617
9.23061409127302,0.478543502934222,9.379207550655902,-3.201303425157657
9.23861289031225,0.5100992046384376,9.339828847693537,-2.950615789334752
9.246611689351482,0.5416549063426601,9.300450144731165,-2.699928153511792
9.254610488390714,0.5732106080468826,9.261071441768793,-2.449240517688832
9.262609287429946,0.6047663097511052,9.22169273880642,-2.1985528818658713
9.270608086469176,0.6363220114553207,9.182314035844056,-1.947865246042967
9.278606885508408,0.6678777131595434,9.142935332881684,-1.697177610220007
9.28660568454764,0.699433414863766,9.10355662991931,-1.4464899743970463
9.294604483586872,0.7309891165679885,9.064177926956939,-1.1958023385740861
9.302603282626102,0.7625448182722041,9.024799223994576,-0.9451147027511815
9.310602081665333,0.36996877502000103,8.058916733386669,0.3208126501200061
9.318600880704565,0.3206404305262292,8.022961314506144,0.4950607031079891
9.326599679743797,0.27501091782515624,8.001873571584534,0.7161184220103984
9.334598478783027,0.22938140512409338,7.980785828662927,0.9371761409127586
9.342597277822259,0.18375189242302042,7.959698085741316,1.1582338598151678
9.35059607686149,0.13812237972194746,7.938610342819705,1.379291578717577
9.358594875900723,0.0924928670208745,7.917522599898093,1.6003492976199862
9.366593674939953,0.046863354319811645,7.896434856976486,1.8214070165223464
9.374592473979185,0.0012338416187386847,7.875347114054875,2.0424647354247556
9.382591273018416,-0.044395671082334276,7.854259371133264,2.2635224543271653
9.390590072057648,-0.09002518378340724,7.833171628211653,2.4845801732295745
9.398588871096878,-0.1356546964844701,7.812083885290046,2.7056378921319344
9.40658767013611,0.5989194452336049,8.201750372340886,2.001162702204776
9.414586469175342,0.5842119760324367,8.225574752274941,2.0169882830996
9.422585268214574,0.5695045068312684,8.249399132208998,2.0328138639944244
9.430584067253804,0.5547970376301035,8.273223512143048,2.0486394448892455
9.438582866293036,0.5400895684289353,8.297047892077105,2.0644650257840698
9.446581665332268,0.525382099227767,8.32087227201116,2.080290606678894
9.4545804643715,0.5106746300265987,8.344696651945217,2.096116187573718
9.46257926341073,0.49596716082543385,8.368521031879268,2.1119417684685393
9.470578062449961,0.48125969162426563,8.392345411813324,2.1277673493633635
9.478576861489193,0.46655222242309735,8.41616979174738,2.1435929302581878
9.486575660528425,0.4518447532219292,8.439994171681436,2.159418511153012
9.494574459567655,0.43713728402076424,8.463818551615487,2.1752440920478326
9.502573258606887,0.5247269815853611,9.309871897518622,3.0148150520416084
9.510572057646119,2.0919561395594926,10.6154326728989,3.4664722820509697
9.51857085668535,1.8924368001442864,10.693167480463265,3.357080255753869
9.52656965572458,1.6929174607291246,10.770902288027614,3.247688229456793
9.534568454763813,1.4933981213139185,10.848637095591979,3.138296203159692
9.542567253803044,1.293878781898712,10.926371903156346,3.0289041768625915
9.550566052842276,1.094359442483506,11.004106710720711,2.919512150565491
9.558564851881506,0.8948401030683439,11.08184151828506,2.810120124268414
9.566563650920738,0.6953207636531376,11.159576325849427,2.7007280979713135
9.57456244995997,0.4958014242379314,11.237311133413792,2.591336071674213
9.5825612489992,0.4419515612490001,11.174800640512398,2.3922052642113476
9.590560048038432,0.4519500600480399,11.050819255404305,2.153741067854249
9.598558847077664,-0.21938850280223046,13.455448422738197,1.1364956925540366
9.606557646116896,-0.11044485988789239,13.519118863090483,1.0720253722978277
9.614556445156126,-0.001501216973578523,13.582789303442755,1.0075550520416332
9.622555244195357,0.10744242594075956,13.64645974379504,0.9430847317854243
9.63055404323459,0.21638606885509762,13.710130184147326,0.8786144115292154
9.638552842273821,0.3253297117694357,13.773800624499613,0.8141440912730065
9.646551641313051,0.4342733546837496,13.837471064851883,0.749673771016812
9.654550440352283,0.5432169975980876,13.90114150520417,0.6852034507606031
9.662549239391515,0.6521606405124257,13.964811945556454,0.6207331305043943
9.670548038430747,0.7611042834267637,14.02848238590874,0.5562628102481854
9.678546837469977,0.8700479263410775,14.092152826261012,0.49179248999199077
9.686545636509209,0.9789915692554158,14.155823266613297,0.42732216973578196
9.69454443554844,1.0879352121697536,14.219493706965583,0.36285184947957305
9.702543234587672,0.49383166533209544,12.266440152120628,1.0481551240993614
9.710542033626902,0.5652443615269773,11.98953957127965,0.9375603275072644
9.718540832666134,0.673680910766375,11.901024559270036,0.804523698203814
9.726539631705366,0.7821174600057729,11.812509547260424,0.6714870689003634
9.734538430744598,0.8905540092451707,11.72399453525081,0.538450439596913
9.742537229783828,0.9989905584845444,11.635479523241218,0.405413810293492
9.75053602882306,1.1074271077239422,11.546964511231605,0.2723771809900415
9.758534827862292,1.21586365696334,11.458449499221992,0.13934055168659099
9.766533626901523,1.3243002062027378,11.36993448721238,0.006303922383140481
9.774532425940754,1.4327367554421115,11.281419475202785,-0.12673270692028038
9.782531224979985,1.5411733046815095,11.192904463193173,-0.259769336223731
9.790530024019217,1.6496098539209072,11.104389451183561,-0.3928059655271814
9.798528823058449,1.758046403160305,11.015874439173947,-0.525842594830632
9.80652762209768,1.8664829523996787,10.927359427164355,-0.6588792241340529
9.814526421136911,1.3680668534830143,11.855559647719554,-1.5614011208980865
9.822525220176143,1.0873563533753428,12.355378761545802,-2.0868444218790008
9.830524019215375,0.9083588382900915,12.270513454666146,-2.2386265109649144
9.838522818254605,0.7293613232048798,12.185648147786509,-2.3904086000507943
9.846521617293837,0.5503638081196285,12.100782840906854,-2.5421906891367074
9.854520416333068,0.37136629303437707,12.015917534027198,-2.693972778222621
9.8625192153723,0.19236877794912566,11.931052227147543,-2.845754867308534
9.87051801441153,0.01337126286391399,11.846186920267906,-2.997536956394414
9.878516813450762,-0.1656262522213372,11.76132161338825,-3.1493190454803273
9.886515612489994,-0.3446237673065886,11.676456306508593,-3.301101134566241
9.894514411529226,-0.52362128239184,11.591590999628938,-3.4528832236521545
9.902513210568456,-0.6579610354950809,11.121243661595718,-3.579572991726737
9.910512009607688,-0.47591299106702484,8.107145545649994,-2.9642646341792545
9.91851080864692,-0.5526655121850468,8.046929867489483,-2.9683988449186325
9.92650960768615,-0.6294180333030518,7.986714189328988,-2.9725330556580096
9.934508406725381,-0.7061705544210739,7.926498511168479,-2.976667266397388
9.942507205764613,-0.7829230755390959,7.866282833007969,-2.980801477136766
9.950506004803845,-0.8596755966571179,7.806067154847461,-2.9849356878761446
9.958504803843075,-0.9364281177751228,7.745851476686965,-2.9890698986155217
9.966503602882307,-1.0131806388931448,7.685635798526455,-2.9932041093548998
9.974502401921539,-1.0899331600111668,7.625420120365947,-2.9973383200942783
9.98250120096077,-1.1666856811291888,7.565204442205437,-3.0014725308336563
9.9905,-1.243438202247194,7.504988764044941,-3.005606741573034
9.998498799039233,-1.320190723365216,7.4447730858844325,-3.009740952312412
10.006497598078465,-1.6532579181624938,7.653047607978853,-1.9376173799254295
10.014496397117696,-1.6895535439104061,7.637738078634947,-1.851092736554814
10.022495196156926,-1.7258491696583103,7.622428549291045,-1.7645680931842178
10.030493995196158,-1.7621447954062224,7.607119019947138,-1.6780434498136025
10.03849279423539,-1.7984404211541347,7.591809490603232,-1.591518806442987
10.046491593274622,-1.8347360469020468,7.5764999612593265,-1.5049941630723715
10.054490392313852,-1.8710316726499512,7.561190431915423,-1.4184695197017754
10.062489191353084,-1.9073272983978633,7.5458809025715174,-1.33194487633116
10.070487990392316,-1.9436229241457754,7.530571373227612,-1.2454202329605444
10.078486789431548,-1.9799185498936878,7.515261843883705,-1.158895589589929
10.086485588470778,-2.016214175641592,7.499952314539803,-1.072370946219333
10.09448438751001,-2.0525098013895042,7.484642785195896,-0.9858463028487175
10.102483186549241,-1.3684011208963454,7.466048038430739,-0.5642990392311882
10.110481985588473,-0.47704483586856095,7.351230584468122,0.06198638911122663
10.118480784627703,-0.4544807846277026,7.525260376483008,0.03992415295873016
10.126479583666935,-0.46247958366693454,7.580070328990471,0.0312890858141048
10.134478382706167,-0.47047838270616643,7.634880281497936,0.022654018669479435
10.142477181745399,-0.47847718174539833,7.6896902340054,0.014018951524854072
10.150475980784629,-0.4864759807846285,7.744500186512852,0.005383884380230623
10.15847477982386,-0.4944747798238604,7.799310139020316,-0.0032511827643947333
10.166473578863092,-0.5024735788630923,7.85412009152778,-0.011886249909020097
10.174472377902324,-0.5104723779023242,7.908930044035245,-0.02052131705364546
10.182471176941554,-0.5184711769415544,7.963739996542697,-0.02915638419826891
10.190469975980786,-0.5264699759807863,8.018549949050161,-0.03779145134289427
10.198468775020018,-0.5344687750200182,8.073359901557625,-0.046426518487519636
10.20646757405925,-0.54785820914795,10.098755167574938,-0.9152001429100788
10.21446637309848,-0.5112185490327672,10.145887875892122,-1.0554801561679739
10.222465172137712,-0.4745788889175761,10.193020584209316,-1.1957601694259
10.230463971176944,-0.4379392288023851,10.240153292526509,-1.3360401826838262
10.238462770216174,-0.4012995686872022,10.287286000843693,-1.4763201959417211
10.246461569255406,-0.36465990857201114,10.334418709160888,-1.6166002091996474
10.254460368294637,-0.3280202484568201,10.38155141747808,-1.7568802224575735
10.26245916733387,-0.2913805883416291,10.428684125795275,-1.8971602357154995
10.2704579663731,-0.25474092822644623,10.47581683411246,-2.037440248973395
10.278456765412331,-0.2181012681112552,10.522949542429654,-2.177720262231321
10.286455564451563,-0.18146160799606414,10.570082250746847,-2.318000275489247
10.294454363490795,-0.1448219478808731,10.617214959064041,-2.458280288747173
10.302453162530025,-0.7628414731787024,13.38567574059326,-4.406376301041321
10.310451961569257,-0.9951476895802365,14.966784999428207,-5.516925540432431
10.318450760608489,-0.9897395616492709,15.49333437750197,-5.994788080464347
10.32644955964772,-0.8076668985187564,15.37505213670933,-5.902301966573229
10.33444835868695,-0.6255942353882822,15.256769895916715,-5.8098158526821315
10.342447157726182,-0.44352157225776756,15.138487655124074,-5.717329738791014
10.350445956765414,-0.26144890912725294,15.020205414331434,-5.624843624899895
10.358444755804646,-0.07937624599673843,14.901923173538792,-5.532357511008777
10.366443554843876,0.10269641713373567,14.783640932746179,-5.439871397117679
10.374442353883108,0.2847690802642504,14.665358691953537,-5.347385283226561
10.38244115292234,0.4668417433947649,14.547076451160898,-5.254899169335443
10.390439951961572,0.6489144065252797,14.428794210368256,-5.1624130554443255
10.398438751000802,0.9300296236992429,13.94559727782129,-4.330658927139776
10.406437550040033,0.43055903055776296,9.219234033059788,-0.7686061682679362
10.414436349079265,0.29224646383771247,9.268643281291709,-0.6722872965038529
10.422435148118497,0.15393389711766203,9.31805252952363,-0.5759684247397695
10.430433947157727,0.015621330397642352,9.367461777755542,-0.47964955297570755
10.438432746196959,-0.12269123632240808,9.416871025987463,-0.3833306812116242
10.44643154523619,-0.2610038030424586,9.466280274219384,-0.2870118094475409
10.454430344275423,-0.39931636976250906,9.515689522451307,-0.19069293768345752
10.462429143314653,-0.5376289364825289,9.565098770683218,-0.09437406591939557
10.470427942353885,-0.6759415032025793,9.614508018915139,0.0019448058446878136
10.478426741393116,-0.8142540699226297,9.66391726714706,0.09826367760877108
10.486425540432348,-0.9525666366426802,9.713326515378983,0.19458254937285435
10.494424339471578,-1.0908792033627,9.762735763610893,0.2909014211369163
10.50242313851081,-1.1571799439552912,10.605404923939172,5.741807646117248
10.510421937550042,-1.2276357426366613,10.011121765497474,6.259936647190099
10.518420736589274,-1.2197220372042297,9.831318974328358,6.299675361565857
10.526419535628504,-1.2118083317718,9.65151618315928,6.339414075941606
10.534418334667736,-1.2038946263393684,9.471713391990164,6.379152790317365
10.542417133706968,-1.1959809209069368,9.291910600821048,6.418891504693123
10.5504159327462,-1.1880672154745053,9.112107809651931,6.4586302190688825
10.55841473178543,-1.1801535100420755,8.932305018482854,6.498368933444632
10.566413530824661,-1.1722398046096438,8.752502227313737,6.53810764782039
10.574412329863893,-1.1643260991772124,8.572699436144621,6.577846362196149
10.582411128903123,-1.1564123937447826,8.392896644975544,6.617585076571898
10.590409927942355,-1.148498688312351,8.213093853806427,6.657323790947657
10.598408726981587,-1.1405849828799193,8.033291062637309,6.697062505323415
10.606407526020819,0.007258998688320134,5.5020162172290625,4.7529688090898645
10.614406325060049,0.04282812633085405,5.3202562731035785,4.934643659608549
10.62240512409928,0.07839725397339585,5.138496328978054,5.1163185101272735
10.630403923138513,0.11396638161593767,4.956736384852529,5.2979933606459975
10.638402722177744,0.14953550925847947,4.774976440727004,5.4796682111647215
10.646401521216974,0.1851046369010134,4.59321649660152,5.6613430616834055
10.654400320256206,0.2206737645435552,4.411456552475995,5.84301791220213
10.662399119295438,0.256242892186097,4.229696608350471,6.024692762720854
10.67039791833467,0.2918120198286388,4.047936664224946,6.206367613239578
10.6783967173739,0.32738114747117275,3.8661767200994617,6.3880424637582625
10.686395516413132,0.3629502751137145,3.6844167759739372,6.569717314276987
10.694394315452364,0.39851940275625636,3.5026568318484124,6.751392164795711
10.702393114491596,0.11887910328269134,3.5620336269015507,7.28575020016023
10.710391913530826,0.966304043234587,4.341856164931994,7.413733266613257
10.718390712570057,0.9623046437149709,4.622614011209038,7.2225619695756125
10.72638951160929,0.9497149369495554,4.62303226080864,7.1697592774219245
10.734388310648521,0.9364169335468325,4.60033566853482,7.1283654923939
10.742387109687751,0.9231189301441126,4.577639076261004,7.086971707365884
10.750385908726983,0.9098209267413897,4.554942483987184,7.04557792233786
10.758384707766215,0.8965229233386668,4.532245891713363,7.004184137309835
10.766383506805447,0.8832249199359439,4.509549299439543,6.96279035228181
10.774382305844677,0.8699269165332238,4.486852707165728,6.921396567253795
10.782381104883909,0.8566289131305009,4.464156114891908,6.88000278222577
10.79037990392314,0.843330909727778,4.4414595226180875,6.838608997197745
10.798378702962372,0.8300329063250551,4.418762930344267,6.7972152121697205
10.806377502001602,1.901734987990383,3.3592630104087102,8.057311449160416
10.814376301040834,1.7041933546837573,3.335254870563096,9.028176452272948
10.822375100080066,1.7401879503603006,3.2627324259407273,9.096877248465463
10.830373899119298,1.7761825460368441,3.1902099813183584,9.165578044657977
10.838372698158528,1.8121771417133794,3.117687536696006,9.234278840850475
10.84637149719776,1.8481717373899227,3.045165092073637,9.302979637042988
10.854370296236992,1.884166333066466,2.972642647451268,9.371680433235502
10.862369095276224,1.9201609287430095,2.9001202028288993,9.440381229428016
10.870367894315454,1.9561555244195448,2.827597758206547,9.509082025620515
10.878366693354685,1.992150120096088,2.755075313584178,9.577782821813027
10.886365492393917,2.0281447157726316,2.6825528689618094,9.646483618005542
10.894364291433149,2.064139311449175,2.6100304243394405,9.715184414198056
10.90236309047238,1.7946347077659024,3.7229931945559844,11.172747197758136
10.910361889511611,1.4735668620002396,4.851995417610734,11.627595489157292
10.918360688550843,1.4773960743062549,5.023544128920214,11.6553360049742
10.926359487590073,1.4812252866122693,5.195092840229657,11.683076520791106
10.934358286629305,1.4850544989182843,5.3666415515391375,11.710817036608015
10.942357085668537,1.4888837112242996,5.538190262848619,11.738557552424925
10.950355884707768,1.4927129235303147,5.709738974158099,11.766298068241836
10.958354683746999,1.4965421358363291,5.881287685467542,11.79403858405874
10.96635348278623,1.5003713481423442,6.052836396777022,11.82177909987565
10.974352281825462,1.5042005604483595,6.224385108086503,11.849519615692559
10.982351080864694,1.5080297727543746,6.395933819395983,11.87726013150947
10.990349879903924,1.511858985060389,6.567482530705426,11.905000647326373
10.998348678943156,1.5156881973664043,6.7390312420149066,11.932741163143284
11.006347477982388,1.0570016012807881,5.931194555643722,12.107315452360917
11.01434627702162,0.7490421820602515,5.162747991651782,9.971245405312951
11.02234507606085,0.7380775361862508,5.27086658990115,9.771095681039185
11.030343875100082,0.7271128903122477,5.3789851881505415,9.570945956765373
11.038342674139313,0.7161482444382445,5.487103786399934,9.37079623249156
11.046341473178545,0.7051835985642414,5.595222384649325,9.17064650821775
11.054340272217775,0.6942189526902407,5.703340982898693,8.970496783943982
11.062339071257007,0.6832543068162376,5.8114595811480845,8.770347059670172
11.070337870296239,0.6722896609422344,5.919578179397476,8.57019733539636
11.07833666933547,0.6613250150682312,6.027696777646868,8.370047611122548
11.0863354683747,0.6503603691942305,6.135815375896236,8.16989788684878
11.094334267413933,0.6393957233202273,6.2439339741456275,7.9697481625749695
11.102333066453165,0.84507703940928,6.32076888177216,7.189691842362881
11.110331865492396,0.7399675340271635,6.5926785828663865,7.604003282626322
11.118330664531626,0.553595516413099,6.8910337870296745,8.312696877502121
11.126329463570858,0.23551126029029448,7.122437308821478,9.007866498326818
11.13432826261009,0.27406957360761663,7.340353308287727,8.84214779002684
11.142327061649322,0.31262788692493876,7.558269307753976,8.676429081726859
11.150325860688552,0.35118620024225233,7.776185307220176,8.510710373426916
11.158324659727784,0.38974451355957446,7.994101306686424,8.344991665126935
11.166323458767016,0.4283028268768966,8.212017306152674,8.179272956826955
11.174322257806248,0.46686114019421876,8.429933305618922,8.013554248526974
11.182321056845478,0.5054194535115323,8.647849305085122,7.847835540227031
11.19031985588471,0.5439777668288545,8.86576530455137,7.6821168319270505
11.198318654923941,0.5163130504399619,9.078823859087292,7.552634907926519
11.206317453963173,0.7469993426319969,7.983193346255943,5.440412565842137
11.214316253002403,0.7331908895537469,7.945893683367743,5.396966457376424
11.222315052041635,0.7193824364754939,7.908594020479535,5.353520348910701
11.230313851080867,0.7055739833972409,7.871294357591327,5.310074240444978
11.238312650120099,0.6917655303189878,7.83399469470312,5.266628131979255
11.246311449159329,0.6779570772407378,7.79669503181492,5.223182023513542
11.25431024819856,0.6641486241624848,7.759395368926712,5.179735915047819
11.262309047237792,0.6503401710842318,7.7220957060385045,5.136289806582096
11.270307846277023,0.6365317180059819,7.684796043150305,5.092843698116383
11.278306645316254,0.6227232649277288,7.647496380262097,5.04939758965066
11.286305444355486,0.6089148118494758,7.610196717373889,5.005951481184937
11.294304243394718,0.5951063587712228,7.572897054485681,4.962505372719214
11.302303042433948,0.3867876301040574,6.82224219375498,5.286213570856836
11.31030184147318,0.05821543256107313,6.548459137202219,5.742228845441953
11.318300640512412,-0.08025840026863942,6.473717670910902,5.778782496965324
11.326299439551644,-0.21873223309835196,6.3989762046195855,5.815336148488695
11.334298238590874,-0.3572060659280337,6.324234738328284,5.851889800012058
11.342297037630106,-0.4956798987577463,6.249493272036968,5.88844345153543
11.350295836669337,-0.6341537315874588,6.174751805745651,5.924997103058801
11.35829463570857,-0.7726275644171714,6.100010339454334,5.961550754582173
11.3662934347478,-0.9111013972468532,6.025268873163034,5.9981044061055355
11.374292233787031,-1.049575230076566,5.950527406871717,6.034658057628907
11.382291032826263,-1.1880490629062783,5.8757859405804,6.071211709152278
11.390289831865495,-1.326522895735991,5.801044474289084,6.10776536067565
11.398288630904725,-1.471545236189004,5.720629703762972,6.145020416333075
11.406287429943957,-1.4854899919935822,5.452679543634892,6.286607886309065
11.414286228983189,-1.4388303309313966,5.394771571423786,6.352514657559403
11.42228502802242,-1.3921706698692107,5.3368635992126805,6.41842142880974
11.43028382706165,-1.3455110088070354,5.278955627001588,6.484328200060062
11.438282626100882,-1.2988513477448498,5.221047654790483,6.5502349713104
11.446281425140114,-1.252191686682664,5.163139682579377,6.616141742560737
11.454280224179346,-1.2055320256204785,5.1052317103682725,6.682048513811075
11.462279023218576,-1.158872364558303,5.047323738157179,6.747955285061397
11.470277822257808,-1.1122127034961173,4.989415765946074,6.813862056311734
11.47827662129704,-1.0655530424339315,4.931507793734969,6.879768827562072
11.486275420336272,-1.018893381371746,4.873599821523864,6.945675598812409
11.494274219375502,-0.9722337203095706,4.8156918493127705,7.011582370062732
11.502273018414733,-0.9315451218117325,4.769364177055935,7.092460368294682
11.510271817453965,-0.9209107285828615,4.822255804643765,7.235170536429177
11.518270616493197,-0.9136301040833176,5.0091633306648635,7.36563891112917
11.526269415532427,-0.9001926225190613,5.592845544856927,7.735514448400836
11.534268214571659,-0.8480951814082753,5.500754108549982,7.813292244321787
11.542267013610891,-0.7959977402974894,5.408662672243037,7.891070040242738
11.550265812650123,-0.7439002991867033,5.316571235936092,7.96884783616369
11.558264611689353,-0.6918028580759289,5.224479799629168,8.046625632084623
11.566263410728585,-0.6397054169651429,5.132388363322223,8.124403428005575
11.574262209767817,-0.5876079758543569,5.0402969270152775,8.202181223926525
11.582261008807048,-0.5355105347435709,4.948205490708332,8.279959019847476
11.590259807846278,-0.48341309363279655,4.8561140544014085,8.35773681576841
11.59825860688551,-0.40791513210556524,4.806566853482975,8.479419935948979
11.606257405924742,-0.6635628502803783,6.349009447558295,10.476235228182993
11.614256204963972,-0.7681564504350712,6.501125445411269,11.004686465656054
11.622255004003204,-0.7325573997659622,6.4220164439243606,11.188395146886764
11.630253803042436,-0.6969583490968532,6.342907442437451,11.372103828117474
11.638252602081668,-0.6613592984277442,6.263798440950542,11.555812509348184
11.646251401120898,-0.625760247758643,6.184689439463651,11.739521190578856
11.65425020016013,-0.5901611970895341,6.105580437976743,11.923229871809566
11.662248999199361,-0.5545621464204251,6.0264714364898335,12.106938553040276
11.670247798238593,-0.518963095751316,5.947362435002924,12.290647234270986
11.678246597277823,-0.4833640450822149,5.868253433516033,12.474355915501658
11.686245396317055,-0.4477649944131059,5.789144432029124,12.658064596732368
11.694244195356287,-0.4121659437439969,5.710035430542216,12.841773277963078
11.702242994395519,-0.07189871897497904,6.0897810248196915,13.67675860688535
11.710241793434749,1.3012345609821192,3.9406647451293972,9.720676647985034
11.71824059247398,1.3027454452450853,3.7259414286984622,9.602649924383924
11.726239391513213,1.3042563295080514,3.511218112267527,9.484623200782814
11.734238190552444,1.3057672137710172,3.2964947958365918,9.366596477181703
11.742236989591675,1.307278098033983,3.0817714794057043,9.24856975358062
11.750235788630906,1.308788982296949,2.8670481629747693,9.13054302997951
11.758234587670138,1.310299866559915,2.6523248465438343,9.0125163063784
11.76623338670937,1.3118107508228811,2.4376015301128993,8.89448958277729
11.7742321857486,1.3133216350858468,2.2228782136820113,8.776462859176204
11.782230984787832,1.3148325193488128,2.0081548972510763,8.658436135575094
11.790229783827064,1.316343403611779,1.7934315808201413,8.540409411973984
11.798228582866296,1.3178542878747448,1.5787082643892063,8.422382688372874
11.806227381905526,-1.1211184947959265,1.2875916733386852,10.223746196958336
11.814226180944758,-1.2098927097233372,1.2199589849657262,10.94856421136911
11.82222497998399,-1.2226019126412278,1.1171299795391567,11.010954843875119
11.830223779023221,-1.2353111155591183,1.014300974112587,11.073345476381128
11.838222578062451,-1.2480203184770062,0.9114719686860404,11.135736108887121
11.846221377101683,-1.2607295213948968,0.8086429632594709,11.19812674139313
11.854220176140915,-1.2734387243127874,0.7058139578329015,11.26051737389914
11.862218975180147,-1.286147927230678,0.602984952406332,11.322908006405147
11.870217774219377,-1.2988571301485659,0.5001559469797854,11.385298638911141
11.878216573258609,-1.3115663330664564,0.3973269415532158,11.44768927141715
11.88621537229784,-1.324275535984347,0.29449793612664643,11.51007990392316
11.894214171337072,-1.3369847389022378,0.19166893070007696,11.572470536429167
11.902212970376302,-1.3901852682145919,0.27444467574064857,11.594416653322655
11.910211769415534,-1.1113266613279964,-0.003965572458302508,9.873817453960815
11.918210568454766,-0.38923447463852434,-0.2584575519239214,8.368843743229867
11.926209367493998,-0.3512166533226455,-0.3696879103282995,8.327155884707754
11.934208166533228,-0.3131988320067751,-0.4809182687326529,8.285468026185647
11.94220696557246,-0.27518101069089634,-0.5921486271370311,8.243780167663534
11.950205764611692,-0.2371631893750175,-0.7033789855414092,8.202092309141419
11.958204563650922,-0.19914536805914715,-0.8146093439457627,8.160404450619312
11.966203362690154,-0.16112754674326835,-0.9258397023501408,8.118716592097199
11.974202161729385,-0.12310972542738952,-1.037070060754519,8.077028733575084
11.982200960768617,-0.08509190411151074,-1.148300419158897,8.035340875052968
11.990199759807847,-0.04707408279564035,-1.2595307775632503,7.993653016530864
11.99819855884708,-0.046236989592063446,-1.398875900720909,7.914578863090059
12.006197357886311,0.37681111340685536,-1.9288355200289513,8.75548567886566
12.014196156925543,0.3822296546914963,-2.0947460936491473,8.671885327616916
12.022194955964773,0.387648195976136,-2.2606566672693065,8.588284976368188
12.030193755004005,0.3930667372607769,-2.4265672408895025,8.504684625119442
12.038192554043237,0.3984852785454178,-2.5924778145096985,8.421084273870697
12.046191353082468,0.40390381983005874,-2.7583883881298945,8.337483922621951
12.054190152121699,0.4093223611146985,-2.924298961750054,8.253883571373224
12.06218895116093,0.4147409023993394,-3.09020953537025,8.170283220124478
12.070187750200162,0.42015944368398034,-3.256120108990446,8.086682868875732
12.078186549239394,0.42557798496862126,-3.422030682610642,8.003082517626986
12.086185348278624,0.430996526253261,-3.587941256230801,7.919482166378259
12.094184147317856,0.43641506753790194,-3.753851829850997,7.835881815129514
12.102182946357088,1.4822233787033425,-3.5241651321057335,7.824921737390011
12.11018174539632,1.5916110572668458,-3.658698369221737,7.819827272344173
12.11818054443555,1.5332619232227784,-3.7853319876954417,7.7672877923391255
12.126179343474782,1.4749127891786982,-3.9119656061691743,7.714748312334066
12.134178142514013,1.416563655134618,-4.038599224642907,7.662208832329006
12.142176941553245,1.3582145210905376,-4.16523284311664,7.609669352323947
12.150175740592475,1.2998653870464703,-4.291866461590344,7.5571298723188995
12.158174539631707,1.24151625300239,-4.418500080064077,7.50459039231384
12.166173338670939,1.1831671189583095,-4.545133698537811,7.452050912308781
12.17417213771017,1.1248179849142295,-4.671767317011543,7.399511432303722
12.1821709367494,1.0664688508701619,-4.7984009354852475,7.3469719522986745
12.190169735788633,1.0081197168260818,-4.92503455395898,7.294432472293615
12.198168534827865,0.952348278622914,-5.081358686949938,7.233730584467466
12.206167333867096,1.061820114155838,-6.734414292724496,9.165506159766533
12.214166132906326,1.0537353065247883,-6.7166965228096425,9.196383244229796
12.222164931945558,1.0456504988937367,-6.698978752894785,9.227260328693069
12.23016373098479,1.0375656912626852,-6.681260982979928,9.258137413156339
12.238162530024022,1.0294808836316336,-6.663543213065069,9.289014497619611
12.246161329063252,1.021396076000584,-6.6458254431502155,9.319891582082876
12.254160128102484,1.0133112683695324,-6.628107673235358,9.350768666546147
12.262158927141716,1.0052264607384809,-6.610389903320501,9.381645751009419
12.270157726180948,0.9971416531074293,-6.592672133405643,9.41252283547269
12.278156525220178,0.9890568454763796,-6.574954363490789,9.443399919935954
12.28615532425941,0.980972037845328,-6.557236593575931,9.474277004399225
12.294154123298641,0.9728872302142766,-6.539518823661074,9.505154088862497
12.302152922337871,0.8826192153722742,-6.451263891112869,9.833545636509292
12.310151721377103,0.43522097678130717,-6.449606885508411,11.453453162530849
12.318150520416335,0.34277349321317135,-6.957226506786828,12.350573444802349
12.326149319455567,0.31961417971586015,-6.980385820284139,12.326670056975807
12.334148118494797,0.2964548662185541,-7.003545133781445,12.30276666914927
12.342146917534029,0.27329555272124295,-7.026704447278757,12.278863281322728
12.35014571657326,0.25013623922393174,-7.049863760776068,12.254959893496187
12.358144515612492,0.22697692572662054,-7.0730230742733795,12.231056505669644
12.366143314651723,0.2038176122293145,-7.0961823877706856,12.207153117843108
12.374142113690954,0.18065829873200331,-7.119341701267997,12.183249730016565
12.382140912730186,0.1574989852346921,-7.142501014765308,12.159346342190023
12.390139711769418,0.13433967173738093,-7.165660328262619,12.135442954363482
12.398138510808648,0.11118035824007488,-7.188819641759926,12.111539566536944
12.40613730984788,0.08783144162388042,-7.139157208119403,11.929640182734325
12.414136108887112,0.06430556209672843,-7.021527810483643,11.600277869354198
12.422134907926344,0.04077968256957644,-6.903898412847882,11.270915555974069
12.430133706965574,0.01725380304242967,-6.786269015212149,10.941553242594015
12.438132506004806,0.4448176541230802,-4.362247798237654,9.623399119294763
12.446131305044037,0.03408365312938536,-2.7213688191932963,8.454570332127822
12.45413010408327,-0.023838684740914343,-2.762741917672082,8.653161204825992
12.4621289031225,-0.08176102261120119,-2.804115016150858,8.851752077524118
12.470127702161731,-0.1396833604815009,-2.8454881146296436,9.050342950222289
12.478126501200963,-0.19760569835180058,-2.8868612131084292,9.24893382292046
12.486125300240195,-0.2555280362221003,-2.9282343115872145,9.447524695618629
12.494124099279425,-0.31345037409238713,-2.969607410065991,9.646115568316755
12.502122898318657,-0.9420104083268014,-3.087710168134385,11.487927942354803
12.510121697357889,-0.9374909289133381,-2.133846583649844,11.769111621211831
12.51812049639712,-0.9208125819804719,-1.9643401189035716,11.669467007648636
12.52611929543635,-0.9041342350476094,-1.7948336541573366,11.569822394085463
12.534118094475582,-0.8874558881147432,-1.6253271894110641,11.470177780522267
12.542116893514814,-0.870777541181877,-1.4558207246647914,11.370533166959072
12.550115692554046,-0.8540991942490108,-1.2863142599185187,11.270888553395876
12.558114491593276,-0.8374208473161484,-1.116807795172284,11.171243939832703
12.566113290632508,-0.8207425003832822,-0.9473013304260112,11.071599326269508
12.57411208967174,-0.804064153450416,-0.7777948656797387,10.971954712706312
12.582110888710972,-0.7873858065175499,-0.6082884009334659,10.872310099143117
12.590109687750202,-0.7707074595846874,-0.43878193618723094,10.772665485579944
12.598108486789434,-0.7540291126518213,-0.2692754714409584,10.673020872016748
12.606107285828665,-1.05995236188962,-0.3991152922339359,9.40890992794234
12.614106084867897,-1.3851160388985269,-0.6672217144502591,9.401380160308003
12.622104883907127,-1.3633664954435418,-0.7991569615243006,9.348713910454197
12.630103682946359,-1.341616951988552,-0.9310922085983713,9.296047660600378
12.638102481985591,-1.319867408533562,-1.063027455672442,9.24338141074656
12.646101281024821,-1.298117865078577,-1.194962702746483,9.190715160892752
12.654100080064053,-1.2763683216235873,-1.326897949820554,9.138048911038934
12.662098879103285,-1.2546187781685973,-1.4588331968946244,9.085382661185117
12.670097678142517,-1.2328692347136074,-1.5907684439686953,9.032716411331299
12.678096477181747,-1.2111196912586224,-1.7227036910427367,8.980050161477491
