accel_time_list,vertical_Accel_x,vertical_Accel_y,vertical_Accel_z
0.0,2.674,8.1,-4.108
0.007995756718528995,2.939687855105123,8.8,-4.169832809915373
0.01599151343705799,2.921053676311941,8.8,-4.165496128305324
0.023987270155586986,2.902419497518759,8.8,-4.161159446695274
0.03198302687411598,2.883785318725577,8.8,-4.1568227650852245
0.03997878359264497,2.865151139932395,8.8,-4.152486083475175
0.04797454031117397,2.846516961139213,8.8,-4.148149401865125
0.055970297029702964,2.8278827823460313,8.8,-4.143812720255076
0.06396605374823196,2.809248603552849,8.8,-4.139476038645026
0.07196181046676095,2.790614424759667,8.8,-4.135139357034976
0.07995756718528994,2.771980245966485,8.8,-4.130802675424927
0.08795332390381894,2.753346067173303,8.8,-4.126465993814877
0.09594908062234794,2.7347118883801214,8.8,-4.1221293122048275
0.10394483734087694,2.7160777095869393,8.8,-4.117792630594778
0.11194059405940593,2.697443530793757,8.8,-4.113455948984728
0.11993635077793492,2.678809352000575,8.8,-4.109119267374679
0.12793210749646391,2.4589766619518993,8.446605374823196,-4.091476661951907
0.13592786421499292,2.9973328072656886,8.514584977294723,-4.277054343780242
0.1439236209335219,2.9919461922132062,8.53141814933373,-4.300199955333879
0.1519193776520509,2.9865595771607234,8.548251321372739,-4.323345566887515
0.1599151343705799,2.981172962108241,8.565084493411748,-4.346491178441152
0.1679108910891089,2.975786347055758,8.581917665450755,-4.3696367899947886
0.17590664780763787,2.9703997320032753,8.598750837489764,-4.392782401548425
0.18390240452616688,2.965013116950793,8.615584009528773,-4.415928013102062
0.1918981612446959,2.95962650189831,8.63241718156778,-4.439073624655698
0.19989391796322487,2.9542398868458277,8.649250353606789,-4.462219236209335
0.20788967468175387,2.948853271793345,8.666083525645798,-4.4853648477629715
0.21588543140028285,2.943466656740862,8.682916697684805,-4.508510459316608
0.22388118811881186,2.9380800416883797,8.699749869723814,-4.531656070870245
0.23187694483734084,2.8994865629420095,8.4,-4.084826025459688
0.23987270155586984,3.194672169065646,8.4,-4.010837024710875
0.24786845827439882,3.1687094766619524,8.4,-4.004816690240452
0.25586421499292783,3.142746784258258,8.4,-3.998796355770031
0.2638599717114568,3.116784091854564,8.4,-3.992776021299609
0.27185572842998584,3.0908213994508698,8.4,-3.986755686829187
0.2798514851485148,3.0648587070471756,8.4,-3.980735352358765
0.2878472418670438,3.0388960146434814,8.4,-3.9747150178883435
0.2958429985855728,3.012933322239787,8.4,-3.9686946834179215
0.3038387553041018,2.986970629836093,8.4,-3.9626743489474996
0.3118345120226308,2.9610079374323988,8.4,-3.9566540144770777
0.3198302687411598,2.9350452450287046,8.4,-3.950633680006656
0.3278260254596888,3.045123055162655,8.888401697312586,-3.980362093352192
0.3358217821782178,2.55205198019803,8.698184818481852,-4.48864356435643
0.34381753889674677,1.2325174117773459,8.09967919359748,-5.222463502408107
0.35181329561527575,1.0517525826723741,8.096541618176284,-5.1683150233649044
0.3598090523338048,0.8709877535674011,8.09340404275509,-5.1141665443217015
0.36780480905233376,0.6902229244624295,8.090266467333894,-5.060018065278499
0.37580056577086274,0.5094580953574578,8.0871288919127,-5.005869586235296
0.3837963224893918,0.32869326625248485,8.083991316491504,-4.9517211071920935
0.39179207920792075,0.14792843714751314,8.08085374107031,-4.8975726281488905
0.39978783592644973,-0.03283639195745858,8.077716165649115,-4.843424149105688
0.4077835926449787,-0.2136012210624303,8.07457859022792,-4.7892756700624854
0.41577934936350774,-0.3943660501674031,8.071441014806725,-4.7351271910192825
0.4237751060820367,-0.36814002828854686,8.029947666195191,-3.7442057991513646
0.4317708628005657,0.24476980950374608,9.065133497848265,-2.0226123416292996
0.4397666195190947,0.32778958138974906,9.085718318336392,-2.015722381052695
0.4477623762376237,0.41080935327575263,9.10630313882452,-2.0088324204760903
0.4557581329561527,0.4938291251617556,9.126887959312649,-2.0019424598994853
0.4637538896746817,0.5768488970477587,9.147472779800776,-1.9950524993228806
0.4717496463932107,0.6598686689337622,9.168057600288904,-1.9881625387462758
0.4797454031117397,0.7428884408197651,9.188642420777033,-1.981272578169671
0.48774115983026867,0.8259082127057681,9.209227241265161,-1.9743826175930663
0.49573691654879765,0.9089279845917712,9.229812061753288,-1.9674926570164615
0.5037326732673266,0.9919477564777741,9.250396882241416,-1.9606026964398569
0.5117284299858557,1.0749675283637776,9.270981702729545,-1.953712735863252
0.5197241867043847,1.1579873002497814,9.291566523217671,-1.9468227752866472
0.5277199434229136,0.3546144271570517,9.199568033946251,-1.3537219236209557
0.5357157001414427,-1.605198448897859,9.358305134847354,-1.086068782480176
0.5437114568599717,-1.6381697153664,9.359203534478649,-0.9213921300637297
0.5517072135785006,-1.6711409818349408,9.360101934109945,-0.7567154776472855
0.5597029702970296,-1.7041122483034818,9.36100033374124,-0.5920388252308393
0.5676987270155586,-1.7370835147720225,9.361898733372534,-0.42736217281439515
0.5756944837340876,-1.7700547812405634,9.36279713300383,-0.2626855203979489
0.5836902404526166,-1.8030260477091047,9.363695532635125,-0.09800886798150255
0.5916859971711456,-1.8359973141776451,9.364593932266422,0.06666778443494148
0.5996817538896746,-1.8689685806461862,9.365492331897716,0.23134443685138795
0.6076775106082036,-1.9019398471147273,9.366390731529012,0.3960210892678342
0.6156732673267326,-1.934911113583268,9.367289131160307,0.5606977416842782
0.6236690240452616,-2.1637864214992835,8.329867043847292,1.14247100424326
0.6316647807637906,-1.7089836588522078,7.015445785308014,3.5911233260104125
0.6396605374823195,-1.6279202955249943,7.019783908634024,3.6094965542146915
0.6476562942008486,-1.5468569321977799,7.024122031960035,3.6278697824189714
0.6556520509193776,-1.4657935688705652,7.028460155286045,3.646243010623251
0.6636478076379065,-1.3847302055433517,7.032798278612056,3.66461623882753
0.6716435643564356,-1.303666842216137,7.037136401938066,3.6829894670318093
0.6796393210749645,-1.2226034788889235,7.041474525264077,3.7013626952360887
0.6876350777934935,-1.141540115561709,7.045812648590087,3.719735923440368
0.6956308345120226,-1.0604767522344944,7.050150771916098,3.7381091516446476
0.7036265912305515,-0.9794133889072809,7.054488895242108,3.756482379848927
0.7116223479490805,-0.8983500255800664,7.058827018568119,3.7748556080532065
0.7196181046676096,-0.8172866622528517,7.063165141894129,3.793228836257486
0.7276138613861385,0.3039834983498319,5.998615275813297,5.334312588401696
0.7356096181046675,0.525199434229135,5.941502727823804,5.481662962214587
0.7436053748231966,0.7464153701084381,5.88439017983431,5.629013336027479
0.7516011315417255,1.159542578132567,5.659641026137841,6.064605103563192
0.7595968882602545,1.2571346224642024,5.542990602778478,6.1974661021875175
0.7675926449787835,1.3547266667958375,5.426340179419117,6.330327100811842
0.7755884016973125,1.4523187111274716,5.309689756059756,6.463188099436165
0.7835841584158415,1.5499107554591067,5.193039332700394,6.59604909806049
0.7915799151343704,1.6475027997907408,5.076388909341034,6.728910096684814
0.7995756718528995,1.745094844122376,4.9597384859816716,6.861771095309138
0.8075714285714285,1.8426868884540113,4.84308806262231,6.994632093933463
0.8155671852899574,1.9402789327856453,4.72643763926295,7.127493092557787
0.8235629420084865,2.573113154172499,4.673168316831677,7.498131541725574
0.8315586987270155,3.5856483734087683,4.694651262881391,8.707345504142252
0.8395544554455444,3.8782930693069266,4.506065629420087,8.5646783592645
0.8475502121640734,4.170937765205089,4.317479995958782,8.422011214386746
0.8555459688826025,4.463582461103251,4.128894362497475,8.279344069508992
0.8635417256011314,4.75622715700141,3.940308729036172,8.13667692463124
0.8715374823196604,5.048871852899572,3.751723095574866,7.994009779753487
0.8795332390381894,5.341516548797731,3.5631374621135627,7.851342634875735
0.8875289957567184,5.634161244695893,3.3745518286522564,7.708675489997981
0.8955247524752474,5.926805940594056,3.18596619519095,7.566008345120228
0.9035205091937764,5.60792975011786,3.3765480905233725,7.256675388967455
0.9115162659123054,5.823446958981612,2.518710042432817,7.5421414427157005
0.9195120226308344,5.851750522587024,2.4066279305553833,7.483340789325457
0.9275077793493633,5.880054086192437,2.294545818677951,7.424540135935213
0.9355035360678924,5.908357649797849,2.1824637068005175,7.365739482544968
0.9434992927864214,5.936661213403262,2.0703815949230835,7.306938829154723
0.9514950495049503,5.964964777008674,1.9582994830456517,7.24813817576448
0.9594908062234794,5.993268340614087,1.846217371168218,7.1893375223742355
0.9674865629420084,6.021571904219499,1.7341352592907842,7.130536868983991
0.9754823196605373,6.049875467824911,1.6220531474133522,7.071736215593747
0.9834780763790664,6.078179031430324,1.5099710355359184,7.012935562203503
0.9914738330975953,6.106482595035736,1.3978889236584864,6.954134908813259
0.9994695898161243,6.134786158641148,1.2858068117810526,6.895334255423014
1.0074653465346532,6.163089722246561,1.1737246999036206,6.8365336020327705
1.0154611032531824,6.191393285851974,1.0616425880261853,6.777732948642526
1.0234568599717113,5.880142857142876,0.9610693069306944,6.126879773691689
1.0314526166902402,5.643432991513435,-0.21895715464403231,6.509982791136256
1.0394483734087694,5.768116822842999,-0.43975664486091504,6.565619931636021
1.0474441301272983,5.892800654172559,-0.6605561350777917,6.621257072135784
1.0554398868458272,6.017484485502119,-0.8813556252946683,6.676894212635548
1.0634356435643564,6.1421683168316825,-1.1021551155115512,6.732531353135314
1.0714314002828853,6.266852148161243,-1.3229546057284278,6.7881684936350775
1.0794271570014142,6.391535979490803,-1.5437540959453044,6.843805634134841
1.0874229137199434,6.516219810820367,-1.7645535861621873,6.899442774634607
1.0954186704384723,6.640903642149928,-1.9853530763790639,6.9550799151343705
1.1034144271570012,6.765587473479488,-2.2061525665959403,7.010717055634133
1.1114101838755304,6.890271304809051,-2.4269520568128233,7.066354196133899
1.1194059405940593,7.014955136138612,-2.6477515470296997,7.121991336633663
1.1274016973125882,4.883157001414466,-2.0345417256010676,5.700776520509178
1.1353974540311171,4.607407826496939,-3.1411591230551443,6.237669966996689
1.1433932107496463,4.505328451470821,-5.330771937049039,7.314759798041291
1.1513889674681752,4.735687214652743,-5.366803448337599,7.025191950298111
1.1593847241867041,4.966045977834665,-5.40283495962616,6.73562410255493
1.1673804809052333,5.196404741016593,-5.438866470914721,6.446056254811742
1.1753762376237622,5.426763504198516,-5.474897982203283,6.1564884070685615
1.1833719943422911,5.657122267380438,-5.510929493491843,5.866920559325381
1.1913677510608203,5.887481030562366,-5.546961004780405,5.577352711582192
1.1993635077793492,6.117839793744288,-5.582992516068965,5.287784863839011
1.2073592644978781,6.34819855692621,-5.6190240273575265,4.998217016095831
1.2153550212164073,6.578557320108139,-5.655055538646089,4.708649168352643
1.2233507779349362,6.671663366336646,-5.649339462517685,4.569308345120214
1.231346534653465,7.480318481848102,-6.199184818481799,5.243605610561025
1.2393422913719943,7.3830123304767445,-9.56439187952409,3.920972426990601
1.2473380480905232,7.460524136783425,-9.441633496963144,3.6408387386637875
1.255333804809052,7.538035943090105,-9.3188751144022,3.360705050336974
1.2633295615275812,7.6155477493967885,-9.196116731841252,3.080571362010153
1.2713253182461102,7.693059555703469,-9.073358349280308,2.8004376736833394
1.279321074964639,7.770571362010149,-8.950599966719365,2.520303985356526
1.2873168316831682,7.8480831683168315,-8.827841584158417,2.240170297029705
1.2953125884016972,7.925594974623512,-8.705083201597473,1.9600366087028913
1.303308345120226,8.003106780930192,-8.582324819036527,1.6799029203760778
1.3113041018387552,8.080618587236875,-8.45956643647558,1.3997692320492567
1.3192998585572842,8.158130393543557,-8.336808053914636,1.1196355437224432
1.327295615275813,7.397249646393322,-8.864011315417269,-0.03966548797734989
1.335291371994342,6.278422579124273,-8.687054143663216,-0.33089437423004575
1.3432871287128711,6.239561481954648,-8.615952091983393,-0.46166368572340954
1.3512828854314,6.200700384785023,-8.54485004030357,-0.5924329972167698
1.359278642149929,6.161839287615399,-8.47374798862375,-0.7232023087101299
1.3672743988684581,6.122978190445774,-8.402645936943927,-0.8539716202034937
1.375270155586987,6.084117093276149,-8.331543885264104,-0.984740931696854
1.383265912305516,6.045255996106524,-8.260441833584283,-1.1155102431902142
1.3912616690240451,6.0063948989368985,-8.189339781904458,-1.246279554683578
1.399257425742574,5.967533801767274,-8.118237730224637,-1.3770488661769382
1.407253182461103,5.92867270459765,-8.047135678544816,-1.5078181776702984
1.4152489391796321,5.889811607428024,-7.976033626864991,-1.6385874891636623
1.423244695898161,5.971719471947183,-7.9232607260726065,-1.673280999528532
1.43124045261669,6.020564356435725,-7.683070721357856,-0.547002828854368
1.4392362093352191,5.490910255391512,-7.674397279214277,-0.34769025634505396
1.447231966053748,5.388223177534449,-7.709524704797927,-0.47679028336220075
1.455227722772277,5.285536099677387,-7.744652130381576,-0.6058903103793476
1.4632234794908061,5.182849021820322,-7.779779555965227,-0.7349903373964979
1.471219236209335,5.080161943963259,-7.8149069815488765,-0.8640903644136447
1.479214992927864,4.977474866106197,-7.850034407132526,-0.9931903914307915
1.487210749646393,4.874787788249131,-7.885161832716177,-1.1222904184479419
1.495206506364922,4.772100710392069,-7.920289258299826,-1.2513904454650886
1.503202263083451,4.669413632535006,-7.955416683883476,-1.3804904724822356
1.51119801980198,4.566726554677941,-7.990544109467126,-1.509590499499386
1.519193776520509,4.464039476820879,-8.025671535050776,-1.6386905265165326
1.527189533239038,4.426793022159359,-8.50383804809052,-1.4830971239981172
1.535185289957567,4.4166209335219255,-8.66521169259783,-1.3060447901933088
1.543181046676096,3.991301272984449,-9.137982319660521,-0.7637857142857177
1.551176803394625,3.8336577448953735,-9.30124277372792,-0.6929536140427253
1.5591725601131539,3.691784317992245,-9.408467921517422,-0.6293975991005722
1.567168316831683,3.549910891089113,-9.515693069306927,-0.5658415841584176
1.575164073550212,3.408037464185984,-9.62291821709643,-0.5022855692162647
1.5831598302687409,3.2661640372828558,-9.730143364885933,-0.43872955427411175
1.59115558698727,3.1242906103797234,-9.83736851267544,-0.3751735393319571
1.599151343705799,2.982417183476595,-9.944593660464943,-0.3116175243898041
1.6071471004243278,2.8405437565734664,-10.051818808254446,-0.24806150944765115
1.615142857142857,2.698670329670334,-10.159043956043952,-0.18450549450549647
1.623138613861386,2.5491039603960477,-10.384217821782139,-0.16017326732672385
1.6311343705799148,2.3763490491906345,-10.450985069935566,0.3685458117240328
1.639130127298444,2.337614049976427,-10.450096652522396,0.2820139556812841
1.647125884016973,2.29887905076222,-10.449208235109225,0.19548209963853785
1.6551216407355018,2.2601440515480133,-10.448319817696056,0.10895024359579158
1.663117397454031,2.2214090523338057,-10.447431400282886,0.02241838755304293
1.67111315417256,2.182674053119599,-10.446542982869715,-0.06411346848970334
1.6791089108910888,2.143939053905392,-10.445654565456547,-0.1506453245324496
1.687104667609618,2.105204054691184,-10.444766148043376,-0.23717718057519832
1.695100424328147,2.0664690554769773,-10.443877730630206,-0.3237090366179446
1.7030961810466758,2.027734056262771,-10.442989313217037,-0.41024089266069086
1.711091937765205,1.988999057048563,-10.442100895803867,-0.49677274870343946
1.7190876944837339,1.9502640578343562,-10.441212478390696,-0.5833046047461857
1.7270834512022628,1.8570438472418624,-10.257043847241862,-0.43104667609617026
1.735079207920792,1.8745271750579313,-10.26699610280177,-0.4727864967347798
1.7430749646393209,1.8751226037497368,-10.259085407324926,-0.47593376267717946
1.7510707213578498,1.8757180324415421,-10.251174711848083,-0.4790810286195792
1.7590664780763787,1.8763134611333474,-10.243264016371242,-0.48222829456197885
1.7670622347949079,1.8769088898251527,-10.235353320894399,-0.48537556050437863
1.7750579915134368,1.8775043185169582,-10.227442625417556,-0.4885228264467783
1.7830537482319657,1.8780997472087635,-10.219531929940715,-0.49167009238917797
1.7910495049504949,1.8786951759005688,-10.211621234463871,-0.49481735833157775
1.7990452616690238,1.879290604592374,-10.203710538987028,-0.4979646242739774
1.8070410183875527,1.8798860332841796,-10.195799843510187,-0.5011118902163771
1.8150367751060819,1.8804814619759849,-10.187889148033344,-0.5042591561587769
1.8230325318246108,1.8918415841584124,-10.157423856671388,-0.49237246581801486
1.8310282885431397,2.013367751060815,-9.910538896746852,-0.2125954738331313
1.8390240452616688,2.0229879773691652,-9.829681360993243,-0.12176713814238586
1.8470198019801978,2.018990099009901,-9.834567656765676,-0.11083960396039635
1.8550155586987267,2.0149922206506363,-9.839453952538111,-0.09991206977840683
1.8630113154172558,2.010994342291372,-9.844340248310546,-0.088984535596417
1.8710070721357848,2.0069964639321074,-9.84922654408298,-0.0780570014144275
1.8790028288543137,2.002998585572843,-9.854112839855414,-0.06712946723243797
1.8869985855728428,1.9990007072135785,-9.85899913562785,-0.056201933050448155
1.8949943422913718,1.9950028288543142,-9.863885431400282,-0.04527439886845863
1.9029900990099007,1.9910049504950498,-9.868771727172717,-0.03434686468646911
1.9109858557284298,1.987007072135785,-9.873658022945152,-0.023419330504479294
1.9189816124469588,1.9830091937765206,-9.878544318717585,-0.01249179632248977
1.9269773691654877,1.946860914662898,-9.813716171617168,0.06525553983969191
1.9349731258840168,1.8782306694955226,-9.67845462046205,0.21051178689297126
1.9429688826025457,1.8278168959753094,-9.600827054133985,0.12404487591616395
1.9509646393210747,1.9215853156744203,-9.621906776391924,0.08915430114440173
1.9589603960396036,1.924915074606052,-9.602491423790267,0.10806010319341695
1.9669561527581327,1.927843098193119,-9.58289618901528,0.12720487280116288
1.9749519094766617,1.930771121780186,-9.563300954240294,0.14634964240890824
1.9829476661951906,1.933699145367253,-9.543705719465308,0.16549441201665366
1.9909434229137197,1.93662716895432,-9.52411048469032,0.18463918162439957
1.9989391796322487,1.9395551925413868,-9.504515249915334,0.20378395123214493
2.0069349363507776,1.9424832161284538,-9.484920015140348,0.22292872083989032
2.0149306930693065,1.9454112397155208,-9.46532478036536,0.2420734904476357
2.022926449787836,1.8706414427156968,-9.416963932107496,0.32107213578500976
2.030922206506365,1.677235251174887,-9.377235251174888,0.11275685540904316
2.0389179632248937,1.6740541436632141,-9.374054143663214,0.12006480509802123
2.0469137199434226,1.6708730361515414,-9.370873036151542,0.12737275478699928
2.0549094766619516,1.6676919286398686,-9.367691928639868,0.13468070447597733
2.0629052333804805,1.6645108211281958,-9.364510821128196,0.14198865416495537
2.0709009900990094,1.661329713616523,-9.361329713616524,0.14929660385393342
2.0788967468175388,1.65814860610485,-9.35814860610485,0.1566045535429119
2.0868925035360677,1.6549674985931773,-9.354967498593178,0.16391250323188994
2.0948882602545966,1.6517863910815045,-9.351786391081504,0.171220452920868
2.1028840169731255,1.6486052835698317,-9.348605283569832,0.17852840260984604
2.1108797736916545,1.645424176058159,-9.345424176058158,0.1858363522988241
2.1188755304101834,1.6422430685464862,-9.342243068546486,0.19314430198780214
2.1268712871287128,1.6240693069306944,-9.517633663366343,0.2731534653465323
2.1348670438472417,2.125139185989224,-9.925139185989224,-0.06585966975509651
2.1428628005657706,2.1856913211385325,-9.985691321138532,-0.10808445242597961
2.1508585572842995,2.2462434562878415,-10.046243456287842,-0.1503092350968627
2.1588543140028285,2.3067955914371505,-10.10679559143715,-0.19253401776774579
2.1668500707213574,2.3673477265864595,-10.16734772658646,-0.23475880043862887
2.1748458274398867,2.4278998617357717,-10.227899861735771,-0.2769835831095143
2.1828415841584157,2.4884519968850807,-10.288451996885081,-0.3192083657803974
2.1908373408769446,2.5490041320343897,-10.34900413203439,-0.3614331484512805
2.1988330975954735,2.6095562671836987,-10.4095562671837,-0.4036579311221636
2.2068288543140024,2.6701084023330077,-10.470108402333008,-0.44588271379304667
2.2148246110325314,2.7306605374823167,-10.530660537482317,-0.48810749646392976
2.2228203677510607,2.8422890146157407,-10.614943422913717,-0.5523884959924534
2.2308161244695897,4.376922206506324,-12.3585346534653,-1.429359264497855
2.2388118811881186,5.097072937293725,-13.11486710671067,-1.9214203520352129
2.2468076379066475,5.204482602545964,-13.109181235266384,-1.6853678453559753
2.2548033946251764,5.311892267798203,-13.103495363822097,-1.4493153386767377
2.2627991513437054,5.419301933050441,-13.09780949237781,-1.2132628319975
2.2707949080622343,5.52671159830268,-13.092123620933522,-0.9772103253182625
2.2787906647807636,5.634121263554924,-13.086437749489235,-0.7411578186390118
2.2867864214992926,5.741530928807164,-13.080751878044948,-0.5051053119597742
2.2947821782178215,5.8489405940594015,-13.07506600660066,-0.26905280528053677
2.3027779349363504,5.95635025931164,-13.069380135156372,-0.03300029860129916
2.3107736916548793,6.063759924563879,-13.063694263712085,0.20305220807793845
2.3187694483734083,6.171169589816118,-13.058008392267798,0.43910471475717605
2.3267652050919376,6.781268539098789,-13.274163871489163,1.3397654071529637
2.3347609618104666,7.425134370579954,-14.378729844413057,0.6479278642149369
2.3427567185289955,6.764681062391963,-13.818136775106089,1.42618073235894
2.3507524752475244,6.266101210121028,-13.475118811881199,1.938797579757959
2.3587482319660533,5.767521357850093,-13.132100848656309,2.4514144271569784
2.3667439886845822,5.268941505579158,-12.78908288543142,2.9640312745559974
2.3747397454031116,4.7703616533081945,-12.446064922206512,3.476648121955045
2.3827355021216405,4.2717818010372595,-12.103046958981622,3.989264969354064
2.3907312588401695,3.7732019487663244,-11.760028995756732,4.501881816753084
2.3987270155586984,3.274622096495389,-11.417011032531843,5.014498664152103
2.4067227722772273,2.7760422442244543,-11.073993069306953,5.527115511551123
2.4147185289957562,2.2774623919535184,-10.730975106082063,6.0397323589501415
2.4227142857142856,1.7788825396825558,-10.387957142857154,6.552349206349189
2.4307100424328145,3.719548797736606,-6.33348939179639,10.744463932107726
2.4387057991513434,5.753876554650548,-7.738053927067588,7.382294769871071
2.4467015558698724,5.531373945276311,-7.623815701767226,7.514546424100532
2.4546973125884013,5.308871335902074,-7.509577476466864,7.646798078329994
2.46269306930693,5.086368726527838,-7.395339251166503,7.779049732559455
2.470688826025459,4.863866117153601,-7.281101025866141,7.911301386788916
2.4786845827439885,4.641363507779352,-7.166862800565773,8.043553041018386
2.4866803394625174,4.418860898405116,-7.05262457526541,8.175804695247848
2.4946760961810464,4.196358289030879,-6.938386349965048,8.308056349477308
2.5026718528995753,3.9738556796566424,-6.824148124664687,8.44030800370677
2.510667609618104,3.751353070282406,-6.709909899364325,8.572559657936232
2.518663366336633,3.5288504609081692,-6.595671674063963,8.704811312165694
2.5266591230551625,3.374721357850119,-3.5166223479491956,5.330393917963443
2.5346548797736914,3.846098081023453,-3.1656213557389883,2.9792002153307036
2.5426506364922203,3.8943113006396572,-3.020862357237861,2.8805063227005037
2.5506463932107493,3.942524520255861,-2.876103358736733,2.7818124300703033
2.558642149929278,3.9907377398720656,-2.731344360235605,2.6831185374401034
2.566637906647807,4.03895095948827,-2.5865853617344774,2.5844246448099035
2.5746336633663365,4.087164179104477,-2.441826363233342,2.485730752179698
2.5826294200848654,4.1353773987206806,-2.297067364732214,2.3870368595494975
2.5906251768033943,4.1835906183368845,-2.152308366231086,2.2883429669192976
2.5986209335219232,4.662015558698577,-0.7563550212164813,-0.4851584158413415
2.606616690240452,6.403858233144739,-0.27748996149615957,-2.664885323353776
2.614612446958981,6.487647100424323,-0.09169966996700846,-2.436950730787379
2.6226082036775105,6.571435967703912,0.09409062156215292,-2.209016138220969
2.6306039603960394,6.655224834983496,0.279880913091304,-1.9810815456545718
2.6385997171145683,6.7390137022630805,0.465671204620455,-1.7531469530881747
2.6465954738330972,6.822802569542665,0.6514614961496061,-1.5252123605217773
2.654591230551626,6.906591436822248,0.8372517876787573,-1.2972777679553802
2.662586987270155,6.990380304101833,1.0230420792079082,-1.0693431753889828
2.670582743988684,7.074169171381417,1.2088323707370594,-0.8414085828225857
2.6785785007072134,7.157958038661006,1.3946226622662208,-0.6134739902561757
2.6865742574257423,7.24174690594059,1.5804129537953717,-0.3855393976897785
2.694570014144271,7.3255357732201745,1.7662032453245229,-0.15760480512338138
2.7025657708628,7.409324640499759,1.9519935368536738,0.07032978744301621
2.710561527581329,7.493113507779343,2.1377838283828248,0.29826438000941335
2.718557284299858,7.5769023750589275,2.323574119911976,0.5261989725758105
2.7265530410183874,7.660691242338516,2.5093644114411373,0.7541335651422205
2.7345487977369163,7.744480109618101,2.6951547029702887,0.9820681577086177
2.742544554455445,7.828268976897685,2.8809449944994396,1.2100027502750148
2.750540311173974,8.42008944171723,3.0797667859222773,1.7457120392711132
2.758536067892503,9.23706764289869,3.2843640901905187,2.417825942258048
2.766531824611032,5.738250310745424,3.1728998757018303,4.878693712228355
2.7745275813295613,4.839939158201554,3.5322243367193784,5.024434550597913
2.7825233380480903,3.9416280056577344,3.891548797736906,5.170175388967464
2.790519094766619,3.0433168531139145,4.250873258754434,5.315916227337014
2.798514851485148,2.1450057005700947,4.610197719771962,5.461657065706564
2.806510608203677,1.2466945480262748,4.9695221807894905,5.607397904076115
2.814506364922206,0.3483833954824549,5.328846641807019,5.753138742445665
2.8225021216407353,-0.5499277570614147,5.688171102824566,5.8988795808152235
2.8304978783592643,-1.4482389096052355,6.047495563842094,6.044620419184774
2.838493635077793,1.8886499292785026,4.608888967468263,1.4849561527580768
2.846489391796322,3.149349512394846,3.9036129122310763,2.231973386436383
2.854485148514851,3.1834366857738376,3.853218603439295,2.30162063574778
2.86248090523338,3.2175238591528297,3.8028242946475137,2.3712678850591766
2.870476661951909,3.2516110325318217,3.7524299858557324,2.4409151343705737
2.8784724186704382,3.2856982059108155,3.7020356770639484,2.510562383681975
2.886468175388967,3.3197853792898075,3.6516413682721676,2.580209632993372
2.894463932107496,3.353872552668799,3.6012470594803863,2.6498568823047686
2.902459688826025,3.387959726047791,3.550852750688605,2.7195041316161657
2.910455445544554,3.422046899426783,3.500458441896824,2.7891513809275628
2.918451202263083,3.4561340728057752,3.450064133105043,2.85879863023896
2.9264469589816122,-4.1486162942008,7.273085601131494,6.6372404526166875
2.934442715700141,-5.161438797736863,8.29430364922201,6.695209688826023
2.94243847241867,-6.174261301272925,9.31552169731253,6.753178925035358
2.950434229137199,-7.187083804808988,10.336739745403047,6.8111481612446925
2.958429985855728,-8.19990630834505,11.357957793493565,6.869117397454027
2.966425742574257,-9.212728811881114,12.379175841584082,6.927086633663362
2.974421499292786,-10.225551315417231,13.400393889674657,6.9850558698727
2.982417256011315,-11.238373818953294,14.421611937765174,7.043025106082035
2.990413012729844,-12.251196322489356,15.442829985855692,7.10099434229137
2.998408769448373,-13.26401882602542,16.46404803394621,7.158963578500705
3.006404526166902,-14.276841329561481,17.485266082036727,7.21693281471004
3.014400282885431,-15.289663833097546,18.506484130127244,7.2749020509193745
3.02239603960396,-16.302486336633663,19.52770217821782,7.332871287128713
3.030391796322489,2.4562065063637415,9.859356435645143,4.453506364922278
3.038387553041018,5.4193500707213,4.369308698727195,-0.06182213578471529
3.046383309759547,5.837907453494015,2.8502361556227678,-2.415403326589504
3.054379066478076,5.528097183678608,3.2525542943082435,-1.50176160635962
3.062374823196605,5.218286913863202,3.6548724329937192,-0.5881198861297361
3.070370579915134,4.908476644047778,4.057190571679217,0.3255218341001984
3.078366336633663,4.598666374232371,4.459508710364693,1.2391635543300823
3.086362093352192,4.288856104416965,4.861826849050169,2.152805274559966
3.094357850070721,3.9790458346015587,5.264144987735644,3.06644699478985
3.10235360678925,3.6692355647861516,5.66646312642112,3.980088715019734
3.110349363507779,3.359425294970745,6.068781265106596,4.893730435249617
3.1183451202263077,3.0496150251553384,6.471099403792071,5.807372155479502
3.126340876944837,3.791519094766602,9.643057520037777,3.127503536068129
3.134336633663366,8.627707642674375,5.221407831794417,-0.23886405606852784
3.142332390381895,8.708833129380348,5.202271919647825,-0.24524269345072508
3.150328147100424,8.789958616086322,5.183136007501234,-0.2516213308329223
3.158323903818953,8.871084102792295,5.164000095354641,-0.25799996821511956
3.1663196605374817,8.952209589498267,5.14486418320805,-0.2643786055973168
3.174315417256011,9.033335076204246,5.125728271061457,-0.27075724297951437
3.18231117397454,9.114460562910219,5.106592358914866,-0.2771358803617116
3.190306930693069,9.195586049616193,5.0874564467682735,-0.28351451774390884
3.198302687411598,9.276711536322166,5.068320534621682,-0.2898931551261061
3.2062984441301268,9.35783702302814,5.0491846224750905,-0.2962717925083033
3.2142942008486557,9.438962509734113,5.030048710328499,-0.3026504298905005
3.222289957567185,10.70988543140012,4.517366336633731,-0.18093917963226605
3.230285714285714,4.1579523809525565,6.751738095238036,3.5095476190475154
3.238281471004243,-4.36495370532217,10.394667704972672,5.412218298555335
3.246277227722772,-7.2378560462785515,11.380751140282488,5.9929438202246725
3.2542729844413008,-10.110758387234934,12.366834575592302,6.573669341894009
3.2622687411598297,-12.983660728191316,13.352918010902115,7.154394863563346
3.270264497878359,-15.856563069147857,14.339001446211984,7.735120385232715
3.278260254596888,-18.72946541010424,15.3250848815218,8.315845906902052
3.286256011315417,-21.602367751060623,16.311168316831615,8.896571428571388
3.294251768033946,-24.475270092017002,17.297251752141428,9.477296950240724
3.3022475247524747,-27.348172432973385,18.283335187451243,10.058022471910062
3.3102432814710037,-30.221074773929768,19.26941862276106,10.638747993579399
3.3182390381895326,-33.093977114886144,20.255502058070874,11.219473515248737
3.326234794908062,6.04834087694559,3.155038189533264,-0.144478076379642
3.334230551626591,1.886917172362399,3.300575808732938,3.3141305379385764
3.34222630834512,1.8303450441818394,3.6606427887028214,3.714692156773267
3.3502220650636487,1.7737729160012798,4.020709768672704,4.115253775607958
3.3582178217821776,1.7172007878207205,4.380776748642588,4.515815394442649
3.3662135785007066,1.660628659640161,4.740843728612472,4.916377013277341
3.374209335219236,1.6040565314595983,5.100910708582375,5.316938632112054
3.382205091937765,1.547484403279039,5.4609776885522585,5.7175002509467445
3.390200848656294,1.4909122750984793,5.821044668522141,6.118061869781435
3.3981966053748227,1.4343401469179198,6.181111648492024,6.518623488616127
3.4061923620933516,1.3777680187373602,6.541178628461908,6.919185107450818
3.4141881188118806,1.3211958905568006,6.9012456084317915,7.3197467262855085
3.42218387553041,2.15380339462502,8.69790735502095,4.057282885432041
3.430179632248939,6.5358151815180925,5.564122347949101,0.05851296558225372
3.4381753889674678,10.03125884016944,4.167653465346697,1.3456202263081956
3.4461711456859967,10.612214958845287,3.7708226512840635,1.5241355805115906
3.4541669024045256,10.529945365620906,3.7338302346585803,1.3503482899064554
3.4621626591230545,10.447675772396524,3.6968378180330967,1.1765609993013202
3.470158415841584,10.365406179172137,3.6598454014076114,1.0027737086961754
3.478154172560113,10.283136585947755,3.6228529847821282,0.8289864180910402
3.4861499292786418,10.200866992723371,3.5858605681566447,0.655199127485905
3.4941456859971707,10.11859739949899,3.5488681515311615,0.48141183688076983
3.5021414427156996,10.036327806274608,3.5118757349056784,0.3076245462756346
3.5101371994342285,9.954058213050226,3.474883318280195,0.13383725567049942
3.5181329561527575,9.871788619825844,3.4378909016547117,-0.03995003493463578
3.526128712871287,7.680217821782257,5.539636963696316,1.4871551155114944
3.5341244695898157,-4.906993229820487,13.962856586621728,7.626545857635505
3.5421202263083447,-7.232141315576073,14.409810403191182,8.099732943438784
3.5501159830268736,-9.557289401331658,14.856764219760635,8.572920029242063
3.5581117397454025,-11.882437487087245,15.303718036330089,9.046107115045343
3.5661074964639314,-14.20758557284283,15.750671852899544,9.519294200848622
3.574103253182461,-16.532733658598545,16.197625669469023,9.992481286651927
3.5820990099009897,-18.85788174435413,16.644579486038477,10.465668372455207
3.5900947666195187,-21.183029830109717,17.09153330260793,10.938855458258486
3.5980905233380476,-23.508177915865303,17.538487119177383,11.412042544061766
3.6060862800565765,-25.83332600162089,17.985440935746837,11.885229629865044
3.6140820367751054,-28.158474087376476,18.43239475231629,12.358416715668323
3.622077793493635,-29.318174681756577,18.869632248939194,12.65145898161286
3.6300735502121637,3.398198290649739,4.329331668121202,5.201140269042089
3.6380693069306926,3.3064172108700296,4.631384137349885,5.417621129134175
3.6460650636492216,3.2146361310903195,4.933436606578569,5.634101989226262
3.6540608203677505,3.12285505131061,5.235489075807252,5.850582849318348
3.6620565770862794,3.0310739715309,5.5375415450359355,6.067063709410435
3.6700523338048088,2.939292891751185,5.839594014264636,6.283544569502534
3.6780480905233377,2.8475118119714753,6.14164648349332,6.50002542959462
3.6860438472418666,2.7557307321917657,6.443698952722002,6.716506289686707
3.6940396039603955,2.6639496524120556,6.745751421950686,6.9329871497787945
3.7020353606789245,2.572168572632346,7.0478038911793695,7.149468009870881
3.7100311173974534,2.480387492852636,7.349856360408053,7.365948869962967
3.7180268741159823,2.3886064130729263,7.651908829636737,7.582429730055054
3.7260226308345117,2.4576449787835792,9.272942008486392,3.218175388967987
3.7340183875530406,11.657803426410055,2.4933371263290005,1.5393470432115635
3.7420141442715695,11.679814217376792,2.566646536242704,1.2358676477599824
3.7500099009900985,11.701825008343528,2.6399559461564075,0.9323882523084014
3.7580056577086274,11.723835799310265,2.713265356070111,0.6289088568568203
3.7660014144271563,11.745846590277003,2.786574765983814,0.3254294614052393
3.7739971711456857,11.767857381243742,2.8598841758975215,0.02195006595364135
3.7819929278642146,11.789868172210477,2.933193585811225,-0.28152932949793974
3.7899886845827435,11.811878963177215,3.0065029957249285,-0.5850087249495208
3.7979844413012724,11.833889754143952,3.079812405638632,-0.8884881204011019
3.8059801980198014,11.85590054511069,3.1531218155523355,-1.191967515852683
3.8139759547383303,11.877911336077426,3.2264312254660386,-1.495446911304264
3.8219717114568597,11.899922127044164,3.299740635379746,-1.798926306755862
3.8299674681753886,8.633050070721447,4.538152758132904,0.32846562942005336
3.8379632248939175,6.605326166902513,5.729520509193713,1.0496828854313616
3.8459589816124464,0.834293257898155,9.379801980197415,5.244152758132177
3.8539547383309753,-19.428794602240153,22.691413089185396,18.293434802553662
3.8619504950495043,-19.317070109713683,22.169635937918155,17.500450227455236
3.8699462517680336,-19.205345617187206,21.647858786650882,16.707465652356767
3.8779420084865626,-19.093621124660736,21.12608163538364,15.91448107725834
3.8859377652050915,-18.981896632134262,20.604304484116394,15.121496502159914
3.8939335219236204,-18.870172139607792,20.082527332849153,14.328511927061488
3.9019292786421493,-18.758447647081322,19.56075018158191,13.535527351963061
3.9099250353606783,-18.64672315455485,19.038973030314665,12.742542776864635
3.917920792079207,-18.53499866202838,18.51719587904742,11.949558201766209
3.9259165487977365,3.569077793493105,4.556620933522843,2.3517142857147135
3.9339123055162655,4.23046874717868,4.446619218152802,6.229307261729221
3.9419080622347944,4.022834256221988,4.79366908423363,6.067435718799854
3.9499038189533233,3.815199765265296,5.140718950314459,5.905564175870486
3.9578995756718522,3.607565274308604,5.487768816395287,5.743692632941119
3.965895332390381,3.399930783351912,5.834818682476117,5.581821090011752
3.9738910891089105,3.1922962923952087,6.181868548556964,5.419949547082377
3.9818868458274395,2.9846618014385164,6.528918414637793,5.25807800415301
3.9898826025459684,2.7770273104818246,6.875968280718622,5.096206461223643
3.9978783592644973,2.5693928195251328,7.2230181467994505,4.934334918294276
4.005874115983026,2.361758328568441,7.570068012880279,4.772463375364909
4.013869872701555,2.154123837611749,7.917117878961108,4.610591832435542
4.021865629420084,1.9464893466550572,8.264167745041936,4.448720289506175
4.029861386138613,6.977841584157294,6.7363366336634956,0.9318415841585331
4.037857142857142,11.199752380952368,3.784031746031755,-0.08175873015871164
4.045852899575672,11.303164167845354,3.7076278484991367,-0.23705409398082425
4.053848656294201,11.40657595473833,3.6312239509665267,-0.3923494578029195
4.06184441301273,11.509987741631303,3.554820053433917,-0.5476448216250149
4.0698401697312585,11.613399528524278,3.478416155901307,-0.7029401854471102
4.077835926449787,11.716811315417251,3.402012258368697,-0.8582355492692055
4.085831683168316,11.820223102310226,3.3256083608360876,-1.0135309130913008
4.093827439886845,11.9236348892032,3.249204463303478,-1.1688262769133961
4.101823196605374,12.027046676096175,3.172800565770868,-1.3241216407354917
4.109818953323903,12.130458462989148,3.096396668238258,-1.479417004557587
4.117814710042432,12.233870249882123,3.0199927707056484,-1.6347123683796823
4.125810466760961,5.131162659123945,6.505190947665652,1.9353974540304133
4.13380622347949,-23.835973318760562,22.896353992542164,20.372898482705505
4.141801980198019,-22.843954320432168,22.463492799279983,19.588405715571657
4.149797736916549,-21.851935322103664,22.030631606017756,18.80391294843772
4.1577934936350776,-20.859916323775266,21.597770412755576,18.01942018130387
4.1657892503536065,-19.867897325446876,21.164909219493396,17.234927414170023
4.173785007072135,-18.87587832711848,20.73204802623122,16.450434647036175
4.181780763790664,-17.883859328790084,20.29918683296904,15.665941879902327
4.189776520509193,-16.89184033046169,19.866325639706858,14.881449112768477
4.197772277227722,-15.899821332133296,19.43346444644468,14.096956345634629
4.205768033946251,-14.907802333804902,19.0006032531825,13.312463578500779
4.21376379066478,-13.915783335476508,18.56774205992032,12.52797081136693
4.221759547383309,-12.144963578501715,17.887751768034278,11.259352899576315
4.229755304101838,-2.9545075436122605,14.853362093352441,5.37847383309808
4.237751060820367,2.757985619990354,5.0512507072140655,2.2062378595004817
4.245746817538897,4.219876473361607,1.7589978783592972,0.5444530881659757
4.2537425742574255,4.395598811881189,1.5523493069306875,0.9307477227722656
4.2617383309759544,4.33227241867044,1.9191946251767937,1.6977007072135581
4.269734087694483,4.268946025459691,2.2860399434229,2.4646536916548505
4.277729844413012,4.2056196322489425,2.652885261669006,3.2316066760961433
4.285725601131541,4.142293239038193,3.0197305799151124,3.9985596605374356
4.29372135785007,4.078966845827445,3.386575898161218,4.765512644978728
4.301717114568599,4.0156404526166956,3.7534212164073244,5.53246562942002
4.309712871287128,3.9523140594059467,4.120266534653431,6.299418613861313
4.317708628005657,3.888987666195198,4.487111852899536,7.066371598302606
4.325704384724186,4.679104667608126,7.50070721357968,0.4476039603957074
4.333700141442715,9.763264026402616,5.012711456859984,2.0482588401697526
4.341695898161244,9.91793463217287,4.930948396222123,1.909751699593945
4.3496916548797735,10.07260523794314,4.849185335584254,1.771244559018122
4.357687411598302,10.227275843713393,4.767422274946394,1.6327374184423147
4.365683168316831,10.381946449483646,4.685659214308534,1.494230277866507
4.37367892503536,10.536617055253899,4.603896153670673,1.3557231372906995
4.381674681753889,10.691287661024152,4.522133093032814,1.217215996714892
4.389670438472418,10.845958266794405,4.440370032394953,1.0787088561390845
4.397666195190947,11.000628872564658,4.3586069717570926,0.9402017155632771
4.405661951909476,11.15529947833491,4.276843911119233,0.8016945749874695
4.413657708628005,11.309970084105164,4.195080850481372,0.6631874344116622
4.421653465346534,11.783960396039078,3.9435643564359237,0.0419801980205865
4.429649222065063,1.5382769869692459,10.124141803846026,6.737154112371756
4.437644978783592,1.2390315387162176,10.241186072406618,6.432464744650793
4.4456407355021215,0.9397860904631562,10.358230340967225,6.1277753769297965
4.45363649222065,0.6405406422101279,10.475274609527819,5.823086009208834
4.461632248939179,0.3412951939570996,10.592318878088411,5.518396641487871
4.469628005657708,0.042049745704071384,10.709363146649006,5.213707273766907
4.477623762376237,-0.25719570254895685,10.826407415209598,4.9090179060459445
4.485619519094766,-0.5564411508019851,10.943451683770192,4.604328538324982
4.493615275813295,-0.8556865990550135,11.060495952330784,4.299639170604019
4.501611032531824,-1.1549320473080416,11.177540220891379,3.994949802883056
4.509606789250353,-1.45417749556107,11.294584489451971,3.6902604351620933
4.517602545968882,-1.7534229438140985,11.411628758012565,3.3855710674411306
4.525598302687411,-19.88907237152634,18.186470061292006,9.553652993871427
4.53359405940594,4.598907553676713,0.7187861831126556,0.08543430859934918
4.5415898161244685,4.6235237035742065,1.0186719800390538,0.4838745450788504
4.549585572842998,4.648139853471703,1.318557776965485,0.8823147815583959
4.557581329561527,4.672756003369196,1.618443573891883,1.2807550180378973
4.565577086280056,4.69737215326669,1.9183293708182811,1.6791952545173985
4.573572842998585,4.721988303164183,2.2182151677446793,2.0776354909968995
4.581568599717114,4.746604453061677,2.5181009646710772,2.4760757274764007
4.589564356435643,4.77122060295917,2.817986761597475,2.874515963955902
4.597560113154172,4.795836752856664,3.1178725585238736,3.272956200435403
4.605555869872701,4.820452902754157,3.417758355450271,3.6713964369149044
4.61355162659123,4.845069052651651,3.7176441523766695,4.0698366733944065
4.621547383309759,4.7297857142860416,4.188082390381442,4.439266619519099
4.629543140028288,2.7108571428574155,6.979267798208015,4.413946723243756
4.6375388967468165,7.249695898158394,6.539537482320881,1.4847001414421601
4.645534653465346,9.190591112682693,5.66103429985856,1.623547501178693
4.653530410183875,9.429987876338647,5.508258233986669,1.4161337643968548
4.661526166902404,9.6693846399946,5.355482168114778,1.2087200276150165
4.669521923620933,9.908781403650554,5.202706102242887,1.0013062908331782
4.677517680339462,10.148178167306508,5.049930036370996,0.79389255405134
4.685513437057991,10.387574930962462,4.897153970499105,0.5864788172695017
4.69350919377652,10.626971694618415,4.744377904627214,0.3790650804876634
4.701504950495049,10.86636845827437,4.591601838755324,0.17165134370582513
4.709500707213578,11.105765221930323,4.438825772883432,-0.035762393076013144
4.717496463932107,11.345161985586277,4.286049707011541,-0.24317612985785164
4.725492220650636,9.6757578500713,4.463207920791681,1.0935705799147324
4.7334879773691645,0.30209440912740004,7.717618539875773,4.7831430125743655
4.741483734087693,-2.7388412422085007,8.994479382003927,5.100952375771278
4.749479490806223,-5.779776893544739,10.271340224132224,5.418761738968225
4.757475247524752,-8.820712544880639,11.54820106626038,5.736571102165138
4.765471004243281,-11.86164819621654,12.825061908388534,6.054380465362051
4.77346676096181,-14.90258384755244,14.101922750516689,6.372189828558963
4.781462517680339,-17.943519498888342,15.378783592644844,6.689999191755876
4.789458274398868,-20.984455150224242,16.655644434773,7.007808554952788
4.797454031117397,-24.025390801560143,17.932505276901153,7.325617918149701
4.805449787835926,-27.066326452896046,19.20936611902931,7.643427281346614
4.813445544554455,-30.107262104231946,20.486226961157463,7.9612366445435265
4.8214413012729835,-33.14819775556784,21.763087803285615,8.279046007740439
4.8294370579915125,4.674362843864571,2.676365946944527,0.6176733250584017
4.837432814710041,4.571233900066401,2.920889241693825,1.1971209190889374
4.845428571428571,4.4681049562682205,3.1654125364431502,1.7765685131195372
4.8534243281471,4.364976012470051,3.409935831192448,2.3560161071500727
4.861420084865629,4.261847068671883,3.6544591259417465,2.935463701180608
4.869415841584158,4.1587181248737135,3.898982420691045,3.5149112952111436
4.877411598302687,4.055589181075544,4.143505715440343,4.09435888924168
4.885407355021216,3.952460237277375,4.388029010189641,4.673806483272215
4.893403111739745,3.849331293479206,4.632552304938939,5.253254077302751
4.901398868458274,3.746202349681037,4.877075599688237,5.832701671333287
4.909394625176803,3.643073405882868,5.121598894437535,6.412149265363822
4.9173903818953315,3.5399444620846987,5.366122189186834,6.991596859394358
4.92538613861386,3.4368155182865294,5.610645483936132,7.571044453424894
4.933381895332389,8.781841584156847,5.939207920793136,0.7204611032539651
4.941377652050918,9.747347395609093,5.248389397946035,0.259657339647021
4.949373408769448,9.959061127851905,5.062401143841101,0.17691863969005997
4.957369165487977,10.170774860094694,4.876412889736189,0.09417993973310818
4.965364922206506,10.382488592337483,4.690424635631276,0.011441239776156409
4.973360678925035,10.59420232458027,4.5044363815263635,-0.07129746018079541
4.981356435643564,10.805916056823058,4.31844812742145,-0.15403616013774718
4.989352192362093,11.017629789065847,4.132459873316538,-0.236774860094699
4.997347949080622,11.229343521308635,3.946471619211625,-0.3195135600516508
5.0053437057991506,11.441057253551424,3.7604833651067127,-0.40225226000860254
5.0133394625176795,11.652770985794213,3.5744951110018,-0.48499095996555436
5.021335219236208,11.864484718037001,3.3885068568968872,-0.5677296599225061
5.029330975954737,11.787038189534126,2.7787270155582218,-0.6109646393216861
5.037326732673266,1.1084777803365633,7.543177527054734,4.541372783789913
5.045322489391796,-1.4328712213412638,9.478522548600269,5.150909772704812
5.053318246110325,-3.9742202230188086,11.413867570145587,5.760446761619642
5.061314002828854,-6.515569224696352,13.349212591690907,6.369983750534473
5.069309759547383,-9.056918226373897,15.284557613236228,6.9795207394493035
5.077305516265912,-11.59826722805144,17.219902634781548,7.589057728364134
5.085301272984441,-14.139616229728986,19.155247656326864,8.198594717278965
5.09329702970297,-16.68096523140653,21.090592677872188,8.808131706193794
5.1012927864214985,-19.222314233084077,23.025937699417504,9.417668695108627
5.1092885431400274,-21.763663234761623,24.961282720962824,10.027205684023457
5.117284299858556,-24.30501223643917,26.896627742508144,10.636742672938288
5.125280056577085,2.614419377651812,10.539720650637472,3.9059636963697555
5.133275813295614,3.380854282217954,2.9795812500993,0.7403775249113436
5.141271570014143,3.323536385741309,3.2840488851453045,1.3506603944502955
5.149267326732673,3.2662184892646575,3.5885165201913427,1.9609432639893154
5.157263083451202,3.208900592788012,3.892984155237347,2.571226133528268
5.165258840169731,3.1515826963113667,4.197451790283352,3.1815090030672195
5.17325459688826,3.0942647998347215,4.501919425329356,3.7917918726061712
5.181250353606789,3.0369469033580763,4.806387060375361,4.402074742145124
5.189246110325318,2.9796290068814306,5.110854695421365,5.012357611684076
5.1972418670438465,2.9223111104047854,5.415322330467369,5.622640481223027
5.205237623762375,2.86499321392814,5.719789965513374,6.23292335076198
5.213233380480904,2.807675317451495,6.024257600559379,6.843206220300932
5.221229137199433,2.697465346534896,6.599547383308514,7.061589816126139
5.229224893917962,8.195144877752867,6.790305112144025,1.5938161244697209
5.237220650636491,9.227998698226317,6.0275392722584655,0.9866830055951294
5.245216407355021,9.394706687862213,5.8902669887722015,0.9235660587550537
5.25321216407355,9.56141467749809,5.752994705285953,0.8604491119149849
5.261207920792079,9.728122667133967,5.615722421799705,0.7973321650749161
5.269203677510608,9.894830656769843,5.478450138313457,0.7342152182348474
5.277199434229137,10.06153864640572,5.341177854827209,0.6710982713947786
5.2851951909476655,10.228246636041597,5.203905571340961,0.6079813245547098
5.2931909476661945,10.394954625677473,5.066633287854712,0.5448643777146409
5.301186704384723,10.56166261531335,4.929361004368464,0.48174743087457217
5.309182461103252,10.728370604949227,4.792088720882216,0.4186304840345034
5.317178217821781,10.895078594585105,4.654816437395968,0.3555135371944347
5.32517397454031,11.06178658422098,4.51754415390972,0.2923965903543658
5.333169731258839,11.228494573856857,4.3802718704234715,0.22927964351429708
5.341165487977368,11.395202563492735,4.2429995869372235,0.16616269667422834
5.349161244695898,10.402520509193893,4.156746817538851,0.6699094766619078
5.357157001414427,2.549318246110511,7.2641867043847075,4.186844413012695
5.365152758132956,0.07752042398762826,7.916405275983501,4.653205909919678
5.373148514851485,-2.650477633305191,9.76014970774165,5.162814982703032
5.3811442715700135,-5.37847569059801,11.6038941394998,5.672424055486386
5.389140028288542,-8.10647374789083,13.447638571257949,6.182033128269739
5.397135785007071,-10.83447180518365,15.291383003016097,6.691642201053093
5.4051315417256,-13.562469862476469,17.135127434774247,7.201251273836447
5.413127298444129,-16.290467919769288,18.978871866532398,7.710860346619801
5.421123055162658,-19.018465977062107,20.822616298290548,8.220469419403155
5.429118811881187,-21.746464034354926,22.666360730048694,8.730078492186507
5.437114568599716,-24.474462091647744,24.510105161806848,9.239687564969863
5.445110325318246,-27.202460148940865,26.3538495935652,9.749296637753272
5.453106082036775,5.230765205092369,2.590384724186036,2.162394625176205
5.461101838755304,2.122145936943926,7.491750832686938,6.335169480312113
5.469097595473833,2.104477893872338,7.712794816808852,5.985032714331368
5.4770933521923615,2.0868098508007495,7.933838800930767,5.634895948350621
5.48508910891089,2.0691418077291615,8.154882785052681,5.284759182369876
5.493084865629419,2.051473764657573,8.375926769174596,4.93462241638913
5.501080622347948,2.033805721585985,8.59697075329651,4.584485650408384
5.509076379066477,2.0161376785143963,8.818014737418427,4.234348884427638
5.517072135785006,1.9984696354428082,9.039058721540341,3.8842121184468925
5.525067892503535,10.25701838755302,4.8592927864215145,0.307589816124478
5.533063649222064,10.376954738330953,4.776003653936838,0.2592821192833658
5.541059405940593,10.496891089108887,4.692714521452162,0.21097442244225362
5.549055162659123,10.616827439886835,4.609425388967476,0.16266672560113604
5.557050919377652,10.736763790664769,4.5261362564828,0.11435902876002382
5.5650466760961805,10.856700141442703,4.442847123998123,0.06605133191891163
5.5730424328147095,10.976636492220635,4.359557991513447,0.017743635077799413
5.581038189533238,11.096572842998569,4.276268859028771,-0.030564061763312778
5.589033946251767,11.216509193776503,4.192979726544095,-0.07887175860442502
5.597029702970296,11.336445544554437,4.109690594059419,-0.12717945544553722
5.605025459688825,11.45638189533237,4.026401461574743,-0.1754871522866494
5.613021216407354,11.576318246110304,3.943112329090066,-0.22379484912776165
5.621016973125883,11.689448373409332,3.8547383309764065,-0.2617821782186991
5.629012729844412,3.9693182461100407,4.946082036776302,2.826229137200445
5.637008486562941,2.152195323550648,3.629240364214666,1.0346290443774893
5.645004243281471,-1.9918554632248773,6.741088932107484,2.5841817096888198
5.653,-6.135906249999942,9.852937499999957,4.133734374999978
5.6609957567185285,-10.279957036775006,12.96478606789243,5.6832870403111375
5.668991513437057,-14.42400782355007,16.076634635784902,7.232839705622296
5.676987270155586,-18.568058610325135,19.188483203677375,8.782392370933454
5.684983026874115,-22.712109397100203,22.300331771569848,10.331945036244614
5.692978783592644,-26.856160183875268,25.41218033946232,11.881497701555771
5.700974540311173,-3.8054872701594,20.072181282414967,8.849680103725218
5.708970297029702,3.7940024752474066,6.384693069307527,2.478259900990327
5.716966053748231,5.187203677510386,3.8094497878355966,2.032994342291071
5.72496181046676,5.018298125190687,4.093408422775026,2.4910365948359137
5.732957567185289,4.836825803588781,4.360952713758743,2.934957872257768
5.740953323903818,4.655353481986875,4.62849700474246,3.3788791496796224
5.7489490806223476,4.473881160384949,4.8960412957262065,3.8228004271015266
5.7569448373408765,4.292408838783043,5.163585586709924,4.2667217045233805
5.764940594059405,4.110936517181138,5.431129877693641,4.710642981945235
5.772936350777934,3.9294641955792313,5.698674168677358,5.15456425936709
5.780932107496463,3.7479918739773255,5.966218459661075,5.598485536788944
5.788927864214992,3.5665195523754196,6.233762750644792,6.042406814210799
5.796923620933521,3.3850472307735138,6.501307041628509,6.486328091632654
5.80491937765205,3.203574909171608,6.7688513326122255,6.930249369054508
5.812915134370579,3.022102587569702,7.0363956235959435,7.374170646476362
5.820910891089108,2.4635326732668723,9.083247524752759,3.5956673267329156
5.828906647807637,4.0011858095430135,8.15216349623302,2.828838149121038
5.836902404526166,4.249217446525952,8.054256271108176,2.805993129925241
5.8448981612446955,4.497249083508917,7.9563490459833215,2.783148110729442
5.8528939179632244,4.745280720491856,7.858441820858477,2.7603030915336446
5.860889674681753,4.993312357474794,7.760534595733633,2.737458072337848
5.868885431400282,5.241343994457733,7.6626273706087895,2.7146130531420507
5.876881188118811,5.489375631440671,7.564720145483945,2.691768033946254
5.88487694483734,5.73740726842361,7.466812920359101,2.668923014750457
5.892872701555869,5.985438905406548,7.3689056952342575,2.64607799555466
5.900868458274398,6.233470542389487,7.270998470109413,2.6232329763588633
5.908864214992927,6.481502179372424,7.173091244984569,2.600387957163066
5.916859971711456,6.729533816355363,7.075184019859725,2.5775429379672694
5.924855728429985,9.66721735030526,5.043743517209649,0.6061404997646398
5.932851485148514,9.841574257426299,3.826014851484828,1.4545247524750216
5.940847241867043,6.953913167971912,5.54443674750743,2.6357706213129717
5.948842998585572,6.5639737641011715,5.99648952978919,2.825231051850819
5.956838755304101,6.174034360230474,6.448542312070899,3.0146914823886446
5.96483451202263,5.784094956359775,6.900595094352608,3.204151912926471
5.972830268741159,5.394155552489078,7.352647876634317,3.3936123434642966
5.980826025459688,5.004216148618379,7.804700658916027,3.5830727740021224
5.988821782178217,4.6142767447476825,8.256753441197736,3.7725332045399487
5.996817538896746,4.224337340876984,8.708806223479446,3.961993635077774
6.004813295615275,3.8343979370062864,9.160859005761154,4.1514540656156
6.012809052333804,3.4444585331355886,9.612911788042863,4.3409144961534265
6.020804809052333,3.0545191292648908,10.064964570324573,4.530374926691252
6.028800565770862,3.169864245087112,7.754103569171557,4.658632534834107
6.036796322489391,3.2358717686358185,7.4437150982575995,4.186287459749096
6.04479207920792,3.3018792921845326,7.1333266273436085,3.7139423846640334
6.052787835926449,3.367886815733239,6.822938156429652,3.241597309579023
6.060783592644978,3.4338943392819457,6.512549685515695,2.7692522344940125
6.068779349363507,3.4999018628306526,6.2021612146017375,2.2969071594090025
6.076775106082036,3.565909386379359,5.891772743687781,1.824562084323992
6.084770862800565,3.6319169099280657,5.581384272773824,1.352217009238982
6.092766619519094,3.6979244334767722,5.270995801859867,0.8798719341539716
6.100762376237623,3.7639319570254792,4.96060733094591,0.4075268590689616
6.108758132956152,3.8299394805741858,4.650218860031954,-0.06481821601604931
6.116753889674681,3.8959470041228923,4.339830389117997,-0.5371632911010593
6.12474964639321,4.121607024988155,4.664953795379387,1.9886131541717054
6.1327454031117385,2.6002052007399485,8.34830116418219,4.432605918834066
6.140741159830268,2.009134261777856,9.363147209226367,1.773094222609207
6.148736916548797,4.162538274398835,7.754718359264514,2.4614983686940177
6.156732673267326,4.542496633663329,7.578491881188136,2.399344686468653
6.164728429985855,4.922454992927823,7.402265403111759,2.337191004243288
6.172724186704384,5.302413352192316,7.2260389250353825,2.2750373220179236
6.180719943422913,5.68237171145681,7.049812446959005,2.212883639792559
6.188715700141442,6.062330070721303,6.873585968882628,2.150729957567194
6.196711456859971,6.442288429985797,6.697359490806251,2.0885762753418295
6.2047072135785,6.82224678925029,6.521133012729874,2.026422593116465
6.212702970297029,7.202205148514784,6.3449065346534965,1.9642689108911
6.220698727015558,7.582163507779278,6.16868005657712,1.9021152286657355
6.2286944837340865,7.660218034706739,5.456359583884606,2.8609883347781713
6.236690240452615,7.294304694985674,5.8749761372450084,2.9184202217456696
6.244685997171145,6.9283913552645675,6.293592690605456,2.975852108713174
6.252681753889674,6.562478015543501,6.712209243965858,3.033283995680672
6.260677510608203,6.196564675822436,7.130825797326259,3.09071588264817
6.268673267326732,5.83065133610137,7.549442350686661,3.1481477696156683
6.276669024045261,5.464737996380304,7.968058904047062,3.2055796565831662
6.28466478076379,5.0988246566592395,8.386675457407463,3.2630115435506646
6.292660537482319,4.732911316938173,8.805292010767864,3.3204434305181625
6.300656294200848,4.366997977217107,9.223908564128266,3.377875317485661
6.308652050919377,4.001084637496042,9.642525117488667,3.4353072044531587
6.316647807637906,3.635171297774976,10.06114167084907,3.492739091420657
6.3246435643564345,-12.996797029711717,18.42246534653648,11.623133663372393
6.332639321074963,4.235351492752962,6.605875484783555,3.6576709707837884
6.340635077793493,4.234233806329942,6.324734361454603,3.267598409149705
6.348630834512022,4.233116119906922,6.043593238125683,2.8775258475156646
6.356626591230551,4.231998433483901,5.762452114796763,2.4874532858816245
6.36462234794908,4.230880747060882,5.481310991467843,2.0973807242475844
6.372618104667609,4.229763060637861,5.200169868138922,1.7073081626135442
6.380613861386138,4.228645374214841,4.919028744810002,1.317235600979504
6.388609618104667,4.227527687791821,4.637887621481082,0.927163039345464
6.396605374823196,4.226410001368801,4.356746498152161,0.5370904777114238
6.404601131541725,4.22529231494578,4.07560537482324,0.14701791607738368
6.4125968882602535,4.22417462852276,3.7944642514943205,-0.24305464555665646
6.4205926449787825,4.22305694209974,3.5133231281654003,-0.633127207190697
6.428588401697311,6.545538166719863,7.073166948031222,3.596382412434807
6.43658415841584,6.783863302459242,6.980312999041854,3.4928674544874
6.44457991513437,7.022188438198647,6.887459050052476,3.3893524965399817
6.452575671852899,7.260513573938025,6.794605101063107,3.285837538592575
6.460571428571428,7.498838709677403,6.701751152073739,3.182322580645168
6.468567185289957,7.737163845416782,6.6088972030843705,3.078807622697761
6.476562942008486,7.97548898115616,6.516043254095003,2.975292664750355
6.484558698727015,8.213814116895538,6.423189305105635,2.871777706802948
6.492554455445544,8.452139252634916,6.330335356116266,2.768262748855541
6.500550212164073,8.690464388374295,6.237481407126898,2.6647477909081343
6.5085459688826015,8.928789524113673,6.1446274581375295,2.5612328329607275
6.51654172560113,9.167114659853052,6.051773509148162,2.457717875013321
6.524537482319659,11.492137328018565,4.104091552012377,1.0260686640092824
6.532533239038188,11.056005143371538,3.8133367622476912,0.8080025716857686
6.540528995756718,5.146545696221968,6.335218213731846,3.2931814386258007
6.548524752475247,4.901663604914733,6.636263270905374,3.170451389717297
6.556520509193776,4.656781513607498,6.9373083280789025,3.047721340808793
6.564516265912305,4.411899422300263,7.238353385252431,2.924991291900289
6.572512022630834,4.167017330993029,7.539398442425958,2.8022612429917855
6.580507779349363,3.922135239685794,7.840443499599487,2.6795311940832813
6.588503536067892,3.6772531483785595,8.141488556773014,2.556801145174777
6.5964992927864206,3.4323710570713244,8.442533613946543,2.4340710962662735
6.6044950495049495,3.18748896576409,8.743578671120071,2.31134104735777
6.612490806223478,2.9426068744568554,9.0446237282936,2.1886109984492657
6.620486562942007,2.6977247831496207,9.345668785467128,2.0658809495407615
6.628482319660536,1.071009900988087,10.969561527583434,4.780107496464327
6.636478076379065,4.5319628752602075,7.082256408626524,3.899706625558283
6.644473833097595,4.701221365796277,6.51338976209022,3.5723297999142067
6.652469589816124,4.870479856332329,5.944523115553979,3.2449529742701673
6.660465346534653,5.03973834686838,5.375656469017739,2.917576148626127
6.668461103253182,5.208996837404431,4.806789822481498,2.5901993229820874
6.676456859971711,5.378255327940483,4.237923175945257,2.262822497338047
6.68445261669024,5.547513818476534,3.6690565294090165,1.9354456716940076
6.6924483734087685,5.716772309012585,3.100189882872776,1.6080688460499677
6.7004441301272974,5.886030799548637,2.5313232363365348,1.2806920204059278
6.708439886845826,6.055289290084688,1.9624565898002944,0.9533151947618879
6.716435643564355,6.224547780620739,1.393589943264054,0.625938369117848
6.724431400282884,3.4530198019808314,6.516976661951129,4.938785007072101
6.732427157001413,8.359060506050563,6.549871129970164,2.627508407983669
6.740422913719943,8.645130913091297,6.381071821467868,2.535112997013991
6.748418670438472,8.931201320131999,6.2122725129655905,2.4427175860443233
6.756414427157001,9.217271727172701,6.043473204463313,2.3503221750746555
6.76441018387553,9.503342134213403,5.874673895961035,2.2579267641049876
6.772405940594059,9.789412541254105,5.705874587458758,2.16553135313532
6.780401697312588,10.075482948294807,5.53707527895648,2.0731359421656523
6.7883974540311165,10.36155335533551,5.368275970454203,1.9807405311959847
6.796393210749645,10.647623762376211,5.199476661951925,1.888345120226317
6.804388967468174,10.933694169416913,5.030677353449647,1.7959497092566492
6.812384724186703,11.219764576457615,4.861878044947369,1.7035542982869816
6.820380480905232,11.505834983498318,4.693078736445092,1.611158887317314
6.828376237623761,3.649965557194037,7.985327364651301,7.418476827470051
6.83637199434229,3.521948388455888,8.364870625056364,6.9680775527401515
6.84436775106082,3.393931219717725,8.74441388546147,6.5176782780102025
6.852363507779349,3.265914050979576,9.123957145866532,6.067279003280303
6.860359264497878,3.1378968822414275,9.503500406271595,5.616879728550404
6.868355021216407,3.0098797135032784,9.88304366667666,5.166480453820505
6.8763507779349355,2.88186254476513,10.262586927081722,4.716081179090606
6.8843465346534645,2.7538453760269808,10.642130187486785,4.265681904360707
6.892342291371993,2.6258282072888317,11.021673447891848,3.8152826296308078
6.900338048090522,2.497811038550683,11.40121670829691,3.3648833549009085
6.908333804809051,2.3697938698125345,11.780759968701975,2.9144840801710092
6.91632956152758,2.2417767010743854,12.160303229107038,2.464084805441111
6.924325318246109,-6.2315446830358425,15.95490330461452,5.746091552010702
6.932321074964638,-22.499930693084963,23.45610608204052,13.190490806227187
6.940316831683168,3.8315083943176775,14.81860525182964,6.646328454584607
6.948312588401697,4.343584465899974,11.175668962548663,6.058814156570975
6.956308345120226,4.85566053748227,7.5327326732676845,5.471299858557343
6.964304101838755,5.519912084512039,2.1152343086986947,0.8328044775459372
6.9722998585572835,5.330262729844431,2.4927839462517323,1.2039824964638968
6.980295615275812,5.140613375176823,2.8703335838047694,1.5751605153818562
6.988291371994341,4.950964020509216,3.2478832213578066,1.9463385342998158
6.99628712871287,4.761314665841608,3.6254328589108438,2.317516553217775
7.004282885431399,4.571665311174,4.002982496463881,2.6886945721357347
7.012278642149928,4.382015956506392,4.380532134016919,3.0598725910536944
7.020274398868457,4.192366601838785,4.758081771569956,3.431050609971654
7.028270155586986,6.257203677509255,7.464533239039775,1.5154780763795785
7.036265912305515,9.476722300801482,5.62787364450734,0.8113408769448484
7.044261669024045,9.672174131698876,5.396885117083147,0.7313833097595509
7.052257425742574,9.867625962596248,5.16589658965898,0.6514257425742623
7.060253182461103,10.06307779349362,4.934908062234813,0.5714681753889738
7.0682489391796315,10.258529624390992,4.703919534810646,0.4915106082036852
7.07624469589816,10.453981455288364,4.472931007386479,0.4115530410183966
7.084240452616689,10.649433286185737,4.241942479962312,0.33159547383310806
7.092236209335218,10.844885117083109,4.010953952538145,0.2516379066478195
7.100231966053747,11.04033694798048,3.779965425113978,0.17168033946253092
7.108227722772276,11.235788778877852,3.548976897689811,0.09172277227724235
7.116223479490805,11.431240609775225,3.317988370265644,0.011765205091953779
7.124219236209334,11.351934936352858,2.2767751060809474,0.3781103253177579
7.132214992927863,2.6625019711697706,7.192204881278434,5.253580562159607
7.140210749646393,2.598876162388278,6.965601733425632,4.918694453639908
7.148206506364922,2.5352503536067927,6.738998585572856,4.583808345120246
7.1562022630834505,2.471624544825308,6.5123954377200794,4.248922236600583
7.1641980198019795,2.4079987360438224,6.285792289867302,3.9140361280809204
7.172193776520508,2.344372927262337,6.059189142014526,3.579150019561258
7.180189533239037,2.2807471184808517,5.83258599416175,3.2442639110415956
7.188185289957566,2.2171213096993663,5.605982846308974,2.909377802521933
7.196181046676095,2.1534955009178813,5.379379698456197,2.5744916940022704
7.204176803394624,2.089869692136396,5.152776550603421,2.2396055854826082
7.212172560113153,2.0262438833549106,4.926173402750644,1.9047194769629456
7.220168316831682,1.9626180745734252,4.699570254897868,1.569833368443283
7.228164073550211,6.751596580776145,0.17704495418480656,2.343894471434702
7.23615983026874,6.3420747801488835,0.5690977645900649,2.484950049197445
7.24415558698727,5.932552979521576,0.9611505749953668,2.6260056269602043
7.2521513437057985,5.523031178894315,1.3532033854006251,2.767061204722947
7.260147100424327,5.113509378267053,1.7452561958058836,2.90811678248569
7.268142857142856,4.703987577639792,2.137309006211142,3.0491723602484333
7.276138613861385,4.29446577701253,2.5293618166164005,3.1902279380111764
7.284134370579914,3.884943976385268,2.9214146270216585,3.3312835157739196
7.292130127298443,3.4754221757580064,3.313467437426917,3.4723390935366627
7.300125884016972,3.0659003751307448,3.705520247832175,3.613394671299406
7.308121640735501,2.656378574503483,4.097573058237433,3.754450249062149
7.31611739745403,2.246856773876222,4.489625868642691,3.895505826824892
7.324113154172559,3.1717482319641936,8.237001414427755,4.412472418672128
7.332108910891088,7.972792079205845,6.31207920792152,1.1726336633674808
7.3401046676096176,9.29517716106584,5.722375912468114,0.5465271098538436
7.3481004243281465,9.52383742216584,5.499965208343515,0.5358661008958049
7.356096181046675,9.75249768326584,5.277554504218918,0.5252050919377663
7.364091937765204,9.98115794436584,5.055143800094319,0.5145440829797278
7.372087694483733,10.20981820546584,4.83273309596972,0.5038830740216891
7.380083451202262,10.438478466565842,4.610322391845123,0.4932220650636505
7.388079207920791,10.667138727665842,4.387911687720524,0.48256105610561195
7.39607496463932,10.895798988765842,4.165500983595926,0.47190004714757333
7.404070721357849,11.124459249865842,3.9430902794713276,0.4612390381895347
7.412066478076378,11.353119510965842,3.7206795753467294,0.45057802923149615
7.420062234794907,11.642732673266119,3.4583026874124014,0.4396265912305588
7.428057991513436,3.1998679259630998,7.8250635275509435,6.680174233091555
7.436053748231965,3.229099724719012,7.5610316040821015,6.31873163906257
7.4440495049504944,3.2583315234749275,7.296999680613229,5.957289045033544
7.452045261669023,3.28756332223084,7.032967757144387,5.59584645100456
7.460041018387552,3.316795120986752,6.7689358336755445,5.234403856975574
7.468036775106081,3.346026919742664,6.5049039102067026,4.872961262946589
7.47603253182461,3.3752587184985763,6.24087198673786,4.511518668917605
7.484028288543139,3.4044905172544886,5.976840063269018,4.15007607488862
7.492024045261668,3.4337223160104005,5.712808139800176,3.7886334808596347
7.500019801980197,3.4629541147663128,5.448776216331334,3.4271908868306498
7.508015558698726,3.492185913522225,5.184744292862491,3.0657482928016644
7.516011315417255,3.5214177122781374,4.920712369393648,2.7043056987726795
7.524007072135784,-1.8681782178261401,15.939291371999634,6.998531824615323
7.532002828854313,1.5124566979018887,11.48403219295158,3.6821325288779283
7.539998585572842,1.713933109382343,10.83895786185769,3.497313943894411
7.547994342291371,1.9154095208627746,10.193883530763873,3.312495358910915
7.5559900990099,2.116885932343206,9.548809199670057,3.1276767739274183
7.563985855728429,2.318362343823638,8.903734868576239,2.942858188943922
7.571981612446958,2.51983875530407,8.258660537482422,2.7580396039604254
7.579977369165487,2.7213151667845015,7.613586206388605,2.5732210189769287
7.587973125884016,2.922791578264933,6.968511875294787,2.3884024339934324
7.595968882602545,3.124267989745365,6.32343754420097,2.2035838490099358
7.603964639321074,3.325744401225797,5.678363213107152,2.018765264026439
7.611960396039603,3.5272208127062283,5.033288882013336,1.8339466790429428
7.619956152758132,3.72869722418666,4.3882145509195185,1.6491280940594462
7.627951909476661,4.818545968882899,7.183662423383854,6.044103724656728
7.6359476661951895,4.23369260842613,8.275727730718526,0.22144195286299057
7.643943422913719,4.522707769813887,8.078708691575425,0.44918625939639484
7.651939179632248,4.8117229312016105,7.881689652432349,0.6769305659297737
7.659934936350777,5.100738092589334,7.684670613289272,0.9046748724631528
7.667930693069306,5.389753253977059,7.487651574146195,1.1324191789965317
7.675926449787835,5.678768415364782,7.290632535003118,1.3601634855299107
7.683922206506364,5.967783576752506,7.093613495860041,1.5879077920632896
7.691917963224893,6.25679873814023,6.896594456716964,1.8156520985966687
7.699913719943422,6.545813899527953,6.699575417573888,2.0433964051300477
7.707909476661951,6.834829060915677,6.5025563784308105,2.271140711663427
7.71590523338048,7.1238442223034015,6.305537339287733,2.4988850181968054
7.7239009900990085,11.255524752473786,3.465148514852831,-0.09758415841523427
7.7318967468175375,11.461897619549225,2.676465135875277,0.5416000481506804
7.739892503536067,11.295177585843708,2.7360080050558184,0.6879053838514396
7.747888260254596,11.12845755213821,2.7955508742363535,0.8342107195521826
7.755884016973125,10.961737518432713,2.855093743416888,0.9805160552529255
7.763879773691654,10.795017484727214,2.9146366125974232,1.1268213909536684
7.771875530410183,10.628297451021718,2.974179481777958,1.2731267266544115
7.779871287128712,10.461577417316219,3.033722350958493,1.4194320623551544
7.787867043847241,10.294857383610722,3.0932652201390276,1.5657373980558973
7.79586280056577,10.128137349905224,3.1528080893195627,1.7120427337566402
7.803858557284299,9.961417316199725,3.2123509585000978,1.858348069457383
7.811854314002828,9.794697282494228,3.2718938276806324,2.004653405158126
7.8198500707213565,9.62797724878873,3.3314366968611675,2.150958740858869
7.827845827439885,1.366539603961444,5.997698019802006,5.278158415841605
7.835841584158414,-1.1896785553556284,18.63909855985621,9.50454444194427
7.843837340876944,-0.7441877009129962,17.56730371608601,9.134649832840466
7.851833097595473,-0.2986968464704134,16.495508872315927,8.764755223736703
7.859828854314002,0.14679400797216924,15.423714028545847,8.394860614632938
7.867824611032531,0.5922848624147519,14.351919184775767,8.024966005529174
7.87582036775106,1.0377757168573345,13.280124341005687,7.655071396425411
7.883816124469589,1.4832665712999173,12.208329497235606,7.285176787321648
7.891811881188118,1.9287574257425002,11.136534653465525,6.9152821782178835
7.899807637906647,2.374248280185083,10.064739809695444,6.545387569114119
7.907803394625176,2.8197391346276657,8.992944965925364,6.175492960010356
7.9157991513437045,3.2652299890702485,7.921150122155284,5.8055983509065925
7.923794908062233,2.6569028760024493,5.0896218764747,-1.9216270627015763
7.931790664780762,3.614303818953105,4.684477793493688,-1.0947790664783708
7.939786421499292,4.664546463932018,4.429413154172582,0.3176713578499508
7.947782178217821,3.3762548835964825,10.914259432700046,2.0247614396574836
7.95577793493635,3.225524064375567,10.722685423754752,1.9814330823043744
7.963773691654879,3.074793245154652,10.53111141480946,1.9381047249512653
7.971769448373408,2.9240624259337364,10.339537405864169,1.8947763675981564
7.979765205091937,2.773331606712821,10.147963396918875,1.8514480102450475
7.987760961810466,2.6226007874919057,9.956389387973584,1.8081196528919383
7.995756718528995,2.4718699682709904,9.764815379028292,1.7647912955388294
8.003752475247524,2.321139149050075,9.573241370082998,1.7214629381857203
8.011748231966052,2.1704083298291597,9.381667361137707,1.6781345808326114
8.019743988684581,2.0196775106082443,9.190093352192413,1.6348062234795022
8.02773974540311,9.619389402676495,4.6050571210967775,-0.01380219780231176
8.03573550212164,9.855571754977658,4.260624523990914,0.7316483516482366
8.043731258840168,9.90950167497954,4.085138092756654,1.1093760142931384
8.051727015558697,9.837680140946437,4.026221990620125,1.233380381647165
8.059722772277226,9.765858606913337,3.967305888483597,1.3573847490011917
8.067718528995755,9.694037072880235,3.9083897863470685,1.4813891163552184
8.075714285714284,9.622215538847133,3.84947368421054,1.605393483709245
8.083710042432813,9.550394004814033,3.7905575820740114,1.7293978510632715
8.091705799151343,9.478572470780914,3.73164147993747,1.853402218417326
8.099701555869872,6.264543768662556,5.302266226622672,3.163940908376565
8.107697312588401,-14.141043847242042,12.923154172559954,14.586599717115032
8.11569306930693,-16.107261566156694,10.13756723672366,22.291489468946956
8.12368882602546,-14.543800372894518,10.373587437315146,21.072354635463615
8.131684582743988,-12.98033917963234,10.609607637906633,19.85321980198027
8.139680339462517,-11.416877986370164,10.845627838498121,18.63408496849693
8.147676096181046,-9.853416793107986,11.081648039089607,17.414950135013584
8.155671852899575,-8.289955599845808,11.317668239681094,16.19581530153024
8.163667609618104,-6.726494406583631,11.55368844027258,14.976680468046895
8.171663366336633,-5.163033213321453,11.789708640864067,13.757545634563552
8.179659123055162,-3.5995720200592753,12.025728841455553,12.538410801080207
8.18765487977369,-2.036110826797099,12.261749042047041,11.319275967596864
8.19565063649222,-0.47264963353492107,12.497769242638528,10.100141134113521
8.203646393210748,1.090811559727257,12.733789443230014,8.881006300630178
8.211642149929277,2.654272752989435,12.969809643821502,7.661871467146833
8.219637906647806,2.8114455445576456,8.428854314014671,4.649244695902868
8.227633663366335,1.947288846231565,7.182206102242854,3.19262285310161
8.235629420084864,1.9325211731085674,7.297083913056006,3.326021447334211
8.243625176803393,1.9177534999855699,7.411961723869157,3.4594200415668124
8.251620933521922,1.9029858268625726,7.526839534682308,3.5928186357994134
8.25961669024045,1.888218153739575,7.64171734549546,3.726217230032015
8.26761244695898,1.8734504806165777,7.756595156308611,3.8596158242646164
8.275608203677509,1.8586828074935802,7.871472967121763,3.9930144184972174
8.283603960396038,1.8439151343705826,7.9863507779349145,4.126413012729818
8.291599717114568,1.829147461247582,8.101228588748091,4.259811606962449
8.299595473833097,1.8143797881245844,8.216106399561243,4.393210201195052
8.307591230551626,1.7996121150015871,8.330984210374394,4.526608795427652
8.315586987270155,1.7848444418785896,8.445862021187546,4.660007389660254
8.323582743988684,2.1085417256011763,8.48471428571428,5.185899575671909
8.331578500707213,1.9634809052344095,7.210584158416433,4.026872701557251
8.339574257425742,3.9701327177661505,5.190654800311493,4.908870063410824
8.34757001414427,4.014064459736495,5.181311444146021,4.968074599113192
8.3555657708628,4.057996201706841,5.171968087980549,5.027279134815558
8.363561527581329,4.101927943677185,5.162624731815077,5.086483670517925
8.371557284299858,4.1458596856475305,5.1532813756496045,5.145688206220291
8.379553041018386,4.189791427617876,5.143938019484133,5.2048927419226585
8.387548797736915,4.23372316958822,5.13459466331866,5.264097277625025
8.395544554455444,4.277654911558566,5.125251307153189,5.323301813327392
8.403540311173973,4.321586653528911,5.115907950987716,5.382506349029758
8.411536067892502,4.365518395499255,5.106564594822244,5.441710884732125
8.419531824611031,4.409450137469601,5.097221238656772,5.500915420434492
8.42752758132956,3.5612362093352203,6.181694483733936,5.2612362093352205
8.435523338048089,3.47698939179634,6.25700530410183,4.988905940594115
8.443519094766618,3.6328352819006775,5.776232897069122,4.930903460870478
8.451514851485147,3.799734051886172,5.579577766637457,5.068045870409802
8.459510608203676,3.966632821871667,5.382922636205792,5.205188279949126
8.467506364922205,4.133531591857162,5.1862675057741265,5.34233068948845
8.475502121640734,4.300430361842657,4.98961237534246,5.479473099027774
8.483497878359263,4.467329131828151,4.792957244910795,5.616615508567098
8.491493635077793,4.634227901813683,4.596302114479086,5.753757918106453
8.499489391796322,4.801126671799178,4.399646984047421,5.890900327645777
8.507485148514851,4.968025441784673,4.202991853615755,6.0280427371851015
8.51548090523338,5.1349242117701674,4.00633672318409,6.165185146724426
8.523476661951909,5.907441301272982,3.595705799151345,6.845514851485146
8.531472418670438,5.179687128712826,3.391057142857162,6.551414427156877
8.539468175388967,5.4372700580402515,3.233024890666434,6.80979365621293
8.547463932107496,5.637991123250219,3.076602155782109,6.707135492366989
8.555459688826025,5.838712188460187,2.9201794208977843,6.604477328521049
8.563455445544554,6.039433253670156,2.7637566860134593,6.5018191646751085
8.571451202263082,6.240154318880124,2.6073339511291342,6.399161000829167
8.579446958981611,6.440875384090091,2.4509112162448092,6.296502836983227
8.58744271570014,6.64159644930006,2.2944884813604842,6.193844673137287
8.59543847241867,6.842317514510028,2.1380657464761597,6.0911865092913455
8.603434229137198,7.043038579719996,1.9816430115918346,5.988528345445405
8.611429985855727,7.243759644929964,1.8252202767075099,5.885870181599464
8.619425742574256,7.444480710139932,1.6687975418231848,5.783212017753524
8.627421499292785,5.161798025885519,1.267248224361652,4.740586287661015
8.635417256011314,5.233845812230973,1.1012288026038095,4.770677845203867
8.643413012729843,5.305893598576427,0.935209380845967,4.800769402746718
8.651408769448372,5.377941384921881,0.7691899590881245,4.830860960289568
8.6594045261669,5.449989171267335,0.603170537330282,4.860952517832419
8.66740028288543,5.52203695761279,0.43715111557243946,4.89104407537527
8.675396039603958,5.594084743958244,0.2711316938145969,4.921135632918121
8.683391796322487,5.666132530303698,0.10511227205675433,4.951227190460972
8.691387553041018,5.738180316649168,-0.060907149701125096,4.9813187480038295
8.699383309759547,5.810228102994622,-0.22692657145896744,5.01141030554668
8.707379066478076,5.882275889340077,-0.39294599321681,5.041501863089531
8.715374823196605,5.954323675685531,-0.5589654149746526,5.071593420632381
8.723370579915134,5.805405233380646,-1.3963295615275921,4.690265205092185
8.731366336633663,6.679565314595962,-3.156778026189692,5.10527403385502
8.739362093352192,6.79047419811104,-3.350481680886957,4.935471673434647
8.74735785007072,6.901383081626119,-3.5441853355842223,4.765669313014275
8.75535360678925,7.0122919651411975,-3.737888990281488,4.595866952593902
8.763349363507778,7.123200848656277,-3.931592644978753,4.42606459217353
8.771345120226307,7.234109732171355,-4.125296299676018,4.2562622317531575
8.779340876944836,7.345018615686434,-4.318999954373283,4.086459871332785
8.787336633663365,7.455927499201512,-4.512703609070549,3.916657510912413
8.795332390381894,7.566836382716591,-4.706407263767814,3.7468551504920407
8.803328147100423,7.677745266231669,-4.90011091846508,3.577052790071668
8.811323903818952,7.7886541497467485,-5.093814573162344,3.407250429651296
8.81931966053748,7.899563033261827,-5.28751822785961,3.2374480692309238
8.82731541725601,7.106147871930064,-5.651395911019669,2.910677767776772
8.835311173974539,7.204786704384599,-5.879623479490647,3.1636506364920476
8.843306930693068,7.788603960395835,-6.786633663365129,3.9843811881184465
8.851302687411597,7.893918480698278,-8.024243177976304,4.116172974091914
8.859298444130125,7.778370045192706,-8.127310432262709,3.8398318211612894
8.867294200848654,7.662821609687134,-8.230377686549113,3.5634906682306644
8.875289957567183,7.547273174181562,-8.333444940835518,3.2871495153000394
8.883285714285712,7.431724738675991,-8.436512195121923,3.010808362369414
8.891281471004243,7.316176303170392,-8.53957944940835,2.7344672094387277
8.899277227722772,7.200627867664821,-8.642646703694755,2.4581260565081027
8.9072729844413,7.085079432159249,-8.74571395798116,2.1817849035774777
8.91526874115983,6.969530996653677,-8.848781212267564,1.9054437506468527
8.923264497878359,6.853982561148105,-8.951848466553969,1.6291025977162272
8.931260254596888,6.192555869872672,-9.671848656294184,1.9348861386137566
8.939256011315416,5.624958640199004,-9.637432131883132,2.3065660147295812
8.947251768033945,5.573767416150491,-9.66564704352208,2.13828750264192
8.955247524752474,5.522576192101979,-9.693861955161028,1.9700089905542593
8.963243281471003,5.471384968053465,-9.722076866799974,1.8017304784665984
8.971239038189532,5.420193744004952,-9.750291778438921,1.6334519663789373
8.979234794908061,5.36900251995644,-9.778506690077869,1.4651734542912764
8.98723055162659,5.3178112959079264,-9.806721601716815,1.2968949422036156
8.995226308345119,5.266620071859413,-9.834936513355762,1.1286164301159547
9.003222065063648,5.215428847810901,-9.86315142499471,0.9603379180282936
9.011217821782177,5.1642376237623875,-9.891366336633656,0.7920594059406327
9.019213578500706,5.113046399713875,-9.919581248272603,0.6237808938529716
9.027209335219235,3.712438472419546,-10.31198585572813,0.6515940594055246
9.035205091937764,2.1558419377651856,-12.029100424328155,1.0344632248939152
9.043200848656292,2.2502463835669086,-11.986940979812275,1.048092355664135
9.051196605374821,2.3446508293686317,-11.944781535296395,1.061721486434355
9.05919236209335,2.4390552751703547,-11.902622090780515,1.0753506172045748
9.06718811881188,2.5334597209720777,-11.860462646264635,1.0889797479747947
9.075183875530408,2.6278641667738007,-11.818303201748755,1.1026088787450146
9.083179632248937,2.7222686125755238,-11.776143757232875,1.1162380095152344
9.091175388967468,2.816673058377268,-11.733984312716986,1.1298671402854574
9.099171145685997,2.9110775041789907,-11.691824868201106,1.1434962710556773
9.107166902404526,3.005481949980714,-11.649665423685226,1.1571254018258972
9.115162659123055,3.099886395782437,-11.607505979169346,1.170754532596117
9.123158415841583,2.923079207920649,-11.691198019801908,1.4116188118811162
9.131154172560112,3.0105001140667325,-10.461122462015782,2.577919332025374
9.139149929278641,2.8613319645328863,-10.482530455810554,2.5469680156955845
9.14714568599717,2.71216381499904,-10.503938449605325,2.516016699365795
9.1551414427157,2.562995665465194,-10.525346443400096,2.4850653830360057
9.163137199434228,2.4138275159313483,-10.546754437194867,2.4541140667062162
9.171132956152757,2.264659366397502,-10.568162430989638,2.423162750376427
9.179128712871286,2.115491216863656,-10.589570424784409,2.3922114340466374
9.187124469589815,1.9663230673298098,-10.61097841857918,2.361260117716848
9.195120226308344,1.8171549177959636,-10.63238641237395,2.3303088013870585
9.203115983026873,1.6679867682621177,-10.653794406168721,2.2993574850572696
9.211111739745402,1.5188186187282715,-10.675202399963492,2.26840616872748
9.21910749646393,1.3696504691944253,-10.696610393758263,2.2374548523976907
9.22710325318246,1.8269807123568333,-10.715789507522176,2.2385202520252014
9.235099009900988,2.233618811881329,-10.317960396039934,2.605688118811754
9.243094766619517,2.1462527783390666,-10.16498969488786,2.6295667811679233
9.251090523338046,2.1183628174041975,-10.157089125749312,2.5930147504546484
9.259086280056575,2.090472856469329,-10.149188556610767,2.556462719741373
9.267082036775104,2.06258289553446,-10.14128798747222,2.519910689028098
9.275077793493633,2.034692934599591,-10.133387418333673,2.4833586583148226
9.283073550212162,2.006802973664722,-10.125486849195127,2.446806627601547
9.291069306930693,1.978913012729847,-10.117586280056578,2.410254596888264
9.299065063649222,1.9510230517949783,-10.109685710918033,2.373702566174989
9.30706082036775,1.9231330908601094,-10.101785141779485,2.3371505354617135
9.31505657708628,1.8952431299252406,-10.093884572640938,2.300598504748438
9.323052333804808,1.747113154172566,-9.957909476661962,2.0438175388967283
9.331048090523337,1.543691183404058,-9.45216110325319,2.062570391324828
9.339043847241866,1.5108197391167726,-9.384730221593596,2.242386075750412
9.347039603960395,1.4779482948294869,-9.317299339934001,2.422201760175996
9.355035360678924,1.4450768505422014,-9.249868458274408,2.60201744460158
9.363031117397453,1.4122054062549156,-9.182437576614813,2.7818331290271643
9.371026874115982,1.37933396196763,-9.11500669495522,2.961648813452748
9.37902263083451,1.3464625176803444,-9.047575813295625,3.1414644978783324
9.38701838755304,1.3135910733930587,-8.980144931636032,3.321280182303916
9.395014144271569,1.2807196291057732,-8.912714049976437,3.5010958667295
9.403009900990098,1.2478481848184875,-8.845283168316843,3.6809115511550843
9.411005657708627,1.2149767405312017,-8.77785228665725,3.8607272355806685
9.419001414427155,1.1821052962439162,-8.710421404997655,4.040542920006253
9.426997171145684,0.8774186704387867,-8.593866336633939,4.078676803394758
9.434992927864213,0.6200512336947972,-8.560261826182614,4.023894703756091
9.442988684582742,0.6249375294672316,-8.578296699669963,4.0173204148986335
9.450984441301271,0.6298238252396658,-8.596331573157313,4.010746126041177
9.4589801980198,0.6347101210121002,-8.614366446644661,4.004171837183719
9.466975954738329,0.6395964167845346,-8.63240132013201,3.9975975483262625
9.474971711456858,0.644482712556969,-8.650436193619358,3.9910232594688053
9.482967468175387,0.6493690083294033,-8.668471067106706,3.984448970611348
9.490963224893918,0.6542553041018387,-8.68650594059406,3.9778746817538897
9.498958981612446,0.6591415998742731,-8.704540814081408,3.9713003928964326
9.506954738330975,0.6640278956467075,-8.722575687568757,3.9647261040389754
9.514950495049504,0.6689141914191418,-8.740610561056105,3.9581518151815187
9.522946251768033,0.4357298444130517,-8.780096888260251,3.987999292786442
9.530942008486562,0.3973658803668385,-8.639637496007666,3.8226954875211026
9.538937765205091,0.406221395872306,-8.651072287873948,3.826134522668857
9.54693352192362,0.4150769113777735,-8.662507079740232,3.8295735578166115
9.554929278642149,0.42393242688324106,-8.673941871606516,3.8330125929643657
9.562925035360678,0.43278794238870855,-8.685376663472798,3.83645162811212
9.570920792079207,0.4416434578941761,-8.696811455339082,3.8398906632598746
9.578916548797736,0.4504989733996436,-8.708246247205365,3.843329698407629
9.586912305516265,0.4593544889051111,-8.719681039071649,3.846768733555383
9.594908062234794,0.46821000441057864,-8.73111583093793,3.8502077687031377
9.602903818953322,0.4770655199160462,-8.742550622804215,3.853646803850892
9.610899575671851,0.48592103542151366,-8.753985414670497,3.857085838998646
9.61889533239038,0.4947765509269812,-8.765420206536781,3.860524874146401
9.62689108910891,0.46499009900990496,-8.830742574257417,3.837311881188122
9.634886845827438,0.42900919377652486,-8.90470332390381,3.809826467468179
9.642882602545967,0.3191195190947482,-8.773723479490634,3.7674108910891175
9.650878359264496,0.3488208332587238,-8.772127119402722,3.7751775374644128
9.658874115983025,0.37807113315308954,-8.76210712047697,3.7834769305140252
9.666869872701554,0.4073214330474553,-8.752087121551218,3.7917763235636377
9.674865629420083,0.436571732941821,-8.742067122625466,3.80007571661325
9.682861386138612,0.46582203283618673,-8.732047123699715,3.8083751096628626
9.690857142857142,0.49507233273055895,-8.72202712477396,3.816674502712477
9.698852899575671,0.5243226326249246,-8.71200712584821,3.8249738957620893
9.7068486562942,0.5535729325192904,-8.701987126922457,3.833273288811702
9.71484441301273,0.5828232324136562,-8.691967127996707,3.8415726818613143
9.722840169731258,0.6262234794907946,-8.709465346534635,3.821274398868477
9.730835926449787,0.7974996036495173,-8.585478946795776,3.7079030417955514
9.738831683168316,0.8979298226525791,-8.59962528560548,3.668715047328915
9.746827439886845,0.998360041655641,-8.613771624415186,3.6295270528622785
9.754823196605374,1.0987902606587028,-8.627917963224892,3.590339058395642
9.762818953323903,1.1992204796617647,-8.642064302034596,3.551151063929005
9.770814710042432,1.2996506986648266,-8.656210640844302,3.511963069462369
9.77881046676096,1.4000809176678883,-8.670356979654006,3.4727750749957322
9.78680622347949,1.5005111366709503,-8.684503318463712,3.4335870805290956
9.794801980198018,1.6009413556740122,-8.698649657273416,3.394399086062459
9.802797736916547,1.701371574677074,-8.712795996083122,3.355211091595822
9.810793493635076,1.8018017936801356,-8.726942334892827,3.316023097129186
9.818789250353605,1.9022320126831977,-8.741088673702532,3.2768351026625493
9.826785007072134,1.9549405940592572,-9.074035360678835,3.1560021216408303
9.834780763790663,2.064738915195866,-9.12914553225509,3.0895996248693196
9.842776520509192,2.0738645071028827,-9.121062865137446,3.087948327286145
9.85077227722772,2.082990099009899,-9.112980198019804,3.086297029702971
9.85876803394625,2.092115690916916,-9.104897530902159,3.0846457321197964
9.866763790664779,2.1012412828239326,-9.096814863784516,3.082994434536622
9.874759547383308,2.1103668747309494,-9.088732196666873,3.081343136953447
9.882755304101837,2.1194924666379658,-9.080649529549229,3.079691839370273
9.890751060820367,2.1286180585449848,-9.072566862431584,3.078040541787098
9.898746817538896,2.137743650452001,-9.064484195313941,3.0763892442039236
9.906742574257425,2.146869242359018,-9.056401528196298,3.074737946620749
9.914738330975954,2.1559948342660347,-9.048318861078654,3.073086649037575
9.922734087694483,2.2135127298444828,-9.372326732673105,3.223472418670345
9.930729844413012,2.518822715098253,-9.887070916970115,3.334819329501342
9.93872560113154,2.587041830930808,-9.900085286948148,3.287270095398602
9.94672135785007,2.655260946763362,-9.913099656926178,3.2397208612958615
9.954717114568599,2.723480062595917,-9.926114026904209,3.1921716271931206
9.962712871287128,2.791699178428471,-9.93912839688224,3.1446223930903803
9.970708628005656,2.8599182942610257,-9.952142766860272,3.0970731589876395
9.978704384724185,2.92813741009358,-9.965157136838302,3.049523924884899
9.986700141442714,2.996356525926134,-9.978171506816333,3.0019746907821583
9.994695898161243,3.064575641758689,-9.991185876794363,2.954425456679418
10.002691654879772,3.132794757591243,-10.004200246772395,2.9068762225766775
10.010687411598301,3.201013873423798,-10.017214616750426,2.8593269884739367
10.01868316831683,3.269232989256352,-10.030228986728456,2.8117777543711964
10.026678925035359,3.3930466760961266,-10.39114992927843,3.362995756718815
10.034674681753888,3.733526378253568,-11.65801733079712,1.7799991708530767
10.042670438472417,3.8649508852362855,-11.64855109008438,1.584240989123575
10.050666195190946,3.9963753922190026,-11.639084849371638,1.3884828073940731
10.058661951909475,4.12779989920172,-11.629618608658898,1.1927246256645714
10.066657708628004,4.259224406184437,-11.620152367946156,0.9969664439350696
10.074653465346532,4.390648913167154,-11.610686127233414,0.8012082622055678
10.082649222065061,4.522073420149871,-11.601219886520674,0.6054500804760661
10.090644978783592,4.653497927132618,-11.59175364580793,0.4096918987465208
10.098640735502121,4.784922434115335,-11.58228740509519,0.2139337170170188
10.10663649222065,4.916346941098052,-11.572821164382448,0.01817553528751703
10.114632248939179,5.047771448080769,-11.563354923669706,-0.17758264644198474
10.122628005657708,4.9965884016975695,-11.442346534653378,-1.2065445544550362
10.130623762376237,5.4037470456723335,-10.892508463749593,-2.47533663366337
10.138619519094766,5.275213107025014,-10.933347006129177,-2.454014615747293
10.146615275813295,5.146679168377695,-10.97418554850876,-2.432692597831216
10.154611032531824,5.018145229730375,-11.015024090888343,-2.411370579915139
10.162606789250352,4.889611291083055,-11.055862633267926,-2.3900485619990617
10.170602545968881,4.761077352435735,-11.09670117564751,-2.3687265440829846
10.17859830268741,4.632543413788415,-11.137539718027092,-2.3474045261669074
10.18659405940594,4.504009475141095,-11.178378260406676,-2.3260825082508307
10.194589816124468,4.375475536493775,-11.219216802786258,-2.3047604903347536
10.202585572842997,4.2469415978464555,-11.260055345165842,-2.2834384724186765
10.210581329561526,4.118407659199136,-11.300893887545426,-2.2621164545025993
10.218577086280055,3.9898737205518158,-11.341732429925008,-2.240794436586522
10.226572842998584,6.31263224893774,-11.09543140028327,-2.274524752478607
10.234568599717113,6.3382315249959005,-10.85781417773118,-0.945357180879542
10.242564356435642,6.026826892366742,-10.697039284573663,-0.33088757585452866
10.25056011315417,5.715422259737583,-10.536264391416147,0.2835820291704845
10.2585558698727,5.404017627108424,-10.375489498258629,0.8980516341954978
10.266551626591228,5.092612994479265,-10.214714605101111,1.5125212392205112
10.274547383309757,4.781208361850107,-10.053939711943595,2.1269908442455243
10.282543140028286,4.469803729220947,-9.893164818786078,2.7414604492705372
10.290538896746817,4.15839909659172,-9.732389925628524,3.355930054295687
10.298534653465346,3.846994463962561,-9.571615032471009,3.9703996593207007
10.306530410183875,3.535589831333402,-9.41084013931349,4.584869264345714
10.314526166902404,3.224185198704243,-9.250065246155973,5.1993388693707265
10.322521923620933,5.3455898161243995,-9.239884016973066,4.813364922206533
10.330517680339462,4.703189297501149,-5.781770391325016,5.868626591230467
10.33851343705799,4.921662883361514,-4.4039924103908685,6.5661729913409435
10.34650919377652,4.604952909925152,-4.232571187083872,6.70902401076344
10.354504950495048,4.288242936488789,-4.0611499637768755,6.851875030185937
10.362500707213577,3.971532963052427,-3.889728740469879,6.994726049608435
10.370496463932106,3.654822989616065,-3.7183075171628825,7.1375770690309315
10.378492220650635,3.338113016179703,-3.5468862938558856,7.280428088453429
10.386487977369164,3.0214030427433403,-3.375465070548889,7.423279107875926
10.394483734087693,2.7046930693069777,-3.2040438472418926,7.566130127298424
10.402479490806222,2.3879830958706156,-3.0326226239348957,7.70898114672092
10.41047524752475,2.071273122434253,-2.861201400627899,7.851832166143417
10.41847100424328,1.754563148997891,-2.6897801773209027,7.994683185565915
10.426466760961809,1.9980615275814209,2.2765820367742404,4.852989391796511
10.434462517680338,1.9519879893558398,2.594308680747001,4.787371490902118
10.442458274398867,1.9337603744636,2.6396405557020506,4.781340793038143
10.450454031117395,1.9155327595713605,2.6849724306571,4.775310095174167
10.458449787835924,1.897305144679121,2.730304305612149,4.769279397310193
10.466445544554453,1.8790775297868811,2.775636180567199,4.763248699446217
10.474441301272982,1.8608499148946416,2.8209680555222483,4.757218001582242
10.482437057991511,1.842622300002402,2.8662999304772976,4.751187303718266
10.490432814710042,1.8243946851101582,2.911631805432357,4.74515660585429
10.49842857142857,1.8061670702179187,2.956963680387407,4.739125907990315
10.5064243281471,1.787939455325679,3.002295555342456,4.73309521012634
10.514420084865629,1.7697118404334395,3.0476274302975055,4.7270645122623645
10.522415841584158,1.7514842255411998,3.0929593052525552,4.721033814398389
10.530411598302686,1.7332566106489602,3.1382911802076046,4.715003116534414
10.538407355021215,1.7150289957567206,3.183623055162654,4.708972418670439
10.546403111739744,1.7,3.630007072135353,4.686461103253201
10.554398868458273,1.4300565770863403,5.609915134369637,6.453525459688853
10.562394625176802,1.3743093950043046,6.315027107423527,6.098551276629914
10.570390381895331,1.346530322693539,6.569160282302133,5.729345149389799
10.57838613861386,1.3187512503827736,6.823293457180739,5.360139022149683
10.586381895332389,1.290972178072008,7.077426632059344,4.990932894909568
10.594377652050918,1.2631931057612424,7.3315598069379515,4.621726767669452
10.602373408769447,1.2354140334504768,7.585692981816557,4.252520640429336
10.610369165487976,1.2076349611397112,7.839826156695163,3.8833145131892204
10.618364922206505,1.1798558888289457,8.09395933157377,3.5141083859491045
10.626360678925034,1.15207681651818,8.348092506452375,3.144902258708989
10.634356435643562,1.1242977442074147,8.602225681330982,2.7756961314688735
10.642352192362091,1.096518671896649,8.856358856209589,2.4064900042287576
10.65034794908062,1.0687395995858835,9.110492031088194,2.037283876988642
10.65834370579915,1.947539199838424,7.797761466963041,-1.057135431400435
10.666339462517678,1.7208023843201288,7.742362295413231,-0.5833868458275742
10.674335219236207,1.4940655688018338,7.68696312386342,-0.10963826025471324
10.682330975954736,1.2673287532835387,7.63156395231361,0.3641103253181477
10.690326732673267,0.1810035360678754,10.11615417256013,0.5780134370579879
10.698322489391796,0.29785580925437916,10.01015328349163,0.6021149323095543
10.706318246110325,0.41470808244088286,9.904152394423129,0.6262164275611205
10.714314002828853,0.5315603556273867,9.798151505354628,0.6503179228126867
10.722309759547382,0.6484126288138904,9.692150616286128,0.6744194180642531
10.730305516265911,0.7652649020003942,9.586149727217629,0.6985209133158193
10.73830127298444,0.8821171751868979,9.480148838149129,0.7226224085673856
10.74629702970297,0.9989694483734017,9.374147949080628,0.7467239038189519
10.754292786421498,1.1158217215599053,9.268147060012128,0.7708253990705182
10.762288543140027,1.998519700949792,8.107612446959015,-1.2680290967872268
10.770284299858556,1.1024238229946157,7.819765205091961,-1.2925874924227096
10.778280056577085,-0.32410052910055076,9.074482162501944,-0.3304782335376482
10.786275813295614,-0.22440035273370804,9.170727382262015,-0.29020331080728007
10.794271570014143,-0.12470017636686528,9.266972602022086,-0.24992838807691192
10.802267326732672,-0.02500000000002256,9.363217821782156,-0.20965346534654378
10.8102630834512,0.07470017636682019,9.459463041542227,-0.16937854261617563
10.81825884016973,0.17440035273366294,9.555708261302298,-0.12910361988580749
10.826254596888258,0.27410052910050564,9.65195348106237,-0.08882869715543934
10.834250353606787,0.37380070546734834,9.74819870082244,-0.048553774425071194
10.842246110325316,0.47350088183419115,9.844443920582512,-0.008278851694703049
10.850241867043845,0.5732010582010338,9.940689140342581,0.0319960710356651
10.858237623762374,0.7688151815180366,9.899610561056209,0.005059405940646092
10.866233380480903,0.8928289314645832,8.327544760190278,-1.6622980840940977
10.874229137199432,0.865788736016467,8.415352706699215,-1.7485068792593284
10.88222489391796,0.8387485405683509,8.50316065320815,-1.8347156744245587
10.890220650636492,0.8117083451202287,8.590968599717106,-1.9209244695898082
10.89821640735502,0.7846681496721126,8.678776546226043,-2.007133264755039
10.90621216407355,0.7576279542239964,8.766584492734978,-2.0933420599202694
10.914207920792078,0.7305877587758803,8.854392439243915,-2.1795508550854996
10.922203677510607,0.6958497171145761,9.108342644978688,-2.1948963932107732
10.930199434229136,1.0510466760961557,9.463012729844515,-2.24768033946245
10.938195190947665,1.1111540981165773,8.479338941412927,-2.321756867416067
10.946190947666194,1.1174665376312054,8.534187026973363,-2.31179724062632
10.954186704384723,1.1237789771458337,8.5890351125338,-2.3018376138365735
10.962182461103252,1.1300914166604619,8.643883198094237,-2.2918779870468264
10.97017821782178,1.1364038561750902,8.698731283654674,-2.28191836025708
10.97817397454031,1.1427162956897186,8.75357936921511,-2.271958733467333
10.986169731258839,1.1490287352043467,8.808427454775545,-2.261999106677586
10.994165487977368,1.155341174718975,8.863275540335982,-2.252039479887839
11.002161244695897,2.2556017118195393,9.109217749247449,-2.570396366010236
11.010157001414425,2.2358515093267624,9.120015437807513,-2.540463533166512
11.018152758132954,2.216101306833986,9.13081312636758,-2.5105307003227884
11.026148514851483,2.196351104341209,9.141610814927644,-2.4805978674790645
11.034144271570012,2.1766009018484325,9.152408503487708,-2.4506650346353407
11.042140028288541,2.1568506993556555,9.163206192047772,-2.420732201791617
11.05013578500707,2.137100496862879,9.174003880607838,-2.390799368947893
11.058131541725599,2.117350294370102,9.184801569167902,-2.3608665361041687
11.066127298444128,2.0976000918773257,9.195599257727967,-2.330933703260445
11.074123055162657,2.0778498893845487,9.206396946288033,-2.301000870416721
11.082118811881186,2.0580996868917723,9.217194634848097,-2.2710680375729972
11.090114568599716,2.038349484398991,9.227992323408163,-2.2411352047292667
11.098110325318245,2.0185992819062144,9.238790011968229,-2.211202371885543
11.106106082036774,1.9988490794134375,9.249587700528293,-2.1812695390418186
11.114101838755303,1.9790988769206608,9.260385389088357,-2.151336706198095
11.122097595473832,1.6605337533752986,9.31075671852898,-2.1735019930564268
11.130093352192361,2.0319729972997136,9.454680339462511,-2.378484119840546
11.13808910891089,2.189126560482134,9.505893671975892,-2.460744296168747
11.146084865629419,2.223890720127912,9.504155463993603,-2.472911752044769
11.154080622347948,2.2586548797736894,9.502417256011315,-2.485079207920791
11.162076379066477,2.2934190394194673,9.500679048029026,-2.4972466637968136
11.170072135785006,2.328183199065245,9.498940840046737,-2.5094141196728357
11.178067892503535,2.362947358711023,9.497202632064448,-2.5215815755488578
11.186063649222064,2.3977115183568003,9.49546442408216,-2.5337490314248803
11.194059405940592,2.4324756780025782,9.493726216099871,-2.5459164873009024
11.202055162659121,2.467239837648356,9.491988008117582,-2.5580839431769244
11.21005091937765,2.5020039972941337,9.490249800135294,-2.5702513990529465
11.21804667609618,2.5367681569399116,9.488511592153005,-2.582418854928969
11.226042432814708,2.422101838755502,9.44295721357856,-2.5536481612447495
11.234038189533237,1.9845685997167768,9.442319660537569,-2.561499292786139
11.242033946251766,2.7916108006585483,9.003062628979519,-2.8559426345444923
11.250029702970295,2.711522155494267,9.021675701996422,-2.8347080019477433
11.258025459688824,2.631433510329985,9.040288775013327,-2.8134733693509943
11.266021216407353,2.5513448651657034,9.05890184803023,-2.7922387367542454
11.274016973125882,2.471256220001422,9.077514921047133,-2.7710041041574964
11.28201272984441,2.3911675748371404,9.096127994064036,-2.7497694715607475
11.290008486562941,2.311078929672841,9.114741067080944,-2.7285348389639936
11.29800424328147,2.230990284508559,9.133354140097847,-2.7073002063672447
11.306,2.733,8.173,-2.787
