accel_time_list,vertical_Accel_x,vertical_Accel_y,vertical_Accel_z
0.0,-0.786,0.137,-10.314
0.00799604743083004,-0.5343943785682916,-0.6133043478260869,-9.998982872200264
0.01599209486166008,1.1351820720165355,0.9490664684338398,-8.80645886064474
0.02398814229249012,0.9231767777495739,0.8168749320085578,-8.88055067628821
0.03198418972332016,0.7111714834826123,0.6846833955832758,-8.954642491931683
0.039980237154150194,0.4991661892156507,0.5524918591579939,-9.028734307575153
0.04797628458498024,0.287160894948689,0.4203003227327119,-9.102826123218625
0.055972332015810276,0.07515560068172755,0.28810878630743,-9.176917938862095
0.06396837944664031,-0.13684969358523413,0.15591724988214806,-9.251009754505567
0.07196442687747036,-0.3488549878521958,0.023725713456866027,-9.325101570149037
0.07996047430830039,-0.5608602821191571,-0.10846582296841567,-9.399193385792508
0.08795652173913043,-0.7728655763861187,-0.2406573593936978,-9.47328520143598
0.09595256916996048,-0.9848708706530804,-0.37284889581897973,-9.54737701707945
0.10394861660079051,-1.196876164920042,-0.5050404322442617,-9.621468832722922
0.11194466403162055,-1.4088814591870038,-0.6372319686695436,-9.695560648366392
0.11994071146245058,-1.6208867534539648,-0.7694235050948255,-9.769652464009862
0.12793675889328063,-0.5069723320158125,-0.37883794466403126,-9.999351778656125
0.13593280632411067,-0.35277466150870407,-0.12353035909511395,-10.040913842401817
0.14392885375494072,-0.38212185686653777,-0.13637507358506434,-10.00306021360693
0.15192490118577073,-0.4114690522243713,-0.14921978807501468,-9.965206584812044
0.15992094861660078,-0.440816247582205,-0.16206450256496507,-9.927352956017156
0.16791699604743082,-0.47016344294003865,-0.17490921705491547,-9.88949932722227
0.17591304347826087,-0.49951063829787234,-0.18775393154486586,-9.851645698427383
0.1839090909090909,-0.528857833655706,-0.20059864603481625,-9.813792069632497
0.19190513833992096,-0.5582050290135396,-0.21344336052476665,-9.775938440837608
0.19990118577075097,-0.5875522243713733,-0.22628807501471698,-9.738084812042722
0.20789723320158102,-0.6168994197292069,-0.23913278950466738,-9.700231183247835
0.21589328063241106,-0.6462466150870406,-0.25197750399461777,-9.662377554452949
0.2238893280632411,-0.6755938104448742,-0.26482221848456816,-9.624523925658062
0.23188537549407115,-0.47918972332015647,-0.3924328063241087,-9.686422924901185
0.23988142292490117,-0.3198428623954408,-1.1095103410239913,-9.870105662285136
0.2478774703557312,-0.2888814229249012,-1.0970513833992095,-9.873173913043479
0.25587351778656126,-0.2579199834543616,-1.084592425774428,-9.87624216380182
0.2638695652173913,-0.22695854398382204,-1.0721334681496462,-9.87931041456016
0.27186561264822134,-0.19599710451328248,-1.0596745105248644,-9.882378665318504
0.2798616600790514,-0.1650356650427429,-1.0472155529000828,-9.885446916076845
0.28785770750988143,-0.1340742255722033,-1.034756595275301,-9.888515166835187
0.2958537549407115,-0.10311278610166372,-1.0222976376505193,-9.891583417593528
0.30384980237154147,-0.07215134663112432,-1.0098386800257377,-9.89465166835187
0.3118458498023715,-0.04118990716058474,-0.9973797224009561,-9.897719919110212
0.31984189723320156,-0.010228467690045151,-0.9849207647761743,-9.900788169868553
0.3278379446640316,-0.5068093645484975,-0.584506840985102,-9.708362420188505
0.33583399209486164,0.06829096989966299,-0.5519075706901796,-9.914414411675281
0.3438300395256917,0.14943224167137242,-1.2473416149068313,-10.458551383399211
0.35182608695652173,0.0730890269151141,-1.4777039337474114,-10.401246376811596
0.3598221343873518,-0.0032541878411442293,-1.708066252587991,-10.34394137022398
0.3678181818181818,-0.07959740259740256,-1.9384285714285712,-10.286636363636365
0.37581422924901187,-0.15594061735366088,-2.1687908902691513,-10.229331357048748
0.3838102766798419,-0.2322838321099192,-2.399153209109731,-10.172026350461133
0.3918063241106719,-0.308627046866177,-2.6295155279503093,-10.11472134387352
0.39980237154150194,-0.38497026162243525,-2.8598778467908894,-10.057416337285904
0.407798418972332,-0.46131347637869363,-3.090240165631469,-10.000111330698287
0.41579446640316203,-0.5376566911349518,-3.320602484472049,-9.942806324110672
0.4237905138339921,-0.6139999058912102,-3.5509648033126293,-9.885501317523056
0.4317865612648221,5.258845849802377,1.5771561264822098,-9.586594861660075
0.43978260869565217,4.208730434782609,2.134582608695652,-10.162443478260869
0.4477786561264822,3.9549481909394957,2.105796837944664,-10.138209303739739
0.45577470355731226,3.7011659470963822,2.0770110671936757,-10.113975129218607
0.4637707509881423,3.4473837032532684,2.0482252964426877,-10.089740954697477
0.4717667984189723,3.1936014594101567,2.0194395256916997,-10.065506780176346
0.47976284584980233,2.9398192155670433,1.9906537549407115,-10.041272605655214
0.4877588932806324,2.6860369717239294,1.9618679841897235,-10.017038431134084
0.4957549407114624,2.432254727880816,1.9330822134387353,-9.992804256612953
0.5037509881422925,1.1955691699604793,1.7293320158102745,-9.804035573122535
0.5117470355731225,0.9450721343873518,1.847482860842306,-9.510199672890828
0.5197430830039526,0.9190849802371541,1.864646790241243,-9.483178547090091
0.5277391304347826,0.8930978260869565,1.8818107196401799,-9.456157421289355
0.5357351778656126,0.8671106719367588,1.8989746490391166,-9.429136295488618
0.5437312252964427,0.8411235177865612,1.9161385784380536,-9.402115169687884
0.5517272727272727,0.8151363636363635,1.9333025078369905,-9.375094043887147
0.5597233201581028,0.789149209486166,1.9504664372359275,-9.34807291808641
0.5677193675889328,0.7631620553359683,1.9676303666348642,-9.321051792285676
0.5757154150197629,0.7371749011857707,1.9847942960338012,-9.29403066648494
0.5837114624505929,0.711187747035573,2.001958225432738,-9.267009540684203
0.591707509881423,0.6852005928853753,2.019122154831675,-9.239988414883467
0.5997035573122529,0.659213438735178,2.036286084230612,-9.212967289082732
0.6076996047430829,0.6332262845849804,2.0534500136295484,-9.185946163281995
0.615695652173913,0.6072391304347828,2.0706139430284853,-9.158925037481259
0.623691699604743,0.96274308300395,2.4829604743083116,-10.47132806324104
0.6316877470355731,0.4816711382600712,3.213740927057132,-10.66082780372899
0.6396837944664031,0.4629329260989341,3.2878860941430106,-10.563582944065159
0.6476798418972332,0.444194713937797,3.362031261228889,-10.466338084401325
0.6556758893280632,0.42545650177665995,3.4361764283147678,-10.369093224737494
0.6636719367588932,0.40671828961552287,3.5103215954006464,-10.271848365073662
0.6716679841897233,0.3879800774543858,3.584466762486525,-10.17460350540983
0.6796640316205533,0.36924186529324876,3.6586119295724036,-10.077358645745997
0.6876600790513834,0.3505036531321116,3.732757096658282,-9.980113786082166
0.6956561264822134,0.3317654409709746,3.8069022637441607,-9.882868926418334
0.7036521739130435,0.31302722880983747,3.8810474308300393,-9.785624066754501
0.7116482213438735,0.29428901664870044,3.955192597915918,-9.68837920709067
0.7196442687747036,0.2755508044875633,4.029337765001797,-9.591134347426838
0.7276403162055336,0.5895191040843242,4.380876152832677,-8.131032938076405
0.7356363636363636,3.5379834710743814,7.081933884297524,-6.916404958677686
0.7436324110671937,3.627507006827165,9.360242544017249,-6.478988860941429
0.7516284584980237,3.6718487243981315,9.805840459935323,-5.682291771469635
0.7596245059288538,4.086088078196775,9.744030552291422,-5.323476978955239
0.7676205533596838,4.656292703770967,9.468274970622796,-5.149292810597157
0.7756166007905138,5.22649732934515,9.192519388954175,-4.9751086422390784
0.7836126482213438,5.796701954919342,8.916763807285548,-4.800924473880997
0.7916086956521738,6.366906580493533,8.641008225616924,-4.626740305522915
0.7996047430830039,6.9371112060677245,8.365252643948297,-4.452556137164834
0.8076007905138339,7.507315831641916,8.089497062279673,-4.278371968806752
0.815596837944664,8.077520457216108,7.813741480611046,-4.1041878004486705
0.823592885375494,8.647725082790299,7.537985898942422,-3.930003632090589
0.8315889328063241,8.279553359683794,7.05389328063241,-3.832980237154153
0.8395849802371541,8.352334413998314,7.98175920415686,-1.9422757028023272
0.8475810276679842,8.271205977705733,7.962802282719723,-1.8624949149531467
0.8555770750988142,8.190077541413155,7.943845361282587,-1.782714127103966
0.8635731225296442,8.108949105120576,7.92488843984545,-1.7029333392547854
0.8715691699604743,8.027820668827998,7.905931518408313,-1.6231525514056049
0.8795652173913043,7.946692232535418,7.886974596971178,-1.5433717635564244
0.8875612648221344,7.8655637962428395,7.868017675534041,-1.4635909757072436
0.8955573122529644,7.78443535995026,7.849060754096905,-1.383810187858063
0.9035533596837945,7.703306923657681,7.830103832659768,-1.3040294000088823
0.9115494071146245,7.622178487365103,7.8111469112226315,-1.2242486121597018
0.9195454545454546,7.541050051072523,7.792189989785495,-1.1444678243105213
0.9275415019762846,6.5283557312253055,8.477924901185752,-0.23979841897234577
0.9355375494071146,5.7838143133462285,8.493431082331176,-0.6740707257589771
0.9435335968379446,5.711424564796906,8.380210453283999,-0.8001360692961045
0.9515296442687746,5.639034816247583,8.26698982423682,-0.9262014128332337
0.9595256916996047,5.56664506769826,8.153769195189641,-1.0522667563703627
0.9675217391304347,5.4942553191489365,8.040548566142462,-1.178332099907492
0.9755177865612648,5.421865570599613,7.927327937095283,-1.3043974434446213
0.9835138339920948,5.34947582205029,7.814107308048104,-1.4304627869817503
0.9915098814229248,5.277086073500968,7.700886679000925,-1.5565281305188794
0.9995059288537549,5.2046963249516445,7.5876660499537465,-1.6825934740560087
1.007501976284585,5.132306576402321,7.474445420906568,-1.808658817593138
1.015498023715415,5.059916827852998,7.361224791859389,-1.934724161130267
1.023494071146245,4.756822134387353,7.12407114624506,-2.0238498023715414
1.031490118577075,3.955297717710059,6.00740061201071,-3.6402339665944154
1.039486166007905,3.779642611245696,6.092175910578435,-3.624929703769816
1.0474822134387352,3.6039875047813332,6.17695120914616,-3.6096254409452166
1.0554782608695652,3.4283323983169702,6.261726507713885,-3.5943211781206172
1.0634743083003952,3.2526772918526072,6.346501806281609,-3.579016915296018
1.0714703557312253,3.0770221853882447,6.431277104849334,-3.5637126524714184
1.0794664031620553,2.9013670789238817,6.516052403417059,-3.548408389646819
1.0874624505928854,2.7257119724595187,6.600827701984784,-3.5331041268222196
1.0954584980237154,2.550056865995156,6.685603000552509,-3.5177998639976202
1.1034545454545455,2.374401759530793,6.7703782991202335,-3.502495601173021
1.1114505928853755,2.19874665306643,6.855153597687958,-3.4871913383484214
1.1194466403162056,2.0230915466020676,6.939928896255683,-3.471887075523822
1.1274426877470356,1.821680237154151,7.31152213438735,-3.21282648221344
1.1354387351778656,1.6081857707509866,7.817671936758897,-2.839411067193673
1.1434347826086957,0.7636739130434175,7.420195652173839,-3.226717391304411
1.1514308300395257,0.2610310408432136,7.529379552042162,-2.4887915151515148
1.1594268774703558,0.18885338603425458,7.618828669301713,-2.4789830303030302
1.1674229249011858,0.11667573122529556,7.708277786561266,-2.4691745454545453
1.1754189723320159,0.04449807641633652,7.797726903820817,-2.4593660606060603
1.183415019762846,-0.027679578392622528,7.88717602108037,-2.4495575757575754
1.191411067193676,-0.09985723320158157,7.976625138339921,-2.439749090909091
1.1994071146245058,-0.17203488801053857,8.06607425559947,-2.429940606060606
1.2074031620553358,-0.2442125428194976,8.155523372859022,-2.4201321212121214
1.2153992094861659,-0.3163901976284566,8.244972490118574,-2.4103236363636364
1.223395256916996,-0.3344071146245291,8.090474308300506,-2.4650316205533302
1.231391304347826,1.3901956521738035,6.559413043478163,-2.3340217391306544
1.239387351778656,2.2019949055775134,7.259716117698726,-0.8641454545454517
1.247383399209486,2.24455164690382,7.259360737812911,-0.9744909090909064
1.255379446640316,2.2871083882301266,7.259005357927097,-1.0848363636363612
1.2633754940711461,2.329665129556433,7.258649978041283,-1.195181818181816
1.2713715415019762,2.37222187088274,7.258294598155468,-1.3055272727272706
1.2793675889328062,2.414778612209046,7.257939218269653,-1.4158727272727254
1.2873636363636363,2.457335353535353,7.257583838383838,-1.5262181818181801
1.2953596837944663,2.4998920948616594,7.257228458498024,-1.6365636363636349
1.3033557312252964,2.5424488361879662,7.256873078612209,-1.7469090909090896
1.3113517786561264,2.5850055775142726,7.256517698726395,-1.8572545454545444
1.3193478260869564,2.6275623188405794,7.2561623188405795,-1.9675999999999991
1.3273438735177865,5.502565217391301,7.55657199322414,-3.618923207227543
1.3353399209486165,14.832477079641995,10.875904820317114,-4.23025555404116
1.3433359683794466,15.290641406569442,11.132421698241787,-4.400929807823361
1.3513320158102766,15.748805733496887,11.388938576166462,-4.57160406160556
1.3593280632411067,16.206970060424332,11.645455454091136,-4.74227831538776
1.3673241106719367,16.665134387351777,11.901972332015811,-4.912952569169961
1.3753201581027668,17.123298714279223,12.158489209940484,-5.08362682295216
1.3833162055335968,17.581463041206668,12.415006087865159,-5.25430107673436
1.3913122529644268,18.039627368134116,12.671522965789833,-5.424975330516561
1.3993083003952569,18.49779169506156,12.928039843714508,-5.59564958429876
1.407304347826087,18.955956021989007,13.184556721639183,-5.766323838080961
1.415300395256917,19.41412034891645,13.441073599563856,-5.936998091863161
1.423296442687747,7.828804347826222,12.14810671936765,-7.585741106719425
1.431292490118577,1.8695963438735164,8.765556571146243,3.0510022233201575
1.439288537549407,2.088654726613965,8.779632946310935,3.127381134716732
1.4472845849802372,2.307713109354413,8.793709321475625,3.203760046113307
1.4552806324110672,2.526771492094862,8.807785696640316,3.280138957509881
1.4632766798418972,2.74582987483531,8.821862071805006,3.356517868906456
1.4712727272727273,2.9648882575757582,8.835938446969696,3.4328967803030306
1.4792687747035573,3.183946640316207,8.850014822134387,3.5092756916996053
1.4872648221343874,3.403005023056655,8.864091197299077,3.58565460309618
1.4952608695652174,3.6220634057971033,8.878167572463768,3.6620335144927543
1.5032569169960475,3.841121788537552,8.892243947628458,3.738412425889329
1.5112529644268775,4.060180171278001,8.906320322793148,3.8147913372859037
1.5192490118577076,4.279238554018448,8.92039669795784,3.8911702486824784
1.5272450592885376,4.919000000000017,9.200452569169968,2.1840494071145686
1.5352411067193676,5.716999999999898,9.691199604743078,-1.2860731225298032
1.5432371541501975,1.385520714390282,8.795509588640025,-0.9065523349436383
1.5512332015810275,1.2919373444590858,8.76648689796516,-0.948901771336553
1.5592292490118576,1.1983539745278895,8.737464207290296,-0.9912512077294676
1.5672252964426876,1.1047706045966934,8.70844151661543,-1.0336006441223824
1.5752213438735176,1.0111872346654973,8.679418825940566,-1.075950080515297
1.5832173913043477,0.9176038647343012,8.650396135265702,-1.1182995169082117
1.5912134387351777,0.8240204948031051,8.621373444590837,-1.1606489533011264
1.5992094861660078,0.730437124871909,8.592350753915973,-1.202998389694041
1.6072055335968378,0.6368537549407128,8.563328063241107,-1.245347826086956
1.6152015810276679,0.5432703850095167,8.534305372566243,-1.2876972624798706
1.623197628458498,0.19784980237171418,8.543549407114599,-1.1284071146246422
1.631193675889328,-1.7520928853754905,8.772432806324112,0.3163458498023693
1.639189723320158,-3.416962382445141,8.353395120621508,1.2030577892871746
1.647185770750988,-3.444443051201672,8.301742492390169,1.1706140566080596
1.655181818181818,-3.4719237199582027,8.25008986415883,1.1381703239289447
1.6631778656126481,-3.4994043887147335,8.198437235927491,1.1057265912498297
1.6711739130434782,-3.5268850574712642,8.146784607696153,1.0732828585707148
1.6791699604743082,-3.554365726227795,8.095131979464814,1.0408391258915999
1.6871660079051383,-3.5818463949843258,8.043479351233476,1.008395393212485
1.6951620553359683,-3.6093270637408565,7.991826723002136,0.97595166053337
1.7031581027667984,-3.6368077324973873,7.940174094770797,0.9435079278542551
1.7111541501976284,-3.664288401253918,7.8885214665394585,0.9110641951751401
1.7191501976284584,-3.691769070010449,7.83686883830812,0.8786204624960252
1.7271462450592885,0.3325375494070697,7.203490118577061,-2.021079051383386
1.7351422924901185,5.601828440733667,8.526854243460495,-3.25866234400675
1.7431383399209486,5.894627525869342,8.658833947683972,-3.3122987520540033
1.7511343873517786,6.187426611005018,8.790813651907447,-3.3659351601012566
1.7591304347826087,6.480225696140693,8.922793356130923,-3.41957156814851
1.7671264822134387,6.773024781276369,9.054773060354398,-3.4732079761957633
1.7751225296442688,7.065823866412044,9.186752764577875,-3.526844384243016
1.7831185770750988,7.35862295154772,9.31873246880135,-3.5804807922902695
1.7911146245059288,7.651422036683396,9.450712173024826,-3.634117200337523
1.7991106719367589,7.944221121819072,9.582691877248301,-3.687753608384776
1.807106719367589,8.237020206954748,9.714671581471778,-3.741390016432029
1.815102766798419,8.529819292090423,9.846651285695254,-3.7950264244792824
1.823098814229249,8.5730513833991,9.925320158102744,-3.5542252964425574
1.831094861660079,16.87237549407123,11.43060671936759,-8.597407773386081
1.839090909090909,8.382562626262624,8.04959393939394,-8.501009090909086
1.8470869565217392,8.015721739130433,8.137017391304347,-7.903704347826083
1.8550830039525692,7.648880851998242,8.224440843214756,-7.3063996047430795
1.8630790513833992,7.28203996486605,8.311864295125165,-6.709094861660075
1.8710750988142293,6.915199077733859,8.399287747035574,-6.111790118577073
1.879071146245059,6.548358190601678,8.48671119894598,-5.514485375494085
1.8870671936758892,6.181517303469486,8.574134650856388,-4.917180632411081
1.8950632411067192,5.814676416337295,8.661558102766797,-4.3198758893280775
1.9030592885375492,5.447835529205103,8.748981554677204,-3.722571146245074
1.9110553359683793,5.080994642072912,8.836405006587613,-3.1252664031620707
1.9190513833992093,4.714153754940721,8.923828458498022,-2.5279616600790664
1.9270474308300394,7.0075625823452015,8.250030303030304,-1.905047430830018
1.9350434782608694,3.9156557597489976,8.002285970416853,-2.2419480053787586
1.9430395256916995,3.668437757222613,8.054878529807262,-2.0484766309441387
1.9510355731225295,3.421219754696228,8.107471089197668,-1.855005256509519
1.9590316205533596,3.1740017521698434,8.160063648588077,-1.6615338820748993
1.9670276679841896,2.9267837496434588,8.212656207978485,-1.4680625076402793
1.9750237154150196,2.679565747117074,8.265248767368892,-1.2745911332056596
1.9830197628458497,2.4323477445906896,8.3178413267593,-1.08111975877104
1.9910158102766797,2.185129742064305,8.370433886149709,-0.88764838433642
1.9990118577075098,1.9379117395379206,8.423026445540117,-0.6941770099018003
2.00700790513834,1.6906937370115291,8.475619004930525,-0.5007056354671751
2.01500395256917,1.4434757344851512,8.528211564320932,-0.3072342610325607
2.023,1.19625773195876,8.580804123711342,-0.11376288659793543
2.03099604743083,0.949039729432382,8.633396683101747,0.07970848783667872
2.03899209486166,-1.5589249011857707,9.082671936758894,0.7964901185770744
2.04698814229249,-1.6520985817251777,9.035642315740526,0.9455721460125512
2.05498418972332,-1.7442883050453333,8.99124073471286,1.0912883515461442
2.06298023715415,-1.836478028365494,8.946839153685191,1.2370045570797452
2.07097628458498,-1.9286677516856499,8.902437572657524,1.3827207626133382
2.07897233201581,-2.0208574750058106,8.858035991629855,1.5284369681469392
2.08696837944664,-2.113047198325966,8.813634410602187,1.6741531736805322
2.0949644268774703,-2.2052369216461267,8.769232829574518,1.8198693792141334
2.1029604743083,-2.297426644966283,8.724831248546852,1.9655855847477264
2.1109565217391304,-2.3896163682864433,8.680429667519183,2.1113017902813276
2.11895256916996,-2.481806091606599,8.636028086491516,2.2570179958149206
2.1269486166007905,-1.7838577075098925,8.237320158102776,1.2801462450593042
2.1349446640316203,4.6433955001520095,7.963539312861052,-2.6550383703253218
2.1429407114624506,5.03975342049255,7.9945393736698085,-2.8073323198540585
2.1509367588932804,5.436111340833069,8.025539434478564,-2.959626269382787
2.1589328063241107,5.832469261173609,8.056539495287321,-3.111920218911523
2.1669288537549405,6.228827181514128,8.087539556096077,-3.2642141684402515
2.1749249011857708,6.625185101854669,8.118539616904835,-3.416508117968988
2.1829209486166006,7.021543022195187,8.149539677713591,-3.568802067497716
2.190916996047431,7.417900942535727,8.180539738522347,-3.7210960170264524
2.1989130434782607,7.5800000000000285,8.193939130434785,-3.3452434782609473
2.206909090909091,14.863409090908256,9.80349999999995,-8.63440909090838
2.2149051383399208,10.105374581939937,8.818478260869597,-7.704571906354532
2.222901185770751,7.262289202833331,8.191860212108168,-7.125556999178192
2.230897233201581,7.042595820451621,8.163913630493486,-6.468376902907713
2.238893280632411,6.822902438069898,8.135967048878802,-5.811196806637198
2.246889328063241,6.603209055688187,8.108020467264119,-5.154016710366719
2.254885375494071,6.383515673306465,8.080073885649435,-4.496836614096203
2.262881422924901,6.163822290924754,8.052127304034753,-3.8396565178257243
2.2708774703557313,5.944128908543032,8.024180722420068,-3.182476421555209
2.278873517786561,5.724435526161321,7.996234140805386,-2.52529632528473
2.2868695652173914,5.504742143779598,7.968287559190702,-1.8681162290142144
2.294865612648221,5.2850487613978885,7.94034097757602,-1.2109361327437353
2.3028616600790515,5.065355379016165,7.912394395961336,-0.5537560364732199
2.3108577075098813,4.845661996634455,7.884447814346653,0.1034240597972591
2.3188537549407116,4.6259686142527325,7.856501232731969,0.7606041560677737
2.3268498023715414,6.384005767524407,7.479893482294102,-4.2041767363071765
2.3348458498023716,6.130008873114462,7.516528434298621,-3.989425748164878
2.3428418972332015,5.87601197870453,7.553163386303137,-3.7746747600225907
2.3508379446640317,5.622015084294585,7.589798338307656,-3.5599237718802916
2.3588339920948616,5.368018189884653,7.626433290312171,-3.345172783738005
2.366830039525692,5.114021295474708,7.66306824231669,-3.130421795595706
2.3748260869565216,4.860024401064777,7.699703194321206,-2.915670807453419
2.382822134387352,4.606027506654831,7.736338146325725,-2.70091981931112
2.3908181818181817,4.352030612244899,7.77297309833024,-2.4861688311688326
2.3988142292490116,4.098033717834968,7.809608050334757,-2.271417843026546
2.406810276679842,3.8440368234250233,7.846243002339275,-2.056666854884247
2.4148063241106716,3.590039929015092,7.882877954343791,-1.8419158667419597
2.422802371541502,3.3360430346051464,7.91951290634831,-1.627164878599661
2.4307984189723317,-1.6931035573120952,9.848613438735173,1.9509462450592598
2.438794466403162,-5.035180347458406,8.576360832797132,3.960488326132917
2.446790513833992,-5.029973618898796,8.451492324662196,3.8731826454637397
2.454786561264822,-5.024766890339185,8.326623816527253,3.785876964794558
2.462782608695652,-5.019560161779576,8.201755308392318,3.6985712841253813
2.470778656126482,-5.014353433219965,8.076886800257375,3.611265603456199
2.478774703557312,-5.009146704660354,7.952018292122439,3.5239599227870224
2.4867707509881423,-5.003939976100744,7.827149783987497,3.4366542421178403
2.494766798418972,-4.998733247541134,7.702281275852561,3.3493485614486636
2.5027628458498024,-4.993526518981524,7.577412767717618,3.262042880779482
2.510758893280632,-4.988319790421913,7.452544259582683,3.1747372001103047
2.5187549407114624,-4.983113061862303,7.327675751447741,3.087431519441123
2.5267509881422923,1.2808181818178248,6.114411067193686,-1.7638616600788848
2.5347470355731225,9.119009180160653,6.895702707297381,-6.101882187938289
2.5427430830039524,9.224763355858725,7.161033915593519,-6.093370266479663
2.5507391304347826,9.330517531556803,7.4263651238896715,-6.084858345021037
2.5587351778656124,9.436271707254875,7.69169633218581,-6.076346423562413
2.5667312252964427,9.542025882952952,7.957027540481962,-6.0678345021037865
2.5747272727272725,9.647780058651025,8.2223587487781,-6.059322580645161
2.582723320158103,9.753534234349102,8.487689957074254,-6.050810659186536
2.5907193675889326,9.859288410047174,8.753021165370392,-6.0422987377279105
2.598715415019763,9.965042585745252,9.018352373666545,-6.033786816269285
2.6067114624505927,10.070796761443324,9.283683581962682,-6.02527489481066
2.614707509881423,10.176550937141402,9.549014790258834,-6.016762973352034
2.622703557312253,15.431130434781643,11.850312252964041,-7.9599644268771055
2.630699604743083,9.121843334531041,9.430781530722193,-7.647587136183967
2.638695652173913,6.341891304347819,8.846521739130457,-2.7947826086956002
2.646691699604743,6.18066446021239,9.206497880851469,-1.970797704652602
2.654687747035573,6.132495499785704,9.203896756988428,-1.9497960379065669
2.6626837944664032,6.084326539359016,9.201295633125387,-1.9287943711605309
2.670679841897233,6.036157578932331,9.198694509262346,-1.907792704414496
2.6786758893280633,5.987988618505642,9.196093385399305,-1.8867910376684598
2.686671936758893,5.939819658078957,9.193492261536264,-1.865789370922425
2.6946679841897234,5.891650697652269,9.190891137673223,-1.844787704176389
2.7026640316205532,5.8434817372255825,9.188290013810182,-1.8237860374303538
2.7106600790513835,5.795312776798895,9.18568888994714,-1.8027843706843178
2.7186561264822133,5.747143816372209,9.1830877660841,-1.781782703938283
2.7266521739130436,1.6005652173910323,8.801391304347888,-2.1516086956519747
2.7346482213438734,0.4823825066938698,8.945837009647667,0.30484669981724827
2.7426442687747032,0.37250133877343417,8.999401929533764,0.24233996344936348
2.7506403162055335,0.2626201708529924,9.052966849419864,0.17983322708147528
2.7586363636363633,0.1527390029325567,9.10653176930596,0.11732649071359053
2.7666324110671936,0.04285783501211493,9.16009668919206,0.0548197543457023
2.7746284584980234,-0.06702333290832063,9.213661609078157,-0.007686982022182487
2.7826245059288537,-0.1769045008287624,9.267226528964256,-0.07019371839007071
2.7906205533596835,-0.2867856687491981,9.320791448850352,-0.13270045475795544
2.7986166007905138,-0.39666683666963987,9.374356368736452,-0.19520719112584373
2.8066126482213436,-0.5065480045900754,9.42792128862255,-0.25771392749372846
2.814608695652174,-0.6164291725105173,9.481486208508649,-0.32022066386161663
2.8226047430830037,-0.9160533596837082,9.537652173913042,-0.30391897233204807
2.830600790513834,-1.1466372466571382,8.008768312168867,0.8141532671768563
2.8385968379446638,-1.0499190984778455,8.032586325792614,0.8149188461861911
2.846592885375494,-0.9532009502985472,8.056404339416364,0.815684425195526
2.854588932806324,-0.8564828021192545,8.080222353040114,0.8164500042048607
2.862584980237154,-0.7597646539399563,8.104040366663863,0.8172155832141955
2.870581027667984,-0.6630465057606636,8.127858380287611,0.8179811622235303
2.878577075098814,-0.5663283575813653,8.15167639391136,0.8187467412328652
2.886573122529644,-0.46961020940207265,8.17549440753511,0.8195123202421999
2.8945691699604743,-0.3728920612227744,8.19931242115886,0.8202778992515347
2.902565217391304,-0.2761739130434817,8.223130434782608,0.8210434782608695
2.9105612648221344,-0.17945576486418346,8.246948448406359,0.8218090572702043
2.918557312252964,-0.08273761668489077,8.270766462030107,0.8225746362795391
2.9265533596837945,5.483893280632391,8.605173913043453,-1.3776521739129803
2.9345494071146243,5.058703557312456,8.17337944664057,-5.787094861659984
2.9425454545454546,5.827654127481713,7.991843260188087,-6.726965517241379
2.9505415019762844,7.128620235336845,8.407086275044286,-7.4973433283358135
2.9585375494071147,8.42958634319205,8.822329289900507,-8.26772113943029
2.9665335968379445,9.730552451047181,9.237572304756705,-9.038098950524724
2.9745296442687748,11.031518558902384,9.652815319612927,-9.8084767616192
2.9825256916996046,12.332484666757516,10.068058334469125,-10.578854572713634
2.990521739130435,13.63345077461272,10.483301349325346,-11.349232383808111
2.9985177865612647,14.934416882467852,10.898544364181545,-12.119610194902545
3.006513833992095,16.235382990323057,11.313787379037766,-12.889988005997022
3.0145098814229248,17.53634909817819,11.729030393893964,-13.660365817091456
3.022505928853755,18.109519104083986,11.829789196310786,-14.020935441370037
3.030501976284585,10.334186758893331,8.97292391304346,-8.638637351778753
3.038498023715415,7.886729907773368,9.84515942028986,-3.9682793148879787
3.046494071146245,5.054702874152147,7.278111306299712,-3.2253680769043087
3.054490118577075,5.172373103010785,7.294498267701166,-3.220136095252037
3.062486166007905,5.290043331869416,7.31088522910262,-3.214904113599766
3.0704822134387353,5.407713560728054,7.3272721905040745,-3.209672131947494
3.078478260869565,5.525383789586686,7.343659151905528,-3.204440150295223
3.086474308300395,5.6430540184453175,7.360046113306982,-3.199208168642951
3.094470355731225,5.760724247303956,7.376433074708436,-3.1939761869906795
3.102466403162055,5.878394476162587,7.392820036109891,-3.1887442053384083
3.1104624505928853,5.996064705021225,7.409206997511345,-3.1835122236861366
3.118458498023715,6.113734933879857,7.425593958912799,-3.1782802420338654
3.1264545454545454,4.938727272727202,7.980090909090939,-2.506363636363599
3.134450592885375,0.4981277710946926,8.760297216016497,0.26138709400240284
3.1424466403162055,0.3815766884344385,8.832696210689123,0.387846322392164
3.1504426877470353,0.2650256057741908,8.905095205361745,0.5143055507819181
3.1584387351778656,0.14847452311393672,8.977494200034371,0.6407647791716793
3.1664347826086954,0.03192344045368911,9.049893194706993,0.7672240075614334
3.1744308300395256,-0.08462764220656505,9.12229218937962,0.8936832359511946
3.1824268774703555,-0.20117872486681265,9.19469118405224,1.0201424643409487
3.1904229249011857,-0.3177298075270667,9.267090178724867,1.1466016927307099
3.1984189723320156,-0.4342808901873144,9.33948917339749,1.273060921120464
3.206415019762846,-0.5508319728475686,9.411888168070115,1.3995201495102252
3.2144110671936756,-0.6673830555078162,9.484287162742739,1.5259793778999793
3.222407114624506,-0.8099584980237146,9.619698945981554,1.5418465085639026
3.2304031620553357,-1.5475019762846347,9.946960474308458,0.5554229249011956
3.238399209486166,-0.7096243726961866,8.877980459208597,0.2341975396367174
3.246395256916996,-0.5994765732557668,8.848332193453835,0.35000546253941006
3.254391304347826,-0.4893287738153408,8.818683927699071,0.46581338544210915
3.262387351778656,-0.379180974374921,8.78903566194431,0.5816213083448017
3.270383399209486,-0.26903317493449497,8.759387396189545,0.6974292312475009
3.278379446640316,-0.15888537549407522,8.729739130434783,0.8132371541501935
3.2863754940711463,-0.048737576053649256,8.70009086468002,0.9290450770528926
3.294371541501976,0.0614102233867706,8.670442598925257,1.0448529999555851
3.3023675889328064,0.17155802282719657,8.640794333170494,1.1606609228582843
3.310363636363636,0.2817058222676163,8.611146067415731,1.276468845760977
3.3183596837944664,0.3918536217080424,8.581497801660968,1.392276768663676
3.3263557312252963,4.745091567852439,7.064208168642924,-3.76590711462426
3.3343517786561265,3.041496913443157,6.71403459608295,-1.9352157481014094
3.3423478260869564,4.174240351734196,7.276183683439155,-3.415293111870966
3.3503438735177866,5.306983790025297,7.8383327707953905,-4.895370475640605
3.3583399209486164,6.439727228316336,8.400481858151595,-6.375447839410162
3.3663359683794467,7.572470666607437,8.962630945507831,-7.8555252031798
3.3743320158102765,8.705214104898475,9.524780032864037,-9.335602566949358
3.382328063241107,9.837957543189578,10.086929120220272,-10.815679930718996
3.3903241106719366,10.970700981480615,10.649078207576476,-12.295757294488554
3.398320158102767,12.103444419771717,11.211227294932712,-13.775834658258193
3.4063162055335967,13.236187858062756,11.773376382288916,-15.255912022027749
3.4143122529644265,14.368931296353795,12.335525469645122,-16.735989385797303
3.422308300395257,14.675996047431436,12.125905138340501,-17.56598418972378
3.4303043478260866,7.60215579710157,8.317336956521727,-10.10489855072482
3.438300395256917,4.246418972332097,11.217521739130884,-0.00744268774626855
3.4462964426877467,3.7499449366225948,7.861209758756996,-5.545900231702322
3.454292490118577,3.83496038344464,7.57574167461724,-5.793410067693424
3.462288537549407,3.919975830266681,7.2902735904775,-6.040919903684512
3.470284584980237,4.0049912770887275,7.004805506337744,-6.288429739675614
3.478280632411067,4.0900067239107685,6.719337422198004,-6.535939575666702
3.486276679841897,4.175022170732814,6.433869338058249,-6.783449411657804
3.494272727272727,4.260037617554855,6.148401253918509,-7.030959247648892
3.5022687747035572,4.3450530643769,5.862933169778753,-7.278469083639994
3.510264822134387,4.430068511198941,5.577465085639012,-7.525978919631082
3.5182608695652173,4.515083958020988,5.291997001499257,-7.773488755622184
3.526256916996047,4.600099404843029,5.0065289173595175,-8.020998591613271
3.5342529644268774,-1.3084779015450967,9.039399568810635,-1.4292579949694566
3.5422490118577072,-1.3868028206970888,9.052029689184334,-1.3741943047071512
3.5502450592885375,-1.4651277398490852,9.06465980955803,-1.3191306144448427
3.5582411067193673,-1.543452659001077,9.077289929931728,-1.2640669241825375
3.5662371541501976,-1.6217775781530737,9.089920050305427,-1.209003233920229
3.5742332015810274,-1.7001024973050658,9.102550170679123,-1.1539395436579238
3.5822292490118577,-1.7784274164570621,9.115180291052821,-1.0988758533956153
3.5902252964426875,-1.856752335609054,9.127810411426518,-1.04381216313331
3.5982213438735178,-1.9350772547610506,9.140440531800216,-0.9887484728710016
3.6062173913043476,-2.0134021739130428,9.153070652173913,-0.9336847826086963
3.614213438735178,-2.091727093065039,9.165700772547611,-0.878621092346388
3.6222094861660077,-2.2071739130434542,9.242521739130396,-0.7156482213439408
3.630205533596838,-0.7749154150197833,8.105468774703557,-0.39449565217390736
3.6382015810276678,0.2924402451481064,8.1527874938935,-0.6012952435937319
3.646197628458498,0.43915423901940787,8.203189545676599,-0.503366123373451
3.654193675889328,0.5858682328907011,8.253591597459694,-0.4054370031531756
3.662189723320158,0.7325822267620026,8.303993649242793,-0.30750788293289477
3.670185770750988,0.8792962206332959,8.35439570102589,-0.20957876271261938
3.678181818181818,1.0260102145045973,8.404797752808989,-0.11164964249233855
3.686177865612648,1.1727242083758906,8.455199804592084,-0.013720522272063107
3.6941739130434783,1.3194382022471922,8.505601856375183,0.08420859794821767
3.702169960474308,1.4661521961184854,8.556003908158278,0.1821377181684931
3.7101660079051384,1.612866189989787,8.606405959941377,0.2800668383887739
3.718162055335968,1.75958018386108,8.656808011724474,0.37799595860904933
3.7261581027667985,4.910616600790586,8.360416996047455,-5.367205533596809
3.7341541501976283,22.029043057774818,11.34781935917921,-17.23676562105798
3.7421501976284586,21.310589689681283,11.37486981750904,-16.41011041964512
3.7501462450592884,20.592136321587784,11.401920275838869,-15.58345521823231
3.758142292490118,19.873682953494285,11.428970734168697,-14.756800016819497
3.7661383399209485,19.155229585400747,11.456021192498527,-13.930144815406639
3.7741343873517783,18.43677621730725,11.483071650828355,-13.103489613993826
3.7821304347826086,17.718322849213713,11.510122109158186,-12.27683441258097
3.7901264822134384,16.999869481120214,11.537172567488014,-11.450179211168157
3.7981225296442687,16.28141611302668,11.564223025817844,-10.6235240097553
3.8061185770750985,15.56296274493318,11.591273484147672,-9.796868808342486
3.8141146245059288,14.844509376839643,11.618323942477502,-8.97021360692963
3.8221106719367586,14.071782608695873,11.613144927536341,-8.156420289855067
3.830106719367589,9.432076086956616,9.311615942029032,-8.259036231884055
3.8381027667984187,4.9585388669303345,9.52863372859036,-0.6517351778654692
3.846098814229249,4.97197565576716,7.259755839022636,-3.3327697628458512
3.8540948616600788,4.9139134477182935,7.297010150916275,-3.283793972332018
3.862090909090909,4.855851239669423,7.334264462809917,-3.234818181818183
3.870086956521739,4.797789031620556,7.3715187747035555,-3.18584239130435
3.878083003952569,4.7397268235716865,7.408773086597197,-3.1368666007905146
3.886079051383399,4.681664615522819,7.446027398490836,-3.0878908102766816
3.894075098814229,4.62360240747395,7.483281710384477,-3.038915019762846
3.902071146245059,4.565540199425082,7.520536022278116,-2.9899392292490132
3.9100671936758893,4.507477991376213,7.557790334171758,-2.9409634387351775
3.918063241106719,4.449415783327345,7.595044646065396,-2.891987648221345
3.9260592885375494,4.391353575278476,7.632298957959038,-2.843011857707509
3.934055335968379,-1.3526679841894167,9.621138339920382,-0.146422924901661
3.9420513833992095,-2.1669339875516775,10.829230384807598,1.0394818954159273
3.9500474308300393,-2.2836578983235607,10.70588905547227,1.1341477443096595
3.9580434782608696,-2.4003818090954505,10.582547726136934,1.2288135932033968
3.9660395256916994,-2.517105719867334,10.459206396801605,1.323479442097129
3.9740355731225296,-2.633829630639224,10.335865067466269,1.4181452909908665
3.9820316205533595,-2.750553541411107,10.21252373813094,1.5128111398845987
3.9900276679841897,-2.867277452182997,10.089182408795605,1.6074769887783362
3.9980237154150196,-2.9840013629548805,9.965841079460276,1.7021428376720684
4.00601976284585,-3.10072527372677,9.84249975012494,1.7968086865658057
4.01401581027668,-3.21744918449866,9.719158420789604,1.891474535459543
4.0220118577075095,-3.3322905138340873,9.592828063241283,1.9847865612648894
4.03000790513834,-1.4836996047437603,7.650660079051402,1.2831501976287805
4.03800395256917,2.4301466003463954,7.76529710885109,-1.5974724430430274
4.046,2.6812584269662914,7.775359550561798,-1.7803932584269657
4.05399604743083,2.932370253586159,7.7854219922725045,-1.9633140738108836
4.06199209486166,3.183482080206055,7.795484433983213,-2.146234889194822
4.06998814229249,3.43459390682595,7.805546875693921,-2.3291557045787603
4.07798418972332,3.685705733445846,7.815609317404628,-2.5120765199626987
4.08598023715415,3.9368175600657134,7.825671759115335,-2.694997335346617
4.09397628458498,4.187929386685609,7.835734200826042,-2.8779181507305553
4.10197233201581,4.439041213305504,7.845796642536751,-3.0608389661144937
4.10996837944664,4.690153039925372,7.855859084247458,-3.2437597814984116
4.11796442687747,4.941264866545268,7.865921525958165,-3.42668059688235
4.1259604743083,11.818575098813943,8.136723320158069,-3.587415019762676
4.1339565217391305,10.135181776133212,10.922659111933395,-6.7670536540240525
4.14195256916996,9.7300203515264,10.711444369691382,-6.600667815995306
4.14994861660079,9.324858926919545,10.500229627449345,-6.43428197796654
4.15794466403162,8.91969750231269,10.289014885207308,-6.267896139937775
4.165940711462451,8.514536077705834,10.077800142965271,-6.101510301909009
4.17393675889328,8.109374653099023,9.866585400723258,-5.935124463880262
4.18193280632411,7.704213228492168,9.655370658481221,-5.768738625851497
4.189928853754941,7.2990518038853125,9.444155916239183,-5.602352787822731
4.197924901185771,6.8938903792784565,9.232941173997146,-5.435966949793966
4.2059209486166,6.488728954671646,9.021726431755132,-5.269581111765219
4.2139169960474305,6.08356753006479,8.810511689513095,-5.103195273736453
4.221913043478261,5.678406105457935,8.599296947271057,-4.936809435707688
4.229909090909091,3.5085064935064656,8.554389610389652,1.6056623376623427
4.23790513833992,3.861431407381093,8.611338100102145,-1.9474298085890682
4.245901185770751,3.7284634276324553,8.621670071501534,-1.848692099302749
4.253897233201581,3.5954954478838177,8.63200204290092,-1.7499543900164296
4.261893280632411,3.4625274681351805,8.642334014300307,-1.6512166807301103
4.269889328063241,3.3295594883865576,8.652665985699693,-1.5524789714438019
4.277885375494071,3.19659150863792,8.662997957099082,-1.4537412621574826
4.285881422924901,3.063623528889283,8.673329928498468,-1.355003552871163
4.293877470355731,2.930655549140645,8.683661899897857,-1.2562658435848437
4.301873517786561,2.7976875693920222,8.693993871297241,-1.1575281342985355
4.309869565217391,2.6647195896433846,8.70432584269663,-1.0587904250122162
4.317865612648221,2.5317516098947475,8.714657814096016,-0.9600527157258967
4.325861660079052,-0.5039881422925268,8.902869565217383,0.10529644268770216
4.333857707509881,-0.5196502587506635,8.521134346603644,0.09783464406503309
4.341853754940711,-0.4680469011042746,8.504894951305978,0.13377564076443496
4.3498498023715415,-0.4164435434578857,8.488655556008313,0.1697166374638368
4.357845849802372,-0.3648401858114968,8.472416160710647,0.20565763416323868
4.365841897233201,-0.3132368281651136,8.456176765412984,0.24159863086263655
4.373837944664031,-0.2616334705187247,8.439937370115318,0.2775396275620384
4.381833992094862,-0.21003011287233575,8.423697974817651,0.3134806242614403
4.389830039525692,-0.15842675522594685,8.407458579519986,0.34942162096084217
4.397826086956521,-0.10682339757956366,8.391219184222322,0.38536261766024005
4.405822134387352,-0.05522003993317476,8.374979788924657,0.4213036143596419
4.413818181818182,-0.0036166822867857995,8.358740393626992,0.4572446110590438
4.421814229249012,0.047986675359603104,8.342500998329326,0.49318560775844567
4.4298102766798415,3.5527430830035343,8.241792490118499,-1.3013241106714748
4.437806324110672,5.8721319891637425,9.111636896567038,-3.1973425856019895
4.445802371541502,6.118571967846521,9.084414398010392,-3.2611312785895112
4.453798418972331,6.365011946529274,9.057191899453748,-3.3249199715770263
4.461794466403162,6.611451925212052,9.029969400897102,-3.3887086645645486
4.469790513833992,6.857891903894831,9.002746902340455,-3.4524973575520708
4.477786561264822,7.104331882577609,8.975524403783808,-3.5162860505395925
4.485782608695652,7.350771861260362,8.948301905227163,-3.5800747435271076
4.493778656126482,7.5972118399431405,8.921079406670517,-3.64386343651463
4.501774703557312,7.8436518186259185,8.89385690811387,-3.7076521295021516
4.509770750988142,8.090091797308698,8.866634409557223,-3.771440822489674
4.517766798418972,8.33653177599145,8.83941191100058,-3.835229515477189
4.525762845849802,4.91299209486181,7.798370223978962,-1.0995454545455705
4.533758893280632,7.951246047430852,9.343080368906463,-4.663704545454575
4.541754940711463,5.306553359683647,8.666081686429475,-1.3073636363634487
4.549750988142292,4.56889898989899,8.493820963255747,-0.22853828136437215
4.557747035573122,4.575710437710438,8.518598838627826,-0.038804908993314235
4.5657430830039525,4.582521885521886,8.543376713999903,0.1509284633777438
4.573739130434783,4.589333333333334,8.568154589371982,0.3406618357488017
4.581735177865612,4.596144781144781,8.59293246474406,0.5303952081198385
4.589731225296442,4.602956228956229,8.617710340116137,0.7201285804908966
4.597727272727273,4.609767676767677,8.642488215488216,0.9098619528619545
4.605723320158103,4.616579124579125,8.667266090860295,1.0995953252330124
4.613719367588932,4.623390572390572,8.69204396623237,1.2893286976040492
4.621715415019763,4.63020202020202,8.71682184160445,1.4790620699751074
4.629711462450593,4.8655770750986145,7.9414545454546,-1.4052292490117808
4.637707509881423,1.4039905848914083,9.009150686148246,-0.3639509703779319
4.6457035573122525,1.286295954167965,9.041584092019363,-0.2854279877425966
4.653699604743083,1.168601323444509,9.074017497890482,-0.20690500510725252
4.661695652173913,1.0509066927210529,9.106450903761603,-0.12838202247190844
4.669691699604743,0.9332120619975965,9.138884309632724,-0.04985903983656442
4.677687747035573,0.8155174312741534,9.17131771550384,0.028663942798770936
4.685683794466403,0.6978228005506972,9.20375112137496,0.10718692543411495
4.693679841897233,0.580128169827241,9.236184527246081,0.18570990806945903
4.7016758893280635,0.4624335391037848,9.2686179331172,0.2642328907048031
4.709671936758893,0.3447389083803418,9.301051338988318,0.3427558733401384
4.717667984189723,0.2270442776568855,9.333484744859438,0.4212788559754825
4.725664031620553,-1.1474229249011894,9.366987012987018,0.954344438170516
4.733660079051384,-0.9114537636276692,9.091167310949917,1.4381745645658721
4.741656126482213,-0.7474908569691242,9.052592972245147,1.5108419406680247
4.749652173913043,-0.583527950310561,9.014018633540372,1.5835093167701855
4.7576482213438736,-0.41956504365199787,8.975444294835597,1.656176692872346
4.765644268774704,-0.2556021369934348,8.936869956130824,1.7288440689745066
4.773640316205533,-0.09163923033488985,8.898295617426053,1.8015114450766592
4.7816363636363635,0.07232367632367342,8.85972127872128,1.8741788211788197
4.789632411067194,0.23628658298223648,8.821146940016504,1.9468461972809805
4.797628458498023,0.40024948964078155,8.782572601311735,2.019513573383133
4.805624505928853,0.5642123962993446,8.74399826260696,2.092180949485294
4.813620553359684,0.7281753029579077,8.705423923902185,2.1648483255874544
4.821616600790514,0.892138209616471,8.66684958519741,2.237515701689615
4.829612648221343,7.595770498696567,8.154175931376688,-4.928418299554366
4.8376086956521736,6.915340888066655,7.996381591119346,-4.1867423681776685
4.845604743083004,6.234911277436744,7.838587250862003,-3.445066436800971
4.853600790513834,5.554481666806832,7.6807929106046595,-2.703390505424274
4.8615968379446635,4.874052056176996,7.522998570347334,-1.9617145740476594
4.869592885375494,4.193622445547085,7.365204230089992,-1.220038642670962
4.877588932806324,3.513192834917173,7.207409889832649,-0.478362711294265
4.885584980237154,2.8327632242872616,7.0496155495753055,0.2633132200824324
4.893581027667984,2.152333613657425,6.89182120931798,1.0049891514590472
4.901577075098814,1.4719040030275137,6.734026869060638,1.7466650828357446
4.909573122529644,0.7914743923976024,6.576232528803295,2.488341014212442
4.917569169960474,0.11104478176769028,6.418438188545951,3.2300169455891394
4.925565217391304,7.684130434783048,9.95178260869596,-4.802543478261548
4.933561264822134,5.304507246376817,8.83299999999999,0.058436100131717295
4.941557312252964,5.145229249011857,9.128842421067672,1.2005534549264305
4.949553359683795,5.177213438735178,8.978266250773844,0.8802298680889538
4.957549407114624,5.2091976284584955,8.827690080480034,0.5599062812515125
4.965545454545454,5.241181818181817,8.677113910186206,0.2395826944140358
4.9735415019762845,5.273166007905138,8.52653773989238,-0.08074089242344096
4.981537549407115,5.305150197628459,8.375961569598552,-0.4010644792609179
4.989533596837944,5.337134387351775,8.225385399304741,-0.7213880660983589
4.997529644268774,5.369118577075096,8.074809229010913,-1.041711652935836
5.005525691699605,5.4011027667984175,7.924233058717086,-1.3620352397733129
5.013521739130435,5.433086956521739,7.773656888423258,-1.6823588266107894
5.021517786561264,5.465071146245056,7.623080718129448,-2.002682413448231
5.029513833992095,0.9868502698797269,8.289806706617366,1.24618228569
5.037509881422925,0.7822202388541781,8.31792184113222,1.2334573930043775
5.045505928853755,0.5775902078286294,8.346036975647076,1.2207325003187552
5.0535019762845845,0.3729601768031032,8.374152110161926,1.2080076076331343
5.061498023715415,0.16833014577755445,8.402267244676782,1.1952827149475118
5.069494071146245,-0.036299885247994323,8.430382379191636,1.1825578222618895
5.077490118577075,-0.2409299162735432,8.458497513706492,1.169832929576267
5.085486166007905,-0.4455599472990692,8.486612648221342,1.1571080368906461
5.093482213438735,-0.6501899783246179,8.514727782736198,1.1443831442050239
5.101478260869565,-0.8548200093501668,8.542842917251052,1.1316582515194014
5.1094743083003955,-1.0594500403757157,8.570958051765908,1.118933358833779
5.117470355731225,-1.2640800714012417,8.599073186280759,1.106208466148158
5.125466403162055,1.4575059288536063,8.003363636363602,0.17350988142296364
5.133462450592885,6.035324447060803,8.46496123118325,-1.9148202842485889
5.141458498023715,6.038727020435624,8.47661504499201,-2.1399855773273684
5.149454545454545,6.042129593810445,8.488268858800772,-2.3651508704061732
5.157450592885375,6.045532167185266,8.499922672609536,-2.590316163484978
5.165446640316206,6.048934740560088,8.5115764864183,-2.815481456563783
5.173442687747035,6.052337313934909,8.52323030022706,-3.040646749642563
5.181438735177865,6.055739887309731,8.534884114035824,-3.2658120427213673
5.1894347826086955,6.059142460684551,8.546537927844588,-3.4909773358001726
5.197430830039526,6.062545034059373,8.558191741653351,-3.716142628878977
5.205426877470355,6.065947607434194,8.569845555462113,-3.9413079219577565
5.213422924901185,6.069350180809015,8.581499369270876,-4.166473215036562
5.221418972332016,6.072752754183837,8.59315318307964,-4.391638508115366
5.229415019762846,8.561126482211884,8.168177865612366,-3.444612648220144
5.237411067193675,4.995412639238228,7.583041277398484,-2.613682042759632
5.245407114624506,5.0620160797700295,7.67690397053539,-2.3199181638519706
5.253403162055336,5.128619520301831,7.770766663672295,-2.0261542849443086
5.261399209486166,5.195222960833633,7.8646293568092,-1.732390406036647
5.2693952569169955,5.261826401365428,7.958492049946095,-1.4386265271290182
5.277391304347826,5.32842984189723,8.052354743083,-1.1448626482213564
5.285387351778656,5.395033282429033,8.146217436219906,-0.8510987693136949
5.293383399209486,5.461636722960835,8.24008012935681,-0.5573348904060333
5.301379446640316,5.5282401634926295,8.333942822493706,-0.26357101149840423
5.309375494071146,5.594843604024431,8.427805515630611,0.030192867409257307
5.317371541501976,5.661447044556233,8.521668208767515,0.3239567463169193
5.3253675889328065,5.745125691699608,8.474298814229245,-1.3669296442688672
5.333363636363636,5.439181818181874,8.095999999999963,-1.4962727272727783
5.341359683794466,4.250191699604921,8.878754940711348,-0.2261462450596477
5.349355731225296,3.471908482821527,9.28292490118577,1.1783043478260868
5.357351778656127,3.352275311644875,9.236281291172595,1.2076231884057977
5.365347826086956,3.2326421404682355,9.189637681159423,1.2369420289855053
5.373343873517786,3.113008969291583,9.142994071146248,1.2662608695652162
5.381339920948617,2.993375798114931,9.09635046113307,1.2955797101449271
5.389335968379447,2.873742626938278,9.049706851119895,1.324898550724638
5.397332015810276,2.7541094557616392,9.003063241106723,1.3542173913043456
5.4053280632411065,2.634476284584987,8.956419631093548,1.3835362318840563
5.413324110671937,2.514843113408334,8.90977602108037,1.4128550724637674
5.421320158102767,2.3252430830039548,8.856195652173913,1.5027905138339905
5.429316205533596,1.841523715414977,8.806333992094924,2.1476442687746666
5.437312252964427,2.413710671936757,8.460051866490998,2.019906938954767
5.445308300395257,2.472881422924901,8.422115063680282,1.9526512955643391
5.453304347826087,2.532052173913045,8.384178260869565,1.885395652173911
5.461300395256917,2.5912229249011824,8.346241458058852,1.8181400087834905
5.469296442687747,2.6503936758893265,8.308304655248135,1.7508843653930626
5.477292490118577,2.7095644268774706,8.270367852437419,1.6836287220026347
5.4852885375494065,2.768735177865608,8.232431049626705,1.616373078612214
5.493284584980237,2.8279059288537525,8.194494246815989,1.549117435221786
5.501280632411067,2.887076679841896,8.156557444005271,1.4818617918313581
5.509276679841897,2.9462474308300406,8.118620641194553,1.41460614844093
5.517272727272727,3.005418181818178,8.080683838383841,1.3473505050505095
5.525268774703557,5.295594202898313,7.639328063241024,-1.9261185770745954
5.533264822134387,7.1211094557616565,7.665234721799936,-4.730201276983909
5.5412608695652175,6.602157190635465,7.714792642140466,-4.280050167224092
5.549256916996047,6.08320492550933,7.764350562480991,-3.829899057464324
5.557252964426877,5.564252660383138,7.813908482821522,-3.379747947704507
5.565249011857707,5.045300395256946,7.863466403162052,-2.9295968379446897
5.573245059288538,4.526348130130755,7.913024323502582,-2.4794457281848725
5.581241106719367,4.00739586500462,7.962582243843107,-2.0292946184251055
5.589237154150197,3.4884435998784284,8.012140164183638,-1.5791435086652883
5.5972332015810276,2.9694913347522363,8.061698084524169,-1.128992398905471
5.605229249011858,2.4505390696260445,8.111256004864698,-0.6788412891456543
5.613225296442687,1.9315868044999105,8.160813925205224,-0.22869017938588687
5.6212213438735175,1.8519064558615557,8.355566534913871,-0.1424571804994826
5.629217391304348,5.592652173913093,10.122391304347792,-4.347173913043736
5.637213438735178,3.295163210019097,11.325006350757189,1.2677846960074444
5.645209486166007,3.3000147444153303,10.999863702979983,0.9591732024692557
5.653205533596838,3.3048662788115646,10.67472105520274,0.6505617089310328
5.661201581027668,3.3097178132077985,10.349578407425497,0.34195021539281
5.669197628458498,3.3145693476040328,10.024435759648254,0.03333872185458708
5.6771936758893276,3.319420882000266,9.699293111871047,-0.27527277168360165
5.685189723320158,3.3242724163965,9.374150464093805,-0.5838842652218246
5.693185770750988,3.3291239507927344,9.049007816316562,-0.8924957587600473
5.701181818181818,3.3339754851889687,8.72386516853932,-1.2011072522982704
5.709177865612648,3.338827019585202,8.398722520762112,-1.509718745836459
5.717173913043478,3.343678553981436,8.073579872984869,-1.818330239374682
5.725169960474308,4.977688735177864,7.5651689723320175,-2.482864624505927
5.7331660079051385,4.390645586297765,8.615982872200254,-1.7159104084321535
5.741162055335968,2.9674457619675887,8.74745234958279,-1.2627075098814418
5.749158102766798,1.0932611330698352,8.234147773386033,-0.8642635046113296
5.757154150197628,1.0154329380764198,8.249713412384716,-0.8775902503293802
5.765150197628459,0.9376047430830046,8.265279051383398,-0.8909169960474307
5.773146245059288,0.8597765480895978,8.28084469038208,-0.9042437417654798
5.781142292490118,0.7819483530961825,8.296410329380764,-0.9175704874835304
5.789138339920949,0.7041201581027672,8.311975968379446,-0.930897233201581
5.797134387351779,0.6262919631093518,8.32754160737813,-0.9442239789196315
5.805130434782608,0.5484637681159451,8.343107246376812,-0.9575507246376807
5.8131264822134385,0.4706355731225298,8.358672885375494,-0.9708774703557312
5.821122529644269,0.37788735177862337,8.368915019762836,-0.9744426877470161
5.829118577075098,1.2270056137938794,8.444365927708079,-0.48411582746175474
5.837114624505928,1.3485687116915743,8.482723778426989,-0.5564279085753503
5.845110671936759,1.4701318095892693,8.521081629145899,-0.6287399896889458
5.853106719367589,1.5916949074869644,8.559439479864809,-0.7010520708025413
5.861102766798418,1.7132580053846458,8.597797330583715,-0.7733641519161287
5.869098814229249,1.8348211032823407,8.636155181302627,-0.8456762330297243
5.877094861660079,1.9563842011800359,8.674513032021537,-0.9179883141433198
5.885090909090909,2.077947299077731,8.712870882740447,-0.9903003952569154
5.8930869565217385,2.1995103969754126,8.751228733459353,-1.0626124763705027
5.901083003952569,4.356082213438804,9.549713043478217,-2.862420553359549
5.909079051383399,3.666897513029474,8.884351743677634,-4.927880233656296
5.917075098814229,4.274172548882444,9.070312917555706,-5.173564098079684
5.925071146245059,4.881447584735347,9.256274091433756,-5.419247962503044
5.933067193675889,5.488722620588317,9.442235265311828,-5.6649318269264315
5.941063241106719,6.095997656441287,9.628196439189898,-5.910615691349819
5.9490592885375495,6.703272692294257,9.81415761306797,-6.156299555773207
5.957055335968379,7.31054772814716,10.00011878694602,-6.401983420196567
5.965051383399209,7.91782276400013,10.18607996082409,-6.6476672846199545
5.973047430830039,8.5250977998531,10.372041134702162,-6.893351149043342
5.98104347826087,9.13237283570607,10.558002308580232,-7.13903501346673
5.989039525691699,9.739647871558972,10.743963482458282,-7.384718877890091
5.997035573122529,10.346922907411942,10.929924656336354,-7.630402742313478
6.00503162055336,10.954197943264912,11.115885830214424,-7.876086606736866
6.01302766798419,11.561472979117884,11.301847004092496,-8.121770471160254
6.021023715415019,8.850517786561833,9.135086956521594,-7.5530553359687405
6.0290197628458495,6.066671662818456,9.837072359409854,-5.563191132156693
6.03701581027668,5.853707627284461,9.874360857824913,-5.127762806715441
6.04501185770751,5.640743591750467,9.911649356239973,-4.692334481274188
6.053007905138339,5.427779556216496,9.948937854655028,-4.256906155832985
6.06100395256917,5.214815520682502,9.986226353070089,-3.8214778303917325
6.069,5.001851485148507,10.02351485148515,-3.3860495049504804
6.07699604743083,4.7888874496145135,10.060803349900208,-2.9506211795092283
6.08499209486166,4.575923414080543,10.098091848315265,-2.515192854068024
6.09298814229249,4.362959378546549,10.135380346730324,-2.079764528626772
6.10098418972332,4.149995343012554,10.172668845145385,-1.64433620318552
6.10898023715415,3.9370313074785597,10.209957343560445,-1.2089078777442674
6.11697628458498,3.724067271944589,10.2472458419755,-0.7734795523030638
6.12497233201581,2.458683794466656,8.041691699605268,-1.1484466403160276
6.13296837944664,5.7600461133069825,7.423119235836626,-3.3268524374176547
6.140964426877471,5.613940711462433,8.130643390426002,-3.145897672375922
6.1489604743083,3.8681581027668988,8.355640316205534,-2.18665612648225
6.15695652173913,1.5898525519848763,8.196136105860115,-1.0476250787649637
6.1649525691699605,1.5370091080941723,8.259061522598387,-0.9619862519333189
6.17294861660079,1.4841656642034746,8.321986939336652,-0.8763474251016836
6.18094466403162,1.431322220312771,8.384912356074924,-0.7907085982700387
6.18894071146245,1.378478776422067,8.447837772813196,-0.7050697714383938
6.196936758893281,1.3256353325313632,8.510763189551469,-0.619430944606749
6.20493280632411,1.2727918886406655,8.573688606289734,-0.5337921177751136
6.21292885375494,1.2199484447499618,8.636614023028006,-0.4481532909434688
6.220924901185771,1.1671050008592578,8.699539439766278,-0.36251446411182386
6.228920948616601,-0.09541686990160389,8.983051677739466,0.5498192330333841
6.23691699604743,-0.029577075098817518,8.948770750988144,0.4787905138339957
6.2449130434782605,0.03626271970397617,8.914489824236819,0.4077617946345994
6.252909090909091,0.10210251450676987,8.880208897485494,0.33673307543520314
6.260905138339921,0.16794230930956355,8.845927970734168,0.26570435623580685
6.26890118577075,0.2337821041123499,8.811647043982846,0.19467563703641844
6.276897233201581,0.2996218989151436,8.777366117231521,0.12364691783702214
6.284893280632411,0.3654616937179373,8.743085190480196,0.052618198637625846
6.292889328063241,0.431301488520731,8.70880426372887,-0.018410520561770394
6.300885375494071,0.49714128332351737,8.674523336977549,-0.08943923976115886
6.308881422924901,0.562981078126311,8.640242410226223,-0.1604679589605551
6.316877470355731,0.6288208729291047,8.605961483474898,-0.23149667815995145
6.324873517786561,3.749359683794366,8.088715415019777,-0.46766403162055914
6.332869565217391,8.350971482000977,7.64996306685367,-3.3092585320243457
6.340865612648221,7.94205533596841,7.64497628458498,-2.976347826086982
6.348861660079051,7.533139189935843,7.639989502316291,-2.6434371201496187
6.3568577075098815,7.124223043903276,7.6350027200476,-2.310526414212255
6.364853754940711,6.715306897870754,7.630015937778912,-1.9776157082749288
6.372849802371541,6.306390751838187,7.625029155510221,-1.6447050023375653
6.3808458498023715,5.89747460580562,7.620042373241532,-1.3117942964002016
6.388841897233202,5.488558459773053,7.615055590972842,-0.9788835904628383
6.396837944664031,5.07964231374053,7.610068808704153,-0.6459728845255119
6.404833992094861,4.670726167707963,7.605082026435463,-0.3130621785881482
6.412830039525692,4.261810021675395,7.600095244166773,0.01984852734921505
6.420826086956522,3.8528938756428284,7.595108461898083,0.3527592332865783
6.428822134387351,5.05145849802371,8.600674703557313,-4.268589920948645
6.4368181818181816,5.1207575757575725,8.577086363636365,-3.9217613636363824
6.444814229249012,5.1900566534914345,8.553498023715417,-3.57493280632412
6.452810276679842,5.2593557312252965,8.529909683794466,-3.2281042490118574
6.4608063241106715,5.3286548089591514,8.50632134387352,-2.881275691699633
6.468802371541502,5.3979538866930135,8.482733003952571,-2.5344471343873707
6.476798418972332,5.4672529644268755,8.459144664031621,-2.187618577075108
6.484794466403161,5.53655204216073,8.435556324110674,-1.8407900197628844
6.492790513833992,5.605851119894592,8.411967984189726,-1.493961462450622
6.500786561264822,5.675150197628454,8.388379644268776,-1.1471329051383594
6.508782608695652,5.744449275362317,8.364791304347827,-0.8003043478260969
6.5167786561264816,5.813748353096171,8.34120296442688,-0.45347579051387266
6.524774703557312,5.883047430830034,8.317614624505932,-0.10664723320161063
6.532770750988142,5.952346508563896,8.294026284584982,0.24018132411065185
6.540766798418972,6.021645586297758,8.270437944664033,0.5870098814229152
6.548762845849802,5.994925760439961,8.178721429798959,0.6507518473965112
6.556758893280632,5.786333218766125,7.957960989860816,0.1782897405052729
6.564754940711462,5.577740677092288,7.737200549922672,-0.29417236638596533
6.5727509881422925,4.698952569169908,8.402687747035591,-0.3205415019762443
6.580747035573122,3.4295454545454613,8.843729907773383,0.655964426877465
6.588743083003952,3.3069393939393965,8.897925340360121,0.7519169960474287
6.596739130434782,3.184333333333332,8.952120772946861,0.8478695652173923
6.604735177865613,3.0617272727272673,9.006316205533599,0.943822134387356
6.612731225296442,2.9391212121212167,9.060511638120332,1.0397747035573088
6.620727272727272,2.816515151515152,9.11470707070707,1.1357272727272725
6.628723320158103,2.693909090909087,9.16890250329381,1.2316798418972361
6.636719367588933,2.5713030303030227,9.223097935880547,1.3276324110671998
6.644715415019762,1.6799226425748226,9.103142292490173,1.5378989271598118
6.6527114624505925,3.778691345643317,7.576068845495839,-0.4714522447053171
6.660707509881423,3.9100890802902435,7.610559259040763,-0.6338794171435256
6.668703557312253,4.041486814937171,7.645049672585688,-0.796306589581734
6.676699604743082,4.172884549584083,7.679540086130609,-0.9587337620199243
6.684695652173913,4.30428228423101,7.714030499675533,-1.1211609344581328
6.692691699604743,4.435680018877937,7.7485209132204576,-1.2835881068963413
6.700687747035573,4.567077753524863,7.783011326765382,-1.4460152793345498
6.708683794466403,4.698475488171776,7.817501740310303,-1.60844245177274
6.716679841897233,4.829873222818703,7.851992153855227,-1.7708696242109485
6.724675889328063,5.05341238471674,8.915823451910452,-2.335451910408453
6.732671936758893,5.153025313262138,8.824929736775715,-2.0469591708014576
6.740667984189723,4.728724413421956,8.702181902279047,-1.4308381969557389
6.748664031620553,4.3044235135817255,8.579434067782364,-0.8147172231099518
6.756660079051383,3.880122613741496,8.456686233285682,-0.19859624926416508
6.764656126482214,3.4558217139012655,8.333938398789,0.41752472458162204
6.772652173913043,3.031520814061083,8.21119056429233,1.0336456984273408
6.780648221343873,2.607219914220853,8.088442729795648,1.6497666722731275
6.7886442687747035,2.182919014380623,7.965694895298966,2.265887646118915
6.796640316205534,1.758618114540393,7.842947060802283,2.8820086199647017
6.804636363636363,1.33431721470021,7.720199226305614,3.49812959381042
6.812632411067193,0.9100163148599805,7.597451391808932,4.114250567656208
6.820628458498024,0.48571541501975,7.47470355731225,4.730371541501994
6.828624505928853,9.780409373235967,8.681023715414849,-5.062648785996922
6.836620553359683,3.6239759252605075,8.021126841537908,-2.035846748113584
6.844616600790514,3.6570504850880328,8.028032518864535,-1.5783456252246024
6.852612648221344,3.6901250449155576,8.034938196191161,-1.1208445023356213
6.860608695652173,3.7231996047430793,8.041843873517786,-0.6633433794466905
6.8686047430830035,3.7562741645706046,8.048749550844413,-0.20584225655770938
6.876600790513834,3.7893487243981294,8.055655228171037,0.251658866331272
6.884596837944664,3.8224232842256547,8.062560905497664,0.7091599892202534
6.892592885375493,3.8554978440531764,8.069466582824289,1.166661112109184
6.900588932806324,3.8885724038807012,8.076372260150915,1.6241622349981655
6.908584980237154,3.9216469637082265,8.083277937477542,2.081663357887147
6.916581027667984,3.954721523535752,8.090183614804168,2.539164480776128
6.924577075098814,5.741576284584853,8.09332252964427,0.020819762846385093
6.932573122529644,4.848745894625327,8.568936514404463,-0.6369585591459301
6.940569169960474,4.7893937899841115,8.609905953302635,-0.5247665946783009
6.948565217391304,4.730041685342897,8.650875392200806,-0.41257463021067153
6.956561264822134,4.670689580701689,8.691844831098974,-0.3003826657430546
6.964557312252964,4.611337476060474,8.732814269997146,-0.1881907012754253
6.972553359683794,4.55198537141926,8.773783708895317,-0.07599873680779601
6.980549407114625,4.4926332667780455,8.814753147793489,0.03619322765983335
6.988545454545454,4.433281162136837,8.855722586691655,0.14838519212745027
6.996541501976284,4.373929057495623,8.896692025589827,0.2605771565950795
7.0045375494071145,4.3145769528544085,8.937661464487999,0.3727691210627089
7.012533596837945,4.255224848213194,8.978630903386172,0.4849610855303381
7.020529644268774,4.195872743571986,9.019600342284338,0.5971530499979552
7.028525691699604,4.1365206389307705,9.06056978118251,0.7093450144655844
7.036521739130435,1.8030965621840238,8.450648129423662,1.5446511627907011
7.044517786561265,1.8193675889328063,8.406762845849803,1.4377272727272736
7.052513833992094,1.835638615681587,8.362877562275948,1.330803382663858
7.060509881422925,1.8519096424303694,8.318992278702089,1.2238794926004304
7.068505928853755,1.8681806691791518,8.27510699512823,1.1169556025370027
7.076501976284585,1.8844516959279343,8.231221711554372,1.010031712473575
7.0844980237154145,1.900722722676715,8.187336427980517,0.9031078224101594
7.092494071146245,1.9169937494254974,8.143451144406658,0.7961839323467318
7.100490118577075,1.9332647761742798,8.099565860832799,0.6892600422833042
7.108486166007905,1.9495358029230623,8.05568057725894,0.5823361522198766
7.116482213438735,1.965806829671843,8.011795293685086,0.4754122621564607
7.124478260869565,4.456608695651908,8.5505652173912,-1.6830434782606185
7.132474308300395,1.1777852862424831,7.750901993284886,4.4615097114199695
7.1404703557312255,2.3640376131582386,7.575590802839049,3.5599338688426987
7.148466403162055,3.5502899400738617,7.400279612393231,2.6583580262655278
7.156462450592885,4.736542266989617,7.224968421947392,1.756782183688257
7.164458498023715,5.922794593905372,7.049657231501555,0.8552063411109856
7.172454545454545,7.109046920820996,6.874346041055736,-0.04636950146618535
7.180450592885375,8.29529924773675,6.699034850609898,-0.9479453440434558
7.188446640316205,9.481551574652505,6.523723660164061,-1.849521186620727
7.1964426877470355,10.66780390156826,6.348412469718222,-2.7510970291979984
7.204438735177865,11.854056228483882,6.173101279272404,-3.6526728717751693
7.212434782608695,13.040308555399639,5.997790088826566,-4.554248714352441
7.2204308300395255,14.226560882315393,5.822478898380728,-5.45582455692971
7.228426877470356,3.920055335968379,7.8408915866741955,0.4732659514398571
7.236422924901185,3.996017786561257,7.774638622247324,2.974886504799292
7.244418972332015,4.145766164056003,7.754547162445712,3.87572458888404
7.252415019762846,4.355242863416768,7.771822573561703,3.480759332455002
7.260411067193676,4.564719562777532,7.789097984677695,3.085794076025964
7.268407114624505,4.774196262138274,7.806373395793684,2.6908288195969696
7.2764031620553355,4.983672961499038,7.8236488069096755,2.2958635631679316
7.284399209486166,5.1931496608598025,7.840924218025667,1.9008983067388936
7.292395256916996,5.402626360220567,7.858199629141659,1.5059330503098551
7.3003913043478255,5.612103059581308,7.875475040257648,1.110967793880861
7.308387351778656,5.821579758942073,7.892750451373639,0.7160025374518226
7.316383399209486,6.031056458302837,7.910025862489631,0.3210372810227846
7.324379446640316,6.00308300395255,7.830083003952598,-2.0302193675890607
7.332375494071146,3.3061061178896747,9.162608867503009,1.3204542876782979
7.340371541501976,3.2423984791201255,9.121411840522427,1.2623091166867173
7.348367588932806,3.178690840350576,9.080214813541845,1.2041639456951365
7.356363636363636,3.114983201581026,9.039017786561264,1.146018774703556
7.364359683794466,3.051275562811484,8.997820759580687,1.0878736037119818
7.372355731225296,2.9875679240419344,8.956623732600104,1.0297284327204013
7.380351778656126,2.923860285272385,8.915426705619522,0.9715832617288206
7.388347826086957,2.8601526465028355,8.87422967863894,0.9134380907372399
7.396343873517786,2.796445007733293,8.833032651658364,0.8552929197456658
7.404339920948616,2.7327373689637438,8.791835624677782,0.7971477487540851
7.4123359683794465,2.669029730194194,8.7506385976972,0.7390025777625046
7.420332015810277,2.605322091424645,8.709441570716619,0.6808574067709239
7.428328063241106,1.8017944664031447,8.847088932806384,2.1282509881423186
7.436324110671936,2.498687613802894,8.050416352089535,1.274993826886359
7.444320158102767,2.6201556601678666,8.027146955633523,1.199166141137811
7.452316205533597,2.7416237065328395,8.00387755917751,1.1233384553892627
7.460312252964426,2.863091752897799,7.980608162721502,1.047510769640723
7.468308300395257,2.9845597992627715,7.95733876626549,0.9716830838921751
7.476304347826087,3.106027845627745,7.934069369809478,0.8958553981436269
7.484300395256917,3.2274958919927172,7.910799973353466,0.8200277123950788
7.4922964426877465,3.348963938357677,7.887530576897458,0.7442000266465391
7.500292490118577,3.4704319847226497,7.864261180441446,0.668372340897991
7.508288537549407,3.591900031087622,7.840991783985434,0.5925446551494429
7.516284584980236,3.7133680774525817,7.817722387529424,0.5167169694009032
7.524280632411067,6.500003952568955,8.367266798418756,-5.015968379446179
7.532276679841897,2.990164073669107,6.003174585821195,3.0107045664789
7.540272727272727,4.042069632495137,6.289841392649896,2.0373984526112445
7.548268774703557,5.093975191321049,6.576508199478565,1.0640923387436971
7.556264822134387,6.145880750147079,6.863175006307266,0.09078622487604182
7.564260869565217,7.197786308973107,7.149841813135967,-0.8825198889916135
7.572256916996047,8.249691867799138,7.436508619964668,-1.8558260028592692
7.580252964426877,9.301597426625051,7.723175426793338,-2.8291321167268166
7.588249011857707,10.35350298545108,8.009842233622038,-3.8024382305944724
7.596245059288537,11.405408544277108,8.29650904045074,-4.775744344462128
7.604241106719368,12.457314103103139,8.58317584727944,-5.749050458329782
7.612237154150197,13.50921966192905,8.86984265410811,-6.722356572197329
7.620233201581027,14.56112522075508,9.15650946093681,-7.695662686064985
7.6282292490118575,7.5208359683793935,8.040169960474353,-3.16013833992051
7.636225296442688,6.819482213438724,9.12039130434785,-0.087598155467698
7.644221343873517,5.2123256049358915,8.103982647257304,-1.8977179215270492
7.652217391304347,5.221004241781548,8.064587486744433,-1.75183881230117
7.660213438735178,5.229682878627205,8.025192326231561,-1.6059597030752906
7.668209486166008,5.238361515472863,7.985797165718691,-1.4600805938494112
7.676205533596837,5.247040152318519,7.946402005205824,-1.3142014846235481
7.684201581027668,5.255718789164177,7.907006844692953,-1.1683223753976688
7.692197628458498,5.264397426009833,7.8676116841800825,-1.0224432661717895
7.700193675889328,5.27307606285549,7.828216523667211,-0.8765641569459104
7.7081897233201575,5.281754699701147,7.788821363154344,-0.7306850477200473
7.716185770750988,5.290433336546804,7.749426202641473,-0.584805938494168
7.724181818181818,5.299111973392462,7.710031042128603,-0.43892682926828863
7.732177865612648,2.022984189723173,8.795316205533616,1.9716086956522938
7.740173913043478,1.5708950524737597,8.782032983508248,2.279825587206396
7.748169960474308,1.6199742401526491,8.76135355049748,2.286075371405206
7.756166007905138,1.6690534278315385,8.740674117486712,2.2923251556040163
7.7641620553359685,1.718132615510428,8.719994684475944,2.298574939802826
7.772158102766798,1.7672118031893118,8.699315251465178,2.304824724001635
7.780154150197628,1.8162909908682012,8.67863581845441,2.311074508200445
7.788150197628458,1.8653701785470906,8.657956385443642,2.3173242923992547
7.796146245059289,1.91444936622598,8.637276952432874,2.3235740765980646
7.804142292490118,1.963528553904864,8.616597519422108,2.329823860796874
7.812138339920948,2.012607741583753,8.59591808641134,2.336073644995684
7.820134387351779,2.0616869292626427,8.575238653400572,2.3423234291944937
7.828130434782609,4.326492753623211,7.974673913043481,0.39285507246374474
7.836126482213438,6.04092428634168,8.471126482213437,-2.1065747474747365
7.8441225296442685,6.022089152393502,8.479122529644268,-2.2026161616161533
7.852118577075099,6.003254018445324,8.487118577075098,-2.2986575757575705
7.860114624505928,5.984418884497148,8.495114624505927,-2.3946989898989766
7.868110671936758,5.96558375054897,8.503110671936756,-2.4907404040403938
7.876106719367589,5.946748616600792,8.511106719367588,-2.5867818181818105
7.884102766798419,5.927913482652614,8.519102766798419,-2.6828232323232277
7.892098814229248,5.909078348704438,8.527098814229248,-2.7788646464646343
7.900094861660079,5.89024321475626,8.535094861660077,-2.874906060606051
7.908090909090909,5.871408080808083,8.543090909090907,-2.9709474747474682
7.916086956521739,5.852572946859905,8.551086956521738,-3.0669888888888854
7.9240830039525685,13.509134387354878,7.50804150197575,-9.217007905139967
7.932079051383399,4.553307662884097,9.52137638658677,0.4813624888435429
7.940075098814229,4.602917548557098,9.459385524246677,0.6996631816056704
7.948071146245059,4.652527434230098,9.397394661906585,0.9179638743677978
7.956067193675889,4.702137319903093,9.3354037995665,1.136264567129901
7.964063241106719,4.751747205576093,9.273412937226407,1.3545652598920286
7.972059288537549,4.801357091249093,9.211422074886315,1.5728659526541562
7.9800553359683795,4.850966976922094,9.149431212546224,1.7911666454162836
7.988051383399209,4.900576862595089,9.087440350206139,2.009467338178387
7.996047430830039,4.950186748268089,9.025449487866046,2.2277680309405143
8.004043478260868,4.9997966339410835,8.963458625525961,2.4460687237026177
8.0120395256917,5.04940651961409,8.901467763185861,2.6643694164647695
8.020035573122529,5.0990164052870846,8.839476900845776,2.8826701092268725
8.02803162055336,6.379924901185759,7.947034495149104,-2.1312766798419216
8.03602766798419,4.313587615283178,8.774387351778719,0.14391699604760952
8.044023715415019,3.1208846923339753,9.528740594349294,2.3766110867125376
8.05201976284585,3.002918313570478,9.466252964426872,2.3537088274044775
8.06001581027668,2.8849519348070065,9.403765334504465,2.330806568096423
8.068011857707509,2.7669855560435352,9.341277704582057,2.3079043087883684
8.07600790513834,2.6490191772800378,9.278790074659636,2.2850020494803087
8.08400395256917,2.531052798516567,9.216302444737227,2.262099790172254
8.092,2.4130864197530695,9.153814814814806,2.2391975308641943
8.09999604743083,2.295120040989598,9.091327184892398,2.2162952715561395
8.10799209486166,2.177153662226127,9.028839554969991,2.1933930122480847
8.11598814229249,2.05918728346263,8.966351925047569,2.170490752940025
8.12398418972332,1.7047272727272513,8.89781422924901,2.0722332015810214
8.13198023715415,1.8277332015808443,8.010472332016036,1.8570671936761005
8.13997628458498,1.8608721854598762,7.976307056890348,1.7711475329750814
8.14797233201581,1.8888134298529988,7.948545498956345,1.6910972154372281
8.15596837944664,1.9167546742461279,7.920783941022336,1.611046897899357
8.16396442687747,1.9446959186392507,7.893022383088333,1.5309965803615038
8.1719604743083,1.9726371630323734,7.86526082515433,1.4509462628236505
8.17995652173913,2.000578407425502,7.837499267220321,1.3708959452857794
8.18795256916996,2.028519651818625,7.809737709286318,1.290845627747926
8.19594861660079,2.056460896211748,7.781976151352315,1.2107953102100728
8.20394466403162,2.084402140604877,7.754214593418306,1.1307449926722017
8.21194071146245,2.112343384998,7.726453035484303,1.0506946751343484
8.21993675889328,2.1402846293911226,7.6986914775503,0.9706443575964953
8.22793280632411,1.4450941888822926,6.547286098730129,1.5978101084854435
8.23592885375494,2.663130392733852,6.618314817929518,0.8418433689345803
8.243924901185771,3.8811665965856816,6.689343537128923,0.08587662938354934
8.2519209486166,5.099202800437241,6.760372256328312,-0.670090110167314
8.25991699604743,6.3172390042888,6.831400975527701,-1.4260568497181771
8.267913043478261,7.5352752081406305,6.902429694727106,-2.182023589269208
8.27590909090909,8.75331141199219,6.973458413926495,-2.937990328820071
8.28390513833992,9.971347615843747,7.044487133125884,-3.693957068370934
8.291901185770751,11.189383819695578,7.115515852325288,-4.449923807921965
8.29989723320158,12.40742002354714,7.186544571524678,-5.205890547472828
8.307893280632412,13.625456227398967,7.257573290724082,-5.961857287023859
8.31588932806324,14.843492431250528,7.328602009923471,-6.717824026574723
8.32388537549407,4.246411067195776,8.221723320159999,-0.9707470355756747
8.331881422924901,6.256522376641595,8.693284457477993,-1.4317993114879572
8.33987747035573,6.284379574142548,8.58056598240469,-1.4931883207956151
8.34787351778656,6.312236771643502,8.467847507331385,-1.554577330103273
8.355869565217391,6.340093969144463,8.355129032258056,-1.6159663394109445
8.36386561264822,6.367951166645416,8.242410557184751,-1.6773553487186024
8.371861660079052,6.395808364146377,8.129692082111422,-1.7387443580262738
8.379857707509881,6.42366556164733,8.016973607038118,-1.8001333673339317
8.38785375494071,6.451522759148284,7.904255131964812,-1.8615223766415894
8.395849802371542,6.479379956649245,7.791536656891483,-1.922911385949261
8.403845849802371,6.507237154150198,7.678818181818179,-1.984300395256919
8.4118418972332,6.535094351651153,7.5660997067448745,-2.045689404564577
8.419837944664032,6.562951549152113,7.453381231671544,-2.107078413872248
8.427833992094861,4.217318029796363,8.6129954393432,-0.43885466707214493
8.435830039525692,3.2534867740954008,9.491330495591427,0.7027348738219117
8.443826086956522,1.9424471282877087,8.746417069243156,0.913538378958671
8.451822134387351,1.9621904552774105,8.749378568291611,0.9710901771336519
8.459818181818182,1.9819337822671168,8.752340067340066,1.0286419753086455
8.467814229249012,2.0016771092568186,8.755301566388523,1.0861937734836264
8.47581027667984,2.0214204362465207,8.758263065436978,1.1437455716586074
8.483806324110672,2.0411637632362267,8.761224564485433,1.201297369833601
8.491802371541501,2.0609070902259288,8.76418606353389,1.258849168008582
8.499798418972333,2.080650417215635,8.767147562582345,1.3164009661835756
8.507794466403162,2.100393744205337,8.770109061630802,1.3739527643585565
8.515790513833991,2.1201370711950385,8.773070560679257,1.4315045625335374
8.523786561264822,3.1292490118585836,8.058343873517122,1.4478418972323506
8.531782608695652,5.864193548387098,7.687964936886387,-1.7671640953716474
8.539778656126481,5.8582609970674495,7.770332823324393,-1.9873563262356695
8.547774703557312,5.8523284457478,7.852700709762417,-2.2075485570997406
8.555770750988142,5.846395894428153,7.9350685962004235,-2.4277407879637622
8.563766798418971,5.840463343108506,8.017436482638429,-2.6479330188277843
8.571762845849802,5.834530791788857,8.099804369076454,-2.8681252496918552
8.579758893280632,5.828598240469209,8.182172255514459,-3.0883174805558773
8.587754940711463,5.82266568914956,8.264540141952484,-3.308509711419948
8.595750988142292,5.816733137829913,8.346908028390489,-3.52870194228397
8.603747035573122,5.810800586510265,8.429275914828494,-3.748894173147992
8.611743083003953,5.804868035190616,8.51164380126652,-3.969086404012063
8.619739130434782,5.798935483870968,8.594011687704525,-4.189278634876085
8.627735177865612,7.968580368906881,9.285620553359866,-5.1534328063239805
8.635731225296443,5.2081751565483865,8.081888883954344,-5.7865655282675155
8.643727272727272,5.225694586312563,8.043076608784476,-5.329173646578164
8.651723320158103,5.2432140160767435,8.004264333614598,-4.871781764888713
8.659719367588933,5.26073344584092,7.965452058444731,-4.414389883199362
8.667715415019762,5.278252875605097,7.9266397832748625,-3.956998001510012
8.675711462450593,5.295772305369277,7.887827508104985,-3.49960611982056
8.683707509881422,5.313291735133454,7.849015232935117,-3.04221423813121
8.691703557312252,5.33081116489763,7.810202957765249,-2.5848223564418595
8.699699604743083,5.348330594661811,7.7713906825953725,-2.1274304747524075
8.707695652173912,5.3658500244259875,7.732578407425504,-1.6700385930630572
8.715691699604744,5.383369454190168,7.693766132255627,-1.2126467113736057
8.723687747035573,4.650494071146351,7.8547984189723055,-0.01845981554689935
8.731683794466402,6.003747035573132,8.43407905138342,-2.925418972331881
8.739679841897233,5.905049962250733,8.391305635741881,-3.2222557179020503
8.747675889328063,5.81035519829462,8.367676866367633,-3.404727317138167
8.755671936758892,5.715660434338506,8.344048096993385,-3.587198916374284
8.763667984189723,5.620965670382371,8.32041932761913,-3.769670515610441
8.771664031620553,5.526270906426257,8.296790558244881,-3.9521421148465583
8.779660079051384,5.4315761424701225,8.273161788870627,-4.1346137140827155
8.787656126482213,5.336881378514009,8.24953301949638,-4.317085313318832
8.795652173913043,5.242186614557895,8.225904250122131,-4.499556912554949
8.803648221343874,5.14749185060176,8.202275480747877,-4.682028511791106
8.811644268774703,5.052797086645646,8.178646711373629,-4.864500111027223
8.819640316205533,4.958102322689532,8.15501794199938,-5.04697171026334
8.827636363636364,3.9296528925620215,8.338628099173546,-4.8234049586776955
8.835632411067193,1.4442233201585406,7.911486166008083,-4.390598814229207
8.843628458498024,3.974352445354537,7.6484078289442365,-5.1803962569646576
8.851624505928854,3.95354345445021,7.654669793799705,-5.421048383256366
8.859620553359683,3.932734463545883,7.660931758655174,-5.661700509548074
8.867616600790514,3.9119254726415513,7.667193723510644,-5.902352635839835
8.875612648221344,3.8911164817372246,7.673455688366113,-6.143004762131542
8.883608695652173,3.8703074908328974,7.679717653221582,-6.38365688842325
8.891604743083004,3.8494984999285657,7.685979618077051,-6.624309014715012
8.899600790513833,3.828689509024239,7.69224158293252,-6.864961141006719
8.907596837944663,3.807880518119912,7.698503547787989,-7.105613267298427
8.915592885375494,3.78707152721558,7.704765512643459,-7.346265393590189
8.923588932806323,2.523581027668235,6.874845849802539,-7.2697826086957
8.931584980237155,3.2624533157663707,5.483451119894591,-7.589319718928432
8.939581027667984,3.3369942468159897,5.434941765480893,-7.703041282389115
8.947577075098813,3.411535177865609,5.386432411067196,-7.816762845849797
8.955573122529644,3.4860761089152446,5.337923056653488,-7.9304844093105045
8.963569169960474,3.560617039964864,5.2894137022397905,-8.044205972771188
8.971565217391303,3.635157971014483,5.240904347826094,-8.15792753623187
8.979561264822134,3.709698902064119,5.192394993412385,-8.271649099692578
8.987557312252964,3.784239833113738,5.143885638998688,-8.38537066315326
8.995553359683795,3.858780764163374,5.0953762845849795,-8.499092226613968
9.003549407114624,3.933321695212993,5.046866930171282,-8.61281379007465
9.011545454545454,4.007862626262612,4.998357575757585,-8.726535353535333
9.019541501976285,4.082403557312248,4.949848221343877,-8.84025691699604
9.027537549407114,2.997786561264448,3.85522727272714,-8.310102766798181
9.035533596837944,3.0521574652556778,3.9588158867780137,-8.53433044328274
9.043529644268775,2.870827744485539,3.984093714139996,-8.620653363933863
9.051525691699604,2.6894980237154407,4.009371541501973,-8.706976284584968
9.059521739130435,2.5081683029453017,4.034649368863955,-8.793299205236092
9.067517786561265,2.326838582175203,4.059927196225932,-8.879622125887195
9.075513833992094,2.1455088614051046,4.085205023587909,-8.9659450465383
9.083509881422925,1.9641791406349658,4.110482850949891,-9.052267967189424
9.091505928853755,1.7828494198648672,4.1357606783118674,-9.138590887840529
9.099501976284584,1.6015196990947687,4.161038505673845,-9.224913808491632
9.107498023715415,1.42018997832463,4.186316333035827,-9.311236729142756
9.115494071146244,1.2388602575545313,4.211594160397803,-9.39755964979386
9.123490118577076,0.8732885375492266,3.4322687747031266,-9.283114624505716
9.131486166007905,0.43218628075991306,2.9872190488333583,-9.48685758000765
9.139482213438734,0.4394944961536818,2.8730389306813002,-9.516348378596621
9.147478260869566,0.4468027115474522,2.758858812529217,-9.545839177185602
9.155474308300395,0.454110926941221,2.6446786943771583,-9.575329975774574
9.163470355731224,0.4614191423349898,2.5304985762251,-9.604820774363548
9.171466403162055,0.46872735772876023,2.4163184580730164,-9.634311572952527
9.179462450592885,0.47603557312252903,2.3021383399209583,-9.6638023715415
9.187458498023716,0.48334378851629944,2.1879582217688744,-9.69329317013048
9.195454545454545,0.49065200391006825,2.0737781036168164,-9.722783968719451
9.203450592885375,0.49796021930383705,1.9595979854647583,-9.752274767308425
9.211446640316206,0.5052684346976074,1.8454178673126747,-9.781765565897404
9.219442687747035,0.5125766500913762,1.7312377491606163,-9.811256364486377
9.227438735177865,0.437108977978474,1.9407131564087097,-9.710731789949183
9.235434782608696,0.5459407114624516,1.5172292490118555,-10.003996047430832
9.243430830039525,0.5260414570607284,1.5573912145167035,-9.984278521379808
9.251426877470355,0.506142202659005,1.5975531800215514,-9.964560995328785
9.259422924901186,0.4862429482572773,1.6377151455264083,-9.944843469277759
9.267418972332015,0.466343693855554,1.6778771110312563,-9.925125943226735
9.275415019762846,0.4464444394538263,1.718039076536113,-9.905408417175709
9.283411067193676,0.42654518505210304,1.758201042040961,-9.885690891124685
9.291407114624505,0.4066459306503797,1.798363007545809,-9.865973365073664
9.299403162055336,0.386746676248652,1.8385249730506659,-9.846255839022636
9.307399209486166,0.3668474218469287,1.8786869385555138,-9.826538312971614
9.315395256916995,0.3469481674452054,1.9188489040603618,-9.806820786920591
9.323391304347826,1.6940869565221484,1.5023913043478656,-8.922173913043295
9.331387351778655,-0.24026679841885085,2.464683794466372,-9.768409090908904
9.339383399209487,-0.2430897544077825,2.2685361282586554,-9.926616511968732
9.347379446640316,-0.18145729892970341,2.039525736110516,-9.998760625305318
9.355375494071145,-0.11982484345162436,1.810515343962377,-10.070904738641904
9.363371541501976,-0.0581923879735316,1.5815049518141866,-10.143048851978504
9.371367588932806,0.003440067504547506,1.3524945596660474,-10.21519296531509
9.379363636363635,0.06507252298262656,1.123484167517908,-10.287337078651674
9.387359683794466,0.12670497846071932,0.8944737753697178,-10.359481191988277
9.395355731225296,0.18833743393879837,0.6654633832215784,-10.43162530532486
9.403351778656127,0.2499698894168912,0.4364529910733883,-10.503769418661463
9.411347826086956,0.31160234489497024,0.20744259892524886,-10.575913531998049
9.419343873517786,0.3732348003730493,-0.021567793222890153,-10.648057645334633
9.427339920948617,1.2360000000000009,1.0208893280632394,-9.920399209486167
9.435335968379446,0.3085375494071778,1.5860869565217344,-10.00470750988142
9.443332015810276,0.13165843214754655,1.6571245059288464,-9.893288537549425
9.451328063241107,0.24906706192358302,1.7106980237154148,-9.76055415019763
9.459324110671936,0.36647569169959343,1.7642715415019712,-9.627819762845863
9.467320158102767,0.48388432147562993,1.8178450592885393,-9.495085375494067
9.475316205533597,0.6012929512516403,1.8714185770750957,-9.3623509881423
9.483312252964426,0.7187015810276507,1.924992094861652,-9.229616600790534
9.491308300395257,0.8361102108036872,1.9785656126482203,-9.096882213438738
9.499304347826087,-0.6856521739137091,0.724760869565624,-10.154021739130474
9.507300395256916,0.7094520750988196,0.006048418972318198,-10.078191452569168
9.515296442687747,0.6249938241106655,0.22693922924902868,-10.094933176877472
9.523292490118576,0.5405355731225303,0.44783003952569,-10.11167490118577
9.531288537549408,0.4560773221343763,0.6687208498024004,-10.128416625494072
9.539284584980237,0.5041468439334091,0.6299202299676556,-10.079184093903459
9.547280632411066,0.5883072623467849,0.5203986106120535,-10.011984988222144
9.555276679841898,0.6724676807601793,0.410876991256427,-9.944785882540817
9.563272727272727,0.756628099173555,0.30135537190082484,-9.877586776859504
9.571268774703556,0.8407885175869307,0.1918337525452226,-9.810387671178189
9.579264822134387,0.9249489360003251,0.08231213318959618,-9.743188565496862
9.587260869565217,1.0091093544137009,-0.027209486166006047,-9.675989459815549
9.595256916996046,1.0932697728270766,-0.13673110552160816,-9.608790354134236
9.603252964426877,1.177430191240471,-0.2462527248772347,-9.541591248452907
9.611249011857707,1.2615906096538467,-0.35577434423283694,-9.474392142771594
9.619245059288538,1.3457510280672411,-0.46529596358846326,-9.407193037090265
9.627241106719367,1.4299114464806169,-0.5748175829440656,-9.339993931408952
9.635237154150197,-0.6884683794460976,-1.2044683794462556,-9.59437944664003
9.643233201581028,-1.2343354583705088,-1.674,-9.919667091674102
9.651229249011857,-1.1053669514216504,-1.674,-9.89387339028433
9.659225296442687,-0.9763984444727919,-1.674,-9.868079688894559
9.667221343873518,-0.8474299375239047,-1.674,-9.84228598750478
9.675217391304347,-0.7184614305750462,-1.674,-9.81649228611501
9.683213438735178,-0.589492923626159,-1.674,-9.790698584725233
9.691209486166008,-0.4605244166773005,-1.674,-9.764904883335461
9.699205533596837,0.6538122529638768,-1.7849090909090302,-9.163138339921266
9.707201581027668,0.2730303030303069,-1.279669301712778,-10.232562582345192
9.715197628458498,0.31981419457735216,-1.2575048193606546,-10.256270161569931
9.723193675889327,0.3665980861243974,-1.2353403370085312,-10.27997774079467
9.731189723320158,0.4133819776714531,-1.2131758546564029,-10.303685320019417
9.739185770750987,0.46016586921849834,-1.1910113723042797,-10.327392899244156
9.747181818181819,0.506949760765554,-1.1688468899521514,-10.3511004784689
9.755177865612648,0.5537336523125993,-1.146682407600028,-10.37480805769364
9.763173913043477,0.6005175438596445,-1.1245179252479045,-10.39851563691838
9.771169960474309,0.6473014354067002,-1.1023534428957762,-10.422223216143125
9.779166007905138,0.6940853269537455,-1.0801889605436528,-10.445930795367865
9.787162055335967,0.7408692185007907,-1.0580244781915293,-10.469638374592604
9.795158102766798,0.7876531100478463,-1.035859995839401,-10.49334595381735
9.803154150197628,0.8344370015948916,-1.0136955134872778,-10.51705353304209
9.811150197628459,0.8812208931419473,-0.9915310311351494,-10.540761112266834
9.819146245059288,0.9280047846889925,-0.9693665487830261,-10.564468691491573
9.827142292490118,0.13802151954325084,-1.8569974747474758,-9.102081466842337
9.835138339920949,0.5076166007905527,-1.808465909090904,-9.128512845849805
9.843134387351778,0.8772116820377724,-1.759934343434343,-9.15494422485727
9.851130434782608,1.246806763284992,-1.711402777777782,-9.181375603864732
9.859126482213439,1.6164018445322939,-1.6628712121212104,-9.207806982872201
9.867122529644268,1.9859969257795136,-1.6143396464646493,-9.234238361879665
9.8751185770751,2.3555920070268157,-1.5658080808080774,-9.260669740887135
9.883114624505929,2.725187088274035,-1.5172765151515164,-9.287101119894597
9.891110671936758,3.0947821695212547,-1.4687449494949556,-9.313532498902061
9.89910671936759,-0.268622529643606,-3.054543478261088,-10.424164031620354
9.907102766798419,0.41214328063234495,-2.180783267457195,-9.59259980237156
9.915098814229248,1.765474308300166,-1.891592885375543,-9.230778656126542
9.92309486166008,1.8879472369304209,-1.7412654560369945,-9.193748228801551
9.931090909090909,1.8540771869639832,-1.6085763293310615,-9.197972555746139
9.939086956521738,1.8202071369975457,-1.4758872026251286,-9.202196882690728
9.947083003952569,1.7863370870311004,-1.3431980759191662,-9.20642120963532
9.955079051383398,1.7524670370646627,-1.2105089492132333,-9.210645536579909
9.96307509881423,1.7185969870982174,-1.0778198225072708,-9.214869863524498
9.971071146245059,1.6847269371317797,-0.9451306958013379,-9.219094190469088
9.979067193675888,1.6508568871653422,-0.812441569095405,-9.223318517413677
9.98706324110672,1.616986837198897,-0.6797524423894425,-9.227542844358267
9.995059288537549,1.5831167872324592,-0.5470633156835096,-9.231767171302856
10.003055335968378,1.5492467372660215,-0.4143741889775767,-9.235991498247445
10.01105138339921,1.5153766872995762,-0.2816850622716143,-9.240215825192035
10.019047430830039,1.4815066373331387,-0.14899593556568136,-9.244440152136624
10.02704347826087,1.1846927144535762,0.5,-10.122873678025847
10.0350395256917,1.1281801089627157,0.5,-10.099641918598438
10.043035573122529,1.0716675034718552,0.5,-10.07641015917103
10.05103162055336,1.0151548979809821,0.5,-10.053178399743615
10.05902766798419,0.9586422924901217,0.5,-10.029946640316206
10.067023715415019,0.9021296869992612,0.5,-10.006714880888797
10.07501976284585,0.8456170815083883,0.5,-9.983483121461383
10.08301581027668,0.7891044760175279,0.5,-9.960251362033974
10.09101185770751,0.7325918705266548,0.5,-9.93701960260656
10.09900790513834,0.6760792650357943,0.5,-9.91378784317915
10.107003952569169,0.7423028656126334,0.34990118577077867,-9.711370553359721
10.115,0.692,-2.8,-10.762
