gyro_time_list,gyro_x_list,gyro_y_list,gyro_z_list
0.0,-0.3,0.1,0.2
0.007996858638743455,0.0,0.09703281322896688,0.09703281322896688
0.01599371727748691,0.0,0.0891151314084288,0.0891151314084288
0.023990575916230363,0.0,0.08119744958789074,0.08119744958789074
0.03198743455497382,0.0,0.07327976776735266,0.07327976776735266
0.039984293193717275,0.0,0.06536208594681459,0.06536208594681459
0.047981151832460725,0.0,0.05744440412627651,0.05744440412627651
0.05597801047120418,0.0,0.04952672230573843,0.04952672230573843
0.06397486910994764,0.0,0.04160904048520035,0.04160904048520035
0.0719717277486911,0.0,0.03369135866466229,0.03369135866466229
0.07996858638743455,0.0,0.02577367684412421,0.02577367684412421
0.08796544502617801,0.0,0.017855995023586133,0.017855995023586133
0.09596230366492145,0.0,0.009938313203048069,0.009938313203048069
0.1039591623036649,0.0,0.002020631382509991,0.002020631382509991
0.11195602094240836,0.0,-0.047801047120418036,-0.14780104712041803
0.11995287958115182,0.1,0.0,-0.1
0.12794973821989528,0.1,0.0,-0.1
0.13594659685863872,0.1,0.0,-0.1
0.1439434554973822,0.1,0.0,-0.1
0.15194031413612563,0.1,0.0,-0.1
0.1599371727748691,0.1,0.0,-0.1
0.16793403141361254,0.1,0.0,-0.1
0.17593089005235601,0.1,0.0,-0.1
0.18392774869109946,0.1,0.0,-0.1
0.1919246073298429,0.1,0.0,-0.1
0.19992146596858637,0.007853403141364068,0.0,-0.007853403141364068
0.2079183246073298,0.0,0.0,0.0973708787321353
0.21591518324607328,0.0,0.0,0.09016650158011416
0.22391204188481673,0.0,0.0,0.08296212442809303
0.2319089005235602,0.0,0.0,0.07575774727607189
0.23990575916230364,0.0,0.0,0.06855337012405077
0.2479026178010471,0.0,0.0,0.06134899297202963
0.25589947643979055,0.0,0.0,0.05414461582000851
0.263896335078534,0.0,0.0,0.04694023866798739
0.27189319371727744,0.0,0.0,0.039735861515966274
0.27989005235602094,0.0,0.0,0.03253148436394511
0.2878869109947644,0.0,0.0,0.02532710721192398
0.2958837696335078,0.0,0.0,0.018122730059902864
0.30388062827225126,0.0,0.0,0.010918352907881748
0.31187748691099476,0.0,0.0,0.003713975755860577
0.3198743455497382,-0.020826061663757747,0.0,0.1
0.32787120418848165,-0.1,-0.04356020942408164,0.056439790575918365
0.3358680628272251,-0.0509424083769638,-0.1,0.0
0.34386492146596853,0.0014179040425713189,-0.09858209595742869,0.0
0.35186178010471203,0.014527508368380333,-0.08547249163161967,0.0
0.3598586387434555,0.027637112694189257,-0.07236288730581075,0.0
0.3678554973821989,0.04074671701999818,-0.05925328298000183,0.0
0.37585235602094236,0.053856321345807104,-0.0461436786541929,0.0
0.3838492146596858,0.06696592567161602,-0.03303407432838398,0.0
0.3918460732984293,0.08007552999742504,-0.019924470002574968,0.0
0.39984293193717274,0.09318513432323396,-0.006814865676766049,0.0
0.4078397905759162,0.1,0.058010471204189513,0.0
0.4158366492146596,-0.006275966897483494,0.0,0.1
0.4238335078534031,-0.01487473962731521,0.0,0.1
0.43183036649214657,-0.023473512357146866,0.0,0.1
0.43982722513089,-0.03207228508697852,0.0,0.1
0.44782408376963345,-0.04067105781681018,0.0,0.1
0.4558209424083769,-0.04926983054664184,0.0,0.1
0.4638178010471204,-0.05786860327647355,0.0,0.1
0.47181465968586384,-0.0664673760063052,0.0,0.1
0.4798115183246073,-0.07506614873613686,0.0,0.1
0.4878083769633507,-0.08366492146596852,0.0,0.1
0.4958052356020942,-0.09226369419580023,0.0,0.1
0.5038020942408377,-0.1,0.0,0.019790575916234218
0.5117989528795811,-0.09636499626028429,0.0,0.0
0.5197958115183245,-0.08597946556061747,0.0,0.0
0.527792670157068,-0.07559393486095066,0.0,0.0
0.5357895287958114,-0.06520840416128384,0.0,0.0
0.5437863874345549,-0.05482287346161703,0.0,0.0
0.5517832460732984,-0.04443734276195007,0.0,0.0
0.5597801047120419,-0.03405181206228326,0.0,0.0
0.5677769633507853,-0.023666281362616434,0.0,0.0
0.5757738219895288,-0.01328075066294962,0.0,0.0
0.5837706806282722,-0.002895219963282805,0.0,0.0
0.5917675392670156,0.0,0.0,0.0
0.5997643979057591,0.0,0.0,0.0
0.6077612565445025,0.0,0.0,0.0
0.615758115183246,0.0,0.0,0.0
0.6237549738219895,0.0,0.0,0.0
0.631751832460733,0.0,0.0,0.0
0.6397486910994764,0.0,0.0,0.0
0.6477455497382199,0.0,0.0,0.0
0.6557424083769633,0.0,0.0,0.0
0.6637392670157067,0.0,0.0,0.0
0.6717361256544502,0.0,0.0,0.0
0.6797329842931936,0.0,0.0,0.0
0.6877298429319371,0.0,0.0,0.0
0.6957267015706806,0.0,0.0,0.0
0.7037235602094241,0.0,0.0,0.0
0.7117204188481675,0.0,0.0,0.0
0.719717277486911,0.0,0.0,0.0
0.7277141361256544,0.0,0.0,0.0
0.7357109947643978,0.0,0.0,0.0
0.7437078534031413,0.0,0.0,0.0
0.7517047120418847,0.0,0.0,0.0
0.7597015706806282,0.0,0.0,0.0
0.7676984293193716,0.0,0.0,0.0
0.7756952879581152,0.0,0.0,0.0
0.7836921465968586,0.0,0.0,0.0
0.791689005235602,0.0,0.0,0.0
0.7996858638743455,0.0,0.0,0.0
0.8076827225130889,0.0,0.0,0.0
0.8156795811518324,0.0,0.0,0.0
0.8236764397905758,0.0,0.0,0.0
0.8316732984293193,0.0,0.0,0.0
0.8396701570680627,0.0,0.0,0.0
0.8476670157068062,0.0,0.0,0.0
0.8556638743455497,0.0,0.0,0.0
0.8636607329842931,0.0,0.0,0.0
0.8716575916230366,0.0,0.0,0.0
0.87965445026178,0.0,0.0,0.0
0.8876513089005235,0.0,0.0,0.0
0.8956481675392669,0.0,0.0,0.0
0.9036450261780103,0.0,0.0,0.0
0.9116418848167538,0.06418848167537566,0.0,0.03581151832462434
0.9196387434554973,0.2,0.2,0.2
0.9276356020942408,0.2,0.2,0.2
0.9356324607329842,0.2,0.2,0.2
0.9436293193717277,0.2,0.2,0.2
0.9516261780104711,0.2,0.2,0.2
0.9596230366492146,0.2,0.2,0.2
0.967619895287958,0.2,0.2,0.2
0.9756167539267014,0.2,0.2,0.2
0.9836136125654449,0.2,0.2,0.2
0.9916104712041884,0.2,0.2,0.2
0.9996073298429319,0.0,0.019633507853405993,0.019633507853405993
1.0076041884816753,0.09405028064713927,0.0,0.0
1.0156010471204187,0.08684590349511825,0.0,0.0
1.0235979057591622,0.07964152634309705,0.0,0.0
1.0315947643979058,0.07243714919107586,0.0,0.0
1.039591623036649,0.06523277203905484,0.0,0.0
1.0475884816753926,0.05802839488703364,0.0,0.0
1.055585340314136,0.050824017735012626,0.0,0.0
1.0635821989528795,0.04361964058299142,0.0,0.0
1.0715790575916229,0.036415263430970415,0.0,0.0
1.0795759162303664,0.029210886278949216,0.0,0.0
1.0875727748691097,0.022006509126928198,0.0,0.0
1.0955696335078533,0.014802131974906999,0.0,0.0
1.1035664921465969,0.0075977548228857855,0.0,0.0
1.1115633507853402,0.0003933776708647807,0.0,0.0
1.1195602094240837,0.0,0.0,0.0
1.127557068062827,0.0,0.0,0.0
1.1355539267015706,0.0,0.0,0.0
1.143550785340314,0.0,0.0,0.0
1.1515476439790575,0.0,0.0,0.0
1.1595445026178008,0.0,0.0,0.0
1.1675413612565444,0.0,0.0,0.0
1.175538219895288,0.0,0.0,0.0
1.1835350785340313,0.0,0.0,0.0
1.1915319371727748,0.0,0.0,0.0
1.1995287958115182,0.0,0.0,0.0
1.2075256544502617,0.0,0.0,0.01051308900523318
1.215522513089005,0.0,0.0,0.1
1.2235193717277486,0.0,0.0,0.1
1.231516230366492,0.0,0.0,0.1
1.2395130890052355,0.0,0.0,0.1
1.247509947643979,0.0,0.0,0.1
1.2555068062827224,0.0,0.0,0.1
1.263503664921466,0.0,0.0,0.1
1.2715005235602093,0.0,0.0,0.1
1.2794973821989528,0.0,0.0,0.1
1.2874942408376961,0.0,0.0,0.1
1.2954910994764397,0.0,0.0,0.1
1.303487958115183,0.0,0.0,0.02560209424085079
1.3114848167539266,0.0,0.0,0.0
1.3194816753926701,0.0,0.0,0.0
1.3274785340314135,0.0,0.0,0.0
1.335475392670157,0.0,0.0,0.0
1.3434722513089004,0.0,0.0,0.0
1.351469109947644,0.0,0.0,0.0
1.3594659685863872,0.0,0.0,0.0
1.3674628272251308,0.0,0.0,0.0
1.3754596858638741,0.0,0.0,0.0
1.3834565445026177,0.0,0.0,0.0
1.3914534031413612,0.0,0.0,0.0
1.3994502617801046,0.0,0.0,0.0
1.4074471204188481,0.0,0.0,-0.07235602094241006
1.4154439790575915,-0.11057083312153695,-0.10528541656076848,-0.31057083312153694
1.423440837696335,-0.1260987139734662,-0.1130493569867331,-0.3260987139734662
1.4314376963350783,-0.141626594825395,-0.1208132974126975,-0.341626594825395
1.439434554973822,-0.1571544756773242,-0.12857723783866212,-0.3571544756773242
1.4474314136125652,-0.172682356529253,-0.13634117826462652,-0.372682356529253
1.4554282722513088,-0.18821023738118225,-0.14410511869059114,-0.38821023738118227
1.4634251308900523,-0.2037381182331115,-0.15186905911655574,-0.40373811823311145
1.4714219895287957,-0.2192659990850403,-0.15963299954252017,-0.4192659990850403
1.4794188481675392,-0.2347938799369695,-0.16739693996848476,-0.4347938799369695
1.4874157068062825,-0.25032176078889834,-0.17516088039444916,-0.4503217607888983
1.495412565445026,-0.2658496416408276,-0.18292482082041378,-0.46584964164082754
1.5034094240837694,-0.2813775224927564,-0.19068876124637818,-0.48137752249275634
1.511406282722513,-0.2969054033446856,-0.1984527016723428,-0.4969054033446856
1.5194031413612563,-0.31742948826211714,-0.3,-0.7522884647863515
1.5273999999999999,-0.34322580645161255,-0.3,-0.8296774193548376
1.5353968586387432,-0.3690221246411073,-0.3,-0.9070663739233217
1.5433937172774868,-0.39481844283060263,-0.3,-0.984455328491808
1.5513905759162303,-0.20692920555429092,-0.40346460277714546,-1.5034646027771454
1.5593874345549736,-0.23010850595644547,-0.41505425297822274,-1.5150542529782227
1.5673842931937172,-0.25328780635860065,-0.42664390317930034,-1.5266439031793004
1.5753811518324605,-0.27646710676075514,-0.4382335533803776,-1.5382335533803777
1.583378010471204,-0.29964640716291036,-0.44982320358145517,-1.5498232035814552
1.5913748691099474,-0.32282570756506485,-0.46141285378253244,-1.5614128537825325
1.599371727748691,-0.34600500796722,-0.47300250398361,-1.5730025039836102
1.6073685863874343,-0.36918430836937455,-0.48459215418468726,-1.5845921541846875
1.6153654450261778,-0.39236360877152976,-0.49618180438576487,-1.596181804385765
1.6233623036649214,-1.790575916230351,0.9630366492146316,-0.9637696335078596
1.6313591623036647,-2.2552970635101284,1.8244183928977882,-0.772351468244936
1.6393560209424083,-2.324834964716594,1.9808786706123358,-0.7375825176417031
1.6473528795811516,-2.3943728659230574,2.137338948326879,-0.7028135670384713
1.6553497382198952,-2.4639107671295233,2.293799226041427,-0.6680446164352385
1.6633465968586385,-2.533448668335987,2.4502595037559702,-0.6332756658320067
1.671343455497382,-2.5656544502617944,2.840418848167438,-0.49696335078538356
1.6793403141361254,-2.1930055628272314,0.16085569371727987,-1.7634653141361278
1.687337172774869,-1.9368561845549772,0.06714250654450393,-1.6759996727748705
1.6953340314136125,-1.680706806282723,-0.026570680628272003,-1.588534031413613
1.7033308900523558,-1.424557428010476,-0.12028386780104533,-1.5010683900523578
1.7113277486910994,-1.1684080497382217,-0.21399705497382127,-1.4136027486911003
1.7193246073298427,-0.9122586714659746,-0.30771024214659465,-1.3261371073298451
1.7273214659685863,-0.6561092931937202,-0.40142342931937053,-1.2386714659685876
1.7353183246073296,-0.3999599149214732,-0.49513661649214386,-1.1512058246073325
1.7433151832460732,-0.14381053664921906,-0.5888498036649199,-1.0637401832460749
1.7513120418848165,0.11233884162302799,-0.6825629908376931,-0.9762745418848199
1.75930890052356,0.3684882198952826,-0.776276178010469,-0.8888089005235623
1.7673057591623036,0.6246375981675367,-0.8699893651832451,-0.8013432591623048
1.775302617801047,0.8807869764397838,-0.9637025523560183,-0.7138776178010497
1.7832994764397905,1.136936354712038,-1.0574157395287944,-0.6264119764397922
1.7912963350785338,1.393085732984285,-1.1511289267015676,-0.5389463350785371
1.7992931937172774,1.649235111256539,-1.2448421138743435,-0.4514806937172795
1.8072900523560207,-1.666439790576134,-0.2549738219896234,-1.6084293193719832
1.8152869109947642,2.7825730802792346,-0.5120647905759143,-0.2026810645724254
1.8232837696335076,2.6742822862129185,-0.5870353403141331,-0.21934118673647404
1.8312806282722511,2.5659914921465994,-0.662005890052354,-0.23600130890052315
1.8392774869109947,2.4577006980802807,-0.7369764397905749,-0.25266143106457223
1.847274345549738,2.349409904013964,-0.8119469895287938,-0.26932155322862084
1.8552712041884816,2.241119109947645,-0.8869175392670148,-0.28598167539266994
1.863268062827225,2.132828315881329,-0.9618880890052335,-0.3026417975567186
1.8712649214659685,2.0245375218150103,-1.0368586387434544,-0.3193019197207677
1.8792617801047118,1.9162467277486939,-1.1118291884816733,-0.3359620418848163
1.8872586387434553,1.807955933682375,-1.1867997382198943,-0.3526221640488654
1.8952554973821987,1.699665139616059,-1.2617702879581132,-0.36928228621291403
1.9032523560209422,1.5913743455497398,-1.336740837696334,-0.38594240837696314
1.9112492146596858,0.69003141361257,-1.9024921465968574,-0.6049842931937149
1.9192460732984291,0.37015706806283705,-1.9824607329842907,-0.7649214659685815
1.9272429319371727,-1.2978570139014263,2.1300018053800316,0.1085719443942947
1.935239790575916,-1.2840693265932481,2.3230294276945256,0.16372269362700728
1.9432366492146596,-1.2702816392850698,2.516057050009025,0.21887344285972138
1.9512335078534029,-1.2564939519768916,2.709084672323519,0.274024192092434
1.9592303664921464,-1.242706264668713,2.9021122946380182,0.32917494132514813
1.9672272251308898,-1.228918577360535,3.0951399169525127,0.3843256905578607
1.9752240837696333,-1.2151308900523563,3.288167539267012,0.4394764397905748
1.9832209424083769,-1.2013432027441777,3.4811951615815113,0.49462718902328895
1.9912178010471202,0.7077496430271286,0.49114326511185297,0.6878219895287978
1.9992146596858638,0.7586387434554966,0.4329842931937181,0.6078534031413624
2.007211518324607,0.8095278438838632,0.3748253212755849,0.5278848167539292
2.0152083769633506,0.8604169443122313,0.31666634935744997,0.44791623036649364
2.023205235602094,0.9113060447405993,0.25850737743931507,0.36794764397905816
2.0312020942408373,0.9621951451689645,0.20034840552118344,0.2879790575916272
2.039198952879581,1.0130842455973326,0.14218943360304853,0.2080104712041917
2.0471958115183244,1.0639733460257006,0.08403046168491363,0.12804188481675627
2.055192670157068,1.1148624464540684,0.025871489766778777,0.04807329842932073
2.0631895287958115,1.1657515468824364,-0.03228748215135613,-0.03189528795811469
2.0711863874345546,1.2166406473108018,-0.09044645406948781,-0.11186387434554579
2.079183246073298,1.2675297477391698,-0.1486054259876226,-0.1918324607329812
2.0871801047120417,1.3184188481675378,-0.2067643979057575,-0.27180104712041664
2.0951769633507853,1.3693079485959059,-0.2649233698238924,-0.3517696335078522
2.1031738219895284,1.2739267015707672,-1.617382198952822,-0.6173821989528219
2.111170680628272,0.9439029033793457,-1.7382931937172803,-0.7831708710138038
2.1191675392670155,0.8712041884816769,-1.6583246073298445,-0.7613612565445032
2.127164397905759,0.7985054735840081,-1.578356020942409,-0.7395516420752025
2.1351612565445026,0.7258067586863394,-1.4983874345549733,-0.7177420276059019
2.1431581151832457,0.6531080437886747,-1.4184188481675422,-0.6959324131366025
2.1511549738219893,0.5804093288910059,-1.3384502617801064,-0.6741227986673017
2.159151832460733,0.5077106139933372,-1.2584816753926709,-0.6523131841980012
2.1671486910994764,0.4350118990956684,-1.1785130890052353,-0.6305035697287006
2.1751455497382195,0.36231318419800373,-1.098544502617804,-0.6086939552594011
2.183142408376963,0.28961446930033496,-1.0185759162303683,-0.5868843407901005
2.1911392670157066,0.2169157544026662,-0.9386073298429327,-0.5650747263207999
2.19913612565445,0.14421703950499754,-0.8586387434554971,-0.5432651118514993
2.2071329842931937,0.07151832460732876,-0.7786701570680614,-0.5214554973821985
2.215129842931937,-0.12984293193691981,-0.4792670157072363,-0.43507853403154007
2.2231267015706804,-1.0809947643979567,-0.5721727748690504,-0.4936649214659856
2.231123560209424,-0.2258270836281278,-1.5684335644545107,-0.24017546342153212
2.2391204188481675,-0.3230861751804145,-1.4495613414461601,-0.3914673836139781
2.2471172774869106,-0.4203452667326958,-1.3306891184378165,-0.5427593038064156
2.255114136125654,-0.5176043582849825,-1.211816895429466,-0.6940512239988617
2.2631109947643977,-0.6148634498372691,-1.0929446724211158,-0.8453431441913075
2.2711078534031413,-0.7121225413895558,-0.9740724494127653,-0.9966350643837536
2.279104712041885,-0.8093816329418424,-0.855200226404415,-1.1479269845761995
2.287101570680628,-0.9066407244941237,-0.7363280033960711,-1.2992189047686369
2.2950984293193715,-1.0038998160464105,-0.6174557803877208,-1.450510824961083
2.303095287958115,-1.0428272251309545,-0.4618848167539696,-1.4713612565446474
2.3110921465968586,0.6940644206692471,-1.2035613475984517,-0.3023742317323011
2.3190890052356017,0.6506032324152086,-1.2296380605508748,-0.31975870703391657
2.3270858638743452,0.6071420441611675,-1.2557147735032994,-0.337143182335533
2.335082722513089,0.5636808559071265,-1.281791486455724,-0.3545276576371494
2.3430795811518323,0.5202196676530855,-1.3078681994081487,-0.3719121329387658
2.351076439790576,0.4767584793990445,-1.3339449123605733,-0.3892966082403822
2.359073298429319,0.43329729114500587,-1.3600216253129964,-0.4066810835419976
2.3670701570680626,0.3898361028909649,-1.386098338265421,-0.424065558843614
2.375067015706806,0.3463749146369239,-1.4121750512178457,-0.44145003414523043
2.3830638743455497,0.30291372638288283,-1.4382517641702703,-0.45883450944684684
2.391060732984293,0.2594525381288442,-1.4643284771226934,-0.47621898474846225
2.3990575916230363,0.21599134987480323,-1.490405190075118,-0.4936034600500787
2.40705445026178,-0.8589109947644011,0.680691099476379,0.32326701570679667
2.4150513089005234,-0.3893558991842203,3.261626689394864,1.0390283696578588
2.423048167539267,-0.3614598806769755,2.8989784488006807,1.1413137708510899
2.43104502617801,-0.33356386216973216,2.5363302082065178,1.2435991720443154
2.4390418848167537,-0.3056678436624873,2.1736819676123345,1.3458845732375466
2.447038743455497,-0.27777182515524246,1.8110337270181516,1.4481699744307779
2.4550356020942408,-0.24987580664799758,1.4483854864239685,1.550455375624009
2.463032460732984,-0.22197978814075425,1.0857372458298054,1.6527407768172344
2.4710293193717274,-0.1940837696335094,0.7230890052356225,1.7550261780104655
2.479026178010471,-0.16618775112626455,0.36044076464143915,1.8573115792036967
2.4870230366492145,-0.13829173261901967,-0.0022074759527441756,1.959596980396928
2.495019895287958,-0.11039571411177479,-0.36485571654692706,2.0618823815901592
2.503016753926701,1.4998324607329891,-0.40100523560206514,0.2987434554974186
2.5110136125654448,1.4198638743455536,-0.880816753926678,-0.30102094240834737
2.5190104712041883,1.3398952879581183,-1.360628272251291,-0.9007853403141133
2.527007329842932,1.3,-1.6439828885199825,-1.2
2.535004188481675,1.3,-1.7317532882135047,-1.2
2.5430010471204185,1.3,-1.8195236879070316,-1.2
2.550997905759162,1.3,-1.9072940876005586,-1.2
2.5589947643979056,1.3,-1.9950644872940855,-1.2
2.566991623036649,1.3,-2.0828348869876123,-1.2
2.5749884816753923,1.3,-2.1706052866811345,-1.2
2.582985340314136,1.3,-2.2583756863746616,-1.2
2.5909821989528794,1.3,-2.346146086068188,-1.2
2.598979057591623,1.3,-2.4339164857617153,-1.2
2.606975916230366,0.31204188481695877,-1.9656544502620465,-0.6536125654450877
2.6149727748691096,-0.726450930154839,1.326964464743227,0.3370313022167745
2.622969633507853,-0.7689874122758151,1.5311395789239128,0.3965823771861412
2.6309664921465967,-0.8115238943967913,1.7353146931045988,0.45613345215550793
2.6389633507853403,-0.8540603765177676,1.9394898072852844,0.5156845271248747
2.6469602094240834,-0.8965968586387414,2.143664921465959,0.575235602094238
2.654957068062827,-0.9391333407597177,2.347840035646645,0.6347866770636047
2.6629539267015705,-0.9816698228806938,2.552015149827331,0.6943377520329714
2.670950785340314,-1.02420630500167,2.7561902640080165,0.7538888270023381
2.678947643979057,-1.066742787122644,2.9603653781886914,0.8134399019717014
2.6869445026178007,-1.1092792692436202,3.164540492369377,0.8729909769410682
2.6949413612565443,-1.1518157513645964,3.3687156065500625,0.9325420519104348
2.702938219895288,-1.1943522334855725,3.572890720730749,0.9920931268798014
2.7109350785340314,-0.5902617801047267,-0.045445026177941994,-0.9032460732984244
2.7189319371727745,-0.28099817892102064,-0.11208172091964139,-0.8310266332802208
2.726928795811518,0.0406146141588829,-0.22508081038014802,-0.7614887320737551
2.7349256544502616,0.36222740723878644,-0.3380798998406547,-0.6919508308672895
2.742922513089005,0.68384020031869,-0.4510789893011613,-0.6224129296608238
2.7509193717277483,1.0054529933985754,-0.5640780787616616,-0.5528750284543621
2.758916230366492,1.327065786478479,-0.6770771682221682,-0.48333712724789646
2.7669130890052354,1.6486785795583825,-0.7900762576826749,-0.4137992260414308
2.774909947643979,1.970291372638286,-0.9030753471431815,-0.3442613248349652
2.7829068062827225,2.2919041657181896,-1.0160744366036882,-0.27472342362849955
2.7909036649214656,2.6135169587980753,-1.1290735260641886,-0.2051855224220378
2.798900523560209,2.935129751877979,-1.2420726155246953,-0.13564762121557217
2.8068973821989527,1.8333507853403581,-2.3717801047120046,-1.1717801047120047
2.8148942408376962,-1.3966346036770971,0.6841349080725696,0.5168269816145139
2.8228910994764393,-1.3873359308413493,0.9166017289662638,0.5633203457932527
2.830887958115183,-1.378037258005601,1.149068549859971,0.6098137099719942
2.8388848167539265,-1.3687385851698528,1.3815353707536782,0.6563070741507356
2.84688167539267,-1.3594399123341045,1.6140021916473852,0.702800438329477
2.8548785340314136,-1.3501412394983563,1.8464690125410925,0.7492938025082185
2.8628753926701567,-1.3408425666626085,2.0789358334347865,0.7957871666869574
2.8708722513089002,-1.3315438938268602,2.311402654328494,0.8422805308656988
2.878869109947644,-1.322245220991112,2.543869475222201,0.8887738950444402
2.8868659685863873,-1.3129465481553637,2.7763362961159084,0.9352672592231817
2.8948628272251304,-1.303647875319616,3.0088031170096023,0.9817606234019205
2.902859685863874,-1.4619895287958014,4.31492146596851,1.242984293193702
2.9108565445026175,-1.82901447489991,-1.7908992916538347,-1.6635971666153384
2.918853403141361,-1.5232522328303044,-1.7516990042090135,-1.5067960168360535
2.9268502617801047,-1.2174899907606989,-1.7124987167641923,-1.3499948670567687
2.9348471204188478,-0.9117277486911104,-1.6732984293193731,-1.1931937172774925
2.9428439790575913,-0.6059655066215048,-1.634098141874552,-1.0363925674982077
2.950840837696335,-0.3002032645518993,-1.5948978544297308,-0.8795914177189227
2.9588376963350784,0.005558977517706287,-1.5556975669849096,-0.7227902679396379
2.9668345549738215,0.311321219587295,-1.5164972795400904,-0.5659891181603616
2.974831413612565,0.6170834616569003,-1.4772969920952692,-0.40918796838107685
2.9828282722513086,0.9228457037265061,-1.438096704650448,-0.2523868186017919
2.990825130890052,1.2286079457961114,-1.3988964172056269,-0.09558566882250696
2.9988219895287958,1.5343701878657172,-1.3596961297608057,0.06121548095677798
3.006818848167539,1.8401324299353057,-1.3204958423159865,0.21801663073605404
3.0148157068062824,0.5935078534035745,-2.463141361256462,-0.6552879581153069
3.022812565445026,0.050617801047129096,-1.5187434554973902,0.231874345549739
3.0308094240837695,-0.38683682373473094,-1.0931239092495617,0.22003926701570717
3.0388062827225126,-0.5312245491564814,-0.9154159394997151,0.2533595113438034
3.046803141361256,-0.6756122745782399,-0.7377079697498585,0.2866797556719015
3.0547999999999997,-0.8199999999999983,-0.5600000000000019,0.3199999999999996
3.0627968586387433,-0.9643877254217568,-0.38229203025014524,0.3533202443280977
3.0707937172774864,-1.1087754508435073,-0.20458406050029854,0.386640488656194
3.07879057591623,-1.2531631762652657,-0.02687609075044195,0.4199607329842921
3.0867874345549735,-1.3975509016870242,0.15083187899941453,0.4532809773123902
3.094784293193717,-1.5419386271087827,0.3285398487492712,0.4866012216404883
3.1027811518324606,-1.6956230366492084,2.599329842931797,0.8824921465968343
3.1107780104712037,0.022911426566627875,-0.5914082150375145,0.26563286015005816
3.1187748691099473,0.08886489987585308,-0.5666756625465551,0.16670265018622038
3.126771727748691,0.1548183731850783,-0.5419431100555956,0.0677724402223826
3.1347685863874344,0.22077184649430348,-0.5172105575646362,-0.031157769741455232
3.1427654450261775,0.28672531980352506,-0.4924780050736781,-0.13008797970528752
3.150762303664921,0.35267879311275024,-0.46774545258271866,-0.2290181896691253
3.1587591623036646,0.41863226642197543,-0.4430129000917592,-0.32794839963296313
3.166756020942408,0.48458573973120067,-0.4182803476007998,-0.42687860959680085
3.1747528795811517,0.5505392130404259,-0.3935477951098403,-0.5258088195606387
3.182749738219895,0.6164926863496474,-0.3688152426188822,-0.624739029524471
3.1907465968586384,0.6824461596588726,-0.3440826901279228,-0.7236692394883086
3.198743455497382,0.7483996329680979,-0.31935013763696335,-0.8225994494521465
3.2067403141361255,1.2350785340314003,-0.1259685863874399,0.2312041884816406
3.2147371727748686,0.857043991093463,-1.957043991093463,-0.18711319732803888
3.222734031413612,0.7651260757056062,-1.8651260757056063,-0.15953782271168185
3.2307308900523557,0.6732081603177494,-1.7732081603177494,-0.1319624480953248
3.2387277486910993,0.5812902449298927,-1.6812902449298928,-0.1043870734789678
3.246724607329843,0.48937232954203597,-1.5893723295420359,-0.07681169886261077
3.254721465968586,0.39745441415418437,-1.4974544141541843,-0.04923632424625529
3.2627183246073295,0.3055364987663276,-1.4055364987663275,-0.021660949629898257
3.270715183246073,0.21361858337847095,-1.3136185833784708,0.005914424986458777
3.2787120418848166,0.12170066799061419,-1.2217006679906142,0.03348979960281581
3.2867089005235597,0.02978275260276253,-1.1297827526027624,0.06106517421917129
3.2947057591623032,-0.06213516278509423,-1.0378648372149057,0.0886405488355283
3.302702617801047,-1.418952879581271,3.8134031413608698,1.010785340314047
3.3106994764397903,-0.3889330554567181,0.6225313881970264,0.07786611091343612
3.318696335078534,-0.37340517460478884,0.5138362222335215,0.04681034920957759
3.326693193717277,-0.3578772937528604,0.40514105627002267,0.015754587505720785
3.3346900523560206,-0.3423494129009311,0.29644589030651786,-0.015301174198137757
3.342686910994764,-0.3268215320490019,0.187750724343013,-0.0463569359019963
3.3506837696335077,-0.3112936511970726,0.07905555837950806,-0.07741269760585484
3.358680628272251,-0.2957657703451442,-0.029639607583990757,-0.10846845930971163
3.3666774869109943,-0.28023788949321493,-0.13833477354749557,-0.13952422101357018
3.374674345549738,-0.2647100086412857,-0.2470299395110005,-0.17057998271742872
3.3826712041884814,-0.2491821277893564,-0.3557251054745052,-0.20163574442128726
3.390668062827225,-0.23365424693742712,-0.4644202714380101,-0.2326915061251458
3.398664921465968,-0.21812636608549874,-0.573115437401509,-0.2637472678290026
3.4066617801047117,-0.20259848523356946,-0.6818106033650138,-0.2948030295328611
3.414658638743455,1.0313836948391408,-0.034136125654471494,0.13000747943147561
3.4226554973821988,1.8513554392088327,-0.616905177428706,-0.031099476439746754
3.430652356020942,0.10602808186577713,-2.1030140409328886,-0.9909578772013343
3.4386492146596854,0.12420276059019428,-2.112101380295097,-0.9636958591147086
3.446646073298429,0.14237743931461144,-2.121188719657306,-0.9364338410280828
3.4546429319371725,0.16055211803902858,-2.1302760590195144,-0.9091718229414572
3.462639790575916,0.17872679676344572,-2.139363398381723,-0.8819098048548314
3.470636649214659,0.19690147548786188,-2.1484507377439312,-0.8546477867682072
3.4786335078534028,0.21507615421227905,-2.15753807710614,-0.8273857686815814
3.4866303664921463,0.23325083293669618,-2.166625416468348,-0.8001237505949557
3.49462722513089,0.2514255116611133,-2.1757127558305567,-0.77286173250833
3.502624083769633,0.26960019038552946,-2.184800095192765,-0.7455997144217057
3.5106209424083765,0.28777486910994665,-2.1938874345549735,-0.71833769633508
3.51861780104712,-0.823560209424015,-0.11151832460788047,0.12356020942401495
3.5266146596858636,-0.2952104440062559,3.8656748487115005,1.1007982593322907
3.534611518324607,-0.23289725980825451,3.419097028625824,1.1111837900319577
3.5426083769633503,-0.1705840756102566,2.972519208540172,1.121569320731624
3.550605235602094,-0.10827089141225518,2.5259413884544957,1.131954851431291
3.5586020942408374,-0.045957707214253796,2.079363568368819,1.1423403821309577
3.566598952879581,0.016355476983747563,1.6327857482831423,1.1527259128306246
3.574595811518324,0.07866866118174554,1.1862079281974904,1.163111443530291
3.5825926701570676,0.1409818453797469,0.7396301081118137,1.173496974229958
3.590589528795811,0.2032950295777483,0.29305228802613703,1.1838825049296247
3.5985863874345547,0.26560821377574967,-0.15352553205953923,1.1942680356292916
3.6065832460732983,-0.1516649214659648,-0.5483350785340352,-0.8199790575915775
3.6145801047120414,0.6671832460734077,-1.8160209424082403,-1.1656335078531843
3.622576963350785,0.6,-1.9547732290418174,-1.2908711284930305
3.6305738219895285,0.6,-2.012581845707434,-1.281236359048761
3.638570680628272,0.6,-2.07039046237305,-1.2716015896044917
3.646567539267015,0.6,-2.128199079038663,-1.2619668201602228
3.6545643979057587,0.6,-2.186007695704279,-1.2523320507159534
3.6625612565445023,0.6,-2.2438163123698955,-1.242697281271684
3.670558115183246,0.6,-2.3016249290355115,-1.2330625118274148
3.6785549738219894,0.6,-2.359433545701128,-1.2234277423831452
3.6865518324607325,0.6,-2.417242162366741,-1.2137929729388766
3.694548691099476,0.6,-2.4750507790323573,-1.204158203494607
3.7025455497382196,-0.6727748691098454,0.5456544502613506,-0.009005235602278394
3.710542408376963,-0.9947713128519217,3.4366008100365484,1.0209147485923136
3.7185392670157063,-0.9872271065889564,3.489410253877305,1.0510915736441744
3.72653612565445,-0.9796829003259908,3.5422196977180644,1.0812683986960367
3.7345329842931934,-0.9721386940630252,3.5950291415588236,1.1114452237478993
3.742529842931937,-0.9645944878000595,3.647838585399583,1.141622048799762
3.7505267015706805,-0.9570502815370939,3.7006480292403423,1.1717988738516243
3.7585235602094236,-0.9495060752741287,3.753457473081099,1.201975698903485
3.766520418848167,-0.9419618690111631,3.8062669169218584,1.2321525239553477
3.7745172774869107,-0.9344176627481975,3.8590763607626175,1.26232934900721
3.7825141361256542,-0.9268734564852319,3.9118858046033766,1.2925061740590726
3.7905109947643973,-0.9193292502222666,3.9646952484441336,1.3226829991109335
3.798507853403141,-0.911785043959301,4.017504692284893,1.3528598241627958
3.8065047120418845,-0.9042408376963353,4.070314136125652,1.3830366492146584
3.814501570680628,-0.7832809773124023,0.890226876091063,1.4583595113437988
3.8224984293193716,-0.4800628272251397,-1.29003141361257,0.40031413612569855
3.8304952879581147,-0.3,-0.36113089005245114,-1.2689633507852531
3.8384921465968582,1.6408538058799902,-0.4675956504228682,0.41411196133711237
3.8464890052356018,1.5547337897704443,-0.5660185259766352,0.14344905356425341
3.8544858638743453,1.4686137736608982,-0.6644414015304021,-0.12721385420860554
3.8624827225130884,1.382493757551357,-0.7628642770841634,-0.3978767619814495
3.870479581151832,1.296373741441811,-0.8612871526379303,-0.6685396697543086
3.8784764397905755,1.210253725332265,-0.9597100281916973,-0.9392025775271674
3.886473298429319,1.1241337092227188,-1.058132903745464,-1.2098654853000266
3.8944701570680627,1.038013693113173,-1.156555779299231,-1.4805283930728854
3.9024670157068058,-0.09168848167537261,-1.3166230366492548,-0.5449869109947765
3.9104638743455493,-0.5,1.1102617801042804,0.43193717277467286
3.918460732984293,-0.5,1.8434756343133243,0.7502164720096635
3.9264575916230364,-0.5,1.9972613773660854,0.8040414820781299
3.9344544502617795,-0.5,2.151047120418838,0.8578664921465933
3.942451308900523,-0.5,2.3048328634715993,0.9116915022150597
3.9504481675392666,-0.5,2.4586186065243605,0.9655165122835261
3.95844502617801,-0.5,2.6124043495771216,1.0193415223519926
3.9664418848167537,-0.5,2.766190092629883,1.073166532420459
3.974438743455497,-0.5,2.9199758356826355,1.1269915424889223
3.9824356020942404,-0.5,3.0737615787353967,1.1808165525573888
3.990432460732984,-0.5,3.227547321788158,1.2346415626258551
3.9984293193717275,-0.5,3.381333064840919,1.2884665726943214
4.006426178010471,-0.5,3.5351188078936717,1.342291582762785
4.014423036649214,-0.5,3.688904550946433,1.3961165928312513
4.022419895287958,0.3730191972077955,-0.8709947643978739,-0.12495636998228288
4.030416753926701,0.292015706806281,0.3957155322862149,0.5834467713787108
4.038413612565445,0.4586169284467715,0.20690081442699232,0.37241855730075607
4.046410471204188,0.625218150087262,0.018086096567769716,0.16139034322280144
4.054407329842932,0.7918193717277526,-0.17072862129145294,-0.049637870855153254
4.062404188481675,0.9584205933682246,-0.3595433391506546,-0.2606660849330845
4.070401047120418,1.1250218150087152,-0.5483580570098772,-0.4716942990110393
4.078397905759162,1.2916230366492056,-0.7371727748690997,-0.682722513088994
4.086394764397905,1.4582242582896963,-0.9259874927283225,-0.8937507271669487
4.094391623036649,1.6248254799301867,-1.114802210587545,-1.1047789412449034
4.102388481675392,0.6760209424084509,-1.9314136125653922,-1.2731413612565392
4.110385340314136,-0.6053282319774459,-0.2693626661296857,0.21198852194925344
4.1183821989528795,-0.636085380587998,-0.0925090616190111,0.2811921063229957
4.126379057591623,-0.6668425291985501,0.08434454289166349,0.3503956906967379
4.134375916230366,-0.6975996778090988,0.26119814740231845,0.41959927507047245
4.142372774869109,-0.7283568264196509,0.438051751912993,0.4888028594442147
4.150369633507853,-0.7591139750302031,0.6149053564236675,0.5580064438179569
4.158366492146596,-0.7898711236407552,0.7917589609343421,0.6272100281916992
4.16636335078534,-0.8206282722513073,0.9686125654450166,0.6964136125654414
4.1743602094240835,-0.8513854208618594,1.1454661699556914,0.7656171969391836
4.182357068062827,-0.8821425694724114,1.322319774466366,0.834820781312926
4.190353926701571,-0.9128997180829637,1.4991733789770405,0.9040243656866682
4.198350785340314,-0.9436568666935157,1.676026983487715,0.9732279500604104
4.206347643979057,-0.9744140153040644,1.85288058799837,1.042431534434145
4.2143445026178,-1.0537801047120123,2.2285654450260526,1.1806701570680187
4.222341361256544,-1.3736544502617614,3.5880314136124856,1.660481675392642
4.2303382198952875,0.038439923122800645,-0.789017164822057,0.673697395453655
4.238335078534031,0.10929816422559187,-0.7687719530784024,0.4408774604016268
4.246331937172775,0.1801564053283831,-0.7485267413347477,0.20805752534959854
4.254328795811518,0.2510146464311743,-0.728281529591093,-0.02476240970242971
4.262325654450262,0.32187288753396553,-0.7080363178474385,-0.25758234475445807
4.270322513089005,0.39273112863675674,-0.6877911061037838,-0.4904022798064862
4.278319371727748,0.46358936973954007,-0.6675458943601315,-0.7232222148584886
4.2863162303664915,0.5344476108423313,-0.6473006826164768,-0.956042149910517
4.294313089005235,0.6053058519451225,-0.6270554708728222,-1.1888620849625453
4.302309947643979,0.6761640930479137,-0.6068102591291675,-1.4216820200145734
4.310306806282722,0.8,-1.5061361256544492,-1.057047120418856
4.318303664921466,0.77188370279604,-1.596485462849505,-0.39297092569901004
4.326300523560209,0.7038253314024775,-1.5879781664253099,-0.37595633285061936
4.334297382198953,0.6357669600089149,-1.5794708700011144,-0.3589417400022287
4.342294240837696,0.5677085886153523,-1.5709635735769192,-0.3419271471538381
4.350291099476439,0.4996502172217973,-1.5624562771527246,-0.32491255430544935
4.3582879581151825,0.43159184582823473,-1.5539489807285294,-0.3078979614570587
4.366284816753926,0.3635334744346721,-1.5454416843043342,-0.29088336860866804
4.37428167539267,0.2954751030411096,-1.5369343878801387,-0.2738687757602774
4.382278534031413,0.22741673164754694,-1.5284270914559435,-0.2568541829118868
4.390275392670157,0.15935836025398442,-1.519919795031748,-0.23983959006349612
4.3982722513089,0.09129998886042179,-1.5114124986075528,-0.22282499721510546
4.406269109947644,0.023241617466859155,-1.5029052021833573,-0.2058104043667148
4.414265968586387,-0.7,2.417382198952701,1.026596858638712
4.42226282722513,-1.7367411048188992,0.2633764291056784,0.6667058446415258
4.430259685863874,-1.5816999679453008,0.1736157709157004,0.5851052462870003
4.438256544502617,-1.4266588310717025,0.08385511272572244,0.503504647932475
4.446253403141361,-1.271617694198104,-0.005905545464255535,0.42190404957794947
4.454250261780104,-1.116576557324506,-0.09566620365423356,0.3403034512234241
4.462247120418848,-0.9615354204509076,-0.18542686184421153,0.25870285286889866
4.470243979057591,-0.8064942835773092,-0.2751875200341895,0.17710225451437323
4.478240837696335,-0.6514531467037108,-0.36494817822416753,0.09550165615984774
4.4862376963350785,-0.4964120098301126,-0.45470883641414545,0.013901057805322359
4.494234554973821,-0.34137087295653146,-0.5444694946041135,-0.06769954054919403
4.502231413612565,-0.18632973608293324,-0.6342301527940915,-0.1493001389037194
4.510228272251308,-0.0312885992093348,-0.7239908109840694,-0.2309007372582449
4.518225130890052,0.012565445026037347,-0.3662303664921888,-1.728534031414077
4.526221989528795,0.8945026178012058,-2.2109947643975882,-1.1778010471204825
4.534218848167539,0.6913025925692303,-2.5826051851384606,-1.073907777707691
4.5422157068062825,0.681667823124961,-2.563335646249922,-1.0450034693748833
4.550212565445026,0.6720330536806917,-2.5440661073613833,-1.0160991610420753
4.55820942408377,0.6623982842364223,-2.5247965684728446,-0.9871948527092673
4.566206282722512,0.6527635147921541,-2.505527029584308,-0.9582905443764625
4.574203141361256,0.6431287453478848,-2.4862574906957695,-0.9293862360436546
4.582199999999999,0.6334939759036154,-2.466987951807231,-0.9004819277108466
4.590196858638743,0.6238592064593462,-2.447718412918692,-0.8715776193780387
4.5981937172774865,0.6142244370150769,-2.4284488740301535,-0.8426733110452307
4.60619057591623,0.6045896675708076,-2.409179335141615,-0.8137690027124227
4.614187434554974,0.26500523560213046,-1.9393821989529294,-0.5906282722513316
4.622184293193717,-0.22184293193717095,-0.8412984293194106,-0.1470994764398035
4.630181151832461,-0.31449214659686536,0.8869528795811922,0.421738219895298
4.638178010471203,-0.8202470549738154,4.304286649214691,1.398159358638744
4.646174869109947,-0.9576930628272201,3.654541884816778,1.385664267015707
4.6541717277486905,-1.0951390706806248,3.004797120418865,1.3731691753926705
4.662168586387434,-1.2325850785340295,2.355052356020952,1.3606740837696336
4.670165445026178,-1.370031086387434,1.7053075916230385,1.348178992146597
4.678162303664921,-1.5074770942408389,1.0555628272251254,1.3356839005235601
4.686159162303665,-1.6449231020942436,0.40581806282721233,1.3231888089005233
4.694156020942408,-1.7823691099476482,-0.24392670157070118,1.3106937172774866
4.702152879581152,-1.0929842931937452,-1.0305759162303585,0.2624083769633869
4.7101497382198945,1.2850261780105547,-0.01738219895250337,-0.10722513088917451
4.718146596858638,1.160732984293199,-0.44712041884816117,-0.9764397905759195
4.726143455497382,1.1167942005638385,-0.4998469593233938,-0.9500765203383031
4.734140314136125,1.072855416834478,-0.5525734997986265,-0.9237132501006868
4.742137172774869,1.0289166331051174,-0.6053000402738591,-0.8973499798630704
4.750134031413612,0.9849778493757569,-0.6580265807490917,-0.8709867096254542
4.758130890052356,0.9410390656463964,-0.7107531212243243,-0.8446234393878378
4.766127748691099,0.897100281917036,-0.7634796616995569,-0.8182601691502215
4.774124607329843,0.8531614981876754,-0.8162062021747896,-0.7918968989126052
4.782121465968586,0.8092227144583197,-0.8689327426500163,-0.7655336286749919
4.790118324607329,0.7652839307289592,-0.9216592831252489,-0.7391703584373754
4.798115183246073,0.7213451469995986,-0.9743858236004815,-0.7128070881997592
4.806112041884816,0.02198952879596633,-0.6551832460735463,-0.3219895287959663
4.81410890052356,-0.6959830466217913,0.9261101969583558,0.6100423834455214
4.822105759162303,-0.6807509349289464,1.0251189229618478,0.6481226626776337
4.830102617801047,-0.6655188232361016,1.12412764896534,0.6862029419097462
4.83809947643979,-0.6502867115432566,1.223136374968832,0.7242832211418585
4.846096335078534,-0.6350545998504117,1.3221451009723242,0.7623635003739708
4.854093193717277,-0.6198224881575685,1.421153826975805,0.8004437796060789
4.86209005235602,-0.6045903764647235,1.5201625529792973,0.8385240588381913
4.870086910994764,-0.5893582647718786,1.6191712789827895,0.8766043380703036
4.878083769633507,-0.5741261530790336,1.7181800049862814,0.9146846173024159
4.886080628272251,-0.5588940413861887,1.8171887309897734,0.9527648965345282
4.894077486910994,-0.5436619296933438,1.9161974569932654,0.9908451757666406
4.902074345549738,-0.5284298180004989,2.015206182996758,1.028925454998753
4.9100712041884815,-0.5131977063076539,2.1142149090002498,1.0670057342308652
4.918068062827225,-1.0874345549739628,1.6125654450260374,0.9397905759161921
4.926064921465968,0.33486231046438425,0.7463656762086397,0.9356388114503675
4.934061780104711,0.4698742095600547,0.5386550622153006,0.6863860746583605
4.942058638743455,0.6048861086557251,0.33094444822196134,0.43713333786635356
4.950055497382198,0.7398980077513957,0.12323383422862222,0.18788060107434656
4.958052356020942,0.874909906847066,-0.08447677976471701,-0.061372135717660425
4.9660492146596855,1.0099218059427366,-0.29218739375805614,-0.3106248725096674
4.974046073298429,1.1449337050384072,-0.49989800775139526,-0.5598776093016744
4.982042931937173,1.2799456041340775,-0.7076086217447346,-0.8091303460936814
4.990039790575916,1.4149575032297481,-0.9153192357380737,-1.0583830828856886
4.998036649214659,1.5499694023254036,-1.1230298497313898,-1.3076358196776678
5.006033507853402,0.7899476439793478,-1.1698429319380432,-0.7865968586391304
5.014030366492146,0.12382694957289316,0.7650416092587315,0.05712978782033015
5.0220272251308895,0.022813998346658537,0.9839030035822398,0.13288950124000615
5.030024083769633,-0.07819895287957607,1.202764397905748,0.20864921465968211
5.038020942408377,-0.17921190410581073,1.4216257922292566,0.2844089280793581
5.04601780104712,-0.28022485533204533,1.640487186552765,0.36016864149903405
5.054014659685864,-0.38123780655827993,1.859348580876273,0.43592835491871007
5.062011518324607,-0.4822507577845146,2.0782099751997816,0.511688068338386
5.07000837696335,-0.583263709010738,2.2970713695232656,0.5874477817580536
5.0780052356020935,-0.6842766602369725,2.515932763846774,0.6632074951777296
5.086002094240837,-0.7852896114632073,2.7347941581702826,0.7389672085974055
5.093998952879581,-0.8863025626894419,2.9536555524937906,0.8147269220170815
5.101995811518324,-0.9873155139156764,3.172516946817299,0.8904866354367575
5.109992670157068,-1.560628272251646,-0.8474345549737405,0.15769633507877812
5.117989528795811,-1.4519590357286887,0.6274149933835762,-1.262925033082119
5.125986387434555,-1.2146896035901418,0.6713537771129368,-1.0432311144353164
5.133983246073298,-0.9774201714515951,0.7152925608422972,-0.8235371957885138
5.141980104712041,-0.7401507393130746,0.7592313445716529,-0.6038432771417356
5.149976963350785,-0.5028813071745277,0.8031701283010134,-0.3841493584949329
5.157973821989528,-0.2656118750359808,0.847108912030374,-0.16445543984813038
5.165970680628272,-0.02834244289743415,0.8910476957597344,0.055238478798672386
5.173967539267015,0.20892698924111275,0.934986479489095,0.27493239744547493
5.181964397905759,0.44619642137965965,0.9789252632184555,0.4946263160922775
5.189961256544502,0.6834658535182063,1.022864046947816,0.71432023473908
5.197958115183246,0.920735285656753,1.0668028306771766,0.9340141533858826
5.2059549738219895,1.2954973821989073,0.12251308900546398,-0.26848167539235046
5.213951832460732,-0.7057317135159841,-2.3885365729680315,-0.5
5.221948691099476,-0.7212595943679134,-2.357480811264173,-0.5
5.229945549738219,-0.7367874752198427,-2.3264250495603145,-0.5
5.237942408376963,-0.7523153560717719,-2.295369287856456,-0.5
5.245939267015706,-0.7678432369237012,-2.2643135261525975,-0.5
5.25393612565445,-0.7833711177756305,-2.233257764448739,-0.5
5.2619329842931934,-0.7988989986275598,-2.2022020027448805,-0.5
5.269929842931937,-0.814426879479489,-2.171146241041022,-0.5
5.277926701570681,-0.8299547603314182,-2.1400904793371636,-0.5
5.285923560209423,-0.8454826411833458,-2.109034717633308,-0.5
5.293920418848167,-0.8610105220352751,-2.0779789559294497,-0.5
5.30191727748691,-0.8765384028872043,-2.046923194225591,-0.5
5.309914136125654,-0.8920662837391337,-2.0158674325217327,-0.5
5.317910994764397,0.008900523560263371,2.710994764397366,1.1188481675390782
5.325907853403141,-0.5221465968586239,2.0730366492147203,1.807015706806272
5.3339047120418845,-1.0108435136707354,0.0738219895288088,2.1624316463059894
5.341901570680628,-1.0190189287152618,-0.6924591220298025,2.0963962948046695
5.349898429319372,-0.7237503020539632,-0.6801562625855817,1.7642190898107084
5.357895287958114,-0.4284816753926973,-0.6678534031413623,1.4320418848167844
5.365892146596858,-0.13321304873139872,-0.6555505436971416,1.0998646798228235
5.373889005235601,0.1620555779299,-0.6432476842529208,0.7676874748288625
5.381885863874345,0.4573242045911987,-0.6309448248087001,0.4355102698349016
5.3898827225130885,0.7525928312524972,-0.6186419653644792,0.10333306484094074
5.397879581151832,1.0478614579137961,-0.6063391059202585,-0.22884414015302035
5.405876439790576,1.625863874345558,-0.313507853403151,0.24439790575916853
5.413873298429319,-0.1,-2.441091997008227,-1.2464472700074793
5.421870157068063,-0.1,-2.3444266728036354,-1.1585697025487594
5.429867015706805,-0.1,-2.2477613485990537,-1.070692135090049
5.437863874345549,-0.1,-2.1510960243944615,-0.9828145676313287
5.4458607329842925,-0.1,-2.054430700189869,-0.8949370001726085
5.453857591623036,-0.1,-1.9577653759852771,-0.8070594327138882
5.46185445026178,-0.1,-1.8611000517806848,-0.7191818652551681
5.469851308900523,-0.1,-1.7644347275760928,-0.6313042977964479
5.477848167539267,-0.1,-1.6677694033715005,-0.5434267303377277
5.48584502617801,-0.1,-1.5711040791669082,-0.4555491628790076
5.493841884816754,-0.1,-1.4744387549623161,-0.3676715954202874
5.5018387434554965,-0.1,0.3468062827218725,0.06774869109934162
5.50983560209424,-2.367120418848078,0.7078384442785661,1.6763201196708795
5.517832460732984,-2.667181587268681,-0.940422995179097,1.6209838784925705
5.525829319371727,-2.4850749053963046,-0.9958467679228638,1.3755357420558894
5.533826178010471,-2.302968223523928,-1.0512705406666305,1.1300876056192082
5.541823036649214,-2.1208615416515517,-1.1066943134103973,0.8846394691825268
5.549819895287958,-1.9387548597791757,-1.162118086154164,0.6391913327458456
5.557816753926701,-1.7566481779067993,-1.2175418588979308,0.39374319630916443
5.565813612565445,-1.5745414960344228,-1.2729656316416975,0.14829505987248326
5.573810471204188,-1.3924348141620666,-1.328389404385458,-0.09715307656417083
5.581807329842931,-1.2103281322896902,-1.3838131771292248,-0.342601213000852
5.589804188481675,-1.028221450417314,-1.4392369498729916,-0.5880493494375332
5.597801047120418,-0.8461147685449375,-1.494660722616758,-0.8334974858742143
5.605797905759162,-0.6640080866725611,-1.550084495360525,-1.0789456223108955
5.613794764397905,-0.6192146596857533,-0.40785340314246676,-1.1410471204189956
5.621791623036649,0.9821811295533034,-1.026728305670045,-0.6
5.6297884816753925,0.9311373510081319,-1.1032939734878022,-0.6
5.637785340314136,0.8800935724629605,-1.1798596413055593,-0.6
5.645782198952879,0.8290497939177947,-1.256425309123308,-0.6
5.653779057591622,0.7780060153726231,-1.332990976941065,-0.6
5.661775916230366,0.7269622368274518,-1.4095566447588224,-0.6
5.669772774869109,0.6759184582822804,-1.4861223125765795,-0.6
5.677769633507853,0.6248746797371089,-1.5626879803943368,-0.6
5.6857664921465965,0.5738309011919374,-1.6392536482120939,-0.6
5.69376335078534,0.522787122646766,-1.715819316029851,-0.6
5.701760209424084,0.47174334410159446,-1.7923849838476082,-0.6
5.709757068062827,0.42069956555642307,-1.8689506516653656,-0.6
5.71775392670157,-0.224607329843021,-2.5123036649215105,-0.6123036649215104
5.725750785340313,0.5750785340313076,-1.7249214659686922,-0.34164048865623076
5.733747643979057,0.308699154248908,0.7947751376023297,0.45478050745065524
5.7417445026178004,0.1549134111961479,1.1228513894482177,0.5470519532823113
5.749741361256544,0.0011276681433878277,1.450927641294106,0.6393233991139673
5.757738219895288,-0.15265807490937222,1.7790038931399939,0.7315948449456233
5.765735078534031,-0.30644381796213227,2.107080144985882,0.8238662907772794
5.773731937172775,-0.46022956101489243,2.43515639683177,0.9161377366089355
5.781728795811518,-0.6140153040676525,2.763232648677658,1.0084091824405914
5.789725654450261,-0.7678010471203954,3.09130890052351,1.1006806282722374
5.797722513089004,-0.9215867901731555,3.419385152369398,1.1929520741038933
5.805719371727748,-1.0753725332259156,3.747461404215286,1.2852235199355495
5.8137162303664915,0.307870663368042,1.3881940049479369,0.492129336631958
5.821713089005235,0.39574823082676214,1.2563776537598565,0.40425176917323785
5.829709947643979,0.48362579828548236,1.1245613025717764,0.3163742017145177
5.837706806282722,0.5715033657442026,0.9927449513836961,0.22849663425579747
5.845703664921466,0.6593809332029227,0.8609286001956158,0.1406190667970773
5.853700523560209,0.7472585006616429,0.7291122490075356,0.05274149933835709
5.861697382198952,0.8351360681203532,0.5972958978194699,-0.0351360681203533
5.8696942408376955,0.9230136355790735,0.4654795466313896,-0.12301363557907352
5.877691099476439,1.0108912030377937,0.33366319544330936,-0.21089120303779374
5.885687958115183,1.098768770496514,0.20184684425522903,-0.29876877049651385
5.893684816753926,1.186646337955234,0.0700304930671487,-0.38664633795523407
5.90168167539267,1.2745239054139543,-0.061785858120931625,-0.4745239054139543
5.909678534031413,0.5185759162303792,-1.4407120418848103,-0.3728586387434598
5.917675392670157,-0.016518618742279254,-1.679351726572151,-0.1958703453144302
5.9256722513089,-0.052459556444497304,-1.6344255544443784,-0.1868851108888757
5.933669109947643,-0.08840049414671136,-1.5894993823166108,-0.17789987646332217
5.941665968586387,-0.12434143184892942,-1.544573210188838,-0.16891464203776765
5.94966282722513,-0.16028236955114747,-1.4996470380610656,-0.15992940761221314
5.957659685863874,-0.1962233072533655,-1.454720865933293,-0.15094417318665865
5.965656544502617,-0.23216424495558358,-1.4097946938055204,-0.1419589387611041
5.973653403141361,-0.26810518265780164,-1.3648685216777479,-0.13297370433554961
5.981650261780104,-0.30404612036001966,-1.3199423495499754,-0.1239884699099951
5.989647120418848,-0.3399870580622377,-1.2750161774222029,-0.11500323548444058
5.9976439790575915,-0.3759279957644558,-1.2300900052944304,-0.10601800105888606
6.005640837696334,-0.3,1.1369633507844954,0.46020942408358595
6.013637696335078,-0.09639832046031888,-0.6603815250635076,0.1315680887460587
6.021634554973821,-0.08848063863978071,-0.5732870250375877,-0.01886786584416661
6.029631413612565,-0.08056295681924254,-0.48619252501166776,-0.1693038204343919
6.037628272251308,-0.07264527499870436,-0.39909802498574787,-0.3197397750246172
6.045625130890052,-0.06472759317816619,-0.31200352495982797,-0.4701757296148425
6.0536219895287955,-0.056809911357628015,-0.22490902493390802,-0.6206116842050677
6.061618848167539,-0.04889222953708984,-0.13781452490798818,-0.7710476387952931
6.069615706806283,-0.040974547716551665,-0.05072002488206817,-0.9214835933855183
6.077612565445025,-0.03305686589601438,0.03637447514384207,-1.0719195479757269
6.085609424083769,-0.025139184075476204,0.12346897516976196,-1.2223555025659523
6.093606282722512,-0.01722150225493803,0.21056347519568186,-1.3727914571561775
6.101603141361256,-0.009303820434399854,0.29765797522160176,-1.5232274117464029
6.1095999999999995,-0.0013861386138616788,0.38475247524752176,-1.673663366336628
6.117596858638743,0.5683769633508128,-0.9237172774868904,-0.9640314136125677
6.125593717277487,-0.2796858638743192,-1.7390575916229576,-0.7406282722513615
6.13359057591623,-0.24728766724840417,-1.736745200698085,-0.6683726003490424
6.141587434554973,-0.19175392670158015,-1.6701047120418964,-0.6350523560209481
6.149584293193716,-0.13622018615474998,-1.6034642233857,-0.60173211169285
6.15758115183246,-0.0806864456079198,-1.5368237347295037,-0.5684118673647519
6.1655780104712035,-0.02515270506108963,-1.4701832460733075,-0.5350916230366538
6.173574869109947,0.03038103548574056,-1.4035427574171113,-0.5017713787085557
6.181571727748691,0.08591477603257075,-1.3369022687609151,-0.4684511343804576
6.189568586387434,0.14144851657940094,-1.270261780104719,-0.4351308900523595
6.197565445026178,0.19698225712623113,-1.2036212914485227,-0.4018106457242614
6.205562303664921,-3.151283003997072,0.6630422788943302,0.878161346619377
6.213559162303664,-2.9019185948319777,0.473869278838052,0.7663773011315762
6.2215560209424075,-2.6525541856668564,0.28469627878175285,0.654593255643763
6.229552879581151,-2.4031897765017343,0.09552327872545363,0.5428092101559499
6.237549738219895,-2.153825367336613,-0.09364972133084548,0.4310251646681368
6.245546596858638,-1.904460958171491,-0.2828227213871447,0.3192411191803236
6.253543455497382,-1.6550965490063694,-0.4719957214434438,0.20745707369251043
6.261540314136125,-1.4057321398412477,-0.661168721499743,0.09567302820469725
6.269537172774869,-1.1563677306761262,-0.8503417215560423,-0.016111017283115814
6.277534031413612,-0.9070033215110045,-1.0395147216123415,-0.1278950627709291
6.285530890052355,-0.6576389123459103,-1.2286877216686196,-0.23967910825872984
6.2935277486910985,-0.4082745031807886,-1.4178607217249188,-0.351463153746543
6.301524607329842,1.0049214659684464,0.7704712041893208,-0.2393717277475721
6.309521465968586,0.8823783001002593,-0.4411172997660616,-0.48825220006683956
6.317518324607329,0.8568564108276734,-0.5006683747354289,-0.4712376072184489
6.325515183246073,0.8313345215550874,-0.5602194497047962,-0.45422301437005824
6.333512041884816,0.8058126322825014,-0.6197705246741634,-0.4372084215216676
6.34150890052356,0.7802907430099154,-0.6793215996435307,-0.4201938286732769
6.349505759162303,0.7547688537373295,-0.738872674612898,-0.4031792358248863
6.357502617801046,0.7292469644647464,-0.7984237495822586,-0.38616464297649755
6.36549947643979,0.7037250751921603,-0.8579748245516259,-0.3691500501281069
6.373496335078533,0.6782031859195744,-0.9175258995209932,-0.3521354572797163
6.381493193717277,0.6526812966469884,-0.9770769744903604,-0.3351208644313256
6.38949005235602,0.6271594073744025,-1.0366280494597278,-0.318106271582935
6.397486910994764,0.6016375181018165,-1.0961791244290948,-0.30109167873454434
6.405483769633507,-0.41209424083769003,-0.47138743455501464,0.2802356020942251
6.413480628272251,-0.15539267015706915,1.8,1.002408376963351
6.4214774869109945,-0.3339632999542541,1.8,1.0101723173893153
6.429474345549737,-0.5125339297514193,1.8,1.017936257815279
6.437471204188481,-0.6911045595486043,1.8,1.0257001982412437
6.445468062827224,-0.8696751893457892,1.8,1.0334641386672083
6.453464921465968,-1.0482458191429744,1.8,1.041228079093173
6.461461780104711,-1.2268164489401594,1.8,1.0489920195191373
6.469458638743455,-1.4053870787373444,1.8,1.056755959945102
6.4774554973821985,-1.5839577085345293,1.8,1.0645199003710666
6.485452356020942,-1.7625283383317145,1.8,1.0722838407970312
6.493449214659686,-1.9410989681288995,1.8,1.0800477812229956
6.501446073298428,-2.1196695979260647,1.8,1.0878117216489593
6.509442931937172,-2.2982402277232494,1.8,1.095575662074924
6.517439790575915,-1.6547120418850243,1.1407068062829064,1.1286649214659605
6.525436649214659,0.07794066317614146,-0.39202443280966315,1.1953054101221592
6.5334335078534025,0.27433507853402844,-0.20265968586388616,-0.9557172774868257
6.541430366492146,1.571165143313518,0.07940367379537006,-0.408238530481852
6.54942722513089,1.4762871594640186,0.011633685331441837,-0.4353465258674233
6.557424083769633,1.381409175614519,-0.05613630313248638,-0.4624545212529946
6.565420942408377,1.2865311917650195,-0.12390629159641461,-0.48956251663856587
6.573417801047119,1.1916532079155306,-0.1916762800603353,-0.5166705120241342
6.581414659685863,1.0967752240660311,-0.25944626852426356,-0.5437785074097055
6.5894115183246065,1.0018972402165316,-0.3272162569881918,-0.5708865027952768
6.59740837696335,0.907019256367032,-0.39498624545212,-0.597994498180848
6.605405235602094,0.6424265877532684,-0.6253767357158901,-0.4068199408149513
6.613402094240837,0.36427498292741267,-0.868759389938514,-0.19820623719555952
6.621398952879581,0.13989528795802939,-1.1997382198950737,0.019947643979014693
6.629395811518324,2.1565968586387325,-1.3748458406050077,1.012577079697496
6.637392670157068,2.2898778359511267,-1.3156098506883882,1.042195074655806
6.6453895287958105,2.423158813263506,-1.2563738607717752,1.0718130696141124
6.653386387434554,2.5564397905759,-1.1971378708551554,1.1014310645724221
6.661383246073298,2.689720767888294,-1.137901880938536,1.1310490595307319
6.669380104712041,2.8230017452006884,-1.0786658910219162,1.1606670544890418
6.677376963350785,2.956282722513082,-1.0194299011052967,1.1902850494473516
6.685373821989528,3.050471204188601,-0.5626178010471503,1.2813089005235752
6.693370680628272,-0.39036948391922455,0.39357965594614974,1.183949139865374
6.701367539267015,-0.36752131637995716,0.3783475442533048,1.1458688606332619
6.709364397905759,-0.3446731488406898,0.36311543256045986,1.1077885814011494
6.717361256544502,-0.3218249813014249,0.34788332086761664,1.0697083021690414
6.725358115183245,-0.2989768137621575,0.3326512091747717,1.031628022936929
6.733354973821989,-0.27612864622289013,0.31741909748192676,0.9935477437048168
6.741351832460732,-0.2532804786836227,0.3021869857890818,0.9554674644727045
6.749348691099476,-0.2304323111443553,0.2869548740962369,0.9173871852405922
6.757345549738219,-0.2075841436050879,0.27172276240339194,0.8793069060084797
6.765342408376963,-0.1847359760658205,0.256490650710547,0.8412266267763675
6.773339267015706,-0.1618878085265531,0.24125853901770208,0.8031463475442551
6.78133612565445,-0.13903964098728572,0.22602642732485714,0.7650660683121429
6.789332984293193,-0.11619147344802083,0.21079431563201392,0.7269857890800346
6.797329842931936,0.6810022438294856,-0.018997756170514357,0.1620044876589713
6.80532670157068,0.19906656694091418,-0.1,-0.0003111443530286117
6.813323560209423,0.17621839940164696,-0.1,-0.007927200199451014
6.821320418848167,0.15337023186237975,-0.1,-0.015543256045873415
6.82931727748691,0.13052206432311256,-0.1,-0.023159311892295815
6.837314136125654,0.10767389678384534,-0.1,-0.030775367738718216
6.8453109947643975,0.08482572924457814,-0.1,-0.03839142358514062
6.853307853403141,0.061977561705310935,-0.1,-0.04600747943156302
6.861304712041884,0.03912939416604627,-0.1,-0.05362353527798457
6.869301570680627,0.016281226626779055,-0.1,-0.061239591124406974
6.877298429319371,-0.006566940912488162,-0.1,-0.06885564697082938
6.885295287958114,-0.02941510845175535,-0.1,-0.07647170281725178
6.893292146596858,-0.052263275991022595,-0.1,-0.08408775866367418
6.9012890052356015,-0.07511144353028976,-0.1,-0.09170381451009658
6.909285863874345,-0.09795961106955697,-0.1,-0.09931987035651899
6.917282722513089,-0.17598762494050618,-0.12401237505949383,0.0
6.925279581151832,-0.13963826749167224,-0.16036173250832778,0.0
6.933276439790575,-0.10328891004284234,-0.1967110899571577,0.0
6.941273298429318,0.0,-0.19445203656047685,-0.005547963439523158
6.949270157068062,0.0,-0.1808980388676912,-0.019101961132308807
6.9572670157068055,0.0,-0.16734404117490556,-0.03265595882509446
6.965263874345549,0.0,-0.15379004348211991,-0.0462099565178801
6.973260732984293,0.0,-0.14023604578933427,-0.05976395421066575
6.981257591623036,0.0,-0.1266820480965486,-0.0733179519034514
6.98925445026178,0.0,-0.11312805040376296,-0.08687194959623705
6.997251308900523,0.0,-0.1,-0.1
7.005248167539266,-0.5,0.29099260538673755,-0.592279376045775
7.0132450261780095,-0.5,0.23328331624116574,-0.5428142710638564
7.021241884816753,-0.5,0.17557402709559394,-0.4933491660819377
7.029238743455497,-0.5,0.11786473795002217,-0.443884061100019
7.03723560209424,-0.5,0.060155448804450395,-0.3944189561181003
7.045232460732984,-0.5,0.0024461596588786216,-0.34495385113618166
7.053229319371727,-0.5,-0.05526312948669315,-0.29548874615426296
7.061226178010471,-0.5,-0.11297241863226493,-0.24602364117234432
7.069223036649214,-0.5,-0.17068170777783676,-0.19655853619042563
7.077219895287957,-0.5,-0.2283909969234021,-0.14709343120851248
7.085216753926701,-0.5,-0.2861002860689739,-0.09762832622659379
7.093213612565444,-0.5,-0.34380957521454564,-0.04816322124467509
7.101210471204188,-0.4579057591624529,-0.32633507853429267,-0.010523560209386766
7.109207329842931,-0.3975360615450376,-0.1,0.0
7.117204188481675,-0.38121594187413255,-0.1,0.0
7.125201047120418,-0.3648958222032274,-0.1,0.0
7.133197905759162,-0.34857570253232234,-0.1,0.0
7.1411947643979055,-0.33225558286141726,-0.1,0.0
7.149191623036648,-0.31593546319051397,-0.1,0.0
7.157188481675392,-0.2996153435196089,-0.1,0.0
7.165185340314135,-0.2832952238487038,-0.1,0.0
7.173182198952879,-0.2669751041777987,-0.1,0.0
7.181179057591622,-0.2506549845068936,-0.1,0.0
7.189175916230366,-0.23433486483598853,-0.1,0.0
7.1971727748691094,-0.21801474516508346,-0.1,0.0
7.205169633507853,-0.20169462549417838,-0.1,0.0
7.2131664921465966,0.0,-0.07380703066566587,-0.02619296933433414
7.221163350785339,0.09199151699914113,-0.1,0.0
7.229160209424083,0.07174630525548649,-0.1,0.0
7.237157068062826,0.05150109351183185,-0.1,0.0
7.24515392670157,0.031255881768177216,-0.1,0.0
7.253150785340313,0.011010670024522579,-0.1,0.0
7.261147643979057,-0.009234541719132044,-0.1,0.0
7.2691445026178005,-0.029479753462786695,-0.1,0.0
7.277141361256544,-0.04972496520644132,-0.1,0.0
7.285138219895288,-0.06997017695009597,-0.1,0.0
7.29313507853403,-0.09021538869374834,-0.1,0.0
7.301131937172774,-0.08680628272262163,-0.1,0.0
7.309128795811517,0.0,-0.1,0.08910994764397266
7.317125654450261,-0.007830389505781703,-0.1,0.1
7.3251225130890045,-0.016618146251653722,-0.1,0.1
7.333119371727748,-0.02540590299752574,-0.1,0.1
7.341116230366492,-0.034193659743397754,-0.1,0.1
7.349113089005235,-0.04298141648926978,-0.1,0.1
7.357109947643979,-0.0517691732351418,-0.1,0.1
7.365106806282721,-0.060556929981012836,-0.1,0.1
7.373103664921465,-0.06934468672688486,-0.1,0.1
7.3811005235602085,-0.07813244347275687,-0.1,0.1
7.389097382198952,-0.0869202002186289,-0.1,0.1
7.397094240837696,-0.0957079569645009,-0.1,0.1
7.405091099476439,-0.1,0.0,0.0
7.413087958115183,0.0,-0.1,0.1
7.421084816753926,0.0,-0.1,0.1
7.42908167539267,0.0,-0.1,0.1
7.4370785340314125,0.0,-0.1,0.1
7.445075392670156,0.0,-0.1,0.1
7.4530722513089,0.0,-0.1,0.1
7.461069109947643,0.0,-0.1,0.1
7.469065968586387,0.0,-0.1,0.1
7.47706282722513,0.0,-0.1,0.1
7.485059685863874,0.0,-0.1,0.1
7.493056544502617,0.0,-0.1,0.1
7.501053403141361,-0.1,-4.139778400046318e-05,0.0
7.509050261780104,-0.1,-0.006240513007832008,0.0
7.517047120418847,-0.1,-0.012439628231664243,0.0
7.525043979057591,-0.1,-0.018638743455496477,0.0
7.533040837696334,-0.1,-0.02483785867932871,0.0
7.541037696335078,-0.1,-0.031036973903160944,0.0
7.549034554973821,-0.1,-0.03723608912699318,0.0
7.557031413612565,-0.1,-0.04343520435082541,0.0
7.5650282722513085,-0.1,-0.049634319574657644,0.0
7.573025130890052,-0.1,-0.05583343479848988,0.0
7.581021989528795,-0.1,-0.06203255002232142,0.0
7.589018848167538,-0.1,-0.06823166524615366,0.0
7.597015706806282,-0.1,-0.07443078046998589,0.0
7.605012565445025,-0.1,-0.08062989569381812,0.0
7.613009424083769,-0.1,-0.08682901091765036,0.0
7.6210062827225125,-0.1,-0.09302812614148259,0.0
7.629003141361256,-0.1,-0.09922724136531483,0.0
7.637,0.0,0.0,0.0
