accel_time_list,vertical_Accel_x,vertical_Accel_y,vertical_Accel_z
0.0,0.615,-5.674,-7.185
0.00799588960657663,1.5825812169700528,-6.3005365347915445,-7.168267469172049
0.01599177921315326,1.4853811839401057,-6.320651194583089,-7.1342849383440985
0.023987668819729892,1.3881811509101585,-6.3407658543746335,-7.100302407516148
0.03198355842630652,1.2909811178802113,-6.360880514166178,-7.066319876688198
0.03997944803288315,1.1937810848502641,-6.3809951739577215,-7.032337345860246
0.047975337639459784,1.096581051820317,-6.401109833749266,-6.998354815032296
0.05597122724603641,0.9993810187903698,-6.4212244935408105,-6.964372284204345
0.06396711685261304,0.9021809857604227,-6.441339153332355,-6.930389753376394
0.07196300645918967,0.8049809527304757,-6.461453813123899,-6.896407222548444
0.0799588960657663,0.7077809197005285,-6.481568472915444,-6.862424691720493
0.08795478567234292,0.6105808866705813,-6.5016831327069875,-6.828442160892543
0.09595067527891957,0.5133808536406341,-6.521797792498532,-6.794459630064591
0.1039465648854962,0.41618082061068695,-6.5419124522900765,-6.760477099236641
0.11194245449207282,0.3189807875807398,-6.562027112081621,-6.7264945684086905
0.11993834409864945,0.2217807545507926,-6.582141771873165,-6.692512037580739
0.12793423370522608,0.12458072152084543,-6.60225643166471,-6.658529506752789
0.1359301233118027,1.3573053435114488,-6.25416089254257,-5.921731650029361
0.14392601291837934,0.9240247237096959,-6.621808310181331,-5.166795865066915
0.15192190252495597,0.7068229463370173,-6.481223863068685,-5.10175467349103
0.1599177921315326,0.4896211689643386,-6.340639415956039,-5.036713481915145
0.16791368173810922,0.27241939159166007,-6.200054968843393,-4.971672290339261
0.17590957134468585,0.055217614218981526,-6.059470521730747,-4.906631098763376
0.18390546095126248,-0.16198416315369712,-5.918886074618102,-4.841589907187491
0.19190135055783913,-0.37918594052637666,-5.778301627505455,-4.776548715611607
0.19989724016441576,-0.5963877178990551,-5.6377171803928094,-4.7115075240357225
0.2078931297709924,-1.3468969465648928,-4.493936386768436,-5.025854961832065
0.21588901937756902,-1.236478578008587,-5.0411724533607725,-7.386466930996029
0.22388490898414565,-1.1418483248665332,-5.114675952312973,-7.327708145905499
0.23188079859072228,-1.0472180717244797,-5.188179451265172,-7.268949360814967
0.2398766881972989,-0.9525878185824259,-5.261682950217372,-7.210190575724436
0.24787257780387553,-0.8579575654403722,-5.335186449169572,-7.1514317906339055
0.25586846741045216,-0.7633273122983186,-5.408689948121771,-7.092673005543374
0.2638643570170288,-0.6686970591562645,-5.482193447073971,-7.033914220452843
0.2718602466236054,-0.5740668060142112,-5.555696946026171,-6.975155435362312
0.2798561362301821,-0.47943655287215725,-5.6292004449783715,-6.916396650271781
0.2878520258367587,-0.38480629973010383,-5.702703943930571,-6.857637865181251
0.29584791544333533,-0.29017604658804985,-5.776207442882771,-6.798879080090719
0.30384380504991193,-0.19554579344599654,-5.84971094183497,-6.740120295000188
0.3118396946564886,-0.10091554030394256,-5.92321444078717,-6.681361509909657
0.3198355842630652,-0.0062852871618892525,-5.99671793973937,-6.622602724819126
0.32783147386964184,-1.1874656488549695,-6.383768349970638,-4.306054903112144
0.33582736347621844,-2.8831354162427396,-4.3769301465672115,-3.6458378923623425
0.3438232530827951,-3.132749672970821,-3.979827351848513,-3.717088393807085
0.3518191426893717,-3.3823639296989003,-3.582724557129818,-3.788338895251827
0.35981503229594836,-3.6319781864269816,-3.18562176241112,-3.8595893966965695
0.36781092190252496,-3.8815924431550615,-2.7885189676924247,-3.9308398981413117
0.3758068115091016,-4.131206699883142,-2.3914161729737264,-4.002090399586054
0.38380270111567827,-4.380820956611224,-1.9943133782550282,-4.073340901030797
0.39179859072225487,-4.630435213339303,-1.5972105835363326,-4.144591402475538
0.3997944803288315,-4.880049470067385,-1.2001077888176348,-4.215841903920281
0.4077903699354081,-5.129663726795464,-0.8030049940989392,-4.287092405365023
0.4157862595419848,-5.379277983523545,-0.4059021993802414,-4.358342906809765
0.4237821491485614,-5.628892240251625,-0.008799404661545829,-4.429593408254508
0.43177803875513804,-6.122155020551976,0.5667058132707065,-4.344757193188487
0.43977392836171464,-7.919371697005292,3.2739283617146366,-4.358682618907814
0.4477698179682913,-8.72074465034344,5.370184872113511,-4.9395992707807
0.4557657075748679,-8.118077715112864,6.2798567780524115,-4.6958176132406555
0.46376159718144455,-7.515410779882284,7.189528683991318,-4.452035955700609
0.47175748678802115,-6.912743844651709,8.09920058993022,-4.208254298160565
0.4797533763945978,-6.310076909421129,9.008872495869126,-3.964472640620518
0.4877492660011744,-5.707409974190554,9.918544401808028,-3.7206909830804737
0.49574515560775106,-5.104743038959974,10.828216307746933,-3.4769093255404275
0.5037410452143277,-4.502076103729394,11.73788821368584,-3.233127668000381
0.5117369348209043,-3.899409168498818,12.64756011962474,-2.9893460104603364
0.5197328244274809,-3.296742233268243,13.557232025563641,-2.7455643529202916
0.5277287140340576,-3.440549618320671,14.809204638872615,-2.068189371696966
0.5357246036406342,-1.9030966442198358,18.30007499906298,3.0798779313102056
0.5437204932472108,-1.5469393061056207,17.84941305081146,3.5411727114853644
0.5517163828537874,-1.1907819679914056,17.39875110255994,4.002467491660523
0.5597122724603641,-0.8346246298771853,16.948089154308413,4.463762271835688
0.5677081620669407,-0.47846729176297,16.497427206056894,4.925057052010847
0.5757040516735173,-0.12230995364875485,16.046765257805376,5.386351832186005
0.583699941280094,0.23384738446546027,15.596103309553856,5.847646612361164
0.5916958308866707,0.5900047225796805,15.145441361302328,6.30894139253633
0.5996917204932473,0.9461620606938959,14.69477941305081,6.770236172711488
0.6076876100998239,1.3023193988081112,14.24411746479929,7.231530952886647
0.6156834997064005,1.6584767369223261,13.79345551654777,7.692825733061805
0.6236793893129772,2.014634075036547,13.342793568296244,8.154120513236972
0.6316752789195538,1.9531686806564266,11.30886336805019,4.576209413728095
0.6396711685261304,1.9078025280464814,11.224359439997528,4.4839620978459065
0.6476670581327071,1.8624363754365356,11.139855511944864,4.3917147819637155
0.6556629477392837,1.8170702228265905,11.055351583892202,4.299467466081527
0.6636588373458603,1.7717040702166453,10.97084765583954,4.207220150199338
0.6716547269524369,1.7263379176067002,10.886343727786878,4.1149728343171486
0.6796506165590136,1.6809717649967544,10.801839799734214,4.022725518434958
0.6876465061655902,1.6356056123868092,10.717335871681552,3.9304782025527696
0.6956423957721668,1.590239459776864,10.63283194362889,3.8382308866705808
0.7036382853787434,1.544873307166919,10.548328015576228,3.7459835707883915
0.7116341749853201,1.4995071545569731,10.463824087523564,3.6537362549062014
0.7196300645918967,1.454141001947028,10.379320159470902,3.561488939024012
0.7276259541984733,0.7733091603053237,10.198996183206104,2.7067290076335637
0.7356218438050499,0.955484292425133,8.976935848502642,2.2816078978273633
0.7436177334116266,1.3160520149121262,8.679461060508816,2.2376455229485592
0.7516136230182032,1.4139551748624188,8.683923882614812,2.2854349096669355
0.7596095126247798,1.5118583348127115,8.688386704720807,2.3332242963853123
0.7676054022313565,1.6097614947630055,8.692849526826805,2.3810136831036894
0.7756012918379331,1.707664654713298,8.697312348932801,2.4288030698220657
0.7835971814445097,1.8055678146635907,8.701775171038797,2.476592456540442
0.7915930710510863,1.9034709746138831,8.706237993144793,2.5243818432588188
0.799588960657663,2.001374134564177,8.710700815250789,2.572171229977196
0.8075848502642397,2.0992772945144695,8.715163637356786,2.6199606166955722
0.8155807398708163,2.197180454464762,8.719626459462782,2.6677500034139485
0.8235766294773929,2.295083614415055,8.724089281568778,2.7155393901323253
0.8315725190839696,2.5865572519084092,7.651404580152694,3.4566946564885614
0.8395684086905462,3.003485631690682,8.382414679976511,3.8525836035954657
0.8475642982971228,3.0269812457653913,8.419195772166765,3.8785394913952755
0.8555601879036994,3.050476859840101,8.455976864357016,3.904495379195086
0.8635560775102761,3.0739724739148113,8.492757956547269,3.930451266994896
0.8715519671168527,3.097468087989521,8.529539048737522,3.9564071547947064
0.8795478567234293,3.120963702064231,8.566320140927774,3.9823630425945162
0.8875437463300059,3.1444593161389403,8.603101233118027,4.008318930394326
0.8955396359365826,3.1679549302136505,8.639882325308278,4.034274818194137
0.9035355255431592,3.1068843217850803,8.873587199060495,4.054142102172636
0.9115314151497358,2.519044905799337,10.170594245449207,3.655590572966948
0.9195273047563125,2.423704086507359,10.194581914268937,3.5017713407048365
0.9275231943628891,2.328363267215382,10.218569583088668,3.347952108442727
0.9355190839694657,2.233022447923405,10.242557251908396,3.194132876180618
0.9435149735760423,2.137681628631428,10.266544920728126,3.0403136439185086
0.951510863182619,2.04234080933945,10.290532589547857,2.8864944116563973
0.9595067527891956,1.9469999900474728,10.314520258367587,2.7326751793942883
0.9675026423957722,1.851659170755496,10.338507927187315,2.578855947132179
0.9754985320023488,1.756318351463519,10.362495596007046,2.4250367148700698
0.9834944216089255,1.6609775321715405,10.386483264826776,2.2712174826079585
0.9914903112155021,1.5656367128795639,10.410470933646506,2.1173982503458495
0.9994862008220787,1.4702958935875867,10.434458602466236,1.96357901808374
1.0074820904286554,1.3749550742956085,10.458446271285965,1.8097597858216288
1.015477980035232,1.2796142550036316,10.482433940105695,1.6559405535595197
1.0234738696418086,1.1842734357116547,10.506421608925425,1.5021213212974103
1.0314697592483852,0.2807539635936525,11.545218102508185,1.367339568828118
1.0394656488549618,0.19605822640896547,11.625656001299333,1.367465648854962
1.0474615384615384,0.20107692307692313,11.609153846153845,1.3754615384615385
1.0554574280681153,0.2060956197448809,11.592651691008358,1.3834574280681153
1.0634533176746919,0.21111431641283854,11.57614953586287,1.391453317674692
1.0714492072812685,0.2161330130807962,11.559647380717381,1.3994492072812685
1.079445096887845,0.22115170974875384,11.543145225571894,1.4074450968878451
1.0874409864944217,0.2261704064167115,11.526643070426406,1.4154409864944217
1.0954368761009983,0.23118910308466914,11.510140915280918,1.4234368761009983
1.1034327657075749,0.2362077997526268,11.49363876013543,1.431432765707575
1.1114286553141515,0.24122649642058444,11.477136604989942,1.4394286553141515
1.1194245449207283,0.24624519308854223,11.460634449844454,1.4474245449207284
1.127420434527305,0.24311685261303329,11.347564298297092,1.4263053435114412
1.1354163241338815,0.21728772753963835,9.898108240360141,1.2734223918575114
1.143412213740458,0.30924045801526917,9.640907124681927,1.4639910941475869
1.1514081033470347,0.2823502815101384,9.608035991848295,1.5576521709094644
1.1594039929536113,0.3168737107526514,9.611046209111947,1.3560616835342454
1.167399882560188,0.3513971399951644,9.6140564263756,1.1544711961590264
1.1753957721667647,0.38592056923767837,9.617066643639253,0.9528807087838017
1.1833916617733413,0.4204439984801914,9.620076860902905,0.7512902214085827
1.191387551379918,0.45496742772270443,9.623087078166558,0.5496997340333638
1.1993834409864945,0.48949085696521744,9.62609729543021,0.3481092466581448
1.2073793305930711,0.5240142862077304,9.629107512693862,0.1465187592829258
1.2153752201996477,0.5585377154502434,9.632117729957514,-0.055071728092293215
1.2233711098062243,0.5930611446927565,9.635127947221166,-0.2566622154675122
1.231366999412801,0.6299758269720089,9.62435985515757,-0.4606828146408264
1.2393628890193777,0.6058496770405226,9.11904345273048,-0.5320557839107493
1.2473587786259543,0.7220254748801703,9.230541807207528,-0.638058139534884
1.255354668232531,0.7044531128378101,9.240025304182769,-0.6745974955277283
1.2633505578391075,0.6868807507954499,9.249508801158012,-0.7111368515205726
1.2713464474456841,0.6693083887530896,9.258992298133254,-0.7476762075134169
1.2793423370522607,0.6517360267107294,9.268475795108495,-0.7842155635062611
1.2873382266588373,0.6341636646683692,9.277959292083738,-0.8207549194991055
1.2953341162654142,0.6165913026260085,9.287442789058979,-0.8572942754919508
1.3033300058719908,0.5990189405836482,9.296926286034221,-0.893833631484795
1.3113258954785674,0.581446578541288,9.306409783009464,-0.9303729874776394
1.319321785085144,0.5638742164989278,9.315893279984705,-0.9669123434704836
1.3273176746917206,0.5398523194362862,9.291961832061055,-0.9908813857897785
1.3353135642982972,0.3506871652520499,8.741775031584192,-1.1313390095909184
1.3433094539048738,0.2770280609975261,8.730629246071993,-1.173983754159327
1.3513053435114504,0.20336895674300223,8.719483460559795,-1.2166284987277356
1.3593012331180272,0.12970985248847633,8.708337675047598,-1.2592732432961453
1.3672971227246038,0.05605074823395245,8.6971918895354,-1.3019179878645537
1.3752930123311804,-0.01760835602057137,8.686046104023202,-1.3445627324329623
1.383288901937757,-0.09126746027509525,8.674900318511005,-1.387207477001371
1.3912847915443336,-0.16492656452961907,8.663754532998807,-1.4298522215697795
1.3992806811509102,-0.238585668784143,8.652608747486608,-1.4724969661381881
1.4072765707574868,-0.3122447730386668,8.641462961974412,-1.5151417107065965
1.4152724603640636,-0.38590387729319275,8.630317176462214,-1.5577864552750063
1.4232683499706402,-0.4595629815477166,8.619171390950015,-1.6004311998434149
1.4312642395772168,-0.5332220858022404,8.608025605437819,-1.6430759444118235
1.4392601291837934,-0.12830295556860039,8.524794388986757,-1.2839366085992048
1.44725601879037,0.06013350949305468,8.548870901024337,-1.3216061329679656
1.4552519083969466,0.24856997455470972,8.572947413061918,-1.3592756573367266
1.4632477980035232,0.43700643961636476,8.597023925099498,-1.3969451817054874
1.4712436876100998,0.6254429046780198,8.621100437137079,-1.4346147060742482
1.4792395772166766,0.8138793697396801,8.64517694917466,-1.4722842304430102
1.4872354668232532,1.0023158348013352,8.669253461212241,-1.509953754811771
1.4952313564298298,1.1907522998629902,8.69332997324982,-1.5476232791805318
1.5032272460364065,1.3791887649246453,8.717406485287402,-1.5852928035492926
1.511223135642983,1.5676252299863003,8.741482997324983,-1.6229623279180534
1.5192190252495597,1.7560616950479555,8.765559509362562,-1.6606318522868142
1.5272149148561363,1.9444981601096103,8.789636021400144,-1.698301376655575
1.535210804462713,1.8358276303848777,8.69825954198473,-1.728876634815567
1.5432066940692897,1.6894934820904237,8.654889371697005,-1.693361009982381
1.5512025836758663,1.5454910978406546,9.107753531503787,-1.550698423425913
1.5591984732824429,1.406996255221083,9.255903787987904,-1.3414475010802203
1.5671943628890195,1.2685014126015113,9.404054044472021,-1.1321965787345276
1.575190252495596,1.1300065699819397,9.552204300956138,-0.922945656388835
1.5831861421021727,0.9915117273623681,9.700354557440255,-0.7136947340431422
1.5911820317087493,0.8530168847427965,9.848504813924372,-0.5044438116974495
1.599177921315326,0.714522042123221,9.996655070408494,-0.29519288935175103
1.6071738109219027,0.6720405167351788,10.451423957721687,-0.03665002935995706
1.6151697005284793,0.7242021938971793,10.648031663190718,-0.08643522080709527
1.623165590135056,0.7231682426549496,10.651960677911191,-0.1012551886123881
1.6311614797416325,0.7221342914127199,10.655889692631664,-0.1160751564176809
1.639157369348209,0.7211003401704902,10.659818707352137,-0.13089512422297372
1.6471532589547857,0.7200663889282605,10.66374772207261,-0.14571509202826655
1.6551491485613623,0.7190324376860308,10.667676736793084,-0.16053505983355937
1.6631450381679391,0.7179984864438009,10.671605751513557,-0.1753550276388526
1.6711409277745157,0.7169645352015712,10.67553476623403,-0.19017499544414543
1.6791368173810923,0.7159305839593415,10.679463780954501,-0.20499496324943822
1.687132706987669,0.7148966327171118,10.683392795674974,-0.21981493105473104
1.6951285965942455,0.713862681474882,10.687321810395447,-0.23463489886002387
1.7031244862008221,0.7128287302326523,10.69125082511592,-0.2494548666653167
1.7111203758073987,0.7117947789904225,10.695179839836394,-0.2642748344706095
1.7191162654139756,0.7107608277481928,10.699108854556867,-0.2790948022759028
1.7271121550205522,0.7188710510863189,10.65299800352319,-0.3233720493247233
1.7351080446271288,0.671004308186791,10.368685761968043,-0.32245243996662215
1.7431039342337054,0.6658701053867787,10.352441480977841,-0.31075319096331533
1.751099823840282,0.6607359025867663,10.336197199987637,-0.2990539419600085
1.7590957134468586,0.655601699786754,10.319952918997435,-0.2873546929567017
1.7670916030534352,0.6504674969867417,10.303708638007231,-0.27565544395339486
1.7750874926600118,0.6453332941867292,10.28746435701703,-0.26395619495008804
1.7830833822665886,0.6401990913867168,10.271220076026825,-0.2522569459467809
1.7910792718731652,0.6350648885867044,10.254975795036623,-0.24055769694347406
1.7990751614797418,0.6299306857866921,10.23873151404642,-0.22885844794016724
1.8070710510863184,0.6247964829866798,10.222487233056217,-0.21715919893686042
1.815066940692895,0.6196622801866674,10.206242952066013,-0.2054599499335536
1.8230628302994716,0.614528077386655,10.189998671075811,-0.19376070093024678
1.8310587199060482,0.884119201409278,10.267179682912507,0.06294480328831532
1.839054609512625,0.7433285798171255,9.978181780052001,0.075020551967124
1.8470504991192016,0.8982524955960082,9.920303655314152,0.33276612350753876
1.8550463887257782,0.9382319436288912,9.928799288021139,0.4408772142297931
1.8630422783323548,0.9782113916617741,9.937294920728128,0.5489883049520474
1.8710381679389314,1.018190839694657,9.945790553435115,0.6570993956743019
1.879034057545508,1.05817028772754,9.954286186142102,0.7652104863965561
1.8870299471520846,1.098149735760423,9.96278181884909,0.8733215771188105
1.8950258367586612,1.138129183793306,9.971277451556078,0.9814326678410649
1.903021726365238,1.17810863182619,9.979773084263066,1.0895437585633223
1.9110176159718146,1.218088079859073,9.988268716970053,1.1976548492855765
1.9190135055783912,1.258067527891956,9.996764349677042,1.305765940007831
1.9270093951849678,1.298046975924839,10.005259982384029,1.4138770307300854
1.9350052847915444,1.338026423957722,10.013755615091016,1.5219881214523396
1.943001174398121,1.3980105695830898,9.811001174398122,1.4999101585437464
1.9509970640046976,1.4699735760422783,9.818997064004698,1.5071791490951796
1.9589929536112745,1.2638479154433342,9.89503758073987,1.3075261303581887
1.966988843217851,1.2094758661186134,9.909130336171462,1.1643997064004674
1.9749847328244277,1.1551038167938925,9.923223091603054,1.0212732824427464
1.9829806224310043,1.1007317674691717,9.937315847034645,0.8781468584850255
1.9909765120375809,1.0463597181444508,9.951408602466236,0.7350204345273045
1.9989724016441575,0.99198766881973,9.965501357897827,0.5918940105695835
2.0069682912507343,0.9376156194950076,9.97959411332942,0.44876758661185845
2.014964180857311,0.8832435701702868,9.99368686876101,0.3056411626541373
2.0229600704638875,0.828871520845566,10.007779624192601,0.1625147386964163
2.030955960070464,0.7744994715208452,10.021872379624192,0.01938831473869529
2.0389518496770407,0.571,9.894,-0.029
2.0469477392836173,0.5605026023594726,9.899966469599104,-0.035011330272780666
2.054943628890194,0.5392408049965302,9.912051166390862,-0.04718688944643145
2.0629395184967705,0.5179790076335877,9.924135863182618,-0.059362448620082234
2.070935408103347,0.4967172102706453,9.936220559974377,-0.07153800779373301
2.0789312977099237,0.4754554129077029,9.948305256766135,-0.0837135669673838
2.0869271873165003,0.4541936155447605,9.960389953557891,-0.09588912614103458
2.094923076923077,0.4329318181818181,9.97247465034965,-0.10806468531468537
2.1029189665296535,0.4116700208188757,9.984559347141408,-0.12024024448833615
2.1109148561362305,0.39040822345593207,9.996644043933166,-0.13241580366198763
2.118910745742807,0.3691464260929897,10.008728740724925,-0.1445913628356384
2.1269066353493837,0.3478846287300473,10.020813437516681,-0.15676692200928918
2.1349025249559603,0.278,9.816,-0.122
2.142898414562537,0.20016788787050865,9.816074982766985,-0.08975741019683883
2.1508943041691135,0.10995339426587272,9.816161894610534,-0.05238531747044824
2.15889019377569,0.01973890066123679,9.816248806454084,-0.01501322474405764
2.1668860833822667,-0.07047559294339911,9.816335718297633,0.02235886798233297
2.1748819729888433,-0.16069008654803507,9.816422630141183,0.05973096070872355
2.18287786259542,-0.2509045801526709,9.816509541984733,0.09710305343511416
2.1908737522019965,-0.3411190737573069,9.816596453828282,0.13447514616150474
2.198869641808573,-0.43133356736194284,9.816683365671834,0.17184723888789533
2.2068655314151497,-0.5215480609665787,9.816770277515383,0.20921933161428596
2.2148614210217263,-0.6117625545712146,9.816857189358933,0.24659142434067655
2.222857310628303,-0.7019770481758506,9.816944101202482,0.28396351706706713
2.23085320023488,-0.837183597572907,9.77212419260128,0.4204174006654932
2.2388490898414566,-0.6839691223632496,9.32469141334297,0.4577569808934456
2.246844979448033,-0.6578902208771843,9.319032783775238,0.44373342066037275
2.25484086905461,-0.6318113193911191,9.313374154207507,0.4297098604272999
2.2628367586611864,-0.6057324179050538,9.307715524639775,0.4156863001942271
2.270832648267763,-0.5796535164189887,9.302056895072045,0.40166273996115426
2.2788285378743396,-0.5535746149329234,9.296398265504314,0.38763917972808143
2.286824427480916,-0.5274957134468581,9.290739635936582,0.3736156194950086
2.294820317087493,-0.5014168119607929,9.28508100636885,0.3595920592619358
2.3028162066940694,-0.46534879624192377,9.241230182031702,0.3506729301233124
2.310812096300646,-0.43398708162067284,8.894743981209622,0.49012096300646024
2.3188079859072226,-0.42743932701881576,8.891758523322014,0.33862399857029624
2.326803875513799,-0.41457637417345344,8.900727825576348,0.18155691490719622
2.334799765120376,-0.4017134213280911,8.909697127830682,0.02448983124409615
2.3427956547269524,-0.38885046848272875,8.918666430085016,-0.13257725241900387
2.3507915443335294,-0.3759875156373657,8.92763573233935,-0.2896443360821127
2.358787433940106,-0.3631245627920034,8.936605034593684,-0.4467114197452128
2.3667833235466826,-0.3502616099466411,8.945574336848019,-0.6037785034083127
2.3747792131532592,-0.3373986571012787,8.95454363910235,-0.7608455870714128
2.382775102759836,-0.3245357042559164,8.963512941356685,-0.9179126707345129
2.3907709923664124,-0.31167275141055406,8.972482243611019,-1.074979754397613
2.398766881972989,-0.29880979856519174,8.981451545865353,-1.232046838060713
2.4067627715795656,-0.2859468457198294,8.990420848119687,-1.389113921723813
2.4147586611861422,-0.27308389287446705,8.99939015037402,-1.5461810053869134
2.422754550792719,-0.26022094002910473,9.008359452628355,-1.7032480890500135
2.4307504403992954,-0.33915065850180615,9.056789866621928,-1.7608922909151914
2.438746330005872,-0.35267890423549236,9.116723633485664,-1.669402537721157
2.4467422196124486,-0.34772492915315684,9.126805407337436,-1.6745303364905921
2.4547381092190252,-0.34277095407082137,9.136887181189206,-1.679658135260027
2.462733998825602,-0.33781697898848584,9.146968955040975,-1.684785934029462
2.470729888432179,-0.3328630039061501,9.157050728892747,-1.6899137327988973
2.4787257780387555,-0.32790902882381456,9.167132502744517,-1.6950415315683323
2.486721667645332,-0.3229550537414791,9.177214276596288,-1.7001693303377672
2.4947175572519087,-0.31800107865914357,9.187296050448058,-1.7052971291072023
2.5027134468584853,-0.3130471035768081,9.19737782429983,-1.7104249278766372
2.510709336465062,-0.30809312849447257,9.2074595981516,-1.7155527266460722
2.5187052260716385,-0.3031391534121371,9.21754137200337,-1.720680525415507
2.526701115678215,-0.29818517832980157,9.22762314585514,-1.7258083241849422
2.5346970052847917,-0.38593893129770757,9.603675446690714,-1.8429568828118454
2.5426928948913683,-0.3166666792946037,9.74444735728853,-1.7531723271393305
2.550688784497945,-0.2379974428428016,9.754076815739461,-1.66693708761894
2.5586846741045215,-0.15932820639099957,9.763706274190392,-1.5807018480985493
2.566680563711098,-0.08065896993919752,9.773335732641323,-1.4944666085781586
2.5746764533176747,-0.001989733487395451,9.782965191092254,-1.408231369057768
2.5826723429242513,0.07667950296440662,9.792594649543185,-1.3219961295373772
2.5906682325308283,0.15534873941621308,9.802224107994116,-1.2357608900169819
2.598664122137405,0.2340179758680151,9.811853566445047,-1.149525650496591
2.6066600117439815,0.3126872123198172,9.821483024895977,-1.0632904109762005
2.614655901350558,0.39135644877161924,9.831112483346908,-0.9770551714558098
2.6226517909571347,0.47002568522342125,9.84074194179784,-0.8908199319354191
2.6306476805637113,0.5486949216752234,9.85037140024877,-0.8045846924150284
2.638643570170288,0.5076369152475988,9.978363084752402,-0.7796369152475987
2.6466394597768645,0.44100450185946044,10.04499549814054,-0.7130045018594604
2.654635349383441,0.44633745047617157,10.049667490095235,-0.6623448883309351
2.6626312389900177,0.45506859429944485,10.051413718859889,-0.6124395083726468
2.6706271285965943,0.46379973812271813,10.053159947624543,-0.5625341284143585
2.678623018203171,0.4725308819459914,10.0549061763892,-0.5126287484560701
2.6866189078097475,0.4812620257692647,10.056652405153853,-0.46272336849778184
2.694614797416324,0.48999316959253797,10.058398633918507,-0.4128179885394935
2.7026106870229007,0.49872431341581125,10.060144862683162,-0.36291260858120516
2.710606576629478,0.507455457239085,10.061891091447817,-0.3130072286229141
2.7186024662360544,0.5161866010623584,10.063637320212472,-0.26310184866462577
2.726598355842631,0.5249177448856316,10.065383548977126,-0.21319646870633746
2.7345942454492076,0.5032877275396229,10.067,-0.1372877275396229
2.742590135055784,0.3758281126612272,9.890863790066211,0.1717015206430843
2.750586024662361,0.38658120558041636,9.883878875007593,0.17326393585356478
2.7585819142689374,0.39733429849960555,9.876893959948974,0.17482635106404526
2.766577803875514,0.40808739141879474,9.869909044890356,0.17638876627452574
2.7745736934820906,0.41884048433798393,9.862924129831736,0.17795118148500622
2.782569583088667,0.4295935772571732,9.855939214773118,0.1795135966954867
2.790565472695244,0.44034667017636236,9.8489542997145,0.1810760119059672
2.7985613623018204,0.45109976309555155,9.841969384655881,0.18263842711644768
2.806557251908397,0.46185285601474074,9.834984469597263,0.18420084232692815
2.8145531415149736,0.47260594893392993,9.827999554538643,0.18576325753740863
2.82254903112155,0.4833590418531191,9.821014639480024,0.1873256727478891
2.8305449207281272,0.45853246109806,9.871620485907222,-0.012033580446269012
2.838540810334704,0.38365428655313927,9.854129477392835,0.06542660011744211
2.8465366999412804,0.30877611200821853,9.83663846887845,0.14288678068115324
2.854532589547857,0.23389793746329782,9.819147460364062,0.22034696124486433
2.8625284791544336,0.1590197629183771,9.801656451849675,0.2978071418085754
2.8705243687610102,0.08414158837345637,9.78416544333529,0.37526732237228655
2.878520258367587,0.009263413828535627,9.766674434820903,0.45272750293599767
2.8865161479741634,-0.06561476071638506,9.749183426306518,0.5301876834997088
2.89451203758074,-0.1404929352613058,9.73169241779213,0.6076478640634199
2.9025079271873166,-0.21537110980622653,9.714201409277743,0.685108044627131
2.9105038167938933,-0.2902492843511473,9.696710400763358,0.7625682251908421
2.91849970640047,-0.365127458896068,9.67921939224897,0.8400284057545533
2.9264955960070465,-0.44145449207281456,9.711862008220793,0.8990117439812092
2.934491485613623,-0.316,9.89,0.665
2.9424873752201997,-0.316,9.89,0.665
2.9504832648267767,-0.316,9.89,0.665
2.9584791544333533,-0.316,9.89,0.665
2.96647504403993,-0.316,9.89,0.665
2.9744709336465065,-0.316,9.89,0.665
2.982466823253083,-0.316,9.89,0.665
2.9904627128596597,-0.316,9.89,0.665
2.9984586024662363,-0.316,9.89,0.665
3.006454492072813,-0.3405270698766895,9.832555020551965,0.8696073987081734
3.0144503816793895,-0.48368447837150075,9.968625954198474,0.9728371501272264
3.022446271285966,-0.4203836856527694,9.988615678214915,0.9655075846545311
3.0304421608925427,-0.4137157723993186,9.983073632436644,0.9655894780904984
3.0384380504991193,-0.4112615884606664,9.97563191339686,0.9662228158811184
3.046433940105696,-0.40880740452201414,9.968190194357076,0.9668561536717383
3.0544298297122725,-0.40635322058336193,9.960748475317292,0.9674894914623582
3.062425719318849,-0.4038990366447097,9.953306756277508,0.9681228292529781
3.070421608925426,-0.40144485270605734,9.945865037237724,0.9687561670435981
3.0784174985320027,-0.39899066876740513,9.93842331819794,0.969389504834218
3.0864133881385794,-0.3965364848287529,9.930981599158155,0.970022842624838
3.094409277745156,-0.3940823008901007,9.923539880118371,0.9706561804154579
3.1024051673517326,-0.39162811695144845,9.916098161078587,0.9712895182060778
3.110401056958309,-0.38917393301279624,9.908656442038803,0.9719228559966977
3.1183969465648858,-0.386719749074144,9.901214722999018,0.9725561937873176
3.1263928361714624,-0.2980602857701956,9.825810138970434,0.8126799765120121
3.134388725778039,-0.27447059810418584,9.482342756480161,0.6987613035819101
3.1423846153846156,-0.27071742543171107,9.465045525902669,0.5337032967032929
3.150380504991192,-0.26696425275923635,9.447748295325177,0.3686452898246757
3.1583763945977688,-0.2632110800867616,9.430451064747684,0.20358728294605843
3.1663722842043454,-0.25945790741428687,9.413153834170192,0.038529276067441276
3.174368173810922,-0.25570473474181216,9.3958566035927,-0.126528730811176
3.1823640634174986,-0.2519515620693374,9.378559373015207,-0.29158673768979315
3.190359953024075,-0.24819838939686267,9.361262142437715,-0.4566447445684103
3.198355842630652,-0.2444452167243877,9.34396491186022,-0.6217027514470368
3.206351732237229,-0.24069204405191297,9.326667681282728,-0.786760758325654
3.2143476218438054,-0.23693887137943825,9.309370450705238,-0.9518187652042713
3.222343511450382,-0.23318569870696348,9.292073220127746,-1.1168767720828885
3.2303394010569586,-0.5387974163241396,9.788794480328837,-1.4942366412213774
3.238335290663535,-0.4881644157369549,9.840108338226692,-1.444450088079853
3.246331180270112,-0.562359487314475,10.07632870998441,-1.464292992082937
3.2543270698766884,-0.479459574381922,10.079269726851196,-1.5429651932694841
3.262322959483265,-0.39655966144936894,10.082210743717983,-1.6216373944560312
3.2703188490898416,-0.3136597485168159,10.085151760584768,-1.7003095956425782
3.278314738696418,-0.23075983558426283,10.088092777451555,-1.7789817968291253
3.286310628302995,-0.14785992265170977,10.091033794318342,-1.8576539980156723
3.2943065179095714,-0.06496000971915672,10.093974811185129,-1.9363261992022194
3.302302407516148,0.017939903213396335,10.096915828051916,-2.0149984003887664
3.3102982971227246,0.10083981614594939,10.099856844918703,-2.0936706015753135
3.3182941867293017,0.1837397290785071,10.10279786178549,-2.1723428027618645
3.3262900763358783,0.26663964201106016,10.105738878652277,-2.2510150039484116
3.334285965942455,0.349795578135771,9.609602210932115,-2.7183977890678857
3.3422818555490315,0.3671779468457202,9.60091102657714,-2.7270889734228603
3.350277745155608,0.38456031555566944,9.592219842222166,-2.735780157777835
3.3582736347621847,0.40194268426561863,9.583528657867191,-2.7444713421328095
3.3662695243687613,0.4193250529755678,9.574837473512217,-2.753162526487784
3.374265413975338,0.436707421685517,9.566146289157242,-2.7618537108427588
3.3822613035819145,0.45408979039546626,9.557455104802267,-2.7705448951977334
3.390257193188491,0.47147215910541546,9.548763920447293,-2.779236079552708
3.3982530827950677,0.48885452781536465,9.540072736092318,-2.7879272639076826
3.4062489724016443,0.5062368965253139,9.531381551737343,-2.7966184482626573
3.414244862008221,0.523619265235263,9.522690367382367,-2.805309632617632
3.4222407516147975,0.5410016339452123,9.513999183027392,-2.814000816972606
3.430236641221374,-0.10017626648161485,9.588170714781405,-2.2761013185287964
3.438232530827951,-0.32115357924519616,9.744454011637227,-2.147440185768422
3.4462284204345277,-0.5841649456482801,9.979337925898339,-2.5573002735488357
3.4542243100411043,-0.5399925311143874,9.908350027927757,-2.671973031809008
3.462220199647681,-0.49582011658049463,9.837362129957175,-2.7866457900691795
3.4702160892542575,-0.4516477020466019,9.76637423198659,-2.9013185483293515
3.478211978860834,-0.4074752875127091,9.695386334016009,-3.015991306589523
3.4862078684674107,-0.36330287297881636,9.624398436045427,-3.1306640648496953
3.4942037580739873,-0.3191304584449236,9.553410538074843,-3.2453368231098674
3.502199647680564,-0.2749580439110308,9.48242264010426,-3.360009581370039
3.5101955372871405,-0.23078562937713804,9.411434742133679,-3.474682339630211
3.518191426893717,-0.18661321484324528,9.340446844163095,-3.589355097890383
3.5261873165002937,-0.08471529234123674,9.179586947403726,-3.606432094622922
3.5341832061068703,0.38752671755726514,8.774160305343491,-3.0500610687022514
3.542179095713447,0.4832497047510342,8.645953855390687,-2.7679317529541394
3.5501749853200235,0.4848668509636002,8.670480572947938,-2.7613733266476213
3.5581708749266006,0.48648399717616636,8.695007290505192,-2.754814900341103
3.566166764533177,0.48810114338873245,8.719534008062443,-2.7482564740345854
3.5741626541397538,0.4897182896012985,8.744060725619695,-2.7416980477280672
3.5821585437463304,0.4913354358138646,8.768587443176946,-2.7351396214215495
3.590154433352907,0.4929525820264306,8.793114160734198,-2.7285811951150314
3.5981503229594836,0.49456972823899664,8.81764087829145,-2.7220227688085137
3.60614621256606,0.49618687445156273,8.842167595848702,-2.715464342501996
3.6141421021726368,0.49780402066412877,8.866694313405954,-2.708905916195478
3.6221379917792134,0.49942116687669486,8.891221030963205,-2.70234748988896
3.63013388138579,0.5403784497944868,8.999006752789182,-3.391687316500323
3.6381297709923666,0.6856012359142128,9.028783836180784,-4.04499903065552
3.646125660598943,0.6757015630679752,9.055563720418682,-4.073301941485148
3.6541215502055198,0.6658018902217375,9.082343604656582,-4.101604852314776
3.6621174398120964,0.6559022173754998,9.109123488894483,-4.129907763144405
3.670113329418673,0.6460025445292622,9.13590337313238,-4.1582106739740325
3.67810921902525,0.6361028716830239,9.162683257370283,-4.186513584803663
3.6861051086318266,0.6262031988367863,9.189463141608181,-4.214816495633291
3.694100998238403,0.6163035259905486,9.216243025846081,-4.2431194064629185
3.70209688784498,0.6691107848894228,8.932650225092912,-4.101141710706564
3.7100927774515564,0.7215896374294615,8.848982443743344,-3.9464045104849865
3.718088667058133,0.7227415876270191,8.843087169202903,-3.9432874687739483
3.7260845566647096,0.7238935378245768,8.83719189466246,-3.9401704270629097
3.734080446271286,0.7250454880221344,8.831296620122018,-3.9370533853518714
3.742076335877863,0.7261974382196921,8.825401345581575,-3.933936343640833
3.7500722254844394,0.7273493884172497,8.819506071041134,-3.930819301929795
3.758068115091016,0.7285013386148074,8.813610796500692,-3.9277022602187563
3.7660640046975926,0.729653288812365,8.80771552196025,-3.924585218507718
3.774059894304169,0.7308052390099227,8.801820247419808,-3.92146817679668
3.782055783910746,0.7319571892074803,8.795924972879366,-3.9183511350856417
3.7900516735173224,0.733109139405038,8.790029698338923,-3.915234093374603
3.7980475631238995,0.7342610896025957,8.78413442379848,-3.912117051663565
3.806043452730476,0.7354130398001534,8.77823914925804,-3.909000009952526
3.8140393423370527,0.736564989997711,8.772343874717597,-3.905882968241488
3.8220352319436293,0.7377169401952687,8.766448600177155,-3.9027659265304497
3.830031121550206,0.7656722047597682,8.796574695174607,-3.9296722047597683
3.8380270111567825,0.8023592276605307,8.838435528997271,-3.9663592276605306
3.846022900763359,0.6865856709279867,9.027120389956774,-4.0421454980226255
3.8540187903699357,0.6849479585989289,9.035501623640776,-4.0466732909323735
3.8620146799765123,0.683310246269871,9.043882857324778,-4.0512010838421215
3.870010569583089,0.6816725339408132,9.05226409100878,-4.0557288767518695
3.8780064591896655,0.6800348216117553,9.060645324692782,-4.0602566696616185
3.886002348796242,0.6783971092826975,9.069026558376784,-4.0647844625713665
3.8939982384028187,0.6767593969536396,9.077407792060786,-4.0693122554811145
3.9019941280093953,0.6751216846245818,9.085789025744788,-4.073840048390863
3.909990017615972,0.6734839722955239,9.09417025942879,-4.078367841300611
3.917985907222549,0.671846259966466,9.102551493112792,-4.0828956342103595
3.9259817968291255,0.6702085476374081,9.110932726796793,-4.0874234271201075
3.933977686435702,0.9303772334535846,8.773937169700513,-3.865085227749339
3.9419735760422787,1.1175472895425165,8.252817207601561,-3.889069242780116
3.9499694656488553,1.0482192921582214,8.280621096460793,-3.7443254684247007
3.957965355255432,0.9788912947739262,8.308424985320025,-3.599581694069285
3.9659612448620085,0.909563297389631,8.336228874179257,-3.4548379197138694
3.973957134468585,0.840235300005336,8.36403276303849,-3.3100941453584536
3.9819530240751617,0.7709073026210409,8.391836651897721,-3.165350371003038
3.9899489136817383,0.7015793052367457,8.419640540756955,-3.0206065966476223
3.997944803288315,0.6322513078524505,8.447444429616187,-2.8758628222922065
4.0059406928948915,0.5629233104681555,8.475248318475419,-2.731119047936791
4.013936582501469,0.4935953130838565,8.503052207334653,-2.5863752735813677
4.021932472108045,0.4242673156995652,8.530856096193883,-2.44163149922596
4.029928361714622,1.1962783323547233,8.947657075748706,-2.13622665883733
4.037924251321198,0.8526008914749372,9.689535645652057,-2.284323359846261
4.045920140927775,0.8491481209630062,9.694169627128597,-2.295772019964769
4.053916030534351,0.8456953504510756,9.698803608605136,-2.3072206800832755
4.061911920140928,0.8422425799391446,9.703437590081675,-2.3186693402017835
4.069907809747504,0.838789809427214,9.708071571558213,-2.33011800032029
4.077903699354081,0.835337038915283,9.712705553034752,-2.341566660438798
4.0858995889606575,0.8318842684033524,9.717339534511291,-2.3530153205573052
4.093895478567235,0.8284314978914213,9.721973515987829,-2.364463980675813
4.101891368173812,0.8249787273794904,9.726607497464368,-2.375912640794321
4.109887257780388,0.8215259568675598,9.731241478940907,-2.387361300912828
4.117883147386965,0.8180731863556288,9.735875460417446,-2.398809961031336
4.125879036993541,0.7780804462712752,9.601771432765668,-2.3668062243100287
4.133874926600118,0.39459698571148694,9.607499706400473,-2.5001612840086125
4.141870816206694,0.371555067275332,9.639483264826778,-2.500849102469393
4.149866705813271,0.3485131488391745,9.671466823253086,-2.501536920930174
4.157862595419847,0.3254712304030195,9.70345038167939,-2.5022247393909547
4.165858485026424,0.302429311966862,9.735433940105699,-2.5029125578517353
4.173854374633001,0.2793873935307071,9.767417498532003,-2.5036003763125163
4.181850264239578,0.2563454750945495,9.799401056958311,-2.504288194773297
4.189846153846154,0.23330355665839458,9.831384615384616,-2.504976013234078
4.197842043452731,0.2102616382222371,9.863368173810924,-2.5056638316948585
4.205837933059307,0.18721971978608212,9.895351732237229,-2.5063516501556395
4.213833822665884,0.1641778013499246,9.927335290663537,-2.50703946861642
4.221829712272461,0.1411358829137671,9.959318849089845,-2.507727287077201
4.229825601879037,0.09029301233117593,10.069546095126258,-2.6196782149148676
4.237821491485614,0.021185680731475476,10.231177292173491,-2.8047259458099334
4.24581738109219,-0.2807332039585847,10.146428161207623,-3.2080497114131497
4.2538132706987675,-0.35435389484841007,10.099915486301072,-3.3094609942282736
4.261809160305344,-0.4279745857382272,10.053402811394523,-3.410872277043386
4.269805049911921,-0.5015952766280526,10.006890136487971,-3.5122835598585094
4.277800939518497,-0.5752159675178697,9.960377461581425,-3.6136948426736217
4.285796829125074,-0.6488366584076951,9.913864786674873,-3.7151061254887456
4.29379271873165,-0.7224573492975123,9.867352111768326,-3.816517408303858
4.301788608338227,-0.7960780401873376,9.820839436861775,-3.9179286911189815
4.309784497944803,-0.8696987310771548,9.774326761955228,-4.019339973934094
4.31778038755138,-0.9433194219669802,9.727814087048676,-4.120751256749218
4.325776277157956,-1.0169401128567972,9.68130141214213,-4.22216253956433
4.3337721667645335,-0.9665378743393965,9.32636641221371,-4.472737815619516
4.3417680563711105,-0.40655053174134953,8.886586742350117,-3.9581015854374613
4.349763945977687,-0.21629912665789647,9.023405297840418,-3.9398252663367157
4.357759835584264,-0.02604772157442231,9.160223853330736,-3.9215489472359684
4.36575572519084,0.1642036835090308,9.297042408821037,-3.9032726281352232
4.373751614797417,0.35445508859250496,9.433860964311354,-3.884996309034476
4.381747504403993,0.544706493675958,9.570679519801656,-3.866719989933731
4.38974339401057,0.7349578987594323,9.707498075291973,-3.8484436708329834
4.397739283617146,0.9252093038428852,9.844316630782274,-3.830167351732238
4.405735173223723,1.2332372284204296,8.576327069876756,-3.335702877275442
4.4137310628302995,1.1796928442707595,8.856748435823192,-3.5955639287666794
4.4217269524368765,1.1401269767347662,8.868328689736165,-3.684139085184365
4.429722842043453,1.100561109198777,8.879908943649138,-3.7727142416020407
4.43771873165003,1.0609952416627837,8.891489197562112,-3.8612893980197263
4.445714621256606,1.0214293741267948,8.903069451475085,-3.9498645544374025
4.453710510863183,0.9818635065908012,8.914649705388058,-4.038439710855088
4.46170640046976,0.9422976390548079,8.926229959301033,-4.127014867272774
4.469702290076336,0.9027317715188188,8.937810213214004,-4.215590023690449
4.477698179682913,0.8631659039828254,8.949390467126978,-4.304165180108135
4.485694069289489,0.8236000364468363,8.960970721039951,-4.392740336525811
4.493689958896066,0.784034168910843,8.972550974952924,-4.481315492943496
4.5016858485026425,0.7444683013748539,8.984131228865897,-4.569890649361172
4.50968173810922,0.7049024338388604,8.995711482778871,-4.6584658057788575
4.517677627715796,0.6653365663028714,9.007291736691844,-4.747040962196533
4.525673517322373,-0.827869837541978,9.33760442356634,-5.160686631434816
4.533669406928949,-1.0195778273634764,9.33796271873165,-5.199091579565472
4.541665296535526,-1.0326910863182628,9.297263640634172,-5.193974210217263
4.549661186142102,-1.0458043452730474,9.2565645625367,-5.188856840869055
4.557657075748679,-1.0589176042278339,9.215865484439224,-5.183739471520845
4.565652965355255,-1.0720308631826188,9.17516640634175,-5.178622102172636
4.573648854961832,-1.085144122137405,9.134467328244273,-5.173504732824427
4.581644744568409,-1.0982573810921912,9.093768250146796,-5.168387363476218
4.589640634174986,-1.111370640046976,9.053069172049325,-5.163269994128009
4.597636523781563,-1.1244838990017625,9.012370093951848,-5.1581526247798
4.605632413388139,-1.1375971579565474,8.971671015854374,-5.1530352554315915
4.613628302994716,-1.1507104169113336,8.930971937756897,-5.147917886083381
4.621624192601292,-1.1638236758661185,8.890272859659426,-5.142800516735173
4.629620082207869,-0.6344869289489354,8.247539776864336,-6.162832483852043
4.637615971814445,-0.9971804815032377,7.914590933646498,-6.44332829125074
4.645611861421022,-1.3598740340575801,7.581642090428623,-6.723824098649469
4.653607751027598,-0.9683323546677269,7.016313564298118,-7.016223722842066
4.661603640634175,1.9226920608984956,6.393387474788735,-5.835834869412033
4.669599530240752,1.5137428663824481,6.3276821210651315,-5.702338277719631
4.677595419847329,1.1047936718663554,6.26197676734152,-5.5688416860272145
4.685591309453905,0.6958444773503079,6.196271413617915,-5.435345094334813
4.693587199060482,0.28689528283421506,6.130566059894305,-5.301848502642396
4.701583088667059,-0.12205391168187774,6.064860706170693,-5.168351910949979
4.709578978273635,-0.5310031061979252,5.999155352447088,-5.034855319257577
4.717574867880212,-0.9399523007140185,5.933449998723477,-4.90135872756516
4.725570757486788,-1.3489014952300655,5.867744644999873,-4.7678621358727575
4.733566647093365,7.3634324721060755,11.35527040516787,-0.8791529653551365
4.741562536699941,3.294976538135328,12.129988621387099,-0.8169487831930543
4.7495584263065185,2.722293155868709,11.92040747047693,-1.0057406211261237
4.757554315913095,2.1496097736021538,11.710826319566783,-1.1945324590591722
4.765550205519672,1.576926391335535,11.501245168656613,-1.3833242969922415
4.773546095126248,1.0042430090689796,11.291664017746466,-1.5721161349252901
4.781541984732825,0.43155962680236026,11.082082866836297,-1.7609079728583596
4.789537874339401,-0.1411237554641951,10.87250171592615,-1.949699810791408
4.797533763945978,-0.713807137730814,10.66292056501598,-2.1384916487244774
4.805529653552554,-1.2864905199973697,10.453339414105834,-2.327283486657526
4.813525543159131,-1.8591739022639886,10.243758263195664,-2.516075324590595
4.821521432765708,-2.4318572845306075,10.034177112285494,-2.7048671625236644
4.8295173223722845,1.4182900763359811,8.614739283617315,-0.9253071051086228
4.8375132119788615,2.305120636784739,9.017879885169943,-1.4255164741959043
4.845509101585438,2.0923411300319623,8.81069750114177,-1.8725755464213631
4.853504991192015,1.8795616232791619,8.603515117113572,-2.3196346186468713
4.861500880798591,1.666782116526385,8.3963327330854,-2.76669369087233
4.869496770405168,1.4540026097735843,8.189150349057202,-3.2137527630978386
4.877492660011744,1.2412231030208074,7.981967965029028,-3.6608118353232975
4.885488549618321,1.0284435962680067,7.774785581000832,-4.107870907548805
4.893484439224897,0.8156640895152298,7.567603196972659,-4.554929979774264
4.901480328831474,0.6028845827624292,7.3604208129444615,-5.0019890519997725
4.9094762184380505,0.3901050760096523,7.153238428916288,-5.449048124225231
4.9174721080446275,0.1773255692568516,6.946056044888092,-5.89610719645074
4.925467997651204,-0.7729662360542785,6.455693482090328,-6.312086024662359
4.933463887257781,-5.227737048472336,5.018448222302201,-15.009787983255357
4.941459776864358,-5.1716798439186995,4.654936165779537,-14.91031223836493
4.949455666470934,-5.115622639365069,4.291424109256913,-14.810836493474515
4.957451556077511,-5.059565434811431,3.927912052734249,-14.71136074858409
4.965447445684087,-5.0035082302578004,3.5643999962116255,-14.611885003693674
4.973443335290664,-4.947451025704164,3.2008879396889616,-14.512409258803247
4.98143922489724,-4.891393821150533,2.8373758831663376,-14.412933513912833
4.989435114503817,-4.835336616596896,2.4738638266436737,-14.313457769022406
4.9974310041103935,-4.779279412043265,2.11035177012105,-14.21398202413199
5.005426893716971,-4.723222207489629,1.7468397135983862,-14.114506279241564
5.013422783323547,-4.667165002935998,1.3833276570757627,-14.01503053435115
5.021418672930124,-4.611107798382361,1.0198156005530983,-13.915554789460723
5.0294145625367,-1.8613320023489583,1.1598389900175978,-13.896604462712858
5.037410452143277,-30.041299219863983,-5.298326902105605,-11.154907222548362
5.045406341749853,-28.099059558761834,-6.531978441405931,-9.808932472108035
5.05340223135643,-26.156819897659467,-7.765629980706395,-8.46295772166756
5.061398120963007,-24.214580236557104,-8.999281520006859,-7.116982971227085
5.069394010569583,-22.27234057545495,-10.232933059307186,-5.77100822078676
5.07738990017616,-20.330100914352585,-11.46658459860765,-4.425033470346285
5.085385789782737,-18.387861253250435,-12.700236137907975,-3.0790587199059587
5.093381679389314,-16.445621592148072,-13.933887677208439,-1.7330839694654827
5.10137756899589,-16.962900176159835,-12.705429829712147,6.928011743981632
5.109373458602467,-20.622271957049563,-23.95265246204175,18.109344685849027
5.117369348209043,-11.138499241979483,-23.233785522874108,22.093752831900936
5.12536523781562,-8.639638360113116,-22.26715515934445,21.719981337746212
5.133361127422196,-6.140777478247025,-21.300524795814905,21.346209843591534
5.141357017028773,-3.641916596380657,-20.33389443228525,20.97243834943681
5.149352906635349,-1.143055714514567,-19.367264068755702,20.598666855282133
5.157348796241926,1.355805167351802,-18.400633705226046,20.22489536112741
5.165344685848503,3.854666049217892,-17.434003341696496,19.85112386697273
5.17334057545508,6.353526931084259,-16.467372978166843,19.477352372818007
5.181336465061657,8.85238781295063,-15.500742614637186,19.103580878663287
5.189332354668233,11.35124869481672,-14.534112251107638,18.729809384508606
5.19732824427481,13.850109576683087,-13.567481887577983,18.356037890353885
5.205324133881386,16.348970458549175,-12.600851524048435,17.982266396199204
5.213320023487963,18.847831340415546,-11.63422116051878,17.608494902044484
5.221315913094539,21.34669222228164,-10.667590796989233,17.234723407889803
5.229311802701116,16.853994495004677,24.085439738700593,-7.868208675866615
5.237307692307692,-0.01273945409440358,40.49497766749384,-9.408778329197643
5.2453035819142695,-1.844314037846133,41.13903367870748,-8.717864685343308
5.253299471520846,-3.675888621597659,41.78308968992105,-8.026951041489049
5.261295361127423,-5.507463205349389,42.42714570113469,-7.336037397634714
5.269291250733999,-7.339037789100914,43.07120171234826,-6.645123753780457
5.277287140340576,-9.170612372852643,43.715257723561905,-5.954210109926121
5.285283029947152,-11.00218695660417,44.359313734775476,-5.263296466071862
5.293278919553729,-12.8337615403559,45.00336974598912,-4.572382822217528
5.301274809160306,-14.665336124107629,45.647425757202754,-3.8814691783631927
5.309270698766882,-16.496910707859154,46.291481768416325,-3.190555534508934
5.317266588373459,-18.328485291610885,46.93553777962997,-2.4996418906545994
5.3252624779800355,-20.16005987536241,47.57959379084354,-1.8087282468003405
5.3332583675866125,42.25455960070522,29.88612977099008,-18.983985907226057
5.341254257193189,-1.663178361714042,29.548373899002442,2.992542522998968
5.349250146799766,-37.56672166764791,-12.595961244865038,-17.940030142886606
5.357246036406342,-41.71894982538542,-20.971840220045095,-17.405578367895504
5.365241926012919,-36.97591436165242,-19.887345087616193,-10.857049989182643
5.373237815619495,-32.232878897919946,-18.80284995518741,-4.30852161047051
5.381233705226072,-27.489843434186945,-17.718354822758506,2.2400067682423526
5.389229594832648,-22.746807970454473,-16.633859690329725,8.788535146954487
5.397225484439225,-18.003772506721468,-15.549364557900823,15.337063525667347
5.4052213740458015,-13.260737042988993,-14.464869425472042,21.88559190437948
5.4132172636523785,-8.517701579255991,-13.380374293043138,28.43412028309234
5.421213153258956,-3.77466611552299,-12.295879160614236,34.9826486618052
5.429209042865532,3.631331767470326,-15.016751027599373,1.5217580739759882
5.437204932472109,11.337134077118687,-16.891146408300905,1.5372646310421194
5.445200822078685,11.046978259653823,-27.5079963859296,-7.056849998601876
5.453196711685262,11.761848866146607,-26.685466837233975,-9.581076196068674
5.461192601291838,12.476719472639312,-25.862937288538443,-12.10530239353519
5.469188490898415,13.191590079132096,-25.040407739842816,-14.62952859100199
5.477184380504991,13.9064606856248,-24.217878191147282,-17.153754788468504
5.485180270111568,14.621331292117585,-23.39534864245166,-19.677980985935303
5.4931761597181445,15.33620189861029,-22.572819093756124,-22.202207183401818
5.501172049324722,16.051072505103072,-21.750289545060497,-24.726433380868617
5.509167938931298,16.765943111595778,-20.927759996364962,-27.250659578335135
5.517163828537875,17.480813718088562,-20.10523044766934,-29.77488577580193
5.525159718144451,16.134395772166616,-10.062789782735653,-21.379564885495398
5.533155607751028,6.728792849914402,0.7380516048025365,-3.939031115303409
5.541151497357605,6.538847940430504,0.7122776202196339,-3.9614025936707464
5.549147386964181,6.348903030946627,0.6865036356367343,-3.983774072038082
5.557143276570758,6.158958121462727,0.6607296510538317,-4.00614555040542
5.565139166177334,5.96901321197885,0.6349556664709322,-4.028517028772755
5.573135055783911,5.7790683024949505,0.6091816818880296,-4.050888507140093
5.581130945390488,5.589123393011073,0.58340769730513,-4.073259985507428
5.589126834997065,5.399178483527175,0.5576337127222275,-4.095631463874766
5.597122724603641,5.209233574043297,0.5318597281393278,-4.118002942242102
5.605118614210218,5.019288664559398,0.5060857435564252,-4.140374420609439
5.613114503816794,4.82934375507552,0.4803117589735256,-4.162745898976775
5.621110393423371,4.6393988455916215,0.4545377743906231,-4.185117377344112
5.629106283029947,0.9597271481698492,3.18919866901593,0.5752348796243911
5.637102172636524,0.16043690108819922,11.15030228258018,-1.369078197423814
5.6450980622431,0.36280095825888853,11.193939424794793,-1.1870441148911217
5.6530939518496774,0.5651650154296003,11.23757656700941,-1.0050100323584092
5.6610898414562545,0.767529072600312,11.281213709224028,-0.8229759498256966
5.669085731062831,0.9698931297710013,11.32485085143864,-0.6409418672930042
5.677081620669408,1.172257186941713,11.368487993653257,-0.4589077847602916
5.685077510275984,1.3746212441124024,11.412125135867871,-0.2768737022275993
5.693073399882561,1.576985301283114,11.455762278082489,-0.09483961969488663
5.701069289489137,1.7793493584538034,11.4993994202971,0.08719446283780563
5.709065179095714,1.981713415624515,11.543036562511718,0.2692285453705183
5.71706106870229,2.184077472795204,11.586673704726332,0.4512626279032106
5.725056958308867,2.1376585437423143,11.555099823839067,0.7193740458029452
5.7330528479154435,-6.808439224897229,9.743719280965262,5.383667986286023
5.7410487375220205,-7.480093951849707,10.726181974883078,7.607814956528427
5.749044627128597,-8.151748678802111,11.708644668800783,9.831961926770585
5.757040516735174,-8.82340340575459,12.691107362718597,12.05610889701299
5.76503640634175,-12.668352047747131,25.713516481012462,12.130616217211163
5.773032295948327,-11.057478646111658,26.741525332819243,15.979980683780443
5.781028185554904,-9.446605244476185,27.76953418462603,19.829345150349724
5.78902407516148,-7.835731842840892,28.797543036432696,23.67870961691858
5.797019964768057,-6.22485844120542,29.82555188823948,27.528074083487862
5.805015854374633,-4.613985039570126,30.85356074004615,31.377438550056716
5.81301174398121,-3.003111637934653,31.881569591852934,35.22680301662599
5.8210076335877865,-1.3922382362993595,32.909578443659605,39.07616748319485
5.8290035231943635,3.0172979056576796,31.14665622757147,37.561930906242516
5.83699941280094,11.515327363476231,18.398042571931907,16.241500880798622
5.844995302407517,3.760687123154259,5.465381292697242,1.7103307649341981
5.852991192014093,3.712029209572777,5.356071631124415,1.853086647666241
5.86098708162067,3.66337129599129,5.246761969551575,1.9958425303982996
5.868982971227246,3.6147133824098083,5.137452307978747,2.1385984131303424
5.876978860833823,3.566055468828321,5.028142646405907,2.2813542958624016
5.884974750440399,3.517397555246839,4.918832984833079,2.4241101785944443
5.892970640046976,3.4687396416653518,4.8095233232602395,2.566866061326503
5.900966529653553,3.420081728083865,4.700213661687399,2.7096219440585614
5.9089624192601296,3.371423814502383,4.590904000114572,2.8523778267906046
5.916958308866707,3.3227659009208956,4.481594338541731,2.9951337095226633
5.924954198473283,2.4411348600508074,3.6407709923663374,2.576669211195877
5.93295008807986,1.8693346220705356,2.997871252245581,2.00165123282731
5.940945977686436,1.7316628198345363,2.725060998936062,1.6641613576507344
5.948941867293013,1.5939910175985215,2.452250745626512,1.3266714824741213
5.956937756899589,1.4563192153625222,2.179440492316993,0.9891816072975452
5.964933646506166,1.3186474131265074,1.9066302390074434,0.6516917321209319
5.972929536112742,1.180975610890508,1.6338199856979243,0.3142018569443561
5.980925425719319,1.0433038086544932,1.3610097323883747,-0.023288018232257013
5.9889213153258956,0.9056320064184937,1.0881994790788556,-0.3607778934088328
5.996917204932473,0.7679602041824791,0.8153892257693061,-0.6982677685854464
6.004913094539049,0.6302884019464796,0.5425789724597871,-1.0357576437620222
6.012908984145626,0.492616599710465,0.2697687191502376,-1.3732475189386357
6.020904873752203,0.3549447974744504,-0.003041534159311965,-1.7107373941152488
6.028900763358779,2.9711603053428375,4.589610687023751,2.4214809160307813
6.036896652965356,2.8327555122505252,13.835347402450745,-1.1377846592632208
6.044892542571932,2.8865300665277185,13.769359346466803,-1.0694241964729325
6.052888432178509,2.940304620804918,13.703371290482854,-1.0010637336826367
6.060884321785085,2.994079175082111,13.637383234498913,-0.9327032708923484
6.0688802113916624,3.0478537293593106,13.571395178514964,-0.8643428081020526
6.076876100998239,3.1016282836365043,13.505407122531022,-0.7959823453117643
6.084871990604816,3.1554028379137034,13.439419066547073,-0.7276218825214683
6.092867880211392,3.209177392190897,13.37343101056313,-0.65926141973118
6.100863769817969,3.262951946468096,13.307442954579182,-0.5909009569408841
6.108859659424545,3.3167265007452897,13.24145489859524,-0.5225404941505958
6.116855549031122,3.3705010550224888,13.175466842611291,-0.45418003136029994
6.124851438637698,3.4242756092996824,13.109478786627351,-0.38581956857001165
6.132847328244275,-7.799541984732306,21.86458015267121,1.5940458015267487
6.140843217850852,-2.5862219612441937,16.38739577216606,1.9058854961832463
6.1488391074574285,2.6270980622433395,10.91021139166152,2.217725190839709
6.1568349970640055,-3.363926996873572,6.710756851978194,1.1073419244258826
6.164830886670582,-3.446046944184354,6.451430702575723,1.0187388233800385
6.172826776277159,-3.528166891495146,6.192104553173223,0.9301357223341846
6.180822665883735,-3.610286838805928,5.932778403770753,0.8415326212883405
6.188818555490312,-3.69240678611672,5.673452254368254,0.7529295202424866
6.196814445096888,-3.774526733427502,5.414126104965783,0.6643264191966425
6.204810334703465,-3.8566466807382933,5.154799955563284,0.5757233181507886
6.212806224310041,-3.9387666280490756,4.895473806160814,0.4871202171049446
6.220802113916618,-4.020886575359867,4.636147656758315,0.39851711605909057
6.2287980035231945,1.5838443922488399,6.128053435114314,2.006743394010603
6.2367938931297715,3.2835843388328056,10.274759911351891,3.2673607485840974
6.244789782736348,3.3547735495236126,10.377932680469003,3.3272009546720223
6.252785672342925,3.4259627602144276,10.481105449586126,3.3870411607599538
6.260781561949501,3.4971519709052346,10.584278218703238,3.4468813668478786
6.268777451556078,3.5683411815960495,10.68745098782036,3.50672157293581
6.276773341162655,3.6395303922868645,10.790623756937485,3.5665617790237416
6.284769230769231,3.7107196029776714,10.893796526054597,3.626401985111666
6.292765120375808,3.7819088136684864,10.99696929517172,3.6862421911995975
6.300761009982384,3.8530980243592934,11.100142064288832,3.7460823972875223
6.308756899588961,3.924287235050109,11.203314833405955,3.805922603375454
6.3167527891955375,3.9954764457409153,11.306487602523067,3.8657628094633787
6.3247486788021146,4.200751614797581,11.4,4.268884321785493
6.332744568408691,3.965043341471704,9.261182087338138,7.854686336805027
6.340740458015268,4.0523247890719185,9.101600964242664,7.592000321414216
6.348736347621844,4.139606236672124,8.942019841147205,7.329314306023434
6.356732237228421,4.226887684272339,8.782438718051731,7.066628290632623
6.364728126834997,4.314169131872544,8.622857594956274,6.803942275241842
6.372724016441574,4.401450579472759,8.4632764718608,6.541256259851031
6.38071990604815,4.488732027072964,8.303695348765343,6.27857024446025
6.388715795654727,4.576013474673179,8.144114225669867,6.015884229069439
6.396711685261304,4.663294922273394,7.984533102574392,5.753198213678628
6.404707574867881,4.750576369873599,7.824951979478936,5.490512198287847
6.412703464474458,4.837857817473814,7.665370856383461,5.2278261828970365
6.420699354081034,4.925139265074019,7.505789733288004,4.965140167506254
6.428695243687611,2.4272918379327324,6.6152378156194676,2.9989019377566284
6.436691133294187,2.4058639166177334,7.596582156056783,3.0963436755207074
6.444687022900764,2.4158587786259544,7.761203412662782,3.090111585092052
6.45268291250734,2.4258536406341746,7.925824669268763,3.083879494663397
6.460678802113917,2.435848502642396,8.09044592587476,3.0776474042347415
6.468674691720493,2.4458433646506164,8.255067182480742,3.0714153138060865
6.47667058132707,2.455838226658838,8.419688439086741,3.0651832233774305
6.484666470933647,2.465833088667058,8.584309695692722,3.0589511329487755
6.492662360540224,2.475827950675279,8.748930952298721,3.05271904252012
6.5006582501468,2.840455079271755,9.492425132119592,3.368884321784978
6.508654139753377,3.4306694069289816,10.00874926600119,3.5290416911332936
6.516650029359954,3.4565237650984226,8.794532463327492,3.853772841769059
6.52464591896653,3.438364875618068,8.727277317103955,3.8386777978388875
6.532641808573107,3.4202059861377103,8.660022170880408,3.8235827539087137
6.540637698179683,3.402047096657355,8.59276702465687,3.808487709978542
6.54863358778626,3.383888207176998,8.525511878433326,3.7933926660483688
6.556629477392836,3.3657293176966427,8.458256732209788,3.7782976221181968
6.5646253669994135,3.3475704282162857,8.391001585986244,3.7632025781880234
6.57262125660599,3.3294115387359304,8.323746439762706,3.748107534257852
6.580617146212567,3.3112526492555734,8.25649129353916,3.733012490327678
6.588613035819143,3.293093759775218,8.189236147315622,3.7179174463975064
6.59660892542572,3.2749348702948606,8.121981001092077,3.702822402467333
6.604604815032296,3.256775980814506,8.05472585486854,3.687727358537161
6.612600704638873,3.2386170913341483,7.987470708644995,3.6726323146069877
6.620596594245449,3.220458201853793,7.920215562421458,3.657537270676816
6.628592483852026,3.09755783910744,7.620375807398667,3.286692307692254
6.636588373458603,3.112667370082208,7.752391001174404,3.5218857653161133
6.6445842630651795,3.1179146726365237,7.827352466236055,3.5775238304952053
6.6525801526717565,3.12316197519084,7.902313931297715,3.633161895674304
6.660576042278333,3.1284092777451558,7.977275396359366,3.6887999608533963
6.66857193188491,3.133656580299472,8.052236861421026,3.744438026032495
6.676567821491486,3.1389038828537874,8.127198326482677,3.8000760912115874
6.684563711098063,3.144151185408104,8.202159791544338,3.8557141563906856
6.692559600704639,3.1493984879624195,8.277121256605989,3.911352221569778
6.700555490311216,3.1546457905167355,8.352082721667648,3.9669902867488767
6.708551379917792,3.159893093071051,8.4270441867293,4.022628351927969
6.716547269524369,3.165140395625367,8.50200565179096,4.078266417107067
6.7245431591309455,3.170387698179683,8.576967116852611,4.13390448228616
6.7325390487375225,3.3618387159913863,8.983073008416518,4.110195419847328
6.740534938344099,3.2605574476414194,8.92976707770601,4.047827480916032
6.748530827950676,3.2952971227246164,8.496476805637055,3.7779477392835843
6.756526717557253,3.396781867614768,8.081397051134577,3.5542551500575152
6.764522607163829,3.417593087138733,8.04853723083358,3.5670704799749045
6.772518496770406,3.438404306662701,8.015677410532577,3.579885809892295
6.780514386376982,3.4592155261866657,7.98281759023158,3.5927011398096838
6.788510275983559,3.4800267457106333,7.949957769930578,3.6055164697270743
6.796506165590135,3.5008379652345987,7.91709794962958,3.6183317996444635
6.804502055196712,3.5216491847585663,7.88423812932858,3.631147129561854
6.8124979448032885,3.5424604042825316,7.851378309027582,3.6439624594792432
6.820493834409866,3.563271623806499,7.81851848872658,3.656777789396634
6.828489724016442,3.8143302994715524,7.774486200822096,4.1892991779213995
6.836485613623019,3.7801534546878,8.049520454100625,4.65471442552361
6.844481503229595,3.7284770503033866,8.2,4.864196662752006
6.852477392836172,3.720385971534826,8.2,4.869241688337109
6.860473282442748,3.712294892766267,8.2,4.87428671392221
6.868469172049325,3.7042038139977067,8.2,4.879331739507312
6.876465061655902,3.6961127352291467,8.2,4.884376765092415
6.884460951262478,3.688021656460587,8.2,4.889421790677516
6.892456840869055,3.6799305776920272,8.2,4.894466816262619
6.900452730475632,3.6718394989234677,8.2,4.89951184184772
6.908448620082209,3.6637484201549078,8.2,4.904556867432822
6.916444509688785,3.6556573413863482,8.2,4.909601893017924
6.924440399295362,3.6475662626177883,8.2,4.914646918603026
6.932436288901938,3.5401878503176167,8.132397373618744,4.7426133027278
6.940432178508515,3.4264570366020672,8.1,4.4669540027402395
6.948428068115091,3.4168490898414605,8.185701702877282,4.031463300058703
6.956423957721668,3.429167555294579,8.209898610295557,3.9784389038950856
6.964419847328244,3.432579134860051,8.220559796437659,3.963833078880407
6.972415736934821,3.435990714425524,8.231220982579762,3.949227253865726
6.980411626541398,3.4394022939909963,8.241882168721864,3.934621428851047
6.988407516147975,3.4428138735564695,8.252543354863967,3.920015603836366
6.996403405754552,3.4462254531219423,8.263204541006068,3.9054097788216855
7.004399295361128,3.4496370326874146,8.27386572714817,3.8908039538070063
7.012395184967705,3.4530486122528874,8.284526913290273,3.8761981287923257
7.020391074574281,3.45646019181836,8.295188099432375,3.8615923037776465
7.028386964180858,3.6427942845958174,8.4,3.685199647680538
7.036382853787434,3.6579368553414358,8.4,3.61989731134006
7.044378743394011,3.6553523253675926,8.4,3.6310430968522582
7.052374633000587,3.65276779539375,8.4,3.6421888823644553
7.0603705226071645,3.6501832654199067,8.4,3.6533346678766536
7.068366412213741,3.647598735446064,8.4,3.6644804533888506
7.076362301820318,3.6450142054722208,8.4,3.675626238901049
7.084358191426894,3.642429675498378,8.4,3.6867720244132465
7.092354081033471,3.639845145524535,8.4,3.697917809925445
7.100349970640047,3.637260615550692,8.4,3.709063595437642
7.108345860246624,3.634676085576849,8.4,3.72020938094984
7.116341749853201,3.632091555603006,8.4,3.7313551664620386
7.124337639459777,3.629507025629163,8.4,3.7425009519742356
7.132333529066354,3.446576629477355,8.408338226658865,3.8523317674691633
7.1403294186729305,3.321,8.506559725262015,3.823
7.1483253082795075,3.321,8.518674709514405,3.823
7.156321197886084,3.321,8.530789693766794,3.823
7.164317087492661,3.321,8.542904678019182,3.823
7.172312977099237,3.321,8.55501966227157,3.823
7.180308866705814,3.321,8.56713464652396,3.823
7.18830475631239,3.321,8.579249630776348,3.823
7.196300645918967,3.321,8.591364615028738,3.823
7.204296535525543,3.5267163828538024,8.440692894891312,3.9652055196711924
7.21229242513212,3.5655306888772142,8.00288809222116,4.027425997465773
7.2202883147386965,3.569248076150447,8.00990203047254,4.033317705596935
7.2282842043452735,3.57296546342368,8.016915968723925,4.039209413728097
7.236280093951851,3.5766828506969133,8.023929906975308,4.0451011218592585
7.244275983558427,3.580400237970146,8.03094384522669,4.05099282999042
7.252271873165004,3.584117625243379,8.037957783478074,4.056884538121582
7.26026776277158,3.587835012516612,8.044971721729455,4.062776246252743
7.268263652378157,3.591552399789845,8.05198565998084,4.068667954383905
7.276259541984733,3.595269787063078,8.058999598232221,4.074559662515067
7.28425543159131,3.598987174336311,8.066013536483606,4.080451370646228
7.292251321197886,3.6027045616095434,8.073027474734987,4.08634307877739
7.300247210804463,3.606421948882777,8.08004141298637,4.092234786908552
7.3082431004110395,3.6101393361560095,8.087055351237753,4.098126495039713
7.316238990017617,3.6138567234292425,8.094069289489136,4.104018203170875
7.324234879624193,3.6497243100411003,8.161743981209623,4.161482384028179
7.33223076923077,3.5764015384615373,8.2,4.245006153846154
7.340226658837346,3.565367210804462,8.2,4.242447469172049
7.348222548443923,3.554332883147386,8.2,4.2398887844979445
7.3562184380505,3.54329855549031,8.2,4.23733009982384
7.364214327657076,3.5322642278332346,8.2,4.234771415149735
7.372210217263653,3.5212299001761584,8.2,4.232212730475631
7.380206106870229,3.510195572519083,8.2,4.229654045801526
7.388201996476806,3.499161244862007,8.2,4.227095361127422
7.396197886083383,3.488126917204932,8.2,4.224536676453318
7.40419377568996,3.4770925895478557,8.2,4.221977991779212
7.412189665296536,3.466058261890781,8.2,4.219419307105109
7.420185554903113,3.4550239342337044,8.2,4.216860622431004
7.428181444509689,3.447,8.2,4.215
7.436177334116266,3.379286846741053,8.254433352906647,4.053709336465063
7.444173223722842,3.479,8.397412828901379,4.077
7.452169113329419,3.479,8.387893912703072,4.077
7.460165002935995,3.479,8.378374996504768,4.077
7.468160892542572,3.479,8.368856080306461,4.077
7.4761567821491495,3.479,8.359337164108156,4.077
7.484152671755726,3.479,8.349818247909852,4.077
7.492148561362303,3.479,8.340299331711545,4.077
7.500144450968879,3.479,8.33078041551324,4.077
7.508140340575456,3.479,8.321261499314934,4.077
7.516136230182032,3.479,8.31174258311663,4.077
7.524132119788609,3.479,8.302223666918323,4.077
7.532128009395185,3.7172516567402147,8.241028437211638,4.04707985907222
7.540123899001762,3.479,8.2,4.077
7.548119788608338,3.479,8.2,4.077
7.5561156782149155,3.479,8.2,4.077
7.564111567821492,3.479,8.2,4.077
7.572107457428069,3.479,8.2,4.077
7.580103347034645,3.479,8.2,4.077
7.588099236641222,3.479,8.2,4.077
7.596095126247799,3.479,8.2,4.077
7.604091015854375,3.479,8.2,4.077
7.612086905460952,3.479,8.2,4.077
7.620082795067528,3.479,8.2,4.077
7.628078684674105,3.531872893987984,8.300605266723887,4.160656307872973
7.6360745742806815,3.518956456931207,8.362112109851395,4.024111116129902
7.6440704638872585,3.5075333472240633,8.4,3.934387324077054
7.652066353493835,3.498505729926316,8.4,3.9197711817854635
7.660062243100412,3.4894781126285674,8.4,3.905155039493871
7.668058132706988,3.48045049533082,8.4,3.8905388972022803
7.676054022313565,3.471422878033072,8.4,3.875922754910688
7.684049911920141,3.4623952607353248,8.4,3.861306612619097
7.692045801526718,3.4533676434375766,8.4,3.8466904703275047
7.700041691133294,3.4443400261398294,8.4,3.8320743280359135
7.708037580739871,3.435312408842081,8.4,3.817458185744321
7.716033470346448,3.4262847915443326,8.4,3.8028420434527286
7.7240293599530245,3.4172571742465854,8.4,3.788225901161138
7.732025249559602,3.4082295569488372,8.4,3.7736097588695454
7.740021139166178,3.479,8.3,4.077
7.748017028772755,3.479,8.3,4.077
7.756012918379331,3.479,8.3,4.077
7.764008807985908,3.479,8.3,4.077
7.772004697592484,3.479,8.3,4.077
7.780000587199061,3.479,8.3,4.077
7.787996476805637,3.479,8.3,4.077
7.795992366412214,3.479,8.3,4.077
7.8039882560187905,3.479,8.3,4.077
7.811984145625368,3.479,8.3,4.077
7.819980035231944,3.479,8.3,4.077
7.827975924838521,3.4970919945194607,8.234135838715964,4.1060154629085694
7.835971814445098,3.525188270698775,8.112852319436273,4.151075528479167
7.843967704051674,3.532,8.11123823234141,4.162
7.851963593658251,3.532,8.12413482848105,4.162
7.859959483264827,3.532,8.13703142462069,4.162
7.867955372871404,3.532,8.14992802076033,4.162
7.87595126247798,3.532,8.162824616899968,4.162
7.883947152084557,3.532,8.175721213039608,4.162
7.891943041691134,3.532,8.188617809179247,4.162
7.899938931297711,3.532,8.2,4.162
7.907934820904287,3.53130561984042,8.203306572188476,4.1546594097415825
7.915930710510864,3.529894580498083,8.210025807151986,4.13974270812259
7.92392660011744,3.528483541155746,8.216745042115495,4.124826006503599
7.931922489724017,3.5270725018134086,8.223464277079005,4.1099093048846065
7.939918379330593,3.525661462471072,8.230183512042515,4.094992603265616
7.94791426893717,3.5242504231287346,8.236902747006026,4.080075901646623
7.955910158543747,3.5228393837863976,8.243621981969536,4.06515920002763
7.963906048150323,3.5214283444440606,8.250341216933045,4.05024249840864
7.9719019377569005,3.5200173051017236,8.257060451896555,4.035325796789647
7.979897827363477,3.5186062657593866,8.263779686860065,4.020409095170656
7.987893716970054,3.517195226417049,8.270498921823576,4.005492393551664
7.99588960657663,3.5157841870747126,8.277218156787084,3.990575691932673
8.003885496183207,3.514373147732375,8.283937391750595,3.9756589903136805
8.011881385789783,3.512962108390038,8.290656626714105,3.9607422886946897
8.01987727539636,3.511551069047701,8.297375861677613,3.945825587075699
8.027873165002937,3.511,8.257463300058747,3.94
8.035869054609513,3.516504428207349,8.296011283907719,3.94127638914953
8.04386494421609,3.527880023730107,8.2877680987463,3.9439142084011842
8.051860833822666,3.539255619252865,8.279524913584881,3.9465520276528383
8.059856723429244,3.550631214775625,8.27128172842346,3.949189846904493
8.06785261303582,3.562006810298383,8.263038543262041,3.951827666156147
8.075848502642396,3.5733824058211408,8.254795358100623,3.9544654854078005
8.083844392248974,3.5847580013439013,8.246552172939202,3.9571033046594555
8.09184028185555,3.5961335968666592,8.238308987777783,3.959741123911109
8.099836171462126,3.607509192389417,8.230065802616364,3.962378943162763
8.107832061068702,3.618884787912175,8.221822617454945,3.9650167624144173
8.11582795067528,3.630260383434935,8.213579432293525,3.9676545816660718
8.123823840281856,3.641635978957693,8.205336247132106,3.970292400917726
8.131819729888432,3.5387157956546753,8.3,4.061045801526686
8.139815619495009,3.426,8.294821914521496,3.992
8.147811509101587,3.426,8.286224183761735,3.992
8.155807398708163,3.426,8.277626453001975,3.992
8.163803288314739,3.426,8.269028722242217,3.992
8.171799177921315,3.426,8.260430991482457,3.992
8.179795067527893,3.426,8.251833260722696,3.992
8.18779095713447,3.426,8.243235529962936,3.992
8.195786846741045,3.426,8.234637799203176,3.992
8.203782736347623,3.426,8.226040068443416,3.992
8.2117786259542,3.426,8.217442337683655,3.992
8.219774515560776,3.426,8.208844606923897,3.992
8.227770405167352,3.426,8.200246876164137,3.992
8.23576629477393,3.696193820859116,8.2,4.053443335290663
8.243762184380506,3.679411239377181,8.2,4.0431629057964935
8.251758073987082,3.6626286578952465,8.2,4.032882476302324
8.259753963593658,3.645846076413312,8.2,4.022602046808155
8.267749853200236,3.629063494931373,8.2,4.012321617313983
8.275745742806812,3.6122809134494385,8.2,4.002041187819813
8.283741632413388,3.595498331967504,8.2,3.991760758325644
8.291737522019965,3.578715750485569,8.2,3.9814803288314744
8.299733411626542,3.561933169003631,8.2,3.9711998993373028
8.307729301233119,3.545150587521696,8.2,3.9609194698431334
8.315725190839695,3.5283680060397615,8.2,3.950639040348964
8.323721080446273,3.511585424557823,8.2,3.940358610854792
8.331716970052849,3.3785187501931584,8.397140031523318,3.915264319930773
8.339712859659425,3.3918171771177796,8.388723305621658,3.9366428037209875
8.347708749266001,3.4051156040424013,8.38030657972,3.958021287511202
8.355704638872579,3.4184140309670257,8.371889853818338,3.979399771301421
8.363700528479155,3.4317124578916474,8.363473127916679,4.000778255091635
8.371696418085731,3.445010884816269,8.35505640201502,4.02215673888185
8.379692307692308,3.4583093117408903,8.34663967611336,4.043535222672064
8.387688197298885,3.471607738665515,8.3382229502117,4.064913706462283
8.395684086905462,3.4849061655901363,8.32980622431004,4.086292190252498
8.403679976512038,3.498204592514758,8.321389498408381,4.107670674042712
8.411675866118614,3.5115030194393797,8.312972772506722,4.1290491578329265
8.419671755725192,3.524801446364004,8.304556046605061,4.150427641623145
8.427667645331768,3.6028749266001117,8.1,4.117807398708166
8.435663534938344,3.5831527206889797,8.1,4.055355255431591
8.443659424544922,3.5626059335066964,8.10871291558315,4.030968347174458
8.451655314151498,3.5595598803232384,8.127750747979759,4.044009262366135
8.459651203758074,3.556513827139781,8.146788580376368,4.057050177557813
8.46764709336465,3.5534677739563234,8.16582641277298,4.070091092749491
8.475642982971229,3.550421720772865,8.184864245169594,4.083132007941171
8.483638872577805,3.5473756675894075,8.203902077566203,4.096172923132849
8.49163476218438,3.54432961440595,8.222939909962813,4.109213838324528
8.499630651790957,3.5412835612224924,8.241977742359424,4.122254753516205
8.507626541397535,3.538237508039034,8.261015574756039,4.135295668707886
8.515622431004111,3.5351914548555765,8.280053407152648,4.148336583899564
8.523618320610687,3.532145401672119,8.299091239549258,4.161377499091241
8.531614210217263,3.4948058573106326,8.3,4.102349016441581
8.539610099823841,3.4550202350660357,8.3,3.850129230396404
8.547605989430417,3.448420453168544,8.3,3.8393411253716585
8.555601879036994,3.441820671271053,8.3,3.828553020346913
8.563597768643572,3.43522088937356,8.3,3.817764915322165
8.571593658250148,3.4286211074760686,8.3,3.8069768102974195
8.579589547856724,3.4220213255785774,8.3,3.796188705272674
8.5875854374633,3.4154215436810857,8.3,3.785400600247929
8.595581327069878,3.408821761783593,8.3,3.7746124952231805
8.603577216676454,3.6237645331767245,8.221139166177265,4.080039342337147
8.61157310628303,3.608217742293628,8.2,4.106963534444899
8.619568995889606,3.5989451980439853,8.2,4.104813379256576
8.627564885496184,3.58967265379434,8.2,4.102663224068253
8.63556077510276,3.5804001095446973,8.2,4.10051306887993
8.643556664709337,3.5711275652950545,8.2,4.098362913691607
8.651552554315913,3.5618550210454116,8.2,4.096212758503284
8.65954844392249,3.552582476795767,8.2,4.094062603314961
8.667544333529067,3.543309932546124,8.2,4.091912448126638
8.675540223135643,3.5340373882964813,8.2,4.089762292938315
8.683536112742221,3.5247648440468367,8.2,4.087612137749991
8.691532002348797,3.515492299797194,8.2,4.085461982561668
8.699527891955373,3.506219755547551,8.2,4.083311827373345
8.70752378156195,3.496947211297908,8.2,4.081161672185022
8.715519671168527,3.487674667048263,8.2,4.079011516996698
8.723515560775104,3.4653376394597672,8.2,4.055088667058117
8.73151145038168,3.5505160305343773,8.290229007633608,4.021775572519091
8.739507339988256,3.564,8.3,4.025
8.747503229594834,3.564,8.3,4.025
8.75549911920141,3.564,8.3,4.025
8.763495008807986,3.564,8.3,4.025
8.771490898414562,3.564,8.3,4.025
8.77948678802114,3.564,8.3,4.025
8.787482677627716,3.564,8.3,4.025
8.795478567234293,3.564,8.3,4.025
8.80347445684087,3.564,8.3,4.025
8.811470346447447,3.564,8.3,4.025
8.819466236054023,3.564,8.3,4.025
8.827462125660599,3.564,8.253787433940074,4.025
8.835458015267177,3.564,8.2,4.025
8.843453904873753,3.55113936191033,8.2,4.032867684478386
8.85144979448033,3.479,8.20681224310041,4.077
8.859445684086905,3.479,8.21680710510863,4.077
8.867441573693483,3.479,8.226801967116854,4.077
8.87543746330006,3.479,8.236796829125074,4.077
8.883433352906636,3.479,8.246791691133295,4.077
8.891429242513212,3.479,8.256786553141515,4.077
8.89942513211979,3.479,8.266781415149737,4.077
8.907421021726366,3.479,8.276776277157957,4.077
8.915416911332942,3.479,8.286771139166177,4.077
8.92341280093952,3.479,8.2967660011744,4.077
8.931408690546096,3.5155229986298915,8.240144842434928,3.9839710315130143
8.939404580152672,3.6405867570117505,8.3,3.97719641478686
8.947400469759248,3.625313709448627,8.3,3.9866297676934948
8.955396359365826,3.6100406618855008,8.3,3.996063120600132
8.963392248972402,3.5947676143223775,8.3,4.005496473506767
8.971388138578979,3.579494566759254,8.3,4.014929826413402
8.979384028185555,3.564221519196131,8.3,4.024363179320037
8.987379917792133,3.5489484716330044,8.3,4.033796532226674
8.995375807398709,3.533675424069881,8.3,4.043229885133309
9.003371697005285,3.518402376506758,8.3,4.052663238039944
9.011367586611861,3.5031293289436345,8.3,4.062096590946578
9.01936347621844,3.487856281380508,8.3,4.071529943853216
9.027359365825015,3.426,8.273784824166501,3.992
9.035355255431591,3.426,8.2,3.992
9.04335114503817,3.4419553261623914,8.20835357390701,4.001773681471203
9.051347034644746,3.459310041103937,8.217439812096302,4.0124045801526735
9.059342924251322,3.4766647560454826,8.226526050285592,4.023035478834144
9.067338813857898,3.4940194709870287,8.235612288474885,4.0336663775156145
9.075334703464476,3.5113741859285783,8.244698526664177,4.044297276197087
9.083330593071052,3.528728900870124,8.253784764853467,4.054928174878557
9.091326482677628,3.5460836158116695,8.26287100304276,4.065559073560028
9.099322372284204,3.5634383307532156,8.27195724123205,4.076189972241498
9.107318261890782,3.580793045694765,8.281043479421344,4.086820870922971
9.115314151497358,3.598147760636311,8.290129717610634,4.097451769604442
9.123310041103935,3.6155024755778564,8.299215955799927,4.108082668285912
9.13130593071051,3.512825149246428,8.203443677823447,3.942927126149931
9.139301820317089,3.5172395466333928,8.211772729496966,3.950006820072422
9.147297709923665,3.5216539440203567,8.220101781170484,3.9570865139949114
9.155293599530241,3.5260683414073206,8.228430832844001,3.9641662079174007
9.163289489136819,3.5304827387942854,8.23675988451752,3.971245901839892
9.171285378743395,3.5348971361812493,8.245088936191037,3.978325595762381
9.179281268349971,3.5393115335682133,8.253417987864553,3.9854052896848704
9.187277157956547,3.543725930955177,8.26174703953807,3.9924849836073597
9.195273047563125,3.548140328342142,8.270076091211589,3.9995646775298503
9.203268937169701,3.552554725729106,8.278405142885106,4.00664437145234
9.211264826776278,3.55696912311607,8.286734194558623,4.013724065374829
9.219260716382854,3.5613835205030338,8.29506324623214,4.020803759297318
9.227256605989432,3.540932374241528,8.3,4.039111959287536
9.235252495596008,3.484294822861616,8.3,4.073760814249365
9.243248385202584,3.433230276741235,8.294760669028092,3.9937289792207302
9.25124427480916,3.451027579413937,8.281864072888451,3.997984855946811
9.259240164415738,3.468824882086643,8.26896747674881,4.002240732672893
9.267236054022314,3.486622184759345,8.25607088060917,4.006496609398974
9.27523194362889,3.5044194874320467,8.243174284469532,4.010752486125055
9.283227833235468,3.5222167901047525,8.23027768832989,4.015008362851137
9.291223722842044,3.5400140927774544,8.21738109219025,4.019264239577217
9.29921961244862,3.5578113954501562,8.204484496050611,4.023520116303299
9.307215502055197,3.5318013633230363,8.2,4.161681431744492
9.315211391661775,3.524431238990017,8.2,4.149861421021725
9.32320728126835,3.5170611146569986,8.2,4.13804141029896
9.331203170874927,3.5096909903239806,8.2,4.126221399576195
9.339199060481503,3.5023208659909626,8.2,4.11440138885343
9.347194950088081,3.4949507416579433,8.2,4.1025813781306635
9.355190839694657,3.4875806173249253,8.2,4.090761367407898
9.363186729301233,3.4802104929919073,8.2,4.078941356685134
9.37118261890781,3.4728403686588893,8.2,4.067121345962369
9.379178508514388,3.4654702443258696,8.2,4.0553013352396015
9.387174398120964,3.4581001199928516,8.2,4.043481324516837
9.39517028772754,3.4507299956598336,8.2,4.031661313794072
9.403166177334118,3.443359871326814,8.2,4.019841303071305
9.411162066940694,3.435989746993796,8.2,4.00802129234854
9.41915795654727,3.428619622660778,8.2,3.9962012816257757
9.427153846153846,3.5116177156177155,8.3,3.9409906759906757
9.435149735760424,3.5158983433868936,8.3,3.9478558337336973
9.443145625367,3.5201789711560707,8.3,3.954720991476717
9.451141514973576,3.524459598925248,8.3,3.961586149219737
9.459137404580153,3.528740226694425,8.3,3.9684513069627574
9.46713329418673,3.533020854463603,8.3,3.9753164647057786
9.475129183793307,3.53730148223278,8.3,3.9821816224487985
9.483125073399883,3.5415821100019573,8.3,3.989046780191819
9.491120963006459,3.5458627377711345,8.3,3.9959119379348387
9.499116852613037,3.5501433655403125,8.3,4.00277709567786
9.507112742219613,3.5544239933094897,8.3,4.00964225342088
9.51510863182619,3.558704621078667,8.3,4.0165074111639
9.523104521432767,3.562985248847845,8.3,4.023372568906922
9.531100411039343,3.5172325308278958,8.2,4.0536106870229345
9.53909630064592,3.479,8.201107374389817,4.077
9.547092190252496,3.479,8.209184030558076,4.077
9.555088079859074,3.479,8.217260686726336,4.077
9.56308396946565,3.479,8.225337342894594,4.077
9.571079859072226,3.479,8.233413999062854,4.077
9.579075748678802,3.479,8.241490655231113,4.077
9.58707163828538,3.479,8.249567311399373,4.077
9.595067527891956,3.479,8.257643967567633,4.077
9.603063417498532,3.479,8.265720623735891,4.077
9.611059307105108,3.479,8.27379727990415,4.077
9.619055196711686,3.479,8.28187393607241,4.077
9.627051086318263,3.479,8.28995059224067,4.077
9.635046975924839,3.479,8.298027248408928,4.077
9.643042865531417,3.564,8.2279590638369,4.025
9.651038755137993,3.4834012075221716,8.2,4.074307496574671
9.659034644744569,3.4921146769652354,8.2,4.0689769035036205
9.667030534351145,3.500828146408299,8.2,4.06364631043257
9.675026423957723,3.509541615851365,8.2,4.058315717361518
9.6830223135643,3.5182550852944288,8.2,4.052985124290467
9.691018203170875,3.5269685547374925,8.2,4.0476545312194165
9.699014092777452,3.535682024180556,8.2,4.042323938148366
9.70700998238403,3.544395493623622,8.2,4.036993345077314
9.715005871990606,3.553108963066686,8.2,4.031662752006263
9.723001761597182,3.5618224325097496,8.2,4.026332158935213
9.730997651203758,3.4265340960989814,8.298992271511358,3.9928565692153475
9.738993540810336,3.4308147238681594,8.290915615343096,3.9997217269583687
9.746989430416912,3.4350953516373366,8.282838959174837,4.006586884701389
9.754985320023488,3.4393759794065137,8.274762303006579,4.013452042444409
9.762981209630066,3.4436566071756918,8.266685646838317,4.02031720018743
9.770977099236642,3.447937234944869,8.258608990670059,4.0271823579304495
9.778972988843218,3.452217862714046,8.2505323345018,4.03404751567347
9.786968878449795,3.456498490483223,8.242455678333542,4.04091267341649
9.794964768056373,3.4607791182524013,8.23437902216528,4.047777831159511
9.802960657662949,3.4650597460215784,8.226302365997022,4.054642988902531
9.810956547269525,3.4693403737907555,8.218225709828763,4.061508146645551
9.818952436876101,3.4736210015599327,8.210149053660505,4.068373304388571
9.826948326482679,3.4779016293291107,8.202072397492243,4.075238462131592
9.834944216089255,3.5878603640634363,8.2,4.102242982971232
9.842940105695831,3.617,8.2,4.109
9.850935995302407,3.617,8.2,4.109
9.858931884908985,3.6126334736086636,8.2,4.102079467606184
9.866927774515561,3.606747610426045,8.2,4.092750929731845
9.874923664122138,3.6008617472434263,8.2,4.083422391857506
9.882919553728716,3.5949758840608066,8.2,4.0740938539831655
9.890915443335292,3.589090020878188,8.2,4.064765316108827
9.898911332941868,3.5832041576955698,8.2,4.055436778234488
9.906907222548444,3.5773182945129514,8.2,4.04610824036015
9.914903112155022,3.5714324313303316,8.2,4.036779702485808
9.922899001761598,3.565546568147713,8.2,4.02745116461147
9.930894891368174,3.509913346195788,8.3,3.9406647764449296
9.93889078097475,3.500204051673517,8.3,3.946604580152672
9.946886670581328,3.490494757151244,8.3,3.9525443838604155
9.954882560187905,3.480785462628973,8.3,3.958484187568158
9.96287844979448,3.471076168106702,8.3,3.9644239912759
9.970874339401057,3.461366873584431,8.3,3.9703637949836423
9.978870229007635,3.4516575790621578,8.3,3.976303598691386
9.986866118614211,3.4419482845398868,8.3,3.982243402399128
9.994862008220787,3.432238990017616,8.3,3.9881832061068705
10.002857897827365,3.4624606576630046,8.2,3.9696946564885147
10.010853787433941,3.5105056566842827,8.3,3.9421164073204156
10.018849677040517,3.5083734194558622,8.3,3.95124504795459
10.026845566647093,3.5062411822274417,8.3,3.960373688588765
10.034841456253671,3.5041089449990213,8.3,3.969502329222941
10.042837345860248,3.5019767077706008,8.3,3.978630969857116
10.050833235466824,3.4998444705421803,8.3,3.9877596104912905
10.0588291250734,3.4977122333137602,8.3,3.9968882511254646
10.066825014679978,3.4955799960853393,8.3,4.006016891759641
10.074820904286554,3.493447758856919,8.3,4.015145532393816
10.08281679389313,3.491315521628499,8.3,4.02427417302799
10.090812683499706,3.4891832844000783,8.3,4.033402813662165
10.098808573106284,3.4870510471716574,8.3,4.042531454296341
10.10680446271286,3.4849188099432373,8.3,4.051660094930516
10.114800352319437,3.482786572714817,8.3,4.0607887355646906
10.122796241926014,3.480654335486396,8.3,4.069917376198867
10.13079213153259,3.5551655901350947,8.210393423370476,4.0304045801526485
10.138788021139167,3.479,8.2,4.077
10.146783910745743,3.479,8.2,4.077
10.15477980035232,3.479,8.2,4.077
10.162775689958897,3.479,8.2,4.077
10.170771579565473,3.479,8.2,4.077
10.17876746917205,3.479,8.2,4.077
10.186763358778627,3.479,8.2,4.077
10.194759248385203,3.479,8.2,4.077
10.20275513799178,3.479,8.2,4.077
10.210751027598356,3.479,8.2,4.077
10.218746917204934,3.479,8.2,4.077
10.22674280681151,3.5283795263261197,8.25809356038367,4.046791348600491
10.234738696418086,3.479,8.2,4.077
10.242734586024664,3.479,8.2,4.077
10.25073047563124,3.479,8.2,4.077
10.258726365237816,3.479,8.2,4.077
10.266722254844392,3.479,8.2,4.077
10.27471814445097,3.479,8.2,4.077
10.282714034057546,3.479,8.2,4.077
10.290709923664123,3.479,8.2,4.077
10.298705813270699,3.479,8.2,4.077
10.306701702877277,3.479,8.2,4.077
10.314697592483853,3.479,8.2,4.077
10.322693482090429,3.479,8.2,4.077
10.330689371697005,3.479,8.244822861616761,4.077
10.338685261303583,3.511,8.3,3.94
10.34668115091016,3.511,8.3,3.94
10.354677040516735,3.511,8.3,3.94
10.362672930123313,3.511,8.3,3.94
10.37066881972989,3.511,8.3,3.94
10.378664709336466,3.511,8.3,3.94
10.386660598943042,3.511,8.3,3.94
10.39465648854962,3.511,8.3,3.94
10.402652378156196,3.511,8.3,3.94
10.410648267762772,3.511,8.3,3.94
10.418644157369348,3.511,8.3,3.94
10.426640046975926,3.511,8.217997651203682,3.94
10.434635936582502,3.479,8.29531723577525,4.077
10.442631826189078,3.479,8.287240579606992,4.077
10.450627715795655,3.479,8.279163923438732,4.077
10.458623605402233,3.479,8.271087267270472,4.077
10.466619495008809,3.479,8.263010611102214,4.077
10.474615384615385,3.479,8.254933954933955,4.077
10.482611274221963,3.479,8.246857298765693,4.077
10.490607163828539,3.479,8.238780642597435,4.077
10.498603053435115,3.479,8.230703986429177,4.077
10.506598943041691,3.479,8.222627330260917,4.077
10.51459483264827,3.479,8.214550674092656,4.077
10.522590722254845,3.479,8.206474017924398,4.077
10.530586611861422,3.546431004110396,8.279330593071055,4.035748091603052
10.538582501467998,3.426,8.295371210638388,3.992
10.546578391074576,3.426,8.287294554470126,3.992
10.554574280681152,3.426,8.279217898301868,3.992
10.562570170287728,3.426,8.27114124213361,3.992
10.570566059894304,3.426,8.263064585965349,3.992
10.578561949500882,3.426,8.254987929797089,3.992
10.586557839107458,3.426,8.24691127362883,3.992
10.594553728714034,3.426,8.23883461746057,3.992
10.602549618320612,3.426,8.23075796129231,3.992
10.610545507927188,3.426,8.222681305124052,3.992
10.618541397533765,3.426,8.214604648955792,3.992
10.62653728714034,3.426,8.206527992787533,3.992
10.634533176746919,3.426,8.276658837345952,3.992
10.642529066353495,3.614499577950675,8.2,4.105037066940692
10.650524955960071,3.610085180563711,8.2,4.098040663534938
10.658520845566647,3.605670783176747,8.2,4.091044260129184
10.666516735173225,3.601256385789782,8.2,4.084047856723428
10.674512624779801,3.596841988402818,8.2,4.077051453317674
10.682508514386377,3.5924275910158543,8.2,4.07005504991192
10.690504403992954,3.5880131936288904,8.2,4.063058646506166
10.698500293599531,3.583598796241925,8.2,4.05606224310041
10.706496183206108,3.5791843988549616,8.2,4.049065839694656
10.714492072812684,3.5747700014679977,8.2,4.042069436288902
10.722487962419262,3.5703556040810325,8.2,4.035073032883147
10.730483852025838,3.5659412066940686,8.2,4.028076629477392
10.738479741632414,3.5159795654726778,8.234797416324147,4.013516852613032
10.74647563123899,3.426,8.3,3.992
10.754471520845568,3.426,8.3,3.992
10.762467410452144,3.426,8.3,3.992
10.77046330005872,3.426,8.3,3.992
10.778459189665297,3.426,8.3,3.992
10.786455079271875,3.426,8.3,3.992
10.79445096887845,3.426,8.3,3.992
10.802446858485027,3.426,8.3,3.992
10.810442748091603,3.426,8.3,3.992
10.818438637698181,3.426,8.3,3.992
10.826434527304757,3.426,8.3,3.992
10.834430416911333,3.426,8.3,3.992
10.842426306517911,3.426,8.3,3.992
10.850422196124487,3.426,8.3,3.992
10.858418085731063,3.426,8.3,3.992
10.86641397533764,3.511,8.2,3.94
10.874409864944218,3.525280830619763,8.2,3.9627684941013204
10.882405754550794,3.540691090588801,8.2,3.9873376821651636
10.89040164415737,3.5561013505578387,8.2,4.011906870229007
10.898397533763946,3.5715116105268763,8.2,4.03647605829285
10.906393423370524,3.586921870495918,8.2,4.061045246356699
10.9143893129771,3.6023321304649554,8.2,4.085614434420542
10.922385202583676,3.600628890193774,8.2,4.119207868467411
10.930381092190252,3.4772431579795744,8.203314796264953,4.074182423174789
10.93837698179683,3.4730884310271373,8.211153903722382,4.067519181835975
10.946372871403407,3.4689337040747006,8.21899301117981,4.060855940497161
10.954368761009983,3.464778977122264,8.226832118637239,4.054192699158348
10.96236465061656,3.4606242501698263,8.234671226094667,4.047529457819532
10.970360540223137,3.4564695232173896,8.242510333552096,4.040866216480719
10.978356429829713,3.452314796264953,8.250349441009522,4.0342029751419055
10.986352319436289,3.4481600693125163,8.25818854846695,4.027539733803092
10.994348209042867,3.4440053423600787,8.266027655924379,4.020876492464278
11.002344098649443,3.4398506154076425,8.273866763381807,4.014213251125464
11.01033998825602,3.435695888455206,8.281705870839236,4.007550009786651
11.018335877862595,3.431541161502769,8.289544978296663,4.000886768447837
11.026331767469173,3.4273864345503315,8.297384085754093,3.994223527109022
11.03432765707575,3.479,8.3,4.077
11.042323546682326,3.479,8.3,4.077
11.050319436288902,3.479,8.3,4.077
11.05831532589548,3.479,8.3,4.077
11.066311215502056,3.479,8.3,4.077
11.074307105108632,3.479,8.3,4.077
11.08230299471521,3.479,8.3,4.077
11.090298884321786,3.479,8.3,4.077
11.098294773928362,3.479,8.3,4.077
11.106290663534939,3.479,8.3,4.077
11.114286553141516,3.479,8.3,4.077
11.122282442748093,3.479,8.3,4.077
11.130278332354669,3.5621801346040938,8.20214101811283,4.026113329418672
11.138274221961245,3.509899317945711,8.26364786124034,4.058096887844977
11.146270111567823,3.428190942454495,8.3,3.992523921021727
11.154266001174399,3.4419838520258392,8.3,3.99582222548444
11.162261890780975,3.455776761597183,8.3,3.9991205299471524
11.170257780387551,3.469569671168527,8.3,4.002418834409865
11.17825366999413,3.4833625807398736,8.3,4.005717138872579
11.186249559600705,3.4971554903112176,8.3,4.009015443335291
11.194245449207282,3.5109483998825617,8.3,4.012313747798004
11.20224133881386,3.5247413094539084,8.3,4.0156120522607175
11.210237228420436,3.5385342190252524,8.3,4.01891035672343
11.218233118027012,3.552327128596596,8.3,4.022208661186143
11.226229007633588,3.535732824427469,8.3,4.018240458015264
11.234224897240166,3.5635179095714586,8.3,4.096598355842657
11.242220786846742,3.4352308449983906,8.293310981885226,3.9942073759778762
11.250216676453318,3.4470957134468585,8.284713251125465,3.9970446271285964
11.258212566059894,3.4589605818953264,8.276115520365707,3.999881878279317
11.266208455666472,3.470825450343797,8.267517789605945,4.002719129430038
11.274204345273048,3.482690318792265,8.258920058846185,4.005556380580759
11.282200234879625,3.4945551872407323,8.250322328086426,4.0083936317314794
11.2901961244862,3.5064200556892002,8.241724597326666,4.0112308828822005
11.298192014092779,3.518284924137671,8.233126866566906,4.014068134032922
11.306187903699355,3.5301497925861387,8.224529135807146,4.016905385183642
11.314183793305931,3.5420146610346066,8.215931405047385,4.019742636334363
11.322179682912509,3.553879529483077,8.207333674287625,4.022579887485084
11.330175572519085,3.626305343511514,8.258778625954259,4.124335877862697
11.338171462125661,3.520735288110495,8.493291888993847,4.710855714978682
11.346167351732237,3.493184233705227,8.484600704638874,4.6666175866118635
11.354163241338815,3.4656331792999526,8.475909520283897,4.622379458245034
11.362159130945392,3.4380821248946845,8.467218335928923,4.578141329878216
11.370155020551968,3.4105310704894163,8.458527151573948,4.533903201511397
11.378150910158544,3.382980016084148,8.449835967218974,4.489665073144579
11.386146799765122,3.3554289616788737,8.441144782863999,4.44542694477775
11.394142689371698,3.3278779072736056,8.432453598509024,4.401188816410931
11.402138578978274,3.3003268528683374,8.42376241415405,4.356950688044113
11.41013446858485,3.272775798463069,8.415071229799075,4.312712559677294
11.418130358191428,3.245224744057795,8.4063800454441,4.268474431310465
11.426126247798004,3.2994186729301673,8.258250146799682,4.35648737522027
11.43412213740458,3.5335760124207547,8.706986673567085,4.52338426704619
11.442118027011158,3.55797025189845,8.720539028832471,4.524129646585786
11.450113916617735,3.58236449137614,8.734091384097855,4.524875026125382
11.45810980622431,3.60675873085383,8.74764373936324,4.525620405664978
11.466105695830887,3.6311529703315197,8.761196094628621,4.5263657852045736
11.474101585437465,3.655547209809215,8.774748449894009,4.52711116474417
11.482097475044041,3.679941449286905,8.788300805159391,4.527856544283766
11.490093364650617,3.704335688764595,8.801853160424775,4.528601923823363
11.498089254257193,3.7287299282422848,8.815405515690157,4.529347303362958
11.506085143863771,3.7531241677199803,8.828957870955545,4.530092682902555
11.514081033470347,3.77751840719767,8.842510226220927,4.530838062442151
11.522076923076924,3.80191264667536,8.856062581486311,4.531583441981747
11.5300728126835,3.82630688615305,8.869614936751695,4.532328821521343
11.538068702290078,3.850701125630745,8.883167292017081,4.5330742010609395
11.546064591896654,3.875095365108435,8.896719647282465,4.533819580600535
11.55406048150323,3.789659885915602,9.029867460783503,4.3868168777786956
11.562056371109808,3.695677040517761,9.216911332942543,4.197945977686594
11.570052260716384,4.964259268633441,10.191804665195304,6.669532609796115
11.57804815032296,4.872030817826554,10.372952922833944,6.9251253568752915
11.586044039929536,4.779802367019666,10.554101180472584,7.180718103954469
11.594039929536114,4.687573916212758,10.735249438111264,7.436310851033702
11.60203581914269,4.59534546540587,10.916397695749904,7.691903598112878
11.610031708749267,4.503117014598983,11.097545953388543,7.947496345192055
11.618027598355843,4.410888563792096,11.278694211027183,8.203089092271231
11.62602348796242,4.466950381679457,11.089230182031534,8.524514973576112
11.634019377568997,3.529645214327962,11.252226776276913,4.384520375807722
11.642015267175573,3.871998340524372,10.941072021241299,4.794424493859926
11.65001115678215,3.7231183525236666,11.012948115856934,4.697952347519714
11.658007046388727,3.574238364522928,11.084824210472586,4.601480201179481
11.666002935995303,3.425358376522223,11.15670030508822,4.505008054839269
11.67399882560188,3.276478388521518,11.228576399703856,4.408535908499057
11.681994715208457,3.1275984005207795,11.300452494319508,4.312063762158824
11.689990604815033,2.9787184125200743,11.372328588935142,4.215591615818612
11.69798649442161,2.829838424519369,11.444204683550778,4.119119469478401
11.705982384028186,2.6809584365186643,11.516080778166414,4.022647323138188
11.713978273634764,2.5320784485179257,11.587956872782064,3.9261751767979556
11.72197416324134,2.3831984605172205,11.6598329673977,3.8297030304577433
11.729970052847916,1.2891058602466252,10.810716594245436,1.9531476453317478
11.737965942454492,1.298221174398122,10.734195930710504,1.8389663417498419
11.74596183206107,1.3073364885496206,10.657675267175554,1.7247850381679106
11.753957721667646,1.3164518027011174,10.581154603640622,1.6106037345860047
11.761953611274222,1.325567116852614,10.504633940105688,1.4964224310040988
11.769949500880799,1.3346824310041105,10.428113276570755,1.3822411274221929
11.777945390487377,1.3437977451556093,10.351592613035805,1.2680598238402616
11.785941280093953,1.352913059307106,10.275071949500873,1.1538785202583557
11.793937169700529,1.3620283734586027,10.19855128596594,1.03969721667645
11.801933059307107,1.3711436876101013,10.12203062243099,0.9255159130945185
11.809928948913683,1.380259001761598,10.045509958896057,0.8113346095126126
11.817924838520259,1.3893743159130947,9.968989295361125,0.6971533059307069
11.825920728126835,1.3984896300645915,9.892468631826192,0.582972002348801
11.833916617733413,1.2855842630651375,8.826672342923997,-1.3577477560608333
11.84191250733999,0.8336735173222523,6.64217821491461,-3.2647146212567777
11.849908396946566,0.6447156954012246,6.460755539005768,-3.4337013591509997
11.857904286553142,0.4715364278246462,6.313904200621574,-3.578992523953422
11.86590017615972,0.2983571602480293,6.167052862237349,-3.7242836887558766
11.873896065766296,0.12517789267145085,6.020201523853156,-3.8695748535582988
11.881891955372872,-0.04800137490512757,5.873350185468962,-4.0148660183607205
11.889887844979448,-0.2211806424817061,5.726498847084769,-4.160157183163143
11.897883734586026,-0.39435991005832294,5.5796475087005435,-4.305448347965598
11.905879624192602,-0.5675391776349014,5.43279617031635,-4.4507395127680205
11.913875513799178,-0.7407184452114798,5.285944831932157,-4.596030677570442
11.921871403405756,-0.9138977127880966,5.13909349354793,-4.741321842372897
11.929867293012332,-0.9130616559013399,4.718625954198386,-5.108568408690621
11.937863182618909,-0.849094539048735,4.198893129770971,-5.5563382266588555
11.945859072225485,-1.1634486200822982,2.3722325308275956,-7.074933646506457
11.953854961832063,-1.2902762533525418,1.5780852073447134,-7.747175572519066
11.961850851438639,-0.9710889844630012,1.3364796781514117,-7.627237228420423
11.969846741045215,-0.6519017155734604,1.0948741489581102,-7.507298884321781
11.977842630651791,-0.3327144466839198,0.8532686197648084,-7.387360540223138
11.985838520258369,-0.01352717779430801,0.6116630905714531,-7.267422196124469
11.993834409864945,0.3056600910952325,0.3700575613781514,-7.147483852025826
12.001830299471521,0.6248473599847735,0.12845203218484968,-7.027545507927184
12.009826189078098,0.9440346288743142,-0.11315349700845201,-6.907607163828541
12.017822078684675,1.2632218977639256,-0.35475902620180744,-6.787668819729872
12.025817968291252,2.1770491289881546,-1.656616069681104,-7.162793697396806
12.033813857897828,3.7415781953414964,-4.118683744372586,-8.079655705617505
12.041809747504406,4.5158862472517685,-3.691438234852338,-7.845082289803202
12.049805637110982,4.487435756326044,-3.898308634557364,-7.698924865831831
12.057801526717558,4.458985265400319,-4.10517903426239,-7.55276744186046
12.065797416324134,4.4305347744745935,-4.312049433967417,-7.406610017889088
12.073793305930712,4.402084283548863,-4.518919833672489,-7.260452593917685
12.081789195537288,4.373633792623138,-4.725790233377515,-7.114295169946313
12.089785085143864,4.345183301697412,-4.932660633082541,-6.968137745974942
12.09778097475044,4.316732810771688,-5.139531032787567,-6.82198032200357
12.105776864357018,4.2882823198459565,-5.346401432492639,-6.675822898032166
12.113772753963595,4.259831828920231,-5.553271832197666,-6.529665474060796
12.12176864357017,4.231381337994507,-5.760142231902692,-6.383508050089424
12.129764533176747,6.204326795017568,-6.444163203858011,-5.320921465249064
12.137760422783325,6.458749197286444,-6.247158093976796,-5.3933097849852105
12.145756312389901,6.713171599555263,-6.050152984095623,-5.465698104721341
12.153752201996477,6.967594001824081,-5.853147874214452,-5.538086424457471
12.161748091603055,7.222016404092957,-5.656142764333237,-5.610474744193617
12.169743981209631,7.476438806361776,-5.459137654452065,-5.682863063929746
12.177739870816207,7.730861208630595,-5.262132544570893,-5.755251383665876
12.185735760422784,7.985283610899414,-5.065127434689721,-5.827639703402006
12.193731650029362,8.23970601316829,-4.868122324808506,-5.9000280231381526
12.201727539635938,8.494128415437109,-4.671117214927334,-5.972416342874283
12.209723429242514,8.748550817705928,-4.474112105046163,-6.044804662610413
12.21771931884909,9.002973219974747,-4.27710699516499,-6.117192982346543
12.225715208455668,9.762915443335514,-3.1769917792127877,-6.558705226071787
12.233711098062244,6.853465620893101,-0.3401793753320512,-5.228297709923667
12.24170698766882,6.845850487934458,-0.39873974778402305,-5.269876335877862
12.249702877275396,6.838235354975813,-0.45730012023599487,-5.311454961832059
12.257698766881974,6.830620222017168,-0.5158604926879796,-5.353033587786263
12.26569465648855,6.823005089058524,-0.5744208651399515,-5.3946122137404595
12.273690546095127,6.81538995609988,-0.6329812375919233,-5.436190839694655
12.281686435701705,6.8077748231412345,-0.6915416100439081,-5.47776946564886
12.28968232530828,6.80015969018259,-0.7501019824958799,-5.519348091603057
12.297678214914857,6.7925445572239465,-0.8086623549478518,-5.560926717557252
12.305674104521433,6.784929424265302,-0.8672227273998236,-5.602505343511448
12.313669994128011,6.777314291306657,-0.9257830998518084,-5.644083969465653
12.321665883734587,6.769699158348013,-0.9843434723037803,-5.685662595419849
12.329661773341163,6.762084025389369,-1.042903844755752,-5.727241221374045
12.33765766294774,7.10847592483847,-1.2348156194949873,-6.565587199060366
12.345653552554317,7.764855137991781,0.13441880504990233,-6.419521344685857
12.353649442160894,7.78204630064592,0.05435996036405863,-6.492883631826194
12.36164533176747,7.7992374633000585,-0.025698884321785076,-6.56624591896653
12.369641221374046,7.816428625954197,-0.10575772900762878,-6.639608206106866
12.377637110980624,7.83361978860834,-0.18581657369349028,-6.7129704932472185
12.3856330005872,7.850810951262479,-0.2658754183793339,-6.786332780387554
12.393628890193776,7.868002113916617,-0.3459342630651776,-6.859695067527891
12.401624779800352,7.885193276570757,-0.4259931077510214,-6.933057354668227
12.40962066940693,7.902384439224899,-0.5060519524368828,-7.006419641808579
12.417616559013506,7.919575601879037,-0.5861107971227265,-7.079781928948916
12.425612448620083,7.454734586024644,0.049937463300096074,-6.295691426893699
12.43360833822666,7.898984289429227,-0.859150814289329,-6.701799153954008
12.441604227833237,7.932844434191769,-0.9391913010653612,-6.7088159550373305
12.449600117439813,7.96670457895431,-1.0192317878413932,-6.715832756120652
12.457596007046389,8.000564723716852,-1.0992722746174255,-6.722849557203974
12.465591896652967,8.034424868479402,-1.1793127613934753,-6.729866358287297
12.473587786259543,8.068285013241942,-1.2593532481695076,-6.7368831593706195
12.48158367586612,8.102145158004484,-1.3393937349455396,-6.743899960453941
12.489579565472695,8.136005302767026,-1.4194342217215716,-6.750916761537263
12.497575455079273,8.169865447529574,-1.4994747084976217,-6.757933562620587
12.50557134468585,8.203725592292116,-1.579515195273654,-6.764950363703909
12.513567234292426,8.237585737054658,-1.659555682049686,-6.77196716478723
12.521563123899002,8.271445881817199,-1.739596168825718,-6.778983965870553
12.52955901350558,7.890413975337229,-1.9903840281846839,-6.847044627128311
12.537554903112156,9.53208052726426,0.9390232652317411,-7.062695081701662
12.545550792718732,9.374736124891173,0.9825870775710183,-6.870977544698008
12.55354668232531,9.217391722518053,1.026150889910305,-6.679260007694312
12.561542571931886,9.06004732014497,1.069714702249582,-6.4875424706906575
12.569538461538462,8.902702917771883,1.1132785145888593,-6.295824933687003
12.577534351145038,8.745358515398799,1.1568423269281363,-6.104107396683349
12.585530240751616,8.588014113025679,1.200406139267423,-5.912389859679653
12.593526130358192,8.430669710652593,1.2439699516067002,-5.720672322675998
12.601522019964769,8.273325308279508,1.2875337639459774,-5.528954785672345
12.609517909571345,8.115980905906422,1.3310975762852544,-5.33723724866869
12.617513799177923,7.958636503533302,1.3746613886245411,-5.145519711664994
12.625509688784499,7.532081620669347,0.6903816793891667,-5.458003523194458
12.633505578391075,7.439410510863229,-0.5112390487373618,-5.477187375220207
12.641501467997651,7.7085668987501075,0.4225095210133463,-5.519181612280851
12.649497357604229,7.748736725106963,0.539211433604589,-5.535744526465904
12.657493247210805,7.788906551463809,0.6559133461958057,-5.552307440650955
12.665489136817381,7.829076377820655,0.7726152587870223,-5.568870354836005
12.67348502642396,7.869246204177511,0.889317171378265,-5.585433269021059
12.681480916030536,7.909416030534357,1.0060190839694818,-5.601996183206109
12.689476805637112,7.949585856891203,1.1227209965606983,-5.618559097391159
12.697472695243688,7.989755683248049,1.239422909151915,-5.635122011576209
12.705468584850266,8.029925509604904,1.3561248217431578,-5.651684925761264
12.713464474456842,8.070095335961751,1.4728267343343746,-5.668247839946314
12.721460364063418,8.110265162318598,1.589528646925591,-5.684810754131364
12.729456253669994,7.705896065766328,-0.010259541984600773,-5.380253669994231
12.737452143276572,7.605333390576011,-0.3671656732292452,-5.064014740912272
12.745448032883148,7.62607744380062,-0.2267850075892618,-5.134846253559207
12.753443922489724,7.646821497025227,-0.08640434194927832,-5.205677766206141
12.7614398120963,7.667565550249836,0.05397632369070504,-5.276509278853075
12.769435701702879,7.6883096034744485,0.19435698933071965,-5.347340791500025
12.777431591309455,7.709053656699056,0.3347376549707032,-5.418172304146959
12.78542748091603,7.729797709923664,0.4751183206106866,-5.489003816793893
12.793423370522609,7.750541763148276,0.6154989862507012,-5.559835329440843
12.801419260129185,7.771285816372885,0.7558796518906845,-5.630666842087777
12.809415149735761,7.792029869597492,0.896260317530668,-5.701498354734712
12.817411039342337,7.8127739228221005,1.0366409831706516,-5.772329867381646
12.825406928948915,7.833517976046713,1.1770216488106662,-5.8431613800285955
12.833402818555491,7.854262029271321,1.3174023144506495,-5.913992892675529
12.841398708162068,7.495696940836119,0.829106970482506,-6.268948111653747
12.849394597768644,7.529728227088498,0.8312522091574411,-6.227798533434537
12.857390487375222,7.563759513340885,0.8333974478323767,-6.18664895521532
12.865386376981798,7.597790799593263,0.8355426865073117,-6.145499376996112
12.873382266588374,7.631822085845641,0.8376879251822468,-6.104349798776903
12.88137815619495,7.66585337209802,0.8398331638571818,-6.063200220557694
12.889374045801528,7.699884658350407,0.8419784025321173,-6.022050642338477
12.897369935408104,7.733915944602786,0.8441236412070524,-5.9809010641192675
12.90536582501468,7.767947230855164,0.8462688798819874,-5.939751485900059
12.913361714621258,7.801978517107551,0.848414118556923,-5.898601907680842
12.921357604227834,7.8360098033599295,0.8505593572318579,-5.857452329461633
12.92935349383441,8.527726952437183,0.8283549031120556,-6.708204110393718
12.937349383440987,8.297737734960279,0.599727488014026,-7.227838604143936
12.945345273047565,8.214527762900616,0.3216286901588683,-7.005095965103549
12.95334116265414,8.13131779084097,0.043529892303772355,-6.782353326063211
12.961337052260717,8.048107818781325,-0.23456890555132348,-6.559610687022873
12.969332941867293,7.964897846721681,-0.5126677034064194,-6.336868047982536
12.977328831473871,7.881687874662018,-0.7907665012615771,-6.114125408942149
12.985324721080447,7.798477902602373,-1.068865299116673,-5.891382769901812
12.993320610687023,7.715267930542728,-1.346964096971769,-5.6686401308614744
13.0013165002936,7.632057958483084,-1.6250628948268648,-5.445897491821137
13.009312389900177,7.54884798642342,-1.9031616926820227,-5.22315485278075
13.017308279506754,7.465638014363775,-2.1812604905371185,-5.000412213740413
13.02530416911333,7.557522607163824,-0.3193229594832655,-5.5269271873165025
13.033300058719908,7.102040164415742,-0.42872061068704204,-5.599718849089806
13.041295948326484,7.128331767469179,-0.49144392248972624,-5.499643737941456
13.04929183793306,7.164313270698772,-0.5034377568995906,-5.540194320946235
13.057287727539636,7.2002947739283645,-0.5154315913094548,-5.580744903951015
13.065283617146214,7.236276277157966,-0.5274254257193218,-5.621295486955803
13.07327950675279,7.272257780387559,-0.5394192601291861,-5.661846069960582
13.081275396359366,7.3082392836171515,-0.5514130945390503,-5.702396652965361
13.089271285965943,7.344220786846744,-0.5634069289489146,-5.74294723597014
13.09726717557252,7.380202290076345,-0.5754007633587817,-5.783497818974928
13.105263065179097,7.4161837933059385,-0.5873945977686459,-5.824048401979708
13.113258954785673,7.452165296535531,-0.5993884321785101,-5.864598984984487
13.121254844392249,7.488146799765124,-0.6113822665883745,-5.905149567989266
13.129250733998827,8.329524368761168,-0.3973352906637593,-6.2474820904290365
13.137246623605403,8.411769424419983,-0.6382882835047042,-6.568905717070001
13.14524251321198,8.334277345360505,-0.6672946489923902,-6.521355692707489
13.153238402818557,8.25678526630101,-0.6963010144800827,-6.473805668344967
13.161234292425133,8.179293187241532,-0.7253073799677687,-6.426255643982455
13.16923018203171,8.101801108182054,-0.7543137454554547,-6.378705619619944
13.177226071638286,8.024309029122577,-0.7833201109431407,-6.331155595257432
13.185221961244864,7.946816950063082,-0.8123264764308332,-6.28360557089491
13.19321785085144,7.869324871003603,-0.8413328419185192,-6.236055546532398
13.201213740458016,7.791832791944126,-0.8703392074062053,-6.188505522169886
13.209209630064592,7.714340712884647,-0.8993455728938913,-6.140955497807375
13.21720551967117,7.636848633825153,-0.9283519383815837,-6.093405473444852
13.225201409277746,7.370364650616498,-0.5727539635935419,-5.792894891368094
13.233197298884322,8.28784967704102,1.9108631826194071,-6.287110980622514
13.241193188490898,8.919494421608926,2.4549735107979385,-6.536045605793698
13.249189078097476,9.043430710510885,2.4860686370457414,-6.7172857702094655
13.257184967704053,9.167366999412815,2.5171637632935377,-6.898525934625192
13.265180857310629,9.291303288314746,2.548258889541334,-7.079766099040919
13.273176746917207,9.415239577216703,2.579354015789137,-7.261006263456685
13.281172636523783,9.539175866118633,2.6104491420369333,-7.442246427872412
13.289168526130359,9.663112155020565,2.6415442682847297,-7.623486592288138
13.297164415736935,9.787048443922496,2.672639394532526,-7.8047267567038645
13.305160305343513,9.910984732824453,2.703734520780329,-7.985966921119632
13.31315619495009,10.034921021726383,2.7348296470281253,-8.167207085535358
13.321152084556665,10.158857310628314,2.7659247732759216,-8.348447249951084
13.329147974163241,8.166041495400306,-1.245892738305185,-4.488106478762936
13.33714386376982,8.522754766773977,0.46235669980630734,-4.416598882296986
13.345139753376396,8.479099047657613,0.5697038154440197,-4.595541377285536
13.353135642982972,8.435443328541247,0.6770509310817321,-4.774483872274086
13.361131532589548,8.391787609424883,0.7843980467194445,-4.953426367262636
13.369127422196126,8.34813189030851,0.8917451623571807,-5.132368862251225
13.377123311802702,8.304476171192146,0.9990922779948932,-5.3113113572397745
13.385119201409278,8.260820452075782,1.1064393936326056,-5.490253852228324
13.393115091015856,8.217164732959407,1.2137865092703417,-5.669196347216914
13.401110980622432,8.173509013843043,1.321133624908054,-5.848138842205463
13.409106870229008,8.12985329472668,1.4284807405457665,-6.027081337194013
13.417102759835585,8.086197575610315,1.5358278561834788,-6.206023832182563
13.425098649442162,7.7243093471414195,0.09141707147813502,-5.628861100731311
13.433094539048739,7.830436609192347,0.044168632893818074,-5.455495676079625
13.441090428655315,7.9365638712432744,-0.0030798056904988713,-5.2821302514279385
13.449086318261891,8.046122662793213,0.9848069196773489,-5.961745588280742
13.457082207868469,8.057485242760455,0.9669213771363194,-5.938178755756091
13.465078097475045,8.068847822727696,0.9490358345952938,-5.914611923231446
13.473073987081621,8.080210402694934,0.9311502920542684,-5.8910450907068
13.481069876688197,8.091572982662175,0.9132647495132429,-5.867478258182156
13.489065766294775,8.102935562629417,0.8953792069722134,-5.843911425657505
13.497061655901351,8.114298142596656,0.8774936644311879,-5.82034459313286
13.505057545507928,8.125660722563897,0.8596081218901624,-5.796777760608214
13.513053435114506,8.137023302531139,0.841722579349133,-5.7732109280835635
13.521049324721082,8.14838588249838,0.8238370368081075,-5.749644095558919
13.529045214327658,8.412739283617105,0.562,-4.998348209042762
13.537041103934234,8.374397240164415,0.10885820729713917,-4.768352827284125
13.545036993540812,8.354407516147969,0.11544941359445343,-4.763382409420577
13.553032883147388,8.334417792131529,0.12204061989176622,-4.758411991557029
13.561028772753964,8.314428068115088,0.128631826189079,-4.753441573693482
13.56902466236054,8.294438344098648,0.1352230324863918,-4.748471155829934
13.577020551967118,8.274448620082204,0.14181423878370605,-4.743500737966386
13.585016441573694,8.254458896065763,0.14840544508101886,-4.738530320102838
13.59301233118027,8.234469172049323,0.15499665137833166,-4.733559902239291
13.601008220786847,8.214479448032883,0.16158785767564443,-4.7285894843757434
13.609004110393425,8.194489724016437,0.1681790639729587,-4.723619066512195
13.617,8.362,2.546,-3.315
