accel_time_list,accel_x_list,accel_y_list,accel_z_list
0.0,0.5,2.8,9.6
0.007995348837209301,1.4213086322428066,3.4203074497437918,9.289846275128104
0.015990697674418602,1.2112613322822232,3.4745132045723293,9.262743397713836
0.023986046511627904,1.0012140323216399,3.528718959400867,9.235640520299567
0.031981395348837205,0.7911667323610564,3.5829247142294047,9.208537642885299
0.039976744186046506,0.5811194324004729,3.6371304690579422,9.18143476547103
0.04797209302325581,0.37107213243988957,3.69133622388648,9.15433188805676
0.05596744186046511,0.1610248324793062,3.7455419787150177,9.127229010642491
0.06396279069767441,-0.04902246748127714,3.799747733543555,9.100126133228223
0.07195813953488371,-0.2590697674418603,3.853953488372093,9.073023255813954
0.07995348837209301,-0.46911706740244363,3.9081592432006307,9.045920378399686
0.08794883720930231,-0.6791643673630272,3.962364998029168,9.018817500985417
0.09594418604651161,-0.8892116673236106,4.016570752857706,8.991714623571147
0.10393953488372092,-1.099258967284194,4.070776507686244,8.964611746156878
0.11193488372093022,-1.3093062672447773,4.124982262514782,8.93750886874261
0.11993023255813952,-1.5193535672053606,4.179188017343319,8.910405991328341
0.12792558139534882,1.0598139534883613,1.5401860465116388,8.998511627906977
0.13592093023255813,1.2923467230443975,1.7299036880432228,9.111961475217289
0.14391627906976742,1.146976744186047,1.770284237726098,9.12811369509044
0.1519116279069767,1.001606765327696,1.8106647874089732,9.144265914963588
0.15990697674418602,0.8562367864693451,1.8510453370918487,9.160418134836739
0.16790232558139534,0.7108668076109939,1.891425886774724,9.17657035470989
0.17589767441860463,0.5654968287526432,1.931806436457599,9.19272257458304
0.18389302325581391,0.4201268498942926,1.9721869861404744,9.20887479445619
0.19188837209302323,0.2747568710359414,2.01256753582335,9.22502701432934
0.19988372093023254,0.12938689217759025,2.052948085506225,9.241179234202491
0.20787906976744183,-0.015983086680760428,2.0933286351891,9.25733145407564
0.21587441860465112,-0.1613530655391111,2.1337091848719756,9.27348367394879
0.22386976744186043,-0.30672304439746223,2.1740897345548507,9.289635893821941
0.23186511627906975,0.5550387596899126,2.96403100775193,9.682015503875965
0.23986046511627904,0.4872868217054265,2.2,9.5
0.24785581395348832,0.4517519379844963,2.2,9.5
0.25585116279069764,0.41621705426356603,2.2,9.5
0.26384651162790695,0.38068217054263576,2.2,9.5
0.27184186046511627,0.3451472868217055,2.2,9.5
0.27983720930232553,0.3096124031007754,2.2,9.5
0.28783255813953484,0.27407751937984515,2.2,9.5
0.29582790697674416,0.23854263565891481,2.2,9.5
0.3038232558139534,0.20300775193798481,2.2,9.5
0.31181860465116273,0.16747286821705454,2.2,9.5
0.31981395348837205,0.1319379844961242,2.2,9.5
0.32780930232558136,0.14046511627906755,2.280930232558135,9.540465116279067
0.3358046511627907,0.2,2.4844708115804464,9.492235405790224
0.34379999999999994,0.2,2.451836734693878,9.475918367346939
0.35179534883720925,0.2,2.4192026578073094,9.459601328903656
0.35979069767441857,0.2,2.3865685809207404,9.44328429046037
0.36778604651162783,0.2,2.3539345040341724,9.426967252017086
0.37578139534883714,0.2,2.3213004271476034,9.410650213573803
0.38377674418604646,0.2,2.288666350261035,9.394333175130518
0.3917720930232558,0.2,2.2560322733744664,9.378016136687233
0.3997674418604651,0.2,2.2233981964878975,9.36169909824395
0.40776279069767435,0.2,2.1907641196013294,9.345382059800665
0.41575813953488366,0.2,2.1581300427147605,9.329065021357382
0.423753488372093,0.2,2.125495965828192,9.312747982914097
0.43174883720930224,0.2,2.4374418604651122,9.4
0.43974418604651155,0.1948432760364005,2.458746208291204,9.384529828109201
0.44773953488372087,0.18615267947421646,2.389221435793732,9.358458038422649
0.4557348837209302,0.17746208291203242,2.3196966632962592,9.332386248736098
0.4637302325581395,0.1687714863498484,2.250171890798787,9.306314459049545
0.47172558139534876,0.1600808897876644,2.180647118301315,9.280242669362993
0.4797209302325581,0.15139029322548037,2.111122345803843,9.25417087967644
0.4877162790697674,0.14269969666329635,2.0415975733063707,9.22809908998989
0.49571162790697665,0.13400910010111236,1.9720728008088988,9.202027300303337
0.503706976744186,0.12531850353892832,1.9025480283114264,9.175955510616784
0.5117023255813953,0.11662790697674429,1.8330232558139543,9.149883720930232
0.5196976744186046,0.10793731041456026,1.763498483316482,9.123811931243681
0.5276930232558139,0.1,1.4227906976744462,9.030697674418612
0.5356883720930232,0.2078476001979217,3.75291439881247,9.772533399307274
0.5436837209302325,0.2248589807026224,3.6508461157842658,9.712993567540822
0.5516790697674417,0.24187036120732283,3.548777832756063,9.65345373577437
0.5596744186046511,0.2588817417120235,3.446709549727859,9.593913904007918
0.5676697674418604,0.2758931222167242,3.344641266699655,9.534374072241466
0.5756651162790697,0.2929045027214249,3.242572983671451,9.474834240475014
0.583660465116279,0.3099158832261255,3.140504700643247,9.415294408708561
0.5916558139534883,0.3269272637308262,3.038436417615043,9.355754576942108
0.5996511627906976,0.3439386442355269,2.936368134586839,9.296214745175655
0.6076465116279068,0.3609500247402273,2.834299851558636,9.236674913409205
0.6156418604651162,0.377961405244928,2.732231568530432,9.177135081642751
0.6236372093023255,0.3949727857496287,2.630163285502228,9.117595249876299
0.6316325581395348,-0.001317829457364121,3.500658914728682,9.297364341085272
0.6396279069767441,-0.0179748062015502,3.5089874031007753,9.2640503875969
0.6476232558139534,-0.034631782945736274,3.517315891472868,9.230736434108529
0.6556186046511627,-0.05128875968992235,3.525644379844961,9.197422480620157
0.663613953488372,-0.06794573643410844,3.533972868217054,9.164108527131784
0.6716093023255814,-0.08460271317829451,3.5423013565891472,9.130794573643412
0.6796046511627906,-0.10125968992248036,3.5506298449612403,9.09748062015504
0.6875999999999999,-0.11791666666666643,3.5589583333333334,9.064166666666667
0.6955953488372092,-0.1345736434108525,3.567286821705426,9.030852713178296
0.7035906976744185,-0.1512306201550386,3.575615310077519,8.997538759689924
0.7115860465116278,-0.16788759689922467,3.5839437984496123,8.964224806201551
0.7195813953488371,-0.18454457364341076,3.5922722868217054,8.930910852713179
0.7275767441860465,-0.6037209302325314,4.003720930232531,8.380930232558175
0.7355720930232557,-1.4238242894056816,4.114263565891478,6.218966408268751
0.743567441860465,-1.5259513742071875,3.968858350951375,5.7325264270613125
0.7515627906976743,-1.571379492600422,3.9143446088794933,5.614413319238902
0.7595581395348836,-1.6168076109936569,3.8598308668076116,5.496300211416492
0.7675534883720929,-1.6622357293868917,3.80531712473573,5.378187103594081
0.7755488372093022,-1.7076638477801265,3.750803382663848,5.260073995771672
0.7835441860465115,-1.7530919661733613,3.6962896405919663,5.141960887949261
0.7915395348837209,-1.798520084566596,3.641775898520085,5.02384778012685
0.7995348837209302,-1.8439482029598309,3.587262156448203,4.90573467230444
0.8075302325581394,-1.889376321353065,3.532748414376322,4.7876215644820315
0.8155255813953487,-1.9348044397462996,3.47823467230444,4.669508456659621
0.823520930232558,-1.9802325581395344,3.423720930232559,4.551395348837211
0.8315162790697673,-3.305377906976743,-0.152165697674411,1.4838662790697699
0.8395116279069766,-3.3886627906976736,-0.9600290697674349,1.234011627906979
0.847506976744186,-3.4719476744186037,-1.767892441860459,0.984156976744188
0.8555023255813953,-3.555232558139534,-2.575755813953483,0.7343023255813972
0.8634976744186045,-3.638517441860463,-3.3836191860464955,0.4844476744186097
0.8714930232558138,-3.7218023255813937,-4.191482558139519,0.23459302325581888
0.8794883720930231,-3.805087209302324,-4.9993459302325425,-0.015261627906971942
0.8874837209302324,-3.8883720930232544,-5.807209302325567,-0.26511627906976276
0.8954790697674417,-3.9716569767441845,-6.615072674418591,-0.5149709302325536
0.903474418604651,-4.054941860465115,-7.422936046511615,-0.7648255813953444
0.9114697674418604,-4.138226744186045,-8.230799418604638,-1.0146802325581352
0.9194651162790697,-4.221511627906975,-9.038662790697662,-1.2645348837209265
0.927460465116279,-4.438139534883685,-9.155348837209468,-1.0855813953489437
0.9354558139534882,-5.2002325581394935,1.9644186046510246,8.046279069767296
0.9434511627906975,-5.829860465116264,1.8529302325581518,8.010883720930243
0.9514465116279068,-6.398418604651149,1.3732093023255927,7.593348837209312
0.9594418604651161,-6.9669767441860335,0.8934883720930338,7.175813953488381
0.9674372093023255,-7.535534883720919,0.41376744186047465,6.75827906976745
0.9754325581395348,-8.104093023255803,-0.06595348837208448,6.3407441860465195
0.9834279069767441,-8.672651162790688,-0.5456744186046434,5.9232093023255885
0.9914232558139533,-9.241209302325565,-1.025395348837196,5.505674418604663
0.9994186046511626,-9.80976744186045,-1.505116279069755,5.088139534883732
1.007413953488372,-10.378325581395334,-1.9848372093023139,4.670604651162801
1.0154093023255812,-10.94688372093022,-2.464558139534873,4.25306976744187
1.0234046511627906,-11.515441860465103,-2.9442790697674326,3.835534883720939
1.0313999999999999,-12.70285714285713,-2.3285714285714385,2.7742857142857265
1.0393953488372092,-15.594761052900576,-1.704472271914128,-0.35223613595706393
1.0473906976744185,-16.288862765141825,-1.9504830053667224,-0.47524150268336113
1.0553860465116278,-16.98296447738307,-2.1964937388193166,-0.5982468694096583
1.0633813953488371,-17.67706618962432,-2.4425044722719114,-0.7212522361359555
1.0713767441860464,-18.37116790186557,-2.6885152057245056,-0.8442576028622526
1.0793720930232558,-19.065269614106818,-2.9345259391771,-0.96726296958855
1.087367441860465,-19.759371326348067,-3.180536672629694,-1.090268336314847
1.0953627906976742,-20.453473038589294,-3.426547406082282,-1.213273703041141
1.1033581395348835,-21.147574750830543,-3.6725581395348765,-1.336279069767438
1.1113534883720928,-21.841676463071792,-3.918568872987471,-1.4592844364937352
1.1193488372093021,-22.53577817531304,-4.164579606440065,-1.5822898032200325
1.1273441860465114,-23.268837209302294,-5.501395348836697,-1.5967441860465597
1.1353395348837207,-22.574302325581403,-8.540377906976733,-1.4
1.14333488372093,-21.674825581395357,-9.564781976744175,-1.4
1.1513302325581394,-20.77534883720931,-10.58918604651162,-1.4
1.1593255813953487,-19.875872093023265,-11.613590116279061,-1.4
1.167320930232558,-14.22944422546315,-11.90053606621996,-0.9933701221915688
1.1753162790697673,-13.822901064249118,-10.098194718171086,-0.5326212061489993
1.1833116279069766,-13.416357903035085,-8.295853370122211,-0.07187229010642993
1.191306976744186,-13.009814741821053,-6.493512022073337,0.3888766259361396
1.1993023255813953,-12.603271580607021,-4.6911706740244625,0.8496255419787089
1.2072976744186046,-12.19672841939299,-2.8888293259755873,1.3103744580212784
1.2152930232558137,-11.790185258178969,-1.0864879779267635,1.771123374063835
1.223288372093023,-11.449069767441944,0.7558139534884927,1.4625581395350404
1.2312837209302323,-10.19328317373461,-1.1985134518923701,0.13954856361150014
1.2392790697674416,-10.169767441860465,-1.5434108527131647,-0.07209302325580552
1.247274418604651,-10.14625170998632,-1.888308253533959,-0.28373461012311124
1.2552697674418603,-10.122735978112175,-2.2332056543547534,-0.49537619699041696
1.2632651162790696,-10.09922024623803,-2.578103055175548,-0.7070177838577227
1.2712604651162789,-10.075704514363885,-2.9230004559963425,-0.9186593707250283
1.2792558139534882,-10.05218878248974,-3.267897856817137,-1.1303009575923342
1.2872511627906975,-10.028673050615595,-3.6127952576379316,-1.3419425444596398
1.2952465116279068,-10.00515731874145,-3.957692658458726,-1.5535841313269454
1.3032418604651161,-9.981641586867305,-4.30259005927952,-1.7652257181942512
1.3112372093023255,-9.95812585499316,-4.647487460100315,-1.976867305061557
1.3192325581395348,-9.934610123119015,-4.99238486092111,-2.1885088919288624
1.327227906976744,-9.91109439124487,-5.337282261741905,-2.400150478796168
1.3352232558139534,-8.293493320138547,-7.602602671944581,-3.894794656110837
1.3432186046511627,-8.250964868876794,-7.619614052449282,-3.8607718951014354
1.3512139534883718,-8.208436417615044,-7.636625432953982,-3.8267491340920348
1.3592093023255811,-8.165907966353293,-7.653636813458683,-3.7927263730826337
1.3672046511627904,-8.12337951509154,-7.670648193963384,-3.7587036120732322
1.3751999999999998,-8.080851063829789,-7.687659574468085,-3.7246808510638307
1.383195348837209,-8.038322612568036,-7.704670954972785,-3.6906580900544297
1.3911906976744184,-7.995794161306286,-7.721682335477485,-3.656635329045028
1.3991860465116277,-7.953265710044533,-7.738693715982186,-3.6226125680356267
1.407181395348837,-7.910737258782782,-7.755705096486887,-3.588589807026225
1.4151767441860463,-7.86820880752103,-7.7727164769915875,-3.5545670460168237
1.4231720930232556,-7.825680356259278,-7.789727857496288,-3.5205442850074227
1.431167441860465,-7.958372093023251,-6.770581395348867,-2.3122093023256163
1.4391627906976743,-8.706976744186017,-5.193023255813984,-0.5093023255814173
1.4471581395348836,-9.657958960328315,-3.834796169630645,0.05795896032831563
1.455153488372093,-9.73320930232558,-3.7501395348837225,0.13320930232557981
1.4631488372093022,-9.808459644322843,-3.6654829001368006,0.20845964432284397
1.4711441860465113,-9.883709986320106,-3.580826265389881,0.2837099863201061
1.4791395348837206,-9.95896032831737,-3.4961696306429584,0.35896032831737024
1.48713488372093,-10.034210670314634,-3.4115129958960364,0.4342106703146344
1.4951302325581393,-10.109461012311899,-3.326856361149114,0.5094610123118986
1.5031255813953486,-10.184711354309163,-3.242199726402192,0.5847113543091628
1.511120930232558,-10.259961696306426,-3.1575430916552696,0.659961696306427
1.5191162790697672,-10.335212038303691,-3.0728864569083476,0.7352120383036911
1.5271116279069765,-10.42223255813953,-2.9925891472868233,0.7925891472868234
1.5351069767441858,-10.582139534883718,-2.9392868217054273,0.7392868217054275
1.5431023255813952,-10.8,-2.9,0.3693023255814363
1.5510976744186045,-10.791344299489507,-2.9,0.04806579693704069
1.5590930232558138,-10.781593874078276,-2.9,-0.010436755530344635
1.567088372093023,-10.771843448667045,-2.9,-0.06893930799772999
1.5750837209302324,-10.762093023255813,-2.9,-0.1274418604651153
1.5830790697674417,-10.752342597844583,-2.9,-0.18594441293250066
1.591074418604651,-10.742592172433353,-2.9,-0.244446965399886
1.5990697674418604,-10.732841747022121,-2.9,-0.3029495178672713
1.6070651162790694,-10.723091321610891,-2.9,-0.361452070334655
1.6150604651162788,-10.713340896199659,-2.9,-0.41995462280204043
1.623055813953488,-10.703590470788429,-2.9,-0.47845717526942577
1.6310511627906974,-9.699569155446758,-2.69989228886169,-0.3998922888616897
1.6390465116279067,-9.632239902080785,-2.6830599755201967,-0.38305997552019644
1.647041860465116,-9.564910648714811,-2.666227662178703,-0.3662276621787031
1.6550372093023253,-9.497581395348838,-2.64939534883721,-0.3493953488372098
1.6630325581395347,-9.430252141982866,-2.632563035495717,-0.33256303549571653
1.671027906976744,-9.362922888616893,-2.615730722154223,-0.3157307221542232
1.6790232558139533,-9.295593635250919,-2.59889840881273,-0.2988984088127299
1.6870186046511626,-9.228264381884946,-2.582066095471237,-0.2820660954712366
1.695013953488372,-9.160935128518974,-2.5652337821297433,-0.26523378212974336
1.7030093023255812,-9.093605875153001,-2.54840146878825,-0.24840146878825
1.7110046511627905,-9.026276621787026,-2.5315691554467565,-0.2315691554467567
1.7189999999999999,-8.958947368421054,-2.5147368421052634,-0.21473684210526342
1.726995348837209,-8.88009302325582,-2.519906976744179,-0.1601860465116419
1.7349906976744183,-8.600930232558182,-2.4004651162790913,0.0
1.7429860465116276,-8.591224124712497,-2.4,-0.008775875287502736
1.750981395348837,-8.58243802708919,-2.4,-0.017561972910809676
1.7589767441860462,-8.573651929465884,-2.4,-0.02634807053411662
1.7669720930232555,-8.564865831842576,-2.4,-0.03513416815742356
1.7749674418604648,-8.556079734219269,-2.4,-0.0439202657807305
1.7829627906976742,-8.547293636595962,-2.4,-0.05270636340403745
1.7909581395348835,-8.538507538972656,-2.4,-0.06149246102734439
1.7989534883720928,-8.529721441349349,-2.4,-0.07027855865065133
1.806948837209302,-8.520935343726041,-2.4,-0.07906465627395827
1.8149441860465114,-8.512149246102735,-2.4,-0.08785075389726521
1.8229395348837207,-8.503363148479428,-2.4,-0.09663685152057215
1.83093488372093,-8.991937984496124,-2.4,-0.5020155038759688
1.8389302325581394,-8.958624031007753,-2.4,-0.5103439922480618
1.8469255813953487,-8.92531007751938,-2.4,-0.5186724806201549
1.854920930232558,-8.891996124031008,-2.4,-0.5270009689922479
1.862916279069767,-8.858682170542638,-2.4,-0.5353294573643407
1.8709116279069764,-8.825368217054265,-2.4,-0.5436579457364338
1.8789069767441857,-8.792054263565893,-2.4,-0.5519864341085268
1.886902325581395,-8.75874031007752,-2.4,-0.5603149224806198
1.8948976744186043,-8.725426356589148,-2.4,-0.5686434108527129
1.9028930232558137,-8.692112403100776,-2.4,-0.5769718992248059
1.910888372093023,-8.658798449612403,-2.4,-0.5853003875968988
1.9188837209302323,-8.625484496124033,-2.4,-0.5936288759689919
1.9268790697674416,-8.651247357293862,-2.434164904862574,-0.5829175475687128
1.934874418604651,-8.86930232558139,-2.579534883720927,-0.5102325581395366
1.9428697674418602,-9.77750135208221,-2.7955002704164413,-0.6955002704164416
1.9508651162790696,-9.731016765819364,-2.7862033531638724,-0.6862033531638726
1.9588604651162789,-9.68453217955652,-2.7769064359113034,-0.6769064359113036
1.9668558139534882,-9.638047593293674,-2.767609518658735,-0.6676095186587346
1.9748511627906975,-9.59156300703083,-2.758312601406166,-0.6583126014061657
1.9828465116279066,-9.545078420767986,-2.749015684153597,-0.6490156841535969
1.990841860465116,-9.49859383450514,-2.739718766901028,-0.6397187669010279
1.9988372093023252,-9.452109248242296,-2.730421849648459,-0.6304218496484589
2.0068325581395348,-9.405624661979449,-2.72112493239589,-0.6211249323958897
2.014827906976744,-9.359140075716606,-2.711828015143321,-0.611828015143321
2.0228232558139534,-9.312655489453759,-2.702531097890752,-0.6025310978907518
2.0308186046511625,-8.912093023255824,-2.764651162790696,-0.470697674418608
2.038813953488372,-8.706549051055868,-2.800935578722267,-0.3990644212777331
2.046809302325581,-8.770879443998929,-2.81012563485699,-0.38987436514301005
2.05480465116279,-8.83520983694199,-2.8193156909917128,-0.380684309008287
2.0627999999999997,-8.899540229885057,-2.8285057471264365,-0.37149425287356336
2.070795348837209,-8.963870622828118,-2.8376958032611594,-0.3623041967388403
2.0787906976744184,-9.028201015771183,-2.8468858593958832,-0.3531141406041167
2.0867860465116275,-9.092531408714244,-2.856075915530606,-0.3439240844693936
2.094781395348837,-9.15686180165731,-2.86526597166533,-0.33473402833467003
2.102776744186046,-9.221192194600372,-2.874456027800053,-0.32554397219994696
2.1107720930232556,-9.285522587543436,-2.8836460839347766,-0.31635391606522334
2.1187674418604647,-9.349852980486498,-2.8928361400694995,-0.30716385993050027
2.1267627906976743,-9.517519379844947,-2.958759689922473,-0.3587596899224733
2.1347581395348834,-9.31036544850499,-2.7103654485049904,-0.20691029900332683
2.142753488372093,-9.837935088167646,-2.5,-0.4
2.150748837209302,-9.890651673907486,-2.5,-0.4
2.1587441860465115,-9.943368259647329,-2.5,-0.4
2.1667395348837206,-9.99608484538717,-2.5,-0.4
2.17473488372093,-10.048801431127012,-2.5,-0.4
2.1827302325581392,-10.101518016866851,-2.5,-0.4
2.1907255813953483,-10.154234602606692,-2.5,-0.4
2.198720930232558,-10.206951188346535,-2.5,-0.4
2.206716279069767,-10.259667774086376,-2.5,-0.4
2.2147116279069765,-10.312384359826218,-2.5,-0.4
2.2227069767441856,-10.365100945566057,-2.5,-0.4
2.230702325581395,-10.28418604651164,-2.5386046511627867,-0.43860465116278663
2.2386976744186042,-10.098396150761829,-2.701603849238171,-0.7
2.2466930232558138,-10.080016038492381,-2.719983961507618,-0.7
2.254688372093023,-10.061635926222936,-2.7383640737770643,-0.7
2.2626837209302324,-10.043255813953488,-2.7567441860465114,-0.7
2.2706790697674415,-10.024875701684042,-2.775124298315957,-0.7
2.278674418604651,-10.006495589414595,-2.7935044105854043,-0.7
2.28666976744186,-9.988115477145149,-2.8118845228548506,-0.7
2.2946651162790697,-9.969735364875703,-2.8302646351242977,-0.7
2.3026604651162788,-9.951355252606255,-2.848644747393744,-0.7
2.310655813953488,-9.93297514033681,-2.86702485966319,-0.7
2.3186511627906974,-9.914595028067364,-2.8854049719326373,-0.7
2.3266465116279065,-9.864206268958558,-2.9,-0.6785237613751349
2.334641860465116,-9.69039433771487,-2.9,-0.5742366026289221
2.342637209302325,-9.516582406471192,-2.9,-0.4699494438827152
2.3506325581395346,-9.273488372093075,-2.1469767441861496,-0.6
2.3586279069767437,-9.230511627906974,-2.0,-0.6
2.3666232558139533,-9.262493023255812,-2.0,-0.6
2.3746186046511624,-9.294474418604649,-2.0,-0.6
2.382613953488372,-9.326455813953487,-2.0,-0.6
2.390609302325581,-9.358437209302323,-2.0,-0.6
2.3986046511627905,-9.390418604651162,-2.0,-0.6
2.4065999999999996,-9.422399999999998,-2.0,-0.6
2.414595348837209,-9.454381395348836,-2.0,-0.6
2.4225906976744183,-9.486362790697672,-2.0,-0.6
2.4305860465116274,-10.582790697674548,-1.4120930232559115,-0.8879069767440885
2.438581395348837,-10.087866531850354,-0.8939332659251772,-1.4182002022244686
2.446576744186046,-10.070485338725986,-0.8852426693629933,-1.4442719919110198
2.4545720930232555,-10.053104145601617,-0.876552072800809,-1.4703437815975728
2.4625674418604646,-10.03572295247725,-0.8678614762386253,-1.496415571284124
2.470562790697674,-10.018341759352882,-0.859170879676441,-1.522487360970677
2.4785581395348832,-10.000960566228514,-0.8504802831142573,-1.5485591506572283
2.486553488372093,-9.983579373104146,-0.841789686552073,-1.574630940343781
2.494548837209302,-9.966198179979779,-0.8330990899898891,-1.6007027300303325
2.5025441860465114,-9.94881698685541,-0.824408493427705,-1.6267745197168852
2.5105395348837205,-9.931435793731042,-0.8157178968655211,-1.6528463094034367
2.51853488372093,-9.914054600606674,-0.8070273003033368,-1.6789180990899895
2.526530232558139,-9.266046511628048,-0.9093023255813713,-1.5906976744186287
2.5345255813953487,-7.483953488372081,-2.3365116279069613,-0.7686046511627993
2.5425209302325578,-8.00732688790175,-3.029307551607001,-0.370692448392999
2.5505162790697673,-8.016310425921088,-3.065241703684347,-0.33475829631565274
2.5585116279069764,-8.025293963940422,-3.1011758557616913,-0.29882414423830844
2.5665069767441855,-8.034277501959759,-3.137110007839036,-0.2628899921609642
2.574502325581395,-8.043261039979095,-3.173044159916382,-0.22695584008361797
2.582497674418604,-8.052244577998431,-3.208978311993726,-0.1910216880062737
2.5904930232558137,-8.061228116017768,-3.2449124640710725,-0.15508753592892746
2.5984883720930227,-8.070211654037104,-3.2808466161484167,-0.1191533838515832
2.6064837209302323,-8.07919519205644,-3.316780768225763,-0.08321923177423696
2.6144790697674414,-8.088178730075777,-3.3527149203031072,-0.04728507969689266
2.622474418604651,-8.097162268095113,-3.3886490723804537,-0.011350927619546425
2.63046976744186,-8.71534883720925,-3.19488372093025,-0.13674418604650007
2.6384651162790695,-9.402801268498942,-1.9831923890063448,-0.4
2.6464604651162786,-9.41188689217759,-1.9286786469344648,-0.4
2.654455813953488,-9.420972515856237,-1.8741649048625815,-0.4
2.6624511627906973,-9.430058139534884,-1.8196511627907015,-0.4
2.670446511627907,-9.439143763213531,-1.7651374207188182,-0.4
2.678441860465116,-9.448229386892177,-1.7106236786469382,-0.4
2.6864372093023254,-9.457315010570824,-1.656109936575055,-0.4
2.6944325581395345,-9.46640063424947,-1.6015961945031747,-0.4
2.7024279069767436,-9.475486257928118,-1.5470824524312947,-0.4
2.710423255813953,-9.484571881606765,-1.4925687103594116,-0.4
2.7184186046511623,-9.49365750528541,-1.4380549682875312,-0.4
2.726413953488372,-10.143720930232496,-0.836744186046567,-0.4
2.734409302325581,-9.513924112607098,-1.01856548347613,-0.10464137086903252
2.7424046511627904,-9.539172582619338,-1.0522301101591176,-0.11305752753977939
2.7503999999999995,-9.564421052631577,-1.085894736842103,-0.12147368421052579
2.758395348837209,-9.589669522643819,-1.1195593635250904,-0.12988984088127264
2.766390697674418,-9.614917992656057,-1.153223990208076,-0.13830599755201906
2.7743860465116277,-9.640166462668297,-1.1868886168910635,-0.1467221542227659
2.7823813953488368,-9.665414932680537,-1.2205532435740492,-0.15513831089351232
2.7903767441860463,-9.690663402692778,-1.2542178702570366,-0.16355446756425918
2.7983720930232554,-9.715911872705018,-1.2878824969400222,-0.1719706242350056
2.806367441860465,-9.741160342717258,-1.3215471236230096,-0.18038678090575244
2.814362790697674,-9.766408812729496,-1.3552117503059953,-0.18880293757649885
2.822358139534883,-9.791657282741737,-1.3888763769889807,-0.19721909424724524
2.8303534883720927,-9.353875968992277,-1.4892248062015447,-0.02155038759691072
2.8383488372093018,-9.9,-1.6047789419882437,-0.2
2.8463441860465113,-9.9,-1.6135650396115508,-0.2
2.8543395348837204,-9.9,-1.6223511372348576,-0.2
2.86233488372093,-9.9,-1.6311372348581648,-0.2
2.870330232558139,-9.9,-1.6399233324814715,-0.2
2.8783255813953486,-9.9,-1.6487094301047787,-0.2
2.8863209302325576,-9.9,-1.6574955277280854,-0.2
2.894316279069767,-9.9,-1.6662816253513926,-0.2
2.9023116279069763,-9.9,-1.6750677229746993,-0.2
2.910306976744186,-9.9,-1.6838538205980065,-0.2
2.918302325581395,-9.9,-1.6926399182213132,-0.2
2.9262976744186044,-9.943255813953487,-1.5702325581395427,-0.28651162790697154
2.9342930232558135,-9.521019297377533,-1.703503216229589,-0.30700643245917764
2.9422883720930226,-9.572053438891633,-1.7120089064819388,-0.3240178129638779
2.950283720930232,-9.623087580405738,-1.7205145967342894,-0.341029193468579
2.9582790697674413,-9.674121721919837,-1.7290202869866396,-0.35804057397327926
2.966274418604651,-9.72515586343394,-1.7375259772389902,-0.3750519544779804
2.97426976744186,-9.776190004948042,-1.7460316674913403,-0.39206333498268064
2.9822651162790694,-9.827224146462145,-1.754537357743691,-0.40907471548738183
2.9902604651162785,-9.878258287976246,-1.763043047996041,-0.426086095992082
2.998255813953488,-9.92929242949035,-1.7715487382483917,-0.4430974764967832
3.006251162790697,-9.98032657100445,-1.7800544285007418,-0.4601088570014834
3.0142465116279067,-10.031360712518554,-1.7885601187530924,-0.4771202375061846
3.022241860465116,-10.082394854032653,-1.7970658090054425,-0.4941316180108848
3.0302372093023253,-9.875548172757487,-1.8,-0.4251827242524955
3.0382325581395344,-10.126976744186036,-1.6153488372093099,-0.542325581395345
3.046227906976744,-10.297249497559577,-1.5,-0.6
3.054223255813953,-10.287378696525984,-1.5,-0.6
3.0622186046511626,-10.277507895492393,-1.5,-0.6
3.0702139534883717,-10.2676370944588,-1.5,-0.6
3.0782093023255808,-10.25776629342521,-1.5,-0.6
3.0862046511627903,-10.247895492391617,-1.5,-0.6
3.0941999999999994,-10.238024691358024,-1.5,-0.6
3.102195348837209,-10.228153890324434,-1.5,-0.6
3.110190697674418,-10.218283089290841,-1.5,-0.6
3.1181860465116276,-10.20841228825725,-1.5,-0.6
3.1261813953488367,-10.121240310077559,-1.5,-0.6
3.134176744186046,-9.993646511627908,-1.7968232558139536,-0.7968232558139536
3.1421720930232553,-9.97765581395349,-1.7888279069767445,-0.7888279069767445
3.150167441860465,-9.96166511627907,-1.780832558139535,-0.780832558139535
3.158162790697674,-9.945674418604652,-1.772837209302326,-0.7728372093023259
3.1661581395348835,-9.929683720930234,-1.7648418604651164,-0.7648418604651164
3.1741534883720925,-9.913693023255815,-1.7568465116279073,-0.7568465116279073
3.182148837209302,-9.897702325581395,-1.7488511627906977,-0.7488511627906977
3.190144186046511,-9.881711627906977,-1.7408558139534887,-0.7408558139534887
3.1981395348837207,-9.865720930232559,-1.7328604651162791,-0.7328604651162791
3.20613488372093,-9.84973023255814,-1.72486511627907,-0.72486511627907
3.214130232558139,-9.833739534883723,-1.716869767441861,-0.7168697674418609
3.2221255813953484,-9.817748837209303,-1.7088744186046514,-0.7088744186046514
3.2301209302325575,-9.801758139534886,-1.7008790697674423,-0.7008790697674423
3.238116279069767,-10.223643410852755,-1.864728682170551,-0.7647286821705511
3.246111627906976,-9.885138694312134,-1.8,-0.6900924628747562
3.2541069767441857,-9.856239843093306,-1.8,-0.6708265620622031
3.262102325581395,-9.827340991874477,-1.8,-0.6515606612496512
3.2700976744186043,-9.798442140655647,-1.8,-0.6322947604370981
3.2780930232558134,-9.76954328943682,-1.8,-0.6130288596245461
3.286088372093023,-9.74064443821799,-1.8,-0.593762958811993
3.294083720930232,-9.711745586999161,-1.8,-0.5744970579994411
3.3020790697674416,-9.682846735780332,-1.8,-0.555231157186888
3.3100744186046507,-9.653947884561504,-1.8,-0.535965256374336
3.31806976744186,-9.625049033342675,-1.8,-0.516699355561783
3.3260651162790693,-9.635503875968974,-1.764496124031025,-0.5
3.3340604651162784,-9.496744186046513,-1.7,-0.3967441860465123
3.342055813953488,-9.488238495794162,-1.7,-0.3882384957941617
3.350051162790697,-9.479732805541811,-1.7,-0.3797328055418116
3.3580465116279066,-9.47122711528946,-1.7,-0.371227115289461
3.3660418604651157,-9.462721425037111,-1.7,-0.3627214250371109
3.374037209302325,-9.45421573478476,-1.7,-0.3542157347847603
3.3820325581395343,-9.44571004453241,-1.7,-0.3457100445324102
3.390027906976744,-9.437204354280059,-1.7,-0.3372043542800596
3.398023255813953,-9.42869866402771,-1.7,-0.32869866402770953
3.4060186046511625,-9.42019297377536,-1.7,-0.32019297377535894
3.4140139534883716,-9.411687283523008,-1.7,-0.3116872835230088
3.422009302325581,-9.40318159327066,-1.7,-0.3031815932706582
3.43000465116279,-9.47149501661129,-1.7,-0.22850498338871028
3.4379999999999997,-9.559999999999997,-1.7,-0.2
3.445995348837209,-9.5,-1.8,-0.1
3.453990697674418,-9.5,-1.8,-0.1
3.4619860465116274,-9.5,-1.8,-0.1
3.4699813953488365,-9.5,-1.8,-0.1
3.477976744186046,-9.5,-1.8,-0.1
3.485972093023255,-9.5,-1.8,-0.1
3.4939674418604647,-9.5,-1.8,-0.1
3.501962790697674,-9.5,-1.8,-0.1
3.5099581395348833,-9.5,-1.8,-0.1
3.5179534883720924,-9.5,-1.8,-0.1
3.525948837209302,-9.5,-1.8649612403100673,-0.0025581395348991953
3.533944186046511,-9.393660262891812,-2.0,0.3063397371081881
3.5419395348837206,-9.36758847320526,-2.0,0.33241152679474095
3.5499348837209297,-9.341516683518709,-2.0,0.35848331648129234
3.5579302325581392,-9.315444893832154,-2.0,0.38455510616784516
3.5659255813953483,-9.289373104145604,-2.0,0.4106268958543965
3.573920930232558,-9.263301314459051,-2.0,0.4366986855409493
3.581916279069767,-9.237229524772498,-2.0,0.4627704752275007
3.589911627906976,-9.211157735085948,-2.0,0.488842264914052
3.5979069767441856,-9.185085945399395,-2.0,0.5149140546006048
3.6059023255813947,-9.159014155712844,-2.0,0.5409858442871562
3.613897674418604,-9.13294236602629,-2.0,0.567057633973709
3.6218930232558133,-9.10687057633974,-2.0,0.5931294236602604
3.629888372093023,-8.9317607973422,-2.0841196013289003,0.7682392026578002
3.637883720930232,-8.589297040169138,-2.0064217758985174,0.8064217758985176
3.6458790697674415,-8.543868921775902,-2.033678646934459,0.8336786469344591
3.6538744186046506,-8.498440803382667,-2.060935517970399,0.8609355179703992
3.66186976744186,-8.453012684989432,-2.0881923890063407,0.8881923890063408
3.669865116279069,-8.407584566596197,-2.115449260042281,0.9154492600422809
3.6778604651162787,-8.362156448202962,-2.1427061310782225,0.9427061310782225
3.685855813953488,-8.31672832980973,-2.1699630021141623,0.9699630021141625
3.6938511627906974,-8.271300211416493,-2.197219873150104,0.9972198731501041
3.7018465116279065,-8.22587209302326,-2.224476744186044,1.0244767441860443
3.709841860465116,-8.180443974630023,-2.2517336152219856,1.0517336152219858
3.717837209302325,-8.135015856236791,-2.2789904862579258,1.0789904862579258
3.725832558139534,-7.733488372093164,-2.208372093023291,1.7413953488369636
3.7338279069767437,-8.069592398099529,-2.8969592398099526,1.8182445611402829
3.741823255813953,-7.983620905226312,-2.888362090522631,1.8698274568642126
3.7498186046511623,-7.897649412353092,-2.879764941235309,1.921410352588145
3.7578139534883714,-7.811677919479875,-2.8711677919479874,1.9729932483120747
3.765809302325581,-7.725706426606655,-2.8625706426606654,2.0245761440360073
3.77380465116279,-7.639734933733438,-2.853973493373344,2.0761590397599368
3.7817999999999996,-7.553763440860218,-2.845376344086022,2.1277419354838694
3.7897953488372087,-7.467791947987001,-2.8367791947987,2.179324831207799
3.7977906976744182,-7.381820455113781,-2.8281820455113778,2.2309077269317314
3.8057860465116273,-7.295848962240564,-2.819584896224056,2.282490622655661
3.813781395348837,-7.209877469367344,-2.810987746936734,2.3340735183795935
3.821776744186046,-7.123905976494127,-2.8023905976494126,2.385656414103523
3.8297720930232555,-7.065017618040875,-2.7825088090204373,2.3825088090204374
3.8377674418604646,-7.016560958421427,-2.7582804792107134,2.358280479210713
3.8457627906976737,-6.968104298801978,-2.734052149400989,2.334052149400989
3.853758139534883,-6.919647639182528,-2.709823819591264,2.3098238195912635
3.8617534883720923,-7.454573643410752,-3.2017571059430616,2.484857881136917
3.869748837209302,-8.38736434108521,-4.045710594315189,2.7957881136950693
3.877744186046511,-8.032558139534872,-4.020930232558133,3.632558139534873
3.8857395348837205,-8.181804651162784,-4.116874418604647,3.781804651162784
3.8937348837209296,-8.331051162790686,-4.212818604651156,3.931051162790687
3.901730232558139,-8.480297674418598,-4.30876279069767,4.080297674418597
3.909725581395348,-8.6295441860465,-4.404706976744179,4.229544186046501
3.9177209302325577,-8.778790697674411,-4.500651162790693,4.378790697674411
3.925716279069767,-8.928037209302314,-4.596595348837202,4.5280372093023145
3.9337116279069764,-9.077283720930225,-4.692539534883716,4.677283720930225
3.9417069767441855,-9.226530232558128,-4.788483720930225,4.826530232558127
3.949702325581395,-9.37577674418604,-4.88442790697674,4.975776744186039
3.957697674418604,-17.26511627906828,-12.137209302324733,6.8151162790698026
3.965693023255813,-18.37789992952778,-12.057068357998643,6.461973220577913
3.9736883720930227,-18.87458069062716,-11.596730091613852,6.110662438336886
3.981683720930232,-19.371261451726514,-11.136391825229085,5.75935165609588
3.9896790697674414,-19.867942212825895,-10.676053558844291,5.408040873854854
3.9976744186046504,-20.36462297392525,-10.215715292459524,5.056730091613848
4.0056697674418595,-20.861303735024602,-9.755377026074758,4.705419309372841
4.0136651162790695,-21.35798449612401,-9.29503875968994,4.354108527131796
4.021660465116279,-21.854665257223367,-8.83470049330517,4.002797744890789
4.029655813953488,-22.345581395352184,1.3051162790676947,-5.0232558139503
4.037651162790697,-20.47674418604657,2.1104651162790824,-6.448837209302319
4.045646511627907,-20.034448292924314,2.0169025235032203,-6.499871350816425
4.053641860465116,-19.592152399802103,1.9233399307273689,-6.550905492330527
4.061637209302325,-19.149856506679896,1.829777337951517,-6.601939633844627
4.069632558139534,-18.70756061355769,1.7362147451756655,-6.652973775358729
4.077627906976744,-18.265264720435432,1.6426521523998034,-6.704007916872834
4.085623255813953,-17.822968827313225,1.5490895596239516,-6.755042058386936
4.093618604651162,-17.38067293419102,1.4555269668481001,-6.806076199901036
4.101613953488371,-16.938377041068808,1.3619643740722482,-6.8571103414151375
4.10960930232558,-16.4960811479466,1.2684017812963966,-6.908144482929238
4.11760465116279,-16.053785254824344,1.1748391885205345,-6.959178624443345
4.1255999999999995,-10.980000000002097,2.9399999999991833,-8.199999999999466
4.133595348837209,7.253488372092967,-8.956279069767604,26.191627906976745
4.141590697674418,7.726331582895655,-7.589332333083468,26.165836459114782
4.149586046511628,8.199174793698397,-6.222385596399181,26.140045011252813
4.157581395348837,8.672018004501085,-4.855438859715045,26.11425356339085
4.165576744186046,9.144861215303774,-3.488492123030909,26.088462115528884
4.173572093023255,9.617704426106462,-2.1215453863467735,26.062670667666918
4.181567441860465,10.090547636909204,-0.7545986496624852,26.036879219804952
4.189562790697674,10.56339084771189,0.6123480870216493,26.011087771942986
4.197558139534883,11.03623405851458,1.9792948237057857,25.985296324081023
4.205553488372092,11.509077269317267,3.346241560389922,25.959504876219057
4.213548837209302,11.981920480120008,4.713188297074209,25.933713428357088
4.221544186046511,12.454763690922697,6.080135033758344,25.907921980495125
4.22953953488372,18.82127906976808,10.452558139535343,5.013178294573516
4.2375348837209295,5.429069767443361,0.8581395348847956,7.678294573643113
4.2455302325581386,7.938116846284721,4.923210436755557,5.951389676687502
4.2535255813953485,8.181877481565511,4.611196823596146,5.512620533182081
4.261520930232558,8.425638116846274,4.2991832104367695,5.073851389676707
4.269516279069767,8.669398752127037,3.9871695972773926,4.635082246171335
4.277511627906976,8.9131593874078,3.6751559841180166,4.196313102665961
4.285506976744186,9.15692002268859,3.3631423709586055,3.757543959160539
4.293502325581395,9.400680657969353,3.051128757799229,3.318774815655166
4.301497674418604,9.644441293250116,2.7391151446398525,2.880005672149793
4.309493023255813,9.88820192853088,2.427101531480476,2.4412365286444198
4.317488372093023,10.131962563811669,2.1150879183210654,2.0024673851389982
4.325483720930232,7.692093023256378,0.24418604651198583,0.5409302325583902
4.333479069767441,2.497367748530544,-2.902632251469456,-5.907370304114478
4.34147441860465,2.4534372604140104,-2.9465627395859895,-6.030375670840772
4.34946976744186,2.409506772297472,-2.990493227702528,-6.153381037567079
4.357465116279069,2.3655762841809387,-3.0344237158190612,-6.276386404293372
4.3654604651162785,2.3216457960644052,-3.0783542039355947,-6.3993917710196655
4.373455813953488,2.277715307947872,-3.122284692052128,-6.522397137745958
4.381451162790697,2.2337848198313384,-3.1662151801686615,-6.645402504472252
4.389446511627907,2.1898543317148,-3.2101456682852,-6.768407871198559
4.397441860465116,2.1459238435982666,-3.254076156401733,-6.891413237924853
4.405437209302325,2.1019933554817336,-3.2980066445182663,-7.014418604651146
4.413432558139534,2.0580628673652,-3.3419371326347997,-7.13742397137744
4.421427906976744,2.014132379248662,-3.385867620751338,-7.260429338103747
4.429423255813953,4.199534883720875,-1.8293023255814815,-8.212558139534679
4.437418604651162,8.28417593528796,-5.035060667340516,-7.194287158746124
4.445413953488371,11.013023255813682,-8.050697674418306,-8.289302325581287
4.453409302325581,13.741870576339709,-11.06633468149643,-9.38431749241657
4.46140465116279,16.47071789686543,-14.081971688574221,-10.479332659251734
4.469399999999999,19.199565217391154,-17.09760869565201,-11.574347826086896
4.4773953488372085,21.928412537916877,-20.1132457027298,-12.66936299292206
4.485390697674418,24.6572598584426,-23.128882709807588,-13.764378159757221
4.4933860465116275,27.38610717896863,-26.144519716885714,-14.859393326592507
4.501381395348837,30.11495449949435,-29.160156723963503,-15.95440849342767
4.509376744186046,32.84380182002007,-32.175793731041296,-17.049423660262832
4.517372093023255,35.57264914054579,-35.19143073811908,-18.144438827097993
4.525367441860465,38.30149646107182,-38.20706774519721,-19.23945399393328
4.533362790697674,-12.408488372089487,-10.700348837212715,-4.748604651162126
4.541358139534883,-3.0471760797342577,-10.640996677740924,-0.3299003322259255
4.549353488372092,-2.222259136212693,-9.359202657807415,-0.0760797342192901
4.557348837209302,-1.397342192691036,-8.077408637873763,0.17774086378737353
4.565344186046511,-0.5724252491694712,-6.795614617940255,0.4315614617940089
4.57333953488372,0.25249169435209406,-5.513820598006745,0.6853820598006444
4.581334883720929,1.0774086378736594,-4.232026578073237,0.9392026578072799
4.589330232558139,1.9023255813953157,-2.950232558139586,1.1930232558139433
4.597325581395348,2.7272425249168806,-1.6684385382060771,1.4468438538205788
4.6053209302325575,3.342465116279021,3.0878604651157855,1.3103720930232767
4.613316279069767,3.2041860465133776,-4.0846511627899815,-1.1111627906966408
4.621311627906976,1.6865841689780259,-4.310940900362755,-1.9463366759121041
4.629306976744186,1.6719138041391086,-3.8855003200341502,-1.8876552165564344
4.637302325581395,1.657243439300193,-3.460059739705593,-1.8289737572007714
4.645297674418604,1.642573074461277,-3.0346191593770353,-1.7702922978451083
4.653293023255813,1.6279027096223613,-2.609178579048478,-1.7116108384894453
4.661288372093023,1.6132323447834438,-2.1837379987198737,-1.6529293791337758
4.669283720930232,1.598561979944528,-1.758297418391316,-1.5942479197781125
4.677279069767441,1.5838916151056124,-1.3328568380627588,-1.5355664604224495
4.68527441860465,1.5692212502666967,-0.9074162577342015,-1.4768850010667864
4.69326976744186,1.5545508854277792,-0.48197567740559677,-1.418203541711117
4.701265116279069,1.5398805205888635,-0.056535097077039964,-1.3595220823554537
4.709260465116278,1.5252101557499476,0.36890548325151773,-1.3008406229997906
4.7172558139534875,1.5105397909110319,0.7943460635800754,-1.2421591636441276
4.7252511627906975,2.1472093023255567,2.1974418604650747,-0.6090697674418827
4.7332465116279065,4.399069767441758,3.801860465116484,-0.2232558139532962
4.741241860465116,4.683313438979206,3.355138917472735,-0.6064087260753236
4.749237209302325,4.775295328256832,3.3056102078617053,-0.6134842560197563
4.757232558139534,4.8672772175344585,3.256081498250676,-0.6205597859641891
4.765227906976744,4.9592591068120955,3.2065527886396405,-0.6276353159086228
4.773223255813953,5.051240996089722,3.157024079028611,-0.6347108458530555
4.781218604651162,5.143222885367348,3.1074953694175815,-0.6417863757974883
4.789213953488371,5.235204774644975,3.057966659806552,-0.6488619057419212
4.797209302325581,5.327186663922611,3.0084379501955167,-0.6559374356863547
4.80520465116279,5.419168553200238,2.9589092405844872,-0.6630129656307875
4.813199999999999,5.511150442477865,2.9093805309734577,-0.6700884955752203
4.821195348837208,5.603132331755491,2.859851821362428,-0.677164025519653
4.829190697674418,5.695114221033127,2.8103231117513934,-0.6842395554640867
4.837186046511627,5.787096110310754,2.7607944021403634,-0.6913150854085195
4.8451813953488365,5.879077999588381,2.711265692529334,-0.6983906153529522
4.853176744186046,7.532890365448171,-0.30604651162744,-0.7798671096344514
4.861172093023255,5.654919499105601,-3.992787119856896,-2.896393559928448
4.869167441860465,5.3474060822898295,-3.943584973166373,-2.8717924865831863
4.877162790697674,5.039892665474093,-3.8943828264758547,-2.8471914132379275
4.885158139534883,4.732379248658356,-3.845180679785337,-2.8225903398926686
4.893153488372092,4.424865831842619,-3.7959785330948193,-2.7979892665474098
4.901148837209302,4.117352415026849,-3.7467763864042958,-2.773388193202148
4.909144186046511,3.809838998211112,-3.697574239713778,-2.748787119856889
4.91713953488372,3.5023255813953753,-3.64837209302326,-2.72418604651163
4.925134883720929,2.923488372094696,-3.7011627906970626,-2.5583720930241127
4.933130232558139,-4.4707822410147555,-36.31961945031724,-8.566215644820256
4.941125581395348,-4.971501057082399,-35.0435940803384,-9.034630021141599
4.949120930232557,-5.472219873150043,-33.76756871035957,-9.503044397462943
4.9571162790697665,-5.972938689217687,-32.49154334038074,-9.971458773784287
4.9651116279069765,-6.473657505285385,-31.21551797040176,-10.439873150105683
4.973106976744186,-6.974376321353029,-29.939492600422927,-10.908287526427028
4.981102325581395,-7.475095137420673,-28.66346723044409,-11.376701902748371
4.989097674418604,-7.975813953488316,-27.38744186046526,-11.845116279069716
4.997093023255813,-8.47653276955596,-26.111416490486423,-12.313530655391059
5.005088372093023,-8.977251585623659,-24.83539112050745,-12.781945031712457
5.013083720930232,-9.477970401691302,-23.559365750528613,-13.2503594080338
5.021079069767441,-9.978689217758946,-22.28334038054978,-13.718773784355143
5.02907441860465,-10.47940803382659,-21.00731501057095,-14.187188160676488
5.03706976744186,-6.4406976744188595,-2.384883720929439,4.215116279070561
5.045065116279069,-4.398009734991908,-7.507052460789615,-0.9141049215792313
5.053060465116278,-3.8680854515954937,-7.516349378042184,-0.9326987560843687
5.061055813953487,-3.338161168199079,-7.525646295294753,-0.951292590589506
5.069051162790697,-2.8082368848026054,-7.534943212547323,-0.9698864250946455
5.077046511627906,-2.2783126014061903,-7.544240129799891,-0.9884802595997828
5.0850418604651155,-1.7483883180097757,-7.55353704705246,-1.00707409410492
5.093037209302325,-1.218464034613361,-7.562833964305028,-1.0256679286100576
5.101032558139535,-0.6885397512168874,-7.572130881557598,-1.044261763115197
5.109027906976744,-0.1586154678204723,-7.581427798810167,-1.0628555976203344
5.117023255813953,0.37130881557594186,-7.590724716062735,-1.0814494321254717
5.125018604651162,0.940930232556122,-7.534883720933442,-1.0720930232571897
5.133013953488371,4.853488372092658,-2.3465116279073417,1.8904651162787598
5.141009302325581,4.660153276955607,-2.6024630021141535,1.4316913319238977
5.14900465116279,4.59655391120508,-2.766004228329794,1.3226638477801376
5.156999999999999,4.532954545454554,-2.9295454545454342,1.2136363636363772
5.164995348837208,4.469355179704027,-3.0930866807610746,1.104608879492617
5.172990697674418,4.405755813953493,-3.2566279069767328,0.9955813953488446
5.180986046511627,4.3421564482029655,-3.420169133192373,0.8865539112050843
5.188981395348836,4.278557082452439,-3.5837103594080135,0.7775264270613241
5.1969767441860455,4.214957716701912,-3.747251585623654,0.6684989429175638
5.2049720930232555,4.151358350951378,-3.910792811839313,0.5594714587737915
5.212967441860465,4.087758985200852,-4.074334038054953,0.4504439746300313
5.220962790697674,4.024159619450325,-4.237875264270594,0.3414164904862709
5.228958139534883,1.7882170542636546,-7.734573643410269,-0.9718604651162219
5.236953488372093,0.8554263565891922,-13.864341085271022,-1.5715116279069479
5.244948837209302,0.6296124031007572,-16.747906976744108,-1.9413953488371898
5.252944186046511,0.8390143964562343,-17.633106312292263,-2.169833887043165
5.26093953488372,1.0484163898117114,-18.518305647840418,-2.39827242524914
5.268934883720929,1.2578183831671887,-19.40350498338857,-2.626710963455115
5.276930232558139,1.4672203765226892,-20.288704318936823,-2.8551495016611153
5.284925581395348,1.6766223698781664,-21.173903654484974,-3.0835880398670907
5.292920930232557,1.8860243632336435,-22.05910299003313,-3.3120265780730658
5.300916279069766,2.0954263565891207,-22.944302325581283,-3.540465116279041
5.308911627906976,2.3048283499446214,-23.829501661129534,-3.768903654485041
5.316906976744185,2.514230343300098,-24.714700996677685,-3.9973421926910166
5.3249023255813945,-0.23255813953307092,-20.582325581398386,-2.801395348838074
5.332897674418604,1.5571492873218629,-7.877554388597167,1.8775543885971662
5.340893023255814,1.376609152288089,-7.782985746436618,1.782985746436618
5.348888372093023,1.1960690172543351,-7.6884171042760805,1.6884171042760803
5.356883720930232,1.0155288822205812,-7.593848462115543,1.5938484621155427
5.364879069767441,0.8349887471868276,-7.499279819955005,1.4992798199550048
5.372874418604651,0.6544486121530537,-7.404711177794457,1.4047111777944568
5.38086976744186,0.47390847711930006,-7.310142535633919,1.310142535633919
5.388865116279069,0.2933683420855462,-7.2155738934733815,1.2155738934733813
5.396860465116278,0.1128282070517923,-7.121005251312844,1.1210052513128437
5.404855813953487,-0.06771192798196135,-7.026436609152306,1.0264366091523058
5.412851162790697,-0.2482520630157352,-6.931867966991757,0.9318679669917578
5.420846511627906,-0.42879219804948887,-6.8372993248312195,0.8372993248312202
5.428841860465115,0.9855813953489896,-8.524651162789732,-0.4065116279067905
5.4368372093023245,0.5368665850673124,-11.741321909424697,-1.0430110159118644
5.4448325581395345,0.5873635250917967,-11.934893512851886,-1.101924112607096
5.452827906976744,0.6378604651162754,-12.128465116279054,-1.1608372093023211
5.460823255813953,0.6883574051407539,-12.322036719706222,-1.219750305997546
5.468818604651162,0.7388543451652325,-12.51560832313339,-1.2786634026927712
5.476813953488372,0.7893512851897169,-12.70917992656058,-1.3375764993880028
5.484809302325581,0.8398482252141954,-12.902751529987748,-1.396489596083228
5.49280465116279,0.890345165238674,-13.096323133414916,-1.455402692778453
5.500799999999999,0.9408421052631526,-13.289894736842085,-1.5143157894736778
5.508795348837208,0.9913390452876313,-13.483466340269253,-1.573228886168903
5.516790697674418,1.0418359853121155,-13.677037943696442,-1.6321419828641346
5.524786046511627,1.092332925336594,-13.87060954712361,-1.6910550795593595
5.532781395348836,0.7777325581395427,-10.087848837209481,-1.821453488372225
5.540776744186045,0.7062708618331024,-8.310451436388504,-0.489548563611496
5.548772093023255,0.7344897400820788,-8.357482900136798,-0.442517099863202
5.5567674418604645,0.7627086183310521,-8.404514363885088,-0.39548563611491316
5.5647627906976735,0.7909274965800254,-8.451545827633376,-0.3484541723666244
5.572758139534883,0.8191463748289987,-8.498577291381665,-0.3014227086183356
5.580753488372093,0.8473652530779751,-8.54560875512996,-0.2543912448700416
5.588748837209302,0.8755841313269483,-8.592640218878248,-0.2073597811217528
5.596744186046511,0.9038030095759216,-8.639671682626537,-0.16032831737346398
5.60473953488372,0.9320218878248949,-8.686703146374825,-0.11329685362517516
5.61273488372093,0.9602407660738713,-8.73373461012312,-0.06626538987688113
5.620730232558139,0.9884596443228446,-8.780766073871408,-0.01923392612859237
5.628725581395348,1.3,-9.541860465115976,0.5483720930231949
5.636720930232557,0.506046511627904,-10.572790697674431,0.8120930232558081
5.644716279069766,0.5238139534883687,-10.49283720930234,0.8476279069767375
5.652711627906976,0.5415813953488354,-10.41288372093024,0.8831627906976708
5.660706976744185,0.5593488372093001,-10.33293023255815,0.9186976744186002
5.668702325581394,0.5771162790697647,-10.252976744186059,0.9542325581395295
5.6766976744186035,0.5948837209302295,-10.173023255813968,0.9897674418604588
5.6846930232558135,0.6126511627906961,-10.093069767441866,1.0253023255813922
5.692688372093023,0.6304186046511607,-10.013116279069775,1.0608372093023215
5.700683720930232,0.6481860465116254,-9.933162790697684,1.0963720930232508
5.708679069767441,0.6659534883720901,-9.853209302325594,1.1319069767441803
5.716674418604651,0.6837209302325568,-9.773255813953494,1.1674418604651136
5.72466976744186,0.7223255813953208,-9.566046511628075,1.289302325581283
5.732665116279069,0.8809302325581271,-9.180930232558126,1.7618604651162542
5.740660465116278,0.8444961240310184,-9.366511627906945,1.633488372093055
5.748655813953488,0.8,-9.5,1.4883260925121424
5.756651162790697,0.8,-9.5,1.4531817020189155
5.764646511627906,0.8,-9.5,1.4180373115256883
5.772641860465115,0.8,-9.5,1.3828929210324614
5.780637209302324,0.8,-9.5,1.3477485305392343
5.788632558139534,0.8,-9.5,1.3126041400460033
5.7966279069767435,0.8,-9.5,1.2774597495527762
5.8046232558139526,0.8,-9.5,1.2423153590595493
5.812618604651162,0.8,-9.5,1.2071709685663223
5.820613953488372,0.8,-9.5,1.1720265780730912
5.828609302325581,0.8,-9.5,1.1368821875798643
5.83660465116279,0.8,-9.5,1.101737797086637
5.844599999999999,0.8,-9.370000000000067,0.5800000000002664
5.852595348837209,0.906920930232558,-9.106920930232558,0.08961860465116306
5.860590697674418,0.9282418604651155,-9.128241860465115,0.057637209302326756
5.868586046511627,0.949562790697673,-9.149562790697672,0.025655813953490453
5.876581395348836,0.9708837209302306,-9.170883720930231,-0.00632558139534585
5.884576744186045,0.9922046511627881,-9.192204651162788,-0.03830697674418215
5.892572093023255,1.013525581395348,-9.213525581395348,-0.070288372093022
5.900567441860464,1.0348465116279055,-9.234846511627905,-0.10226976744185831
5.908562790697673,1.0561674418604632,-9.256167441860464,-0.1342511627906946
5.9165581395348825,1.0774883720930206,-9.277488372093021,-0.1662325581395309
5.9245534883720925,1.0988093023255805,-9.298809302325582,-0.19821395348837076
5.932548837209302,1.1,-10.36358803986712,-1.0
5.940544186046511,1.0958788534342903,-10.291757706868582,-0.9835154137371608
5.94853953488372,1.0865819361817215,-10.273163872363444,-0.9463277447268856
5.95653488372093,1.0772850189291516,-10.254570037858304,-0.9091400757166064
5.964530232558139,1.0679881016765829,-10.235976203353166,-0.8719524067063313
5.972525581395348,1.058691184424014,-10.217382368848028,-0.8347647376960562
5.980520930232557,1.0493942671714453,-10.19878853434289,-0.797577068685781
5.988516279069767,1.0400973499188755,-10.18019469983775,-0.7603893996755018
5.996511627906976,1.0308004326663067,-10.161600865332613,-0.7232017306652267
6.004506976744185,1.021503515413738,-10.143007030827476,-0.6860140616549516
6.012502325581394,1.0122065981611692,-10.124413196322338,-0.6488263926446765
6.020497674418603,1.0029096809086004,-10.1058193618172,-0.6116387236344014
6.028493023255813,0.7506976744186815,-10.05023255813956,0.5981395348835161
6.0364883720930225,0.6,-9.972680538555696,1.020489596083228
6.044483720930232,0.6,-9.93901591187271,1.0457380660954674
6.052479069767441,0.6,-9.905351285189724,1.0709865361077067
6.060474418604651,0.6,-9.871686658506734,1.0962350061199488
6.06846976744186,0.6,-9.83802203182375,1.1214834761321881
6.076465116279069,0.6,-9.804357405140763,1.1467319461444274
6.084460465116278,0.6,-9.770692778457777,1.171980416156667
6.092455813953488,0.6,-9.737028151774789,1.1972288861689089
6.100451162790697,0.6,-9.703363525091802,1.2224773561811482
6.108446511627906,0.6,-9.669698898408816,1.2477258261933875
6.116441860465115,0.6,-9.63603427172583,1.2729742962056267
6.124437209302325,0.6,-9.602369645042842,1.298222766217869
6.132432558139534,0.5115348837209216,-8.71153488372092,1.2798139534883872
6.140427906976743,0.7247441860464894,-8.924744186046489,0.9066976744186437
6.148423255813952,0.9036967683479278,-9.107393536695856,0.5926064633041445
6.1564186046511615,0.9244639081848346,-9.14892781636967,0.551072183630331
6.1644139534883715,0.9452310480217436,-9.190462096043486,0.5095379039565128
6.172409302325581,0.9659981878586503,-9.2319963757173,0.4680036242826993
6.18040465116279,0.9867653276955571,-9.273530655391115,0.42646934460888586
6.188399999999999,1.007532467532464,-9.315064935064928,0.38493506493507235
6.196395348837209,1.0282996073693729,-9.356599214738745,0.3434007852612542
6.204390697674418,1.0490667472062798,-9.398133494412559,0.30186650558744077
6.212386046511627,1.0698338870431865,-9.439667774086372,0.26033222591362726
6.220381395348836,1.0906010268800932,-9.481202053760185,0.21879794623981375
6.228376744186046,1.1,-9.750099667774059,-0.11262458471757414
6.236372093023255,1.1,-10.047441860465103,-0.6474418604651038
6.244367441860464,1.0936853625171008,-10.0936853625171,-0.6873707250342015
6.252362790697673,1.0842790697674431,-10.084279069767442,-0.668558139534886
6.260358139534883,1.0748727770177844,-10.074872777017784,-0.6497455540355683
6.268353488372092,1.0654664842681265,-10.065466484268127,-0.6309329685362529
6.2763488372093015,1.0560601915184686,-10.056060191518469,-0.6121203830369374
6.284344186046511,1.046653898768811,-10.046653898768811,-0.5933077975376219
6.29233953488372,1.0372476060191531,-10.037247606019154,-0.5744952120383063
6.30033488372093,1.0278413132694943,-10.027841313269494,-0.5556826265389887
6.308330232558139,1.0184350205198367,-10.018435020519837,-0.5368700410396732
6.316325581395348,1.0090287277701788,-10.009028727770179,-0.5180574555403576
6.324320930232557,1.0,-10.016046511627856,-0.4358139534885766
6.332316279069767,0.6006395348837396,-10.033546511627913,0.7651744186046077
6.340311627906976,0.5,-9.98209563626862,1.0179043637313798
6.348306976744185,0.5,-9.955145022210612,1.0448549777893879
6.356302325581394,0.5,-9.928194408152605,1.0718055918473959
6.364297674418604,0.5,-9.901243794094594,1.098756205905407
6.372293023255813,0.5,-9.874293180036585,1.125706819963415
6.380288372093022,0.5,-9.847342565978577,1.152657434021423
6.3882837209302314,0.5,-9.820391951920568,1.179608048079431
6.396279069767441,0.5,-9.793441337862557,1.2065586621374422
6.4042744186046505,0.5,-9.76649072380455,1.2335092761954503
6.41226976744186,0.5,-9.73954010974654,1.2604598902534583
6.420265116279069,0.5,-9.712589495688533,1.2874105043114663
6.428260465116278,0.7840310077518766,-9.184031007751877,0.9058914728684316
6.436255813953488,0.906655121227115,-9.306655121227116,0.47337951509154025
6.444251162790697,0.915160811479465,-9.315160811479466,0.4393567540821399
6.452246511627906,0.9236665017318151,-9.323666501731816,0.40533399307273965
6.460241860465115,0.9321721919841651,-9.332172191984165,0.3713112320633394
6.468237209302325,0.9406778822365162,-9.340677882236516,0.33728847105393533
6.476232558139534,0.9491835724888662,-9.349183572488867,0.303265710044535
6.484227906976743,0.9576892627412164,-9.357689262741216,0.2692429490351347
6.492223255813952,0.9661949529935664,-9.366194952993567,0.2352201880257344
6.500218604651162,0.9747006432459174,-9.374700643245918,0.20119742701633037
6.508213953488371,0.9832063334982675,-9.383206333498268,0.1671746660069301
6.5162093023255805,0.9917120237506175,-9.391712023750618,0.13315190499752977
6.52420465116279,1.0136434108526369,-9.420465116278956,0.0727131782947264
6.532199999999999,1.1527272727272866,-9.841818181818141,-0.44181818181814037
6.540195348837209,1.0268217054263895,-10.07317829457361,-0.6
6.548190697674418,0.9913365088260031,-10.091336508826004,-0.5826730176520062
6.556186046511627,0.981703558419727,-10.081703558419727,-0.563407116839454
6.564181395348836,0.9720706080134509,-10.072070608013451,-0.5441412160269018
6.572176744186046,0.9624376576071737,-10.062437657607173,-0.5248753152143475
6.580172093023255,0.9528047072008976,-10.052804707200897,-0.5056094144017953
6.588167441860464,0.9431717567946215,-10.04317175679462,-0.48634351358924305
6.596162790697673,0.9335388063883454,-10.033538806388345,-0.4670776127766909
6.604158139534883,0.9239058559820683,-10.023905855982068,-0.44781171196413655
6.612153488372092,0.9142729055757922,-10.014272905575792,-0.42854581115158435
6.620148837209301,0.9046399551695161,-10.004639955169516,-0.40927991033903216
6.6281441860465105,0.7237209302326245,-9.785581395348936,0.5669767441858142
6.63613953488372,0.6,-9.58693715982187,1.0130628401781288
6.6441348837209295,0.6,-9.56992577931717,1.0300742206828288
6.652130232558139,0.6,-9.55291439881247,1.0470856011875291
6.660125581395348,0.6,-9.53590301830777,1.0640969816922292
6.668120930232557,0.6,-9.51889163780307,1.0811083621969293
6.676116279069767,0.6,-9.50188025729837,1.0981197427016314
6.684111627906976,0.6,-9.48486887679367,1.1151311232063315
6.692106976744185,0.6,-9.467857496288968,1.1321425037110315
6.700102325581394,0.6,-9.450846115784268,1.1491538842157318
6.708097674418604,0.6,-9.433834735279566,1.1661652647204337
6.716093023255813,0.6,-9.416823354774866,1.183176645225134
6.724088372093022,0.6,-9.4,1.1955813953488976
6.732083720930231,0.7564857881136814,-9.4,0.5610852713179115
6.740079069767441,0.804688585939588,-9.409377171879177,0.2906228281208241
6.74807441860465,0.813878642074311,-9.427757284148623,0.27224271585137805
6.7560697674418595,0.823068698209034,-9.446137396418068,0.25386260358193197
6.764065116279069,0.8322587543437571,-9.464517508687514,0.23548249131248594
6.772060465116279,0.8414488104784811,-9.482897620956962,0.21710237904303784
6.780055813953488,0.8506388666132042,-9.501277733226408,0.19872226677359178
6.788051162790697,0.8598289227479272,-9.519657845495853,0.1803421545041457
6.796046511627906,0.8690189788826502,-9.538037957765301,0.16196204223469968
6.804041860465115,0.8782090350173732,-9.556418070034747,0.14358192996525362
6.812037209302325,0.8873990911520973,-9.574798182304194,0.12520181769580552
6.820032558139534,0.8965891472868203,-9.59317829457364,0.10682170542635946
6.828027906976743,1.0,-9.90209062574922,-0.39581874850155985
6.836023255813952,1.0,-9.910333253416447,-0.3793334931671082
6.844018604651162,1.0,-9.918575881083672,-0.3628482378326547
6.852013953488371,1.0,-9.926818508750898,-0.346362982498203
6.86000930232558,1.0,-9.935061136418124,-0.32987772716375136
6.8680046511627895,1.0,-9.94330376408535,-0.3133924718292997
6.8759999999999994,1.0,-9.951546391752577,-0.2969072164948462
6.8839953488372085,1.0,-9.959789019419803,-0.28042196116039453
6.891990697674418,1.0,-9.96803164708703,-0.26393670582594286
6.899986046511627,1.0,-9.976274274754255,-0.24745145049149117
6.907981395348836,1.0,-9.98451690242148,-0.2309661951570395
6.915976744186046,1.0,-9.992759530088707,-0.214480939822586
6.923972093023255,0.9513953488372522,-9.951395348837252,-0.054186046511756486
6.931967441860464,0.830325581395357,-9.9,0.30902325581392937
6.939962790697673,0.7967080103359191,-9.793416020671838,0.6098759689922426
6.947958139534883,0.7878242894056858,-9.775648578811373,0.6365271317829426
6.955953488372092,0.7789405684754535,-9.757881136950907,0.6631782945736396
6.963948837209301,0.7700568475452211,-9.740113695090443,0.6898294573643367
6.97194418604651,0.7611731266149888,-9.722346253229977,0.7164806201550338
6.97993953488372,0.7522894056847554,-9.704578811369512,0.7431317829457337
6.987934883720929,0.7434056847545231,-9.686811369509046,0.7697829457364307
6.9959302325581385,0.7345219638242908,-9.669043927648582,0.7964341085271278
7.003925581395348,0.7256382428940584,-9.651276485788117,0.8230852713178247
7.011920930232558,0.716754521963825,-9.63350904392765,0.8497364341085247
7.019916279069767,0.7078708010335927,-9.615741602067185,0.8763875968992219
7.027911627906976,0.6088372093023863,-9.32651162790716,0.9911627906976137
7.035906976744185,0.8084934277047497,-9.704246713852374,0.3830131445905007
7.043902325581394,0.8258746208291173,-9.712937310414558,0.34825075834176533
7.051897674418604,0.8432558139534869,-9.721627906976742,0.31348837209302616
7.059893023255813,0.8606370070778546,-9.730318503538927,0.27872598584429087
7.067888372093022,0.8780182002022223,-9.73900910010111,0.24396359959555552
7.075883720930231,0.8953993933265899,-9.747699696663295,0.20920121334682018
7.083879069767441,0.9127805864509595,-9.75639029322548,0.174438827098081
7.09187441860465,0.9301617795753272,-9.765080889787663,0.13967644084934566
7.099869767441859,0.9475429726996948,-9.773771486349847,0.10491405460061032
7.1078651162790685,0.9649241658240625,-9.782462082912032,0.07015166835187503
7.1158604651162785,0.9823053589484321,-9.791152679474216,0.035389282103135855
7.1238558139534875,0.9996865520727998,-9.7998432760364,0.000626895854400511
7.131851162790697,0.9980095023755949,-9.9,-0.09402850712678469
7.139846511627906,0.9894123530882732,-9.9,-0.06823705926481985
7.147841860465116,0.9808152038009508,-9.9,-0.04244561140285216
7.155837209302325,0.9722180545136291,-9.9,-0.016654163540887335
7.163832558139534,0.9636209052263075,-9.9,0.009137284321077493
7.171827906976743,0.9550237559389859,-9.9,0.03492873218304232
7.179823255813952,0.9464266066516643,-9.9,0.06072018004500715
7.187818604651162,0.9378294573643418,-9.9,0.08651162790697484
7.195813953488371,0.9292323080770202,-9.9,0.11230307576893966
7.20380930232558,0.9206351587896985,-9.9,0.1380945236309045
7.211804651162789,0.9120380095023769,-9.9,0.16388597149286935
7.219799999999999,0.9034408602150543,-9.9,0.18967741935483703
7.227795348837208,0.9,-9.708186046511653,0.39181395348834636
7.2357906976744175,0.7052072800808886,-9.605207280080888,0.6947927199191113
7.243786046511627,0.7138978766430725,-9.613897876643072,0.6861021233569276
7.251781395348837,0.7225884732052571,-9.622588473205257,0.6774115267947428
7.259776744186046,0.731279069767441,-9.63127906976744,0.6687209302325591
7.267772093023255,0.7399696663296247,-9.639969666329625,0.6600303336703753
7.275767441860464,0.7486602628918084,-9.648660262891807,0.6513397371081916
7.283762790697674,0.7573508594539932,-9.657350859453993,0.6426491405460069
7.291758139534883,0.7660414560161769,-9.666041456016176,0.6339585439838231
7.299753488372092,0.7747320525783606,-9.67473205257836,0.6252679474216394
7.307748837209301,0.7834226491405444,-9.683422649140544,0.6165773508594556
7.31574418604651,0.7921132457027281,-9.692113245702727,0.6078867542972719
7.32373953488372,0.8,-9.7,0.6
7.331734883720929,0.8,-9.7,0.6
7.339730232558138,0.8020355677154569,-9.604071135430914,0.3959288645690863
7.3477255813953475,0.8114418604651147,-9.62288372093023,0.37711627906977085
7.3557209302325575,0.8208481532147734,-9.641696306429546,0.3583036935704532
7.363716279069767,0.8302544459644312,-9.660508891928862,0.3394911080711377
7.371711627906976,0.839660738714089,-9.679321477428179,0.32067852257182217
7.379706976744185,0.8490670314637467,-9.698134062927494,0.30186593707250664
7.387702325581395,0.8584733242134055,-9.716946648426811,0.28305335157318906
7.395697674418604,0.8678796169630633,-9.735759233926126,0.26424076607387353
7.403693023255813,0.877285909712721,-9.754571819425443,0.245428180574558
7.411688372093022,0.8866922024623788,-9.773384404924759,0.22661559507524248
7.419683720930232,0.8960984952120377,-9.792196990424076,0.20780300957592487
7.427679069767441,1.0,-9.8,0.0
7.43567441860465,0.9920058139534893,-9.79200581395349,0.02398255813953196
7.443669767441859,0.9836773255813965,-9.783677325581397,0.04896802325581035
7.451665116279068,0.9753488372093038,-9.775348837209304,0.07395348837208875
7.459660465116278,0.96702034883721,-9.76702034883721,0.09893895348836991
7.467655813953487,0.9586918604651172,-9.758691860465117,0.1239244186046483
7.4756511627906965,0.9503633720930245,-9.750363372093025,0.1489098837209267
7.483646511627906,0.9420348837209317,-9.742034883720931,0.1738953488372051
7.491641860465116,0.9337063953488379,-9.733706395348838,0.19888081395348625
7.499637209302325,0.9253779069767452,-9.725377906976744,0.22386627906976464
7.507632558139534,0.9170494186046524,-9.717049418604653,0.24885174418604303
7.515627906976743,0.9087209302325595,-9.708720930232559,0.2738372093023214
7.523623255813953,0.9003924418604659,-9.700392441860465,0.2988226744186026
7.531618604651162,0.8,-9.719069767441905,0.5
7.539613953488371,0.8,-9.7,0.5083669818553528
7.54760930232558,0.8,-9.7,0.5171530794786594
7.555604651162789,0.8,-9.7,0.5259391771019661
7.563599999999999,0.8,-9.7,0.5347252747252738
7.571595348837208,0.8,-9.7,0.5435113723485804
7.579590697674417,0.8,-9.7,0.5522974699718871
7.5875860465116265,0.8,-9.7,0.5610835675951937
7.5955813953488365,0.8,-9.7,0.5698696652185015
7.603576744186046,0.8,-9.7,0.5786557628418081
7.611572093023255,0.8,-9.7,0.5874418604651148
7.619567441860464,0.8,-9.7,0.5962279580884214
7.627562790697674,0.8,-9.7,0.3437209302326234
7.635558139534883,0.8079559363525082,-9.7,0.29204406364749186
7.643553488372092,0.8163720930232546,-9.7,0.2836279069767454
7.651548837209301,0.8247882496940011,-9.7,0.275211750305999
7.659544186046511,0.8332044063647485,-9.7,0.2667955936352516
7.66753953488372,0.8416205630354948,-9.7,0.25837943696450516
7.675534883720929,0.8500367197062413,-9.7,0.24996328029375875
7.683530232558138,0.8584528763769878,-9.7,0.2415471236230123
7.691525581395347,0.8668690330477342,-9.7,0.23313096695226587
7.699520930232557,0.8752851897184816,-9.7,0.22471481028151852
7.707516279069766,0.8837013463892279,-9.7,0.21629865361077205
7.7155116279069755,0.8921175030599744,-9.7,0.20788249694002564
7.723506976744185,0.9,-9.75069767441846,0.2
7.731502325581395,0.8,-9.7,0.3036866585067314
7.739497674418604,0.8,-9.7,0.31210281517747773
7.747493023255813,0.8,-9.7,0.3205189718482241
7.755488372093022,0.8,-9.7,0.32893512851897044
7.763483720930232,0.8,-9.7,0.33735128518971774
7.771479069767441,0.8,-9.7,0.3457674418604641
7.77947441860465,0.8,-9.7,0.3541835985312105
7.787469767441859,0.8,-9.7,0.36259975520195686
7.795465116279069,0.8,-9.7,0.3710159118727041
7.803460465116278,0.8,-9.7,0.37943206854345046
7.811455813953487,0.8,-9.7,0.3878482252141969
7.819451162790696,0.8,-9.7,0.39626438188494323
7.8274465116279055,0.8349501661129348,-9.734950166112935,0.4
7.8354418604651155,0.8967598641233352,-9.796759864123336,0.40162006793833244
7.843437209302325,0.8787927880846631,-9.778792788084663,0.4106036059576684
7.851432558139534,0.8608257120459911,-9.760825712045992,0.4195871439770045
7.859427906976743,0.842858636007319,-9.74285863600732,0.42857068199634046
7.867423255813953,0.824891559968645,-9.724891559968645,0.4375542200156775
7.875418604651162,0.806924483929973,-9.706924483929972,0.4465377580350135
7.883413953488371,0.788957407891301,-9.688957407891301,0.45552129605434954
7.89140930232558,0.7709903318526289,-9.670990331852629,0.46450483407368554
7.89940465116279,0.7530232558139549,-9.653023255813954,0.4734883720930225
7.907399999999999,0.7350561797752828,-9.635056179775283,0.48247191011235857
7.915395348837208,0.7170891037366107,-9.61708910373661,0.4914554481316946
7.923390697674417,0.7,-9.619534883720863,0.48046511627913585
7.931386046511626,0.7912292358803721,-9.7,0.308770764119628
7.939381395348836,0.9,-9.8,0.2
7.9473767441860454,0.9,-9.8,0.2
7.9553720930232545,0.9,-9.8,0.2
7.963367441860464,0.9,-9.8,0.2
7.971362790697674,0.9,-9.8,0.2
7.979358139534883,0.9,-9.8,0.2
7.987353488372092,0.9,-9.8,0.2
7.995348837209301,0.9,-9.8,0.2
8.00334418604651,0.9,-9.8,0.2
8.011339534883719,0.9,-9.8,0.2
8.01933488372093,0.9,-9.8,0.2
8.027330232558139,0.9,-9.8,0.2
8.035325581395348,0.9,-9.8,0.2
8.043320930232557,0.8,-9.7,0.3
8.051316279069766,0.8,-9.709261112746539,0.3
8.059311627906975,0.8,-9.719381807477184,0.3
8.067306976744185,0.8,-9.729502502207827,0.3
8.075302325581394,0.8,-9.739623196938473,0.3
8.083297674418603,0.8,-9.749743891669118,0.3
8.091293023255814,0.8,-9.759864586399765,0.3
8.099288372093023,0.8,-9.76998528113041,0.3
8.107283720930232,0.8,-9.780105975861053,0.3
8.11527906976744,0.8,-9.790226670591698,0.3
8.12327441860465,0.8,-9.8,0.3
8.131269767441859,0.8,-9.7,0.38651162790705235
8.139265116279068,0.8,-9.706961240310076,0.3
8.147260465116277,0.8,-9.715844961240307,0.3
8.155255813953488,0.8,-9.724728682170543,0.3
8.163251162790697,0.8,-9.733612403100775,0.3
8.171246511627906,0.8,-9.742496124031007,0.3
8.179241860465115,0.8,-9.751379844961239,0.3
8.187237209302324,0.8,-9.760263565891472,0.3
8.195232558139534,0.8,-9.769147286821704,0.3
8.203227906976743,0.8,-9.778031007751936,0.3
8.211223255813952,0.8,-9.786914728682168,0.3
8.21921860465116,0.8,-9.7957984496124,0.3
8.227213953488372,0.8842790697674358,-9.8,0.3
8.23520930232558,0.8045753286147619,-9.7,0.3954246713852382
8.24320465116279,0.8132659251769456,-9.7,0.38673407482305444
8.251199999999999,0.8219565217391294,-9.7,0.3780434782608707
8.259195348837208,0.8306471183013131,-9.7,0.3693528816986869
8.267190697674417,0.8393377148634968,-9.7,0.36066228513650317
8.275186046511626,0.8480283114256806,-9.7,0.35197168857431943
8.283181395348835,0.8567189079878643,-9.7,0.3432810920121357
8.291176744186046,0.8654095045500501,-9.7,0.33459049544995
8.299172093023255,0.8741001011122338,-9.7,0.32589989888776627
8.307167441860464,0.8827906976744175,-9.7,0.3172093023255825
8.315162790697674,0.8914812942366013,-9.7,0.30851870576339874
8.323158139534883,0.8920930232558859,-9.707906976744114,0.2920930232558858
8.331153488372092,0.8973938112627337,-9.8,0.2052123774745327
8.3391488372093,0.8907860849509907,-9.8,0.21842783009801875
8.34714418604651,0.8841783586392477,-9.8,0.2316432827215048
8.355139534883719,0.8775706323275047,-9.8,0.24485873534499086
8.36313488372093,0.8709629060157601,-9.8,0.25807418796847986
8.371130232558139,0.8643551797040171,-9.8,0.2712896405919659
8.379125581395348,0.8577474533922741,-9.8,0.284505093215452
8.387120930232557,0.851139727080531,-9.8,0.29772054583893803
8.395116279069766,0.844532000768788,-9.8,0.3109359984624241
8.403111627906975,0.837924274457045,-9.8,0.32415145108591015
8.411106976744184,0.831316548145302,-9.8,0.3373669037093962
8.419102325581393,0.824708821833559,-9.8,0.35058235633288226
8.427097674418604,0.8181010955218144,-9.8,0.36379780895637126
8.435093023255813,0.8114933692100714,-9.8,0.37701326157985726
8.443088372093023,0.8048856428983284,-9.8,0.3902287142033434
8.451083720930232,0.8,-9.7,0.4
8.45907906976744,0.8,-9.778656330749339,0.4
8.46707441860465,0.8,-9.8,0.39035806570690534
8.475069767441859,0.8,-9.8,0.37766703580657324
8.483065116279068,0.8,-9.8,0.3649760059062411
8.491060465116277,0.8,-9.8,0.35228497600590897
8.499055813953488,0.8,-9.8,0.33959394610557403
8.507051162790697,0.8,-9.8,0.32690291620524187
8.515046511627906,0.8,-9.8,0.31421188630490976
8.523041860465115,0.8,-9.8,0.3015208564045776
8.531037209302324,0.8662532299741805,-9.76625322997418,0.33374677002581954
8.539032558139533,0.8,-9.7,0.3322480620155416
8.547027906976743,0.8,-9.70867642836635,0.2913235716336503
8.555023255813952,0.8,-9.71854722939994,0.28145277060005897
8.563018604651162,0.8,-9.728418030433534,0.27158196956646546
8.571013953488372,0.8,-9.738288831467125,0.2617111685328741
8.57900930232558,0.8,-9.748159632500718,0.25184036749928285
8.58700465116279,0.8,-9.758030433534309,0.2419695664656915
8.594999999999999,0.8,-9.7679012345679,0.2320987654321002
8.602995348837208,0.8,-9.777772035601492,0.2222279643985089
8.610990697674417,0.8,-9.787642836635083,0.21235716336491758
8.618986046511626,0.8,-9.797513637668674,0.20248636233132628
8.626981395348835,0.8993798449611523,-9.8,0.2
8.634976744186046,0.9,-9.791860465116281,0.21627906976743985
8.642972093023255,0.9,-9.783701945894638,0.23259610821072388
8.650967441860464,0.9,-9.775543426672996,0.24891314665400793
8.658962790697673,0.9,-9.767384907451355,0.26523018509729196
8.666958139534882,0.9,-9.759226388229711,0.281547223540576
8.674953488372092,0.9,-9.75106786900807,0.29786426198386
8.6829488372093,0.9,-9.742909349786428,0.31418130042714404
8.69094418604651,0.9,-9.734750830564785,0.3304983388704281
8.69893953488372,0.9,-9.726592311343142,0.34681537731371576
8.70693488372093,0.9,-9.7184337921215,0.3631324157569998
8.714930232558139,0.9,-9.710275272899857,0.3794494542002838
8.722925581395348,0.9,-9.702116753678215,0.3957664926435679
8.730920930232557,0.8,-9.700979713013357,0.3
8.738916279069766,0.8,-9.709485403265708,0.3
8.746911627906975,0.8,-9.717991093518059,0.3
8.754906976744184,0.8,-9.726496783770408,0.3
8.762902325581393,0.8,-9.735002474022759,0.3
8.770897674418604,0.8,-9.743508164275111,0.3
8.778893023255813,0.8,-9.75201385452746,0.3
8.786888372093022,0.8,-9.760519544779811,0.3
8.794883720930232,0.8,-9.769025235032162,0.3
8.80287906976744,0.8,-9.77753092528451,0.3
8.81087441860465,0.8,-9.786036615536862,0.3
8.818869767441859,0.8,-9.794542305789212,0.3
8.826865116279068,0.891348837209326,-9.8,0.2
8.834860465116277,0.8113953488372334,-9.8,0.2
8.842855813953488,0.8,-9.7,0.20673082063619325
8.850851162790697,0.8,-9.7,0.21592087677091637
8.858846511627906,0.8,-9.7,0.2251109329056395
8.866841860465115,0.8,-9.7,0.23430098904036262
8.874837209302324,0.8,-9.7,0.24349104517508574
8.882832558139533,0.8,-9.7,0.25268110130980886
8.890827906976742,0.8,-9.7,0.261871157444532
8.898823255813952,0.8,-9.7,0.2710612135792551
8.906818604651162,0.8,-9.7,0.2802512697139803
8.914813953488371,0.8,-9.7,0.28944132584870336
8.92280930232558,0.8,-9.7,0.2986313819834265
8.93080465116279,0.8,-9.701860465116278,0.3
8.938799999999999,0.8,-9.710103092783504,0.3
8.946795348837208,0.8,-9.71834572045073,0.3
8.954790697674417,0.8,-9.726588348117955,0.3
8.962786046511626,0.8,-9.734830975785181,0.3
8.970781395348835,0.8,-9.743073603452407,0.3
8.978776744186046,0.8,-9.751316231119635,0.3
8.986772093023255,0.8,-9.75955885878686,0.3
8.994767441860464,0.8,-9.767801486454086,0.3
9.002762790697673,0.8,-9.776044114121314,0.3
9.010758139534882,0.8,-9.78428674178854,0.3
9.018753488372091,0.8,-9.792529369455766,0.3
9.0267488372093,0.8748837209301161,-9.8,0.3
9.03474418604651,0.9,-9.8,0.3
9.04273953488372,0.8918531211750312,-9.791853121175032,0.3081468788249687
9.05073488372093,0.8834369645042849,-9.783436964504286,0.31656303549571513
9.058730232558139,0.8750208078335385,-9.775020807833538,0.3249791921664615
9.066725581395348,0.8666046511627922,-9.766604651162792,0.33339534883720784
9.074720930232557,0.8581884944920458,-9.758188494492046,0.3418115055079542
9.082716279069766,0.8497723378212995,-9.7497723378213,0.35022766217870055
9.090711627906975,0.8413561811505531,-9.741356181150554,0.3586438188494469
9.098706976744184,0.8329400244798068,-9.732940024479806,0.36705997552019326
9.106702325581393,0.8245238678090604,-9.72452386780906,0.3754761321909396
9.114697674418604,0.8161077111383122,-9.716107711138312,0.38389228886168786
9.122693023255813,0.8076915544675658,-9.707691554467566,0.3923084455324342
9.130688372093022,0.8,-9.7,0.4344186046510955
9.138683720930231,0.9,-9.898529632408104,0.2
9.14667906976744,0.9,-9.881335333833462,0.2
9.15467441860465,0.9,-9.864141035258818,0.2
9.162669767441859,0.9,-9.846946736684174,0.2
9.170665116279068,0.9,-9.829752438109532,0.2
9.178660465116279,0.9,-9.812558139534884,0.2
9.186655813953488,0.9,-9.79536384096024,0.2
9.194651162790697,0.9,-9.778169542385598,0.2
9.202646511627906,0.9,-9.760975243810954,0.2
9.210641860465115,0.9,-9.743780945236312,0.2
9.218637209302324,0.9,-9.726586646661668,0.2
9.226632558139533,0.9,-9.709392348087025,0.2
9.234627906976742,0.9,-9.7,0.23023255813951904
9.242623255813951,0.9,-9.7,0.29686046511625896
9.250618604651162,0.7032732558139536,-9.7,0.5934534883720927
9.258613953488371,0.713267441860465,-9.7,0.5734651162790699
9.26660930232558,0.7232616279069763,-9.7,0.5534767441860472
9.27460465116279,0.7332558139534877,-9.7,0.5334883720930246
9.282599999999999,0.7432499999999991,-9.7,0.5135000000000018
9.290595348837208,0.7532441860465104,-9.7,0.4935116279069791
9.298590697674417,0.7632383720930218,-9.7,0.4735232558139564
9.306586046511626,0.7732325581395332,-9.7,0.4535348837209337
9.314581395348837,0.7832267441860468,-9.7,0.43354651162790653
9.322576744186046,0.7932209302325581,-9.7,0.41355813953488385
9.330572093023255,0.9,-9.8,0.32860465116273513
9.338567441860464,0.9,-9.8,0.4
9.346562790697673,0.9,-9.8,0.4
9.354558139534882,0.9,-9.8,0.4
9.362553488372091,0.9,-9.8,0.4
9.3705488372093,0.9,-9.8,0.4
9.37854418604651,0.9,-9.8,0.4
9.38653953488372,0.9,-9.8,0.4
9.39453488372093,0.9,-9.8,0.4
9.402530232558139,0.9,-9.8,0.4
9.410525581395348,0.9,-9.8,0.4
9.418520930232557,0.9,-9.8,0.4
9.426516279069766,0.8741860465117236,-9.7,0.4
9.434511627906975,0.8058017135862893,-9.711603427172578,0.3941982864137108
9.442506976744184,0.8142178702570357,-9.72843574051407,0.3857821297429643
9.450502325581395,0.8226340269277841,-9.745268053855568,0.3773659730722159
9.458497674418604,0.8310501835985307,-9.76210036719706,0.3689498164014694
9.466493023255813,0.8394663402692771,-9.778932680538555,0.3605336597307229
9.474488372093022,0.8478824969400237,-9.795764993880047,0.35211750305997636
9.482483720930231,0.8562986536107702,-9.81259730722154,0.34370134638922983
9.49047906976744,0.8647148102815168,-9.829429620563033,0.3352851897184833
9.49847441860465,0.8731309669522632,-9.846261933904527,0.3268690330477368
9.506469767441859,0.8815471236230097,-9.86309424724602,0.31845287637699027
9.514465116279068,0.8899632802937563,-9.879926560587514,0.31003671970624375
9.522460465116279,0.8983794369645046,-9.89675887392901,0.3016205630354954
9.530455813953488,0.8986135105204879,-9.898613510520489,0.4041594684385363
9.538451162790697,0.8909988925802889,-9.890998892580289,0.4270033222591336
9.546446511627906,0.8833842746400897,-9.88338427464009,0.4498471760797309
9.554441860465115,0.8757696566998906,-9.875769656699891,0.47269102990032824
9.562437209302324,0.8681550387596915,-9.868155038759692,0.4955348837209256
9.570432558139533,0.8605404208194924,-9.860540420819493,0.5183787375415229
9.578427906976742,0.8529258028792933,-9.852925802879295,0.5412225913621201
9.586423255813953,0.8453111849390925,-9.845311184939092,0.5640664451827225
9.594418604651162,0.8376965669988934,-9.837696566998893,0.5869102990033199
9.602413953488371,0.8300819490586943,-9.830081949058695,0.6097541528239172
9.61040930232558,0.8224673311184952,-9.822467331118496,0.6325980066445145
9.61840465116279,0.8148527131782961,-9.814852713178297,0.6554418604651118
9.626399999999999,0.807238095238097,-9.807238095238098,0.678285714285709
9.634395348837208,0.8043927648578584,-9.791214470284284,0.713178294573575
9.642390697674417,0.8932299741601782,-9.613540051679644,0.9796899224805347
9.650386046511626,0.7971594684385404,-9.40284053156146,1.3943189368770805
9.658381395348837,0.7876411960132893,-9.412358803986711,1.3752823920265784
9.666376744186046,0.7781229235880404,-9.42187707641196,1.3562458471760805
9.674372093023255,0.7686046511627913,-9.431395348837208,1.3372093023255827
9.682367441860464,0.7590863787375424,-9.440913621262458,1.3181727574750848
9.690362790697673,0.7495681063122934,-9.450431893687707,1.2991362126245867
9.698358139534882,0.7400498338870445,-9.459950166112955,1.2800996677740888
9.706353488372091,0.7305315614617954,-9.469468438538204,1.261063122923591
9.7143488372093,0.7210132890365465,-9.478986710963454,1.242026578073093
9.72234418604651,0.7114950166112975,-9.488504983388703,1.2229900332225951
9.73033953488372,0.7019767441860465,-9.498023255813953,1.203953488372093
9.73833488372093,0.9953969526864508,-9.696931301790967,1.2046030473135492
9.746330232558138,0.9678267842822814,-9.67855118952152,1.2321732157177185
9.754325581395348,0.940256615878112,-9.660171077252073,1.259743384121888
9.762320930232557,0.9126864474739427,-9.641790964982627,1.2873135525260573
9.770316279069766,0.8851162790697733,-9.623410852713182,1.3148837209302267
9.778311627906975,0.8575461106656039,-9.605030740443736,1.342453889334396
9.786306976744184,0.8299759422614346,-9.58665062817429,1.3700240577385654
9.794302325581395,0.8024057738572591,-9.568270515904839,1.397594226142741
9.802297674418604,0.7748356054530897,-9.549890403635393,1.4251643945469104
9.810293023255813,0.7472654370489203,-9.531510291365947,1.4527345629510795
9.818288372093022,0.719695268644751,-9.5131301790965,1.480304731355249
9.826283720930231,0.6086511627907613,-9.591348837209239,1.5456744186046194
9.83427906976744,0.8024506126531609,-9.539209802450573,1.490197549387357
9.84227441860465,0.8110477619404824,-9.676764191047718,1.4558089522380704
9.850269767441858,0.819644911227804,-9.814318579644864,1.421420355088784
9.858265116279068,0.8282420605151256,-9.951872968242009,1.3870317579394975
9.866260465116278,0.8368392098024492,-10.089427356839186,1.3526431607902036
9.874255813953488,0.8454363590897708,-10.226981745436332,1.318254563640917
9.882251162790697,0.8540335083770924,-10.364536134033477,1.2838659664916308
9.890246511627906,0.8626306576644139,-10.502090522630622,1.2494773693423442
9.898241860465115,0.8712278069517356,-10.63964491122777,1.2150887721930579
9.906237209302324,0.8798249562390572,-10.777199299824915,1.1807001750437713
9.914232558139533,0.8884221055263788,-10.91475368842206,1.146311577894485
9.922227906976742,0.8970192548137004,-11.052308077019205,1.1119229807451987
9.930223255813953,0.725891472868244,-13.070542635658779,1.3
9.938218604651162,0.6328113695090436,-13.67656330749354,1.3281240310077518
9.946213953488371,0.69499741602067,-13.632144702842378,1.3814263565891458
9.95420930232558,0.7571834625322964,-13.587726098191217,1.4347286821705398
9.96220465116279,0.8193695090439228,-13.543307493540054,1.4880310077519339
9.970199999999998,0.8815555555555492,-13.498888888888892,1.541333333333328
9.978195348837207,0.9437416020671756,-13.45447028423773,1.594635658914722
9.986190697674417,1.005927648578802,-13.41005167958657,1.647937984496116
9.994186046511626,1.0681136950904284,-13.365633074935408,1.70124031007751
10.002181395348837,1.1302997416020686,-13.321214470284236,1.7545426356589158
10.010176744186046,1.1924857881136948,-13.276795865633074,1.8078449612403098
10.018172093023255,1.2546718346253214,-13.232377260981913,1.8611472868217038
10.026167441860464,1.7,-11.632558139535885,3.033953488371293
10.034162790697673,1.575178890876572,-11.280858676207545,3.5198568872987424
10.042158139534882,1.5367397137746048,-11.096350626118104,3.550608228980316
10.050153488372091,1.4983005366726379,-10.911842576028661,3.5813595706618897
10.0581488372093,1.4598613595706706,-10.72733452593922,3.6121109123434634
10.066144186046511,1.421422182468695,-10.542826475849736,3.642862254025044
10.07413953488372,1.382983005366728,-10.358318425760295,3.673613595706618
10.08213488372093,1.344543828264761,-10.173810375670852,3.704364937388191
10.090130232558138,1.3061046511627938,-9.98930232558141,3.7351162790697647
10.098125581395347,1.2676654740608266,-9.804794275491968,3.7658676207513384
10.106120930232557,1.2292262969588597,-9.620286225402527,3.796618962432912
10.114116279069766,1.1907871198568927,-9.435778175313084,3.8273703041144858
10.122111627906975,1.1523479427549255,-9.251270125223641,3.8581216457960594
10.130106976744184,1.1139087656529583,-9.0667620751342,3.888872987477633
10.138102325581395,2.3146673877771775,-8.495110870740941,4.009778258518119
10.146097674418604,2.3704488912925896,-8.476517036235803,4.046965927528393
10.154093023255813,2.4262303948080017,-8.457923201730667,4.084153596538668
10.162088372093022,2.4820118983234134,-8.439329367225529,4.121341265548943
10.170083720930231,2.5377934018388255,-8.420735532720391,4.158528934559217
10.17807906976744,2.5935749053542376,-8.402141698215255,4.195716603569492
10.18607441860465,2.6493564088696497,-8.383547863710117,4.232904272579767
10.194069767441858,2.705137912385062,-8.36495402920498,4.270091941590041
10.20206511627907,2.7609194159004864,-8.34636019469984,4.307279610600324
10.210060465116278,2.8167009194158985,-8.327766360194701,4.344467279610599
10.218055813953487,2.8724824229313106,-8.309172525689563,4.3816549486208745
10.226051162790696,3.8259800664450605,-8.01063122923592,6.078338870431672
10.234046511627906,5.653488372092645,-7.151162790697887,8.886046511627388
10.242041860465115,7.727337339952987,-7.790828325058767,9.200088842435358
10.250037209302324,7.58360073164361,-7.9704990854454865,9.002451006009965
10.258032558139533,7.439864123334234,-8.150169845832208,8.804813169584573
10.266027906976742,7.296127515024858,-8.329840606218927,8.60717533315918
10.274023255813953,7.15239090671545,-8.509511366605688,8.409537496733744
10.282018604651162,7.008654298406073,-8.689182126992408,8.211899660308351
10.290013953488371,6.864917690096697,-8.868852887379127,8.01426182388296
10.29800930232558,6.721181081787321,-9.048523647765847,7.816623987457566
10.30600465116279,6.577444473477945,-9.228194408152568,7.618986151032174
10.313999999999998,6.433707865168569,-9.407865168539288,7.421348314606782
10.321995348837207,6.289971256859192,-9.587535928926009,7.223710478181388
10.329990697674416,5.103410852713988,-6.410232558141965,6.003410852713988
10.337986046511627,4.116806898353799,-1.2271701071335364,5.560783903841134
10.345981395348836,4.143757512411807,-1.110384112882168,5.497899137705782
10.353976744186046,4.170708126469815,-0.9935981186307998,5.43501437157043
10.361972093023255,4.197658740527824,-0.8768121243794316,5.372129605435078
10.369967441860464,4.224609354585832,-0.7600261301280634,5.309244839299726
10.377962790697673,4.251559968643839,-0.6432401358766952,5.246360073164374
10.385958139534882,4.2785105827018475,-0.5264541416253269,5.183475307029022
10.393953488372091,4.305461196759856,-0.4096681473739586,5.12059054089367
10.4019488372093,4.332411810817864,-0.29288215312259047,5.057705774758318
10.409944186046511,4.359362424875878,-0.17609615887119623,4.994821008622952
10.41793953488372,4.386313038933886,-0.059310164619827965,4.9319362424876
10.42593488372093,4.085209302325654,3.1479069767434575,3.8769302325583763
10.433930232558138,3.81281597573306,4.921359959555101,1.4273761375126583
10.441925581395347,3.8388877654196114,4.964812942366019,1.2796359959555346
10.449920930232556,3.8649595551061626,5.008265925176938,1.1318958543984108
10.457916279069766,3.891031344792714,5.051718907987857,0.9841557128412872
10.465911627906975,3.917103134479265,5.095171890798776,0.8364155712841636
10.473906976744185,3.943174924165822,5.138624873609704,0.688675429727007
10.481902325581395,3.9692467138523733,5.182077856420623,0.5409352881698832
10.489897674418604,3.9953185035389245,5.225530839231542,0.39319514661275967
10.497893023255813,4.021390293225476,5.26898382204246,0.2454550050556359
10.505888372093022,4.047462082912027,5.312436804853379,0.0977148634985121
10.513883720930231,4.073533872598579,5.355889787664298,-0.050025278058611455
10.52187906976744,4.099605662285129,5.399342770475217,-0.19776541961573524
10.52987441860465,2.492651162791334,6.327720930233488,0.767534883721077
10.537869767441858,0.8741988244313924,6.422555583950886,-1.7516023511372152
10.545865116279069,0.8390544339381576,6.589491438793751,-1.8218911321236848
10.553860465116278,0.8039100434449304,6.75642729363658,-1.8921799131101391
10.561855813953487,0.7687656529517034,6.9233631484794085,-1.9624686940965932
10.569851162790696,0.7336212624584764,7.090299003322237,-2.0327574750830473
10.577846511627905,0.6984768719652493,7.257234858165065,-2.1030462560695016
10.585841860465115,0.6633324814720223,7.424170713007894,-2.1733350370559554
10.593837209302324,0.6281880909787951,7.591106567850722,-2.2436238180424097
10.601832558139533,0.5930437004855682,7.758042422693551,-2.3139125990288636
10.609827906976744,0.5578993099923333,7.924978277536416,-2.3842013800153334
10.617823255813953,0.5227549194991062,8.091914132379245,-2.4544901610017877
10.625818604651162,-0.1576744186045489,9.32744186046494,-3.1576744186045493
10.63381395348837,-0.8844711177794473,9.89647411852965,-4.310352588147035
10.64180930232558,-0.8586796699174826,9.724531132783216,-4.327546886721678
10.649804651162789,-0.8328882220555177,9.552588147036785,-4.344741185296321
10.657799999999998,-0.8070967741935529,9.380645161290353,-4.3619354838709645
10.665795348837207,-0.781305326331588,9.20870217554392,-4.379129782445608
10.673790697674416,-0.7555138784696231,9.036759189797488,-4.396324081020251
10.681786046511627,-0.7297224306076526,8.864816204051017,-4.4135183795948985
10.689781395348836,-0.7039309827456879,8.692873218304586,-4.430712678169542
10.697776744186045,-0.678139534883723,8.520930232558154,-4.447906976744185
10.705772093023254,-0.6523480870217582,8.34898724681172,-4.465101275318828
10.713767441860464,-0.6265566391597933,8.177044261065289,-4.482295573893471
10.721762790697673,-0.6007651912978285,8.005101275318857,-4.499489872468114
10.729758139534882,-0.5189534883720637,8.431589147286774,-4.974728682170582
10.73775348837209,-0.7188372093022835,8.764728682170473,-4.708217054263622
10.745748837209302,-0.8347475893363564,8.946330119115142,-4.594208735110607
10.75374418604651,-0.8932501418037395,9.024333522404985,-4.584458309699376
10.76173953488372,-0.9517526942711225,9.10233692569483,-4.574707884288146
10.769734883720929,-1.0102552467385055,9.180340328984673,-4.564957458876916
10.777730232558138,-1.0687577992058888,9.258343732274518,-4.555207033465685
10.785725581395347,-1.1272603516732718,9.336347135564361,-4.5454566080544545
10.793720930232556,-1.1857629041406548,9.414350538854206,-4.535706182643224
10.801716279069765,-1.244265456608038,9.49235394214405,-4.525955757231993
10.809711627906974,-1.302768009075421,9.570357345433894,-4.516205331820763
10.817706976744185,-1.361270561542817,9.648360748723755,-4.50645490640953
10.825702325581394,-1.7603100775191929,8.528992248062623,-5.130542635658588
10.833697674418604,-1.403819247494799,8.74201172244279,-5.611457742484397
10.841693023255813,-1.4103195311022863,8.813514842125148,-5.630958593306858
10.849688372093022,-1.4168198147097733,8.885017961807506,-5.65045944412932
10.85768372093023,-1.4233200983172605,8.956521081489864,-5.669960294951781
10.86567906976744,-1.4298203819247475,9.028024201172222,-5.689461145774242
10.873674418604649,-1.4363206655322347,9.09952732085458,-5.708961996596704
10.881669767441858,-1.4428209491397217,9.171030440536938,-5.7284628474191654
10.889665116279069,-1.4493212327472103,9.242533560219313,-5.747963698241631
10.897660465116278,-1.4558215163546975,9.314036679901672,-5.767464549064092
10.905655813953487,-1.4623217999621845,9.38553979958403,-5.786965399886554
10.913651162790696,-1.4688220835696715,9.457042919266389,-5.806466250709015
10.921646511627905,-1.4753223671771587,9.528546038948747,-5.825967101531476
10.929641860465114,-1.4818226507846457,9.600049158631105,-5.845467952353937
10.937637209302324,-1.488322934392133,9.671552278313463,-5.864968803176399
10.945632558139533,-1.49482321799962,9.743055397995821,-5.884469653998861
10.953627906976743,-1.5,9.365891472868409,-5.2488372093026125
10.961623255813953,-1.3869038946483647,9.09126926309891,-3.904365368450545
10.969618604651162,-1.3580050434295368,9.072003362286358,-3.913998318856821
10.97761395348837,-1.3291061922107088,9.052737461473805,-3.923631269263097
10.98560930232558,-1.3002073409918808,9.033471560661253,-3.933264219669373
10.993604651162789,-1.2713084897730529,9.014205659848702,-3.942897170075649
11.001599999999998,-1.242409638554225,8.99493975903615,-3.9525301204819248
11.009595348837207,-1.213510787335397,8.975673858223598,-3.962163070888201
11.017590697674416,-1.184611936116569,8.956407957411047,-3.971796021294477
11.025586046511627,-1.1557130848977346,8.93714205659849,-3.981428971700755
11.033581395348836,-1.1268142336789067,8.917876155785939,-3.991061922107031
11.041576744186045,-1.0423255813955103,9.07302325581347,-4.019224806201496
11.049572093023254,-0.5213953488373156,9.33565891472886,-4.285736434108456
11.057567441860463,-0.2817571059431572,8.8,-4.063514211886314
11.065562790697673,-0.2595478036175762,8.8,-4.019095607235152
11.073558139534882,-0.2373385012919951,8.8,-3.97467700258399
11.08155348837209,-0.21512919896641403,8.8,-3.930258397932828
11.089548837209302,-0.19291989664082804,8.8,-3.885839793281656
11.09754418604651,-0.17071059431524696,8.8,-3.841421188630494
11.10553953488372,-0.1485012919896659,8.8,-3.797002583979332
11.113534883720929,-0.12629198966408484,8.8,-3.7525839793281697
11.121530232558138,-0.10408268733850376,8.8,-3.708165374677008
11.129525581395347,0.22073871409027876,8.679261285909721,-3.5414774281805577
11.137520930232556,0.2677701778385641,8.632229822161435,-3.6355403556771284
11.145516279069765,0.400670492298397,8.29798852310481,-3.197318030806412
11.153511627906974,0.4110540622168504,8.266837813349449,-3.155783751132599
11.161506976744185,0.4214376321353061,8.235687103594083,-3.1142494714587756
11.169502325581394,0.43182120205375946,8.204536393838723,-3.072715191784962
11.177497674418603,0.4422047719722128,8.173385684083362,-3.031180912111149
11.185493023255813,0.4525883418906662,8.142234974328002,-2.9896466324373354
11.193488372093022,0.46297191180911956,8.111084264572641,-2.9481123527635216
11.20148372093023,0.4733554817275729,8.07993355481728,-2.906578073089708
11.20947906976744,0.4837390516460263,8.048782845061922,-2.8650437934158948
11.217474418604649,0.49412262156447967,8.017632135306561,-2.8235095137420814
11.22546976744186,0.6156589147286698,8.404806201550343,-3.378294573643349
11.233465116279069,1.0643410852712591,9.701937984495963,-3.891085271317815
11.241460465116278,1.0927410504311479,8.870964201724592,-4.385482100862296
11.249455813953487,1.0837575124118117,8.835030049647248,-4.367515024823624
11.257451162790696,1.0747739743924758,8.799095897569904,-4.349547948784952
11.265446511627905,1.0657904363731399,8.763161745492559,-4.3315808727462795
11.273441860465114,1.0568068983538037,8.727227593415215,-4.313613796707608
11.281437209302323,1.0478233603344678,8.691293441337871,-4.295646720668936
11.289432558139533,1.0388398223151316,8.655359289260527,-4.277679644630264
11.297427906976743,1.0298562842957937,8.619425137183175,-4.2597125685915875
11.305423255813952,1.0208727462764577,8.583490985105831,-4.241745492552916
11.313418604651162,1.0118892082571216,8.547556833028487,-4.223778416514244
11.32141395348837,1.0029056702377857,8.511622680951142,-4.205811340475571
11.32940930232558,1.0450775193798307,8.815542635658815,-3.974612403100846
11.337404651162789,0.9595348837211515,9.106356589147435,-3.840465116278849
11.345399999999998,1.1840963855421736,8.021204819277102,-4.289397590361449
11.353395348837207,1.1551975343233456,8.059736620902205,-4.270131689548897
11.361390697674418,1.1262986831045112,8.098268422527319,-4.25086578873634
11.369386046511627,1.0973998318856832,8.136800224152422,-4.231599887923789
11.377381395348836,1.0685009806668553,8.175332025777527,-4.212333987111236
11.385376744186045,1.0396021294480273,8.21386382740263,-4.193068086298685
11.393372093023254,1.0107032782291994,8.252395629027735,-4.1738021854861325
11.401367441860463,0.9818044270103714,8.290927430652838,-4.154536284673581
11.409362790697672,0.9529055757915434,8.329459232277943,-4.1352703838610285
11.417358139534882,0.9240067245727155,8.367991033903046,-4.116004483048477
11.42535348837209,0.8548837209302967,8.4,-4.145116279069703
11.433348837209302,0.8781597573306407,8.496359959555107,-4.103640040444893
11.44134418604651,0.8260161779575381,8.487669362992923,-4.1123306370070765
11.44933953488372,0.7738725985844357,8.478978766430739,-4.121021233569261
11.457334883720929,0.7217290192113331,8.470288169868555,-4.129711830131444
11.465330232558138,0.6695854398382306,8.461597573306372,-4.138402426693628
11.473325581395347,0.6174418604651282,8.452906976744188,-4.147093023255811
11.481320930232556,0.5652982810920257,8.444216380182004,-4.155783619817996
11.489316279069765,0.5131547017189232,8.435525783619822,-4.16447421638018
11.497311627906976,0.4610111223458091,8.426835187057636,-4.173164812942365
11.505306976744185,0.4088675429727066,8.418144590495451,-4.181855409504549
11.513302325581394,0.3567239635996041,8.409453993933267,-4.190546006066732
11.521297674418603,0.3045803842265016,8.400763397371083,-4.1992366026289165
11.529293023255812,-0.18620155038745884,9.007751937984324,-3.5314728682172443
11.537288372093021,-0.7962681258550265,9.49796443228456,-3.5972859097127468
11.54528372093023,-0.69279890560879,9.441526675786612,-3.5220355677154838
11.55327906976744,-0.5893296853625536,9.385088919288666,-3.4467852257182208
11.561274418604649,-0.4858604651163171,9.328651162790718,-3.3715348837209578
11.56926976744186,-0.3823912448700576,9.272213406292758,-3.2962845417236784
11.577265116279069,-0.2789220246238212,9.215775649794812,-3.2210341997264154
11.585260465116278,-0.1754528043775847,9.159337893296865,-3.1457838577291524
11.593255813953487,-0.0719835841313482,9.102900136798917,-3.0705335157318894
11.601251162790696,0.031485636114888194,9.046462380300971,-2.995283173734627
11.609246511627905,0.1349548563611247,8.990024623803023,-2.920032831737364
11.617241860465114,0.2384240766073611,8.933586867305076,-2.844782489740101
11.625237209302323,-0.11621262458445741,9.177475083056304,-2.3837873754155425
11.633232558139534,1.4864554050600607,9.5,-3.0040633784819817
11.641227906976743,1.3985944288269947,9.5,-3.0304216713519017
11.649223255813952,1.310733452593929,9.5,-3.056779964221821
11.657218604651161,1.222872476360863,9.5,-3.083138257091741
11.66521395348837,1.135011500127797,9.5,-3.1094965499616607
11.67320930232558,1.0471505238947312,9.5,-3.1358548428315807
11.681204651162789,0.9592895476616652,9.5,-3.1622131357015
11.689199999999998,0.8714285714285993,9.5,-3.18857142857142
11.697195348837207,0.7835675951955333,9.5,-3.2149297214413397
11.705190697674418,0.6957066189624479,9.5,-3.2412880143112655
11.713186046511627,0.607845642729382,9.5,-3.2676463071811854
11.721181395348836,0.519984666496316,9.5,-3.294004600051105
11.729176744186045,0.23534883720890776,9.201453488372216,-3.5014534883722166
11.737172093023254,0.6985827633379078,8.900404924760599,-2.8991901504788045
11.745167441860463,0.6327387140903028,8.919217510259914,-2.861564979480173
11.753162790697672,0.5668946648426978,8.93803009575923,-2.8239398084815415
11.761158139534881,0.5010506155950927,8.956842681258545,-2.78631463748291
11.76915348837209,0.4352065663474877,8.97565526675786,-2.7486894664842785
11.777148837209301,0.36936251709986806,8.99446785225718,-2.711064295485639
11.78514418604651,0.30351846785226305,9.013280437756496,-2.6734391244870075
11.79313953488372,0.23767441860465804,9.032093023255811,-2.635813953488376
11.801134883720929,0.17183036935705298,9.050905608755128,-2.5981887824897445
11.809130232558138,0.10598632010944797,9.069718194254444,-2.560563611491113
11.817125581395347,0.040142270861842966,9.088530779753759,-2.522938440492482
11.825120930232556,0.993953488372169,8.987906976744338,-2.606046511627831
11.833116279069765,0.9,8.8,-2.7
11.841111627906976,0.9,8.8,-2.7
11.849106976744185,0.9,8.8,-2.7
11.857102325581394,0.9,8.8,-2.7
11.865097674418603,0.9,8.8,-2.7
11.873093023255812,0.9,8.8,-2.7
11.881088372093021,0.9,8.8,-2.7
11.88908372093023,0.9,8.8,-2.7
11.89707906976744,0.9,8.8,-2.7
11.905074418604649,0.9,8.8,-2.7
11.91306976744186,0.9,8.8,-2.7
11.921065116279069,0.9,8.8,-2.7
11.929060465116278,1.2619873150106065,8.961987315010607,-3.0460042283297977
11.937055813953487,1.1001881369218678,8.600062712307288,-3.300125424614578
11.945051162790696,1.1271387509798758,8.609046250326625,-3.3180925006532505
11.953046511627905,1.1540893650378838,8.618029788345961,-3.3360595766919223
11.961041860465114,1.1810399790958919,8.627013326365297,-3.3540266527305946
11.969037209302323,1.2079905931539,8.635996864384634,-3.3719937287692665
11.977032558139534,1.234941207211914,8.64498040240397,-3.3899608048079424
11.985027906976743,1.261891821269922,8.653963940423306,-3.4079278808466147
11.993023255813952,1.28884243532793,8.662947478442643,-3.4258949568852866
12.001018604651161,1.315793049385938,8.67193101646198,-3.443862032923959
12.00901395348837,1.342743663443946,8.680914554481316,-3.4618291089626307
12.01700930232558,1.3696942775019543,8.68989809250065,-3.4797961850013026
12.025004651162789,1.396644891559962,8.698881630519987,-3.497763261039975
12.033,0.8,8.7,-3.3
