gyro_time_list,gyro_x_list,gyro_y_list,gyro_z_list
0.0,-0.0,0.0,-0.0
0.007999244712990936,-3.776435045320381e-05,-7.552870090640762e-05,-3.776435045320381e-05
0.015998489425981872,0.0,0.0,0.0
0.02399773413897281,0.0,0.0,0.0
0.031996978851963745,0.0,0.0,0.0
0.03999622356495468,0.0,0.0,0.0
0.04799546827794562,0.0,0.0,0.0
0.05599471299093656,0.0,0.0,0.0
0.06399395770392749,0.0,0.0,0.0
0.07199320241691842,0.0,0.0,0.0
0.07999244712990936,0.0,0.0,0.0
0.0879916918429003,0.0,0.0,0.0
0.09599093655589123,0.0,0.0,0.0
0.10399018126888217,0.0,0.0,0.0
0.11198942598187311,0.0,0.0,0.0
0.11998867069486405,0.0,0.0,0.0
0.12798791540785498,0.0,0.0,0.0
0.1359871601208459,0.0,0.0,0.0
0.14398640483383685,0.0,0.0,0.0
0.15198564954682778,0.0,0.0,0.0
0.1599848942598187,0.0,0.0,0.0
0.16798413897280967,0.0,0.0,0.0
0.1759833836858006,0.0,0.0,0.0
0.18398262839879154,0.0,0.0,0.0
0.19198187311178247,0.0,0.0,0.0
0.1999811178247734,0.0,0.0,0.0
0.20798036253776434,0.0,0.04901812688821723,0.0
0.21597960725075527,0.0,0.1,0.0
0.22397885196374623,0.0,0.1,0.0
0.23197809667673716,0.0,0.1,0.0
0.2399773413897281,0.0,0.1,0.0
0.24797658610271903,0.0,0.1,0.0
0.25597583081570996,0.0,0.1,0.0
0.2639750755287009,0.0,0.1,0.0
0.2719743202416918,0.0,0.1,0.0
0.2799735649546828,0.0,0.1,0.0
0.2879728096676737,0.0,0.1,0.0
0.29597205438066465,0.0,0.1,0.0
0.30397129909365556,0.0,0.1,0.0
0.3119705438066465,0.0,0.1,0.0
0.3199697885196374,0.0,0.1,0.0
0.3279690332326284,0.0,0.1,0.0
0.33596827794561934,0.0,0.1,0.0
0.34396752265861025,0.0,0.1,0.0
0.3519667673716012,0.0,0.1,0.0
0.3599660120845921,0.0,0.1,0.0
0.3679652567975831,0.0,0.1,0.0
0.375964501510574,0.0,0.1,0.0
0.38396374622356494,0.0,0.1,0.0
0.3919629909365559,0.0,0.1,0.0
0.3999622356495468,0.0,0.1,0.0
0.40796148036253777,0.0,0.1,0.0
0.41596072507552867,0.0,0.1,0.0
0.42395996978851963,0.0,0.1,0.0
0.43195921450151054,0.0,0.1,0.0
0.4399584592145015,0.0,0.1,0.0
0.44795770392749246,0.0,0.1,0.0
0.45595694864048336,0.0,0.1,0.0
0.4639561933534743,0.0,0.1,0.0
0.4719554380664652,0.0,0.1,0.0
0.4799546827794562,0.0,0.1,0.0
0.4879539274924471,0.0,0.1,0.0
0.49595317220543805,0.0,0.1,0.0
0.503952416918429,0.0,0.1,0.0
0.5119516616314199,0.0,0.1,0.0
0.5199509063444109,0.0,0.09437397006316947,0.0
0.5279501510574018,0.0,0.08528391925295246,0.0
0.5359493957703927,0.0,0.0761938684427356,0.0
0.5439486404833836,0.0,0.06710381763251858,0.0
0.5519478851963746,0.0,0.05801376682230158,0.0
0.5599471299093656,0.0,0.048923716012084575,0.0
0.5679463746223564,0.0,0.03983366520186769,0.0
0.5759456193353474,0.0,0.030743614391650687,0.0
0.5839448640483383,0.0,0.02165356358143368,0.0
0.5919441087613293,0.0,0.012563512771216687,0.0
0.5999433534743203,0.0,0.0034734619609996797,0.0
0.6079425981873111,-0.1,0.0,0.1
0.6159418429003021,-0.2078056295055487,0.1,0.10390281475277435
0.623941087613293,-0.22364571804612485,0.1,0.11182285902306242
0.631940332326284,-0.23948580658670102,0.1,0.11974290329335051
0.6399395770392748,-0.255325895127277,0.1,0.1276629475636385
0.6479388217522658,-0.2711659836678531,0.1,0.13558299183392655
0.6559380664652568,-0.2870060722084293,0.1,0.14350303610421464
0.6639373111782477,-0.30284616074900544,0.1,0.15142308037450272
0.6719365558912387,-0.3186862492895816,0.1,0.1593431246447908
0.6799358006042295,-0.33452633783015756,0.1,0.16726316891507878
0.6879350453172205,-0.35036642637073373,0.1,0.17518321318536687
0.6959342900302115,-0.36620651491130984,0.1,0.18310325745565492
0.7039335347432024,-0.382046603451886,0.1,0.191023301725943
0.7119327794561934,-0.3978866919924622,0.1,0.1989433459962311
0.7199320241691842,-0.6079607250755276,0.16932024169184254,0.26932024169184254
0.7279312688821752,-1.1179380664652563,0.23931268882175205,0.43931268882175206
0.7359305135951661,-1.3146621285708824,0.30488737619029405,0.5048873761902941
0.7439297583081571,-1.3754158858847376,0.3251386286282459,0.5251386286282459
0.751929003021148,-1.4361696431985922,0.3453898810661974,0.5453898810661975
0.7599282477341389,-1.4969234005124477,0.36564113350414923,0.5656411335041492
0.7679274924471299,-1.5576771578263031,0.385892385942101,0.585892385942101
0.7759267371601208,-1.6184309151401586,0.40614363838005285,0.6061436383800528
0.7839259818731118,-1.679184672454014,0.42639489081800463,0.6263948908180046
0.7919252265861026,-1.7399384297678684,0.4466461432559562,0.6466461432559562
0.7999244712990936,-1.800692187081724,0.466897395693908,0.6668973956939079
0.8079237160120846,-1.8614459443955793,0.4871486481318598,0.6871486481318597
0.8159229607250755,-2.2230614300100777,0.7615307150050388,0.9307653575025194
0.8239222054380664,-2.894813695871095,0.9,1.0987034239677738
0.8319214501510573,-2.88044086382455,0.9488978404386258,1.1293387042631755
0.8399206948640483,-2.8606896423109918,0.9982758942225205,1.1589655365335123
0.8479199395770393,-2.8409384207974337,1.0476539480064153,1.1885923688038493
0.8559191842900302,-2.821187199283876,1.0970320017903101,1.2182192010741861
0.8639184290030211,-2.801435977770318,1.1464100555742043,1.2478460333445225
0.871917673716012,-2.7816847562567606,1.1957881093580989,1.2774728656148593
0.879916918429003,-2.7619335347432026,1.2451661631419937,1.3070996978851963
0.887916163141994,-2.7421823132296446,1.2945442169258885,1.336726530155533
0.8959154078549849,-2.722431091716087,1.343922270709783,1.36635336242587
0.9039146525679758,-2.7026798702025294,1.3933003244936772,1.3959801946962065
0.9119138972809667,-1.904029257433614,1.704029257433614,1.697985371283193
0.9199131419939577,-1.9208697726188582,1.7208697726188582,1.689565113690571
0.9279123867069486,-1.9377102878041024,1.7377102878041024,1.6811448560979487
0.9359116314199395,-1.9545508029893464,1.7545508029893462,1.6727245985053267
0.9439108761329305,-1.9713913181745903,1.7713913181745904,1.6643043409127047
0.9519101208459214,-1.9882318333598346,1.7882318333598346,1.6558840833200827
0.9599093655589124,-2.0050723485450788,1.8050723485450786,1.6474638257274608
0.9679086102719033,-2.0219128637303228,1.8219128637303228,1.6390435681348385
0.9759078549848942,-2.0387533789155667,1.8387533789155668,1.6306233105422165
0.9839070996978851,-2.055593894100811,1.855593894100811,1.6222030529495945
0.9919063444108761,-2.072434409286055,1.872434409286055,1.6137827953569726
0.9999055891238671,-2.089274924471299,1.8892749244712992,1.6053625377643503
1.007904833836858,-2.480966767371584,2.0,1.4095166163142079
1.015904078549849,-2.4106379793690973,1.9946810103154513,1.3946810103154512
1.0239033232628398,-2.4250510329060178,1.987474483546991,1.387474483546991
1.0319025679758307,-2.439464086442938,1.9802679567785308,1.3802679567785308
1.0399018126888218,-2.453877139979859,1.9730614300100704,1.3730614300100705
1.0479010574018126,-2.4682901935167796,1.9658549032416102,1.3658549032416103
1.0559003021148037,-2.4827032470537005,1.9586483764731497,1.3586483764731498
1.0638995468277945,-2.497116300590621,1.9514418497046895,1.3514418497046896
1.0718987915407854,-2.5115293541275414,1.9442353229362292,1.3442353229362294
1.0798980362537764,-2.525942407664462,1.9370287961677688,1.337028796167769
1.0878972809667673,-2.540355461201383,1.9298222693993088,1.3298222693993087
1.0958965256797584,-2.5547685147383032,1.9226157426308483,1.3226157426308482
1.1038957703927492,-2.5691815682752237,1.915409215862388,1.315409215862388
1.11189501510574,-2.583594621812144,1.9082026890939279,1.3082026890939278
1.1198942598187311,-2.598007675349065,1.9009961623254674,1.3009961623254676
1.127893504531722,-2.6,1.8,1.3
1.1358927492447128,-2.6,1.8432527693856988,1.3
1.143891993957704,-2.5933771130739607,1.8977923710246534,1.304415257950693
1.1518912386706948,-2.5750582320518443,1.8916860773506146,1.3166278452987707
1.1598904833836858,-2.5567393510297274,1.8855797836765757,1.3288404326468486
1.1678897280966767,-2.5384204700076105,1.879473490002537,1.3410530199949262
1.1758889728096675,-2.520101588985494,1.8733671963284981,1.3532656073430038
1.1838882175226586,-2.501782707963377,1.867260902654459,1.365478194691082
1.1918874622356495,-2.4834638269412608,1.8611546089804203,1.3776907820391595
1.1998867069486405,-2.465144945919144,1.8550483153063813,1.3899033693872374
1.2078859516616314,-2.4468260648970275,1.8489420216323424,1.402115956735315
1.2158851963746222,-2.428507183874911,1.8428357279583036,1.4143285440833928
1.2238844410876133,-2.4101883028527937,1.8367294342842646,1.4265411314314707
1.2318836858006041,-2.3918694218306773,1.8306231406102258,1.4387537187795483
1.2398829305135952,-2.3735505408085604,1.824516846936187,1.4509663061276263
1.247882175226586,-2.355231659786444,1.8184105532621482,1.463178893475704
1.255881419939577,-2.3369127787643276,1.8123042595881094,1.4753914808237816
1.263880664652568,-2.3185938977422107,1.8061979659140703,1.4876040681718594
1.2718799093655588,-2.3002750167200943,1.8000916722400315,1.499816655519937
1.2798791540785497,-2.2,1.5,1.8879154078549658
1.2878783987915408,-2.267050202481198,1.5167625506202995,1.9167625506202994
1.2958776435045316,-2.3351288808896307,1.5337822202224076,1.9337822202224075
1.3038768882175227,-2.4032075592980657,1.5508018898245164,1.9508018898245163
1.3118761329305135,-2.4712862377064986,1.5678215594266247,1.9678215594266246
1.3198753776435044,-2.5393649161149314,1.5848412290287328,1.9848412290287327
1.3278746223564954,-2.6437311178247747,1.6,1.9562688821752254
1.3358738670694863,-1.9345261903748807,1.1727192459895335,2.61636845240628
1.3438731117824774,-1.799327688183482,1.1163865367431176,2.6501680779541297
1.3518723564954682,-1.6641291859920875,1.060053827496703,2.683967703501978
1.359871601208459,-1.5289306838006929,1.0037211182502885,2.7177673290498268
1.3678708459214501,-1.3937321816092942,0.9473884090038726,2.7515669545976764
1.375870090634441,-1.2585336794178996,0.8910556997574581,2.785366580145525
1.383869335347432,-1.123335177226501,0.834722990511042,2.819166205693375
1.391868580060423,-0.9881366750351064,0.7783902812646275,2.8529658312412236
1.3998678247734138,-0.8529381728437118,0.7220575720182131,2.886765456789072
1.4078670694864048,0.2951829472977511,0.698394315765917,2.6943801051807097
1.4158663141993957,0.2507426988922463,0.6835808996307488,2.6425331487076207
1.4238655589123868,0.2063024504867403,0.66876748349558,2.5906861922345303
1.4318648036253776,0.16186220208123553,0.6539540673604118,2.5388392357614418
1.4398640483383685,0.11742195367573077,0.6391406512252436,2.4869922792883528
1.4478632930513595,0.07298170527022477,0.6243272350900749,2.4351453228152624
1.4558625377643504,0.028541456864719983,0.6095138189549066,2.3832983663421734
1.4638617824773412,-0.015898791540784774,0.5947004028197383,2.3314514098690844
1.4718610271903323,-0.06033903994629075,0.5798869866845697,2.279604453395994
1.4798602719033231,-0.10477928835179551,0.5650735705494014,2.227757496922905
1.4878595166163142,-0.14921953675730154,0.5502601544142328,2.1759105404498147
1.495858761329305,-0.1936597851628063,0.5354467382790645,2.124063583976726
1.503858006042296,-0.23810003356831105,0.5206333221438963,2.072216627503637
1.511857250755287,-0.28254028197381703,0.5058199060087276,2.0203696710305468
1.5198564954682778,0.2,-0.634809290030209,0.9303814199395819
1.527855740181269,0.2,-0.7847951283987915,0.6304097432024169
1.5358549848942598,-0.057250755287008244,-0.24350453172204944,-0.17099697885196705
1.5438542296072506,-0.03560638757013334,0.17121277514026667,-0.42670479067760003
1.5518534743202417,-0.07716090555969726,0.25432181111939456,-0.457870679169773
1.5598527190332325,-0.11871542354926001,0.33743084709852,-0.48903656766194503
1.5678519637462236,-0.16026994153882393,0.4205398830776479,-0.520202456154118
1.5758512084592144,-0.2018244595283867,0.5036489190567734,-0.55136834464629
1.5838504531722053,-0.24337897751794946,0.5867579550358989,-0.5825342331384621
1.5918496978851964,-0.28493349550751335,0.6698669910150267,-0.613700121630635
1.5998489425981872,-0.3264880134970761,0.7529760269941522,-0.6448660101228071
1.6078481873111783,-0.36804253148664007,0.8360850629732801,-0.67603189861498
1.6158474320241691,-0.2152567975830964,0.06865558912393377,-0.4228851963746446
1.62384667673716,0.12919684781421686,-0.15912441306009642,-0.18832126087431328
1.631845921450151,0.1773850689768137,-0.09166090343246086,-0.16904597240927455
1.639845166163142,0.2255732901394092,-0.02419739380482716,-0.14977068394423634
1.6478444108761328,0.27376151130200466,0.04326611582280654,-0.13049539547919814
1.6558436555891238,0.32194973246460157,0.11072962545044213,-0.11122010701415941
1.6638429003021147,0.37013795362719704,0.17819313507807583,-0.0919448185491212
1.6718421450151058,0.41832617478979384,0.24565664470571136,-0.07266953008408247
1.6798413897280966,0.4665143959523894,0.3131201543333451,-0.05339424161904427
1.6878406344410875,0.5147026171149849,0.3805836639609788,-0.034118953154006065
1.6958398791540785,0.5628908382775817,0.4480471735886144,-0.014843664688967334
1.7038391238670694,0.5,0.21608761329306983,0.0
1.7118383685800604,0.604988008845423,0.09501199115457694,-0.0049880088454230635
1.7198376132930513,0.6132346528794342,0.08676534712056576,-0.013234652879434252
1.7278368580060421,0.6214812969134454,0.07851870308655456,-0.021481296913445438
1.7358361027190332,0.6297279409474569,0.07027205905254315,-0.029727940947456857
1.743835347432024,0.637974584981468,0.06202541501853196,-0.037974584981468044
1.7518345921450151,0.6462212290154794,0.053778770984520545,-0.04622122901547946
1.759833836858006,0.6544678730494906,0.04553212695050936,-0.05446787304949065
1.7678330815709968,0.6627145170835018,0.037285482916498164,-0.06271451708350184
1.775832326283988,0.6709611611175132,0.029038838882486748,-0.07096116111751326
1.7838315709969788,0.6792078051515245,0.020792194848475568,-0.07920780515152444
1.7918308157099698,0.6874544491855358,0.012545550814464151,-0.08745444918553585
1.7998300604229607,0.695701093219547,0.004298906780452957,-0.09570109321954705
1.8078293051359515,0.7,-0.1914652567975737,-0.2914652567975737
1.8158285498489426,0.693156734236429,-0.30456217717571393,-0.402281088587857
1.8238277945619334,0.6738037228340318,-0.3174641847773121,-0.40873209238865604
1.8318270392749243,0.6544507114316347,-0.3303661923789102,-0.41518309618945515
1.8398262839879154,0.6350977000292369,-0.3432681999805087,-0.42163409999025436
1.8478255287009062,0.6157446886268397,-0.3561702075821068,-0.4280851037910534
1.8558247734138973,0.596391677224442,-0.3690722151837053,-0.4345361075918527
1.8638240181268881,0.5770386658220448,-0.38197422278530346,-0.44098711139265173
1.871823262839879,0.5576856544196476,-0.39487623038690156,-0.4474381151934508
1.87982250755287,0.5383326430172498,-0.4077782379885001,-0.45388911899425005
1.887821752265861,0.5189796316148527,-0.4206802455900982,-0.4603401227950491
1.895820996978852,0.49962662021245496,-0.4335822531916967,-0.46679112659584837
1.9038202416918428,0.48027360881005776,-0.44648426079329484,-0.4732421303966474
1.9118194864048337,0.46092059740766056,-0.45938626839489294,-0.47969313419744647
1.9198187311178248,0.4415675860052628,-0.4722882759964915,-0.48614413799824574
1.9278179758308156,0.4222145746028656,-0.4851902835980896,-0.4925951417990448
1.9358172205438067,0.4028615632004679,-0.4980922911996881,-0.49904614559984406
1.9438164652567975,-0.6268234786361663,-0.6044705797726944,-0.7044705797726943
1.9518157099697884,-0.7030067616170316,-0.6171677936028386,-0.7171677936028386
1.9598149546827794,-0.779190044597899,-0.6298650074329831,-0.7298650074329831
1.9678141993957703,-0.8553733275787643,-0.6425622212631273,-0.7425622212631274
1.9758134441087611,-0.9315566105596296,-0.6552594350932716,-0.7552594350932716
1.9838126888217522,-1.007739893540497,-0.6679566489234161,-0.7679566489234162
1.991811933534743,-1.0839231765213624,-0.6806538627535603,-0.7806538627535604
1.9998111782477341,-1.16010645950223,-0.6933510765837049,-0.793351076583705
2.007810422960725,-1.390521148036261,-0.5189577039274781,-0.7
2.015809667673716,-1.1523323262839884,-0.31361933534743186,-0.593190332326284
2.023808912386707,-1.096337613293051,-0.329617824773414,-0.585191087613293
2.031808157099698,-1.0403429003021136,-0.3456163141993961,-0.5771918429003019
2.0398074018126886,-0.9843481873111792,-0.36161480362537735,-0.5691925981873113
2.0478066465256797,-0.9283534743202417,-0.3776132930513595,-0.5611933534743202
2.0558058912386707,-0.8723587613293042,-0.39361178247734163,-0.5531941087613291
2.0638051359516614,-0.81636404833837,-0.4096102719033229,-0.5451948640483386
2.0718043806646524,-0.7603693353474326,-0.425608761329305,-0.5371956193353475
2.0798036253776435,-0.7043746223564951,-0.4416072507552871,-0.5291963746223565
2.087802870090634,-0.6483799093655607,-0.4576057401812684,-0.5211971299093658
2.095802114803625,-0.5923851963746233,-0.47360422960725046,-0.5131978851963748
2.1038013595166163,-0.5363904833836858,-0.4896027190332326,-0.5051986404833837
2.1118006042296074,0.07009063444109226,-0.5099697885196359,-0.40996978851963595
2.119799848942598,0.5129847364386525,-0.4,-0.3
2.127799093655589,0.5308934932587817,-0.4,-0.3
2.13579833836858,0.5488022500789109,-0.4,-0.3
2.1437975830815708,0.5667110068990391,-0.4,-0.3
2.151796827794562,0.5846197637191684,-0.4,-0.3
2.159796072507553,0.6025285205392975,-0.4,-0.3
2.1677953172205435,0.6204372773594258,-0.4,-0.3
2.1757945619335346,0.638346034179555,-0.4,-0.3
2.1837938066465257,0.6562547909996842,-0.4,-0.3
2.1917930513595167,0.6741635478198135,-0.4,-0.3
2.1997922960725074,0.6920723046399416,-0.4,-0.3
2.2077915407854984,0.7099810614600709,-0.4,-0.3
2.2157907854984895,0.7278898182802,-0.4,-0.3
2.22379003021148,0.7457985751003283,-0.4,-0.3
2.231789274924471,0.7637073319204575,-0.4,-0.3
2.2397885196374623,0.7816160887405867,-0.4,-0.3
2.247787764350453,0.799524845560715,-0.4,-0.3
2.255787009063444,0.8,-0.4,-0.3
2.263786253776435,0.5218073813995262,-0.3,-0.4156385237200948
2.2717854984894257,0.41370947987262563,-0.3,-0.4372581040254749
2.2797847432024168,0.305611578345719,-0.3,-0.4588776843308562
2.287783987915408,0.19751367681881238,-0.3,-0.48049726463623754
2.295783232628399,0.08941577529190581,-0.3,-0.5021168449416189
2.3037824773413895,-0.018682126234994767,-0.3,-0.5237364252469989
2.3117817220543806,-0.12678002776190145,-0.3,-0.5453560055523803
2.3197809667673717,-0.23487792928880802,-0.3,-0.5669755858577616
2.3277802114803623,-0.3429758308157086,-0.3,-0.5885951661631417
2.3357794561933534,-1.1889728096676677,-0.4296576032225559,-0.829657603222556
2.3437787009063444,-1.2578984711159962,-0.6084203057768007,-0.9915796942231992
2.351777945619335,-1.1366977936464409,-0.6326604412707117,-0.9673395587292882
2.359777190332326,-1.015497116176879,-0.6569005767646242,-0.9430994232353758
2.367776435045317,-0.8942964387073169,-0.6811407122585367,-0.9188592877414634
2.3757756797583083,-0.773095761237755,-0.705380847752449,-0.8946191522475511
2.383774924471299,-0.6518950837681997,-0.72962098324636,-0.87037901675364
2.39177416918429,-0.5306944062986377,-0.7538611187402725,-0.8461388812597276
2.399773413897281,-0.40949372882907575,-0.7781012542341849,-0.8218987457658152
2.4077726586102717,-0.19182779456196694,-0.7845468277945667,-0.7690936555891335
2.4157719033232627,0.9029177929718557,-0.49708220702814426,-0.3970822070281443
2.423771148036254,0.9113380505644779,-0.4886619494355221,-0.3886619494355221
2.4317703927492444,0.9197583081570996,-0.48024169184290044,-0.38024169184290046
2.4397696374622355,0.9281785657497218,-0.4718214342502783,-0.37182143425027825
2.4477688821752266,0.9365988233423439,-0.4634011766576561,-0.3634011766576561
2.455768126888217,0.9450190809349656,-0.4549809190650344,-0.35498091906503443
2.4637673716012083,0.9534393385275878,-0.44656066147241225,-0.34656066147241227
2.4717666163141994,0.9618595961202099,-0.4381404038797901,-0.33814040387979005
2.4797658610271904,0.9702798537128321,-0.4297201462871679,-0.3297201462871679
2.487765105740181,0.9787001113054538,-0.42129988869454627,-0.32129988869454623
2.495764350453172,0.987120368898076,-0.41287963110192405,-0.31287963110192407
2.503763595166163,0.9955406264906981,-0.40445937350930194,-0.30445937350930186
2.511762839879154,1.1525679758307588,-0.2,-0.061858006042310336
2.519762084592145,1.3771798630014056,-0.5057050342496486,-0.2
2.527761329305136,1.3454996859202528,-0.5136250785199368,-0.2
2.5357605740181266,1.313819508839102,-0.5215451227902245,-0.2
2.5437598187311177,1.2821393317579495,-0.5294651670605126,-0.2
2.5517590634441087,1.250459154676797,-0.5373852113308007,-0.2
2.5597583081570994,1.218778977595646,-0.5453052556010884,-0.2
2.5677575528700904,1.1870988005144933,-0.5532252998713767,-0.2
2.5757567975830815,1.1554186234333408,-0.5611453441416648,-0.2
2.5837560422960726,1.123738446352188,-0.569065388411953,-0.2
2.591755287009063,1.0920582692710372,-0.5769854326822407,-0.2
2.5997545317220543,1.0603780921898847,-0.5849054769525288,-0.2
2.6077537764350454,1.028697915108732,-0.592825521222817,-0.2
2.615753021148036,0.774093655589269,-0.6188255287008942,-0.23765105740178852
2.623752265861027,0.1979139692130629,-0.6,-0.4
2.631751510574018,0.18839105884045448,-0.6,-0.4
2.6397507552870088,0.1788681484678466,-0.6,-0.4
2.64775,0.16934523809523822,-0.6,-0.4
2.655749244712991,0.15982232772262978,-0.6,-0.4
2.663748489425982,0.1502994173500214,-0.6,-0.4
2.6717477341389726,0.1407765069774135,-0.6,-0.4
2.6797469788519637,0.13125359660480507,-0.6,-0.4
2.6877462235649547,0.12173068623219667,-0.6,-0.4
2.6957454682779454,0.11220777585958878,-0.6,-0.4
2.7037447129909364,0.10268486548698037,-0.6,-0.4
2.7117439577039275,0.06280211480362138,-0.4,-0.4
2.719743202416918,0.0,-0.4,-0.4
2.727742447129909,0.0,-0.4,-0.4
2.7357416918429003,0.0,-0.4,-0.4
2.743740936555891,0.0,-0.4,-0.4
2.751740181268882,0.0,-0.4,-0.4
2.759739425981873,0.0,-0.4,-0.4
2.767738670694864,0.0,-0.4,-0.4
2.7757379154078548,0.0,-0.4,-0.4
2.783737160120846,0.0,-0.4,-0.4
2.791736404833837,0.0,-0.4,-0.4
2.7997356495468275,0.0,-0.4,-0.4
2.8077348942598186,-0.2,-0.5,-0.5
2.8157341389728097,-0.1928360223693516,-0.5,-0.4928360223693516
2.8237333836858003,-0.18432618756829772,-0.5,-0.4843261875682977
2.8317326283987914,-0.1758163527672434,-0.5,-0.4758163527672434
2.8397318731117824,-0.16730651796618903,-0.5,-0.46730651796618905
2.8477311178247735,-0.15879668316513468,-0.5,-0.45879668316513467
2.855730362537764,-0.15028684836408082,-0.5,-0.45028684836408084
2.863729607250755,-0.14177701356302647,-0.5,-0.44177701356302645
2.8717288519637463,-0.13326717876197214,-0.5,-0.4332671787619721
2.879728096676737,-0.12475734396091827,-0.5,-0.42475734396091824
2.887727341389728,-0.11624750915986393,-0.5,-0.4162475091598639
2.895726586102719,-0.10773767435880957,-0.5,-0.4077376743588096
2.9037258308157097,-0.11036901165299483,-0.5,-0.4
2.9117250755287007,-0.2,-0.5,-0.4
2.919724320241692,-0.1,-0.5,-0.4
2.9277235649546824,-0.1,-0.5,-0.4
2.9357228096676735,-0.1,-0.5,-0.4
2.9437220543806646,-0.1,-0.5,-0.4
2.9517212990936557,-0.1,-0.5,-0.4
2.9597205438066463,-0.1,-0.5,-0.4
2.9677197885196374,-0.1,-0.5,-0.4
2.9757190332326284,-0.1,-0.5,-0.4
2.983718277945619,-0.1,-0.5,-0.4
2.99171752265861,-0.1,-0.5,-0.4
2.999716767371601,-0.1,-0.5,-0.4
3.007716012084592,-0.1,-0.5,-0.4
3.015715256797583,-0.1715256797582854,-0.5238418932527618,-0.4238418932527618
3.023714501510574,-0.3257099697885194,-0.4628549848942597,-0.4
3.031713746223565,-0.1954901415169336,-0.3954901415169336,-0.3977450707584668
3.0397129909365557,-0.17443949753537932,-0.37443949753537936,-0.38721974876768966
3.0477122356495467,-0.1533888535538239,-0.3533888535538239,-0.37669442677691195
3.055711480362538,-0.13233820957226847,-0.33233820957226845,-0.36616910478613424
3.0637107250755284,-0.11128756559071419,-0.3112875655907142,-0.35564378279535713
3.0717099697885195,-0.09023692160915876,-0.29023692160915876,-0.3451184608045794
3.0797092145015106,-0.06918627762760332,-0.26918627762760333,-0.33459313881380165
3.087708459214501,-0.04813563364604906,-0.24813563364604907,-0.32406781682302455
3.0957077039274923,-0.02708498966449363,-0.22708498966449364,-0.31354249483224683
3.1037069486404834,-0.0060343456829382025,-0.2060343456829382,-0.3030171728414691
3.111706193353474,-0.1,-0.3,-0.22938066465261503
3.119705438066465,-0.1064751580390462,-0.3,-0.19352484196095382
3.127704682779456,-0.11319721241971098,-0.3,-0.18680278758028904
3.135703927492447,-0.11991926680037576,-0.3,-0.18008073319962425
3.143703172205438,-0.12664132118104016,-0.3,-0.17335867881895986
3.151702416918429,-0.13336337556170494,-0.3,-0.16663662443829508
3.15970166163142,-0.14008542994236972,-0.3,-0.1599145700576303
3.1677009063444106,-0.14680748432303414,-0.3,-0.1531925156769659
3.1757001510574017,-0.1535295387036989,-0.3,-0.14647046129630112
3.1836993957703927,-0.16025159308436368,-0.3,-0.13974840691563634
3.1916986404833834,-0.16697364746502807,-0.3,-0.13302635253497191
3.1996978851963744,-0.17369570184569288,-0.3,-0.12630429815430716
3.2076971299093655,-0.18041775622635764,-0.3,-0.11958224377364236
3.2156963746223566,-0.18713981060702245,-0.3,-0.11286018939297758
3.223695619335347,-0.19386186498768684,-0.3,-0.10613813501231317
3.2316948640483383,-0.24632426988922534,-0.32316213494461266,-0.053675730110774686
3.2396941087613293,-0.3958552172902627,-0.49585521729026266,0.1
3.24769335347432,-0.3835486869625848,-0.4835486869625848,0.1
3.255692598187311,-0.37124215663490623,-0.4712421566349062,0.1
3.263691842900302,-0.35893562630722764,-0.4589356263072276,0.1
3.2716910876132927,-0.3466290959795497,-0.44662909597954975,0.1
3.279690332326284,-0.33432256565187113,-0.43432256565187116,0.1
3.287689577039275,-0.32201603532419254,-0.4220160353241926,0.1
3.2956888217522655,-0.3097095049965147,-0.4097095049965147,0.1
3.3036880664652566,-0.25779833836858645,-0.35779833836858643,0.1
3.3116873111782477,0.0026346188022034326,-0.1973653811977966,0.0
3.3196865558912387,0.01047701557964567,-0.18952298442035434,0.0
3.3276858006042294,0.01831941235708747,-0.18168058764291253,0.0
3.3356850453172204,0.026161809134529708,-0.1738381908654703,0.0
3.3436842900302115,0.034004205911971945,-0.16599579408802806,0.0
3.351683534743202,0.04184660268941375,-0.15815339731058625,0.0
3.359682779456193,0.04968899946685599,-0.15031100053314403,0.0
3.3676820241691843,0.057531396244298226,-0.14246860375570178,0.0
3.375681268882175,0.06537379302174003,-0.13462620697826,0.0
3.383680513595166,0.07321618979918226,-0.12678381020081775,0.0
3.391679758308157,0.0810585865766245,-0.11894141342337551,0.0
3.399679003021148,0.08890098335406674,-0.11109901664593327,0.0
3.4076782477341387,0.09674338013150854,-0.10325661986849147,0.0
3.41567749244713,0.1,-0.15197213830144263,-0.05197213830144263
3.423676737160121,0.1,-0.2,-0.1
3.4316759818731115,0.1,-0.20093886371265482,-0.10093886371265481
3.4396752265861026,0.1,-0.21204892581403129,-0.1120489258140313
3.4476744712990937,0.1,-0.22315898791540778,-0.12315898791540777
3.4556737160120843,0.1,-0.23426905001678364,-0.13426905001678363
3.4636729607250754,0.1,-0.2453791121181601,-0.14537911211816013
3.4716722054380664,0.1,-0.2564891742195366,-0.1564891742195366
3.479671450151057,0.1,-0.2675992363209124,-0.16759923632091245
3.487670694864048,0.1,-0.2787092984222889,-0.17870929842228894
3.495669939577039,0.1,-0.2898193605236654,-0.1898193605236654
3.5036691842900303,0.07769385699899235,-0.32230614300100763,-0.2
3.511668429003021,-0.0053907656626686765,-0.5,-0.20269538283133434
3.519667673716012,-0.02155085599194354,-0.5,-0.21077542799597176
3.527666918429003,-0.0377109463212184,-0.5,-0.21885547316060922
3.5356661631419937,-0.053871036650492365,-0.5,-0.2269355183252462
3.5436654078549847,-0.07003112697976722,-0.5,-0.23501556348988362
3.551664652567976,-0.08619121730904208,-0.5,-0.24309560865452104
3.5596638972809664,-0.10235130763831606,-0.5,-0.251175653819158
3.5676631419939575,-0.11851139796759091,-0.5,-0.25925569898379547
3.5756623867069486,-0.13467148829686576,-0.5,-0.26733574414843286
3.5836616314199397,-0.15083157862614063,-0.5,-0.2754157893130703
3.5916608761329303,-0.1669916689554146,-0.5,-0.2834958344777073
3.5996601208459214,-0.18315175928468946,-0.5,-0.2915758796423447
3.6076593655589124,-0.1993118496139643,-0.5,-0.29965592480698217
3.615658610271903,-0.6595166163141871,-0.6531722054380623,-0.45317220543806236
3.623657854984894,-1.206562604900973,-0.8,-0.5032813024504865
3.631657099697885,-1.2263138264145312,-0.8,-0.5131569132072656
3.639656344410876,-1.2460650479280884,-0.8,-0.5230325239640442
3.647655589123867,-1.2658162694416466,-0.8,-0.5329081347208233
3.655654833836858,-1.2855674909552048,-0.8,-0.5427837454776024
3.6636540785498486,-1.305318712468762,-0.8,-0.552659356234381
3.6716533232628397,-1.3250699339823202,-0.8,-0.5625349669911601
3.6796525679758307,-1.3448211554958784,-0.8,-0.5724105777479392
3.687651812688822,-1.3645723770094365,-0.8,-0.5822861885047184
3.6956510574018124,-1.3843235985229936,-0.8,-0.5921617992614969
3.7036503021148035,-1.510020140986899,-0.8,-0.6
3.7116495468277946,-1.3675226586102727,-0.5225075528700909,-0.7
3.719648791540785,-1.2588734543868962,-0.5068544242688506,-0.7
3.7276480362537763,-1.2093935901828277,-0.5151010683028621,-0.7
3.7356472809667673,-1.159913725978759,-0.5233477123368735,-0.7
3.743646525679758,-1.1104338617746934,-0.5315943563708845,-0.7
3.751645770392749,-1.0609539975706248,-0.5398410004048958,-0.7
3.75964501510574,-1.0114741333665562,-0.5480876444389072,-0.7
3.7676442598187307,-0.9619942691624905,-0.5563342884729182,-0.7
3.775643504531722,-0.9125144049584222,-0.5645809325069296,-0.7
3.783642749244713,-0.8630345407543536,-0.5728275765409411,-0.7
3.791641993957704,-0.813554676550285,-0.5810742205749525,-0.7
3.7996412386706946,-0.7640748123462193,-0.5893208646089634,-0.7
3.8076404833836857,-0.7145949481421509,-0.5975675086429748,-0.7
3.8156397280966767,-0.48308738089704917,-0.6,-0.7867650476411803
3.8236389728096674,0.055589123866989776,-0.6,-0.9
3.8316382175226584,0.5339651657991469,-0.7,-1.0
3.8396374622356495,0.5821533869617438,-0.7,-1.0
3.84763670694864,0.6303416081243381,-0.7,-1.0
3.855635951661631,0.6785298292869351,-0.7,-1.0
3.8636351963746223,0.7267180504495321,-0.7,-1.0
3.8716344410876133,0.7749062716121291,-0.7,-1.0
3.879633685800604,0.8230944927747232,-0.7,-1.0
3.887632930513595,0.8712827139373203,-0.7,-1.0
3.895632175226586,0.9194709350999173,-0.7,-1.0
3.9036314199395767,0.9676591562625115,-0.7,-1.0
3.911630664652568,2.052265861027162,-0.7876888217522635,-1.0
3.919629909365559,3.0106434698058826,-1.726608674514706,-1.3053217349029413
3.9276291540785495,3.029032538111608,-1.7725813452790202,-1.314516269055804
3.9356283987915406,3.047421606417335,-1.8185540160433369,-1.3237108032086673
3.9436276435045317,3.0658106747230613,-1.8645266868076535,-1.3329053373615307
3.9516268882175223,3.0841997430287873,-1.9104993575719675,-1.3420998715143935
3.9596261329305134,3.1025888113345137,-1.9564720283362842,-1.351294405667257
3.9676253776435044,3.1209778796402405,-2.002444699100601,-1.36048893982012
3.9756246223564955,3.139366947945967,-2.0484173698649175,-1.3696834739729835
3.983623867069486,3.157756016251693,-2.0943900406292317,-1.3788780081258463
3.991623111782477,3.1761450845574193,-2.140362711393548,-1.3880725422787097
3.9996223564954683,3.194534152863146,-2.186335382157865,-1.3972670764315729
4.007621601208459,0.3828484487566825,-4.404677695793632,-0.6984407680687893
4.01562084592145,0.2982410527538924,-4.42775244015803,-0.6907491866139902
4.023620090634441,0.2136336567511117,-4.450827184522424,-0.6830576051591919
4.031619335347432,0.12902626074832158,-4.473901928886821,-0.6753660237043928
4.039618580060423,0.04441886474553147,-4.496976673251219,-0.6676744422495937
4.047617824773414,-0.04018853125725863,-4.520051417615616,-0.6599828607947946
4.055617069486405,-0.12479592726004873,-4.543126161980013,-0.6522912793399955
4.063616314199396,-0.20940332326283884,-4.5662009063444104,-0.6445996978851964
4.071615558912386,-0.2940107192656195,-4.589275650708806,-0.6369081164303982
4.079614803625377,-0.3786181152684096,-4.612350395073203,-0.6292165349755992
4.087614048338368,-0.4632255112711998,-4.6354251394376,-0.6215249535208
4.095613293051359,-0.5478329072739899,-4.658499883801998,-0.6138333720660009
4.10361253776435,-0.6324403032767799,-4.681574628166395,-0.6061417906112018
4.1116117824773415,-1.98942598187308,-5.425302114803607,-0.5194108761329325
4.119611027190333,-2.0175465097789713,1.9679347538029333,-0.9862577516298285
4.127610271903323,-1.7649387820003337,1.8696984152223521,-0.9441564636667222
4.135609516616314,-1.5123310542216681,1.7714620766417597,-0.9020551757036114
4.143608761329305,-1.2597233264430026,1.6732257380611677,-0.8599538877405004
4.151608006042296,-1.0071155986643368,1.5749893994805755,-0.8178525997773894
4.159607250755287,-0.754507870885671,1.4767530608999833,-0.7757513118142785
4.167606495468278,-0.5019001431070054,1.378516722319391,-0.7336500238511676
4.175605740181268,-0.24929241532836777,1.2802803837388097,-0.6915487358880612
4.183604984894259,0.0033153124502978137,1.1820440451582175,-0.6494474479249503
4.19160422960725,0.25592304022896384,1.0838077065776255,-0.6073461599618394
4.1996034743202415,0.5085307680076294,0.985571367997033,-0.5652448719987284
4.207602719033233,0.761138495786295,0.887335029416441,-0.5231435840356174
4.215601963746224,1.0137462235649606,0.7890986908358488,-0.4810422960725065
4.223601208459215,1.2663539513436266,0.6908623522552566,-0.4389410081093956
4.231600453172205,2.820996978851209,0.7501132930512737,-0.8503398791538213
4.239599697885196,6.6199670420214085,1.8199670420214087,-3.3399340840428176
4.247598942598187,6.823824096260038,2.6955190644858846,-4.146228773830615
4.255598187311178,6.589363475362023,2.68172726325659,-3.980727159079075
4.263597432024169,6.354902854464008,2.6679354620272946,-3.8152255443275354
4.27159667673716,6.120442233565994,2.654143660798,-3.6497239295759956
4.27959592145015,5.8859816126680045,2.6403518595687063,-3.484222314824474
4.2875951661631415,5.65152099176999,2.626560058339411,-3.3187207000729337
4.295594410876133,5.417060370871975,2.6127682571101163,-3.153219085321394
4.303593655589124,4.3688821752267,2.273489425981918,-3.0
4.311592900302115,3.586722054380622,1.104425981873126,-1.8792069486405236
4.319592145015106,5.64872680189901,-0.6826068191627067,-0.3113940440224423
4.327591389728097,5.4904999834002854,-0.9375278045217623,-0.346555559244381
4.335590634441087,5.332273164901579,-1.1924487898807894,-0.38171707446631575
4.343589879154078,5.1740463464028545,-1.4473697752398451,-0.4168785896882545
4.351589123867069,5.015819527904131,-1.7022907605989008,-0.4520401049101932
4.35958836858006,4.857592709405407,-1.9572117459579563,-0.48720162013213186
4.367587613293051,4.699365890906682,-2.212132731317012,-0.5223631353540705
4.375586858006042,4.541139072407958,-2.4670537166760673,-0.5575246505760093
4.3835861027190335,4.382912253909234,-2.7219747020351233,-0.592686165797948
4.391585347432024,4.224685435410527,-2.9768956873941503,-0.6278476810198828
4.399584592145015,4.066458616911803,-3.2318166727532063,-0.6630091962418214
4.407583836858006,3.908231798413079,-3.4867376581122618,-0.6981707114637602
4.415583081570997,-3.1334882640018633,-2.1741227050894696,-4.989344643272134
4.423582326283988,-3.3027030560074437,-2.043365820357885,-4.935503573088541
4.431581570996979,-3.4719178480130237,-1.9126089356263,-4.8816625029049465
4.439580815709969,-3.6411326400185855,-1.7818520508947298,-4.827821432721359
4.44758006042296,-3.8103474320241655,-1.651095166163145,-4.773980362537765
4.455579305135951,-3.9795622240297455,-1.5203382814315605,-4.720139292354172
4.463578549848942,-4.148777016035326,-1.3895813966999757,-4.666298222170578
4.4715777945619335,-4.317991808040906,-1.258824511968391,-4.612457151986984
4.479577039274925,-4.487206600046486,-1.1280676272368062,-4.5586160818033905
4.487576283987916,-4.656421392052066,-0.9973107425052214,-4.504775011619797
4.495575528700906,-4.825636184057628,-0.8665538577736513,-4.450933941436209
4.503574773413897,-4.994850976063208,-0.7357969730420666,-4.397092871252616
4.511574018126888,-5.164065768068788,-0.6050400883104818,-4.343251801069021
4.519573262839879,-7.815281973816785,1.8808912386707017,0.41273917421953205
4.52757250755287,-5.237747566297283,1.61424974823765,0.5905001678415667
4.535571752265861,-3.120059164149038,0.6765294561933527,0.6625881168177259
4.543570996978851,-2.90103222557907,0.6479607250755308,0.7387713997985843
4.551570241691842,-2.6820052870090776,0.6193919939577057,0.8149546827794512
4.5595694864048335,-2.4629783484390853,0.5908232628398807,0.891137965760318
4.567568731117825,-2.2439514098690934,0.5622545317220556,0.9673212487411849
4.575567975830816,-2.0249244712991006,0.5336858006042305,1.0435045317220517
4.583567220543807,-1.8058975327291087,0.5051170694864054,1.1196878147029188
4.591566465256798,-1.5868705941591164,0.4765483383685804,1.1958710976837854
4.599565709969788,-1.3678436555891484,0.4479796072507585,1.272054380664644
4.607564954682779,-1.148816717019156,0.41941087613293343,1.3482376636455107
4.61556419939577,-0.7916587990937017,0.3679475075528772,1.4160262462235613
4.623563444108761,-0.14172016616314165,0.26795694864048336,1.4660215256797584
4.631562688821752,-3.4799660120848106,-1.0813444108762071,1.884403323262862
4.639561933534743,-6.410046381005057,-0.9678737075018063,0.7678737075018064
4.6475611782477335,-6.252314795115112,-0.911540998255397,0.7115409982553971
4.655560422960725,-6.094583209225148,-0.8552082890089815,0.6552082890089815
4.663559667673716,-5.936851623335185,-0.798875579762566,0.598875579762566
4.671558912386707,-5.779120037445221,-0.7425428705161505,0.5425428705161506
4.679558157099698,-5.621388451555258,-0.686210161269735,0.48621016126973504
4.687557401812689,-5.463656865665294,-0.6298774520233195,0.42987745202331956
4.69555664652568,-5.305925279775331,-0.573544742776904,0.373544742776904
4.70355589123867,-5.148193693885386,-0.5172120335304947,0.31721203353049476
4.711555135951661,-0.07181940248428775,0.4530631084256209,0.1530631084256209
4.719554380664652,2.8270463835080863,0.42704638350808677,0.212020614892483
4.727553625377643,2.911744268704463,0.5117442687044629,0.2496641194242057
4.735552870090634,2.996442153900839,0.5964421539008389,0.2873076239559284
4.7435521148036255,3.081140039097215,0.6811400390972151,0.3249511284876511
4.751551359516617,3.165837924293591,0.7658379242935911,0.3625946330193738
4.759550604229607,3.250535809489958,0.8505358094899578,0.40023813755109233
4.767549848942598,3.335233694686334,0.9352336946863339,0.43788164208281505
4.775549093655589,3.41993157988271,1.01993157988271,0.47552514661453776
4.78354833836858,3.504629465079086,1.104629465079086,0.5131686511462605
4.791547583081571,3.5893273502754623,1.1893273502754622,0.5508121556779831
4.799546827794562,3.6740252354718383,1.2740252354718382,0.5884556602097059
4.807546072507552,0.5091012084591993,-1.4817975830816015,-1.4634818731120105
4.815545317220543,0.6,-1.2783377257826074,-0.08646107861412967
4.823544561933534,0.6,-1.210259047374173,-0.04391190460885815
4.8315438066465255,0.6,-1.1421803689657386,-0.0013627306035866316
4.839543051359517,0.6,-1.0741016905573042,0.0411864434016849
4.847542296072508,0.6,-1.0060230121488698,0.0837356174069564
4.855541540785499,0.6,-0.9379443337404354,0.12628479141222793
4.863540785498489,0.6,-0.8698656553320084,0.1688339654174947
4.87154003021148,0.6,-0.801786976923574,0.21138313942276624
4.879539274924471,0.6,-0.7337082985151395,0.2539323134280378
4.887538519637462,0.6,-0.6656296201067051,0.29648148743330927
4.895537764350453,0.6,-0.5975509416982707,0.33903066143858085
4.903537009063444,0.6,-0.5294722632898363,0.3815798354438523
4.911536253776434,-1.5681268882172656,1.045417925478177,0.06183282980872923
4.9195354984894255,-0.6370966080747068,0.6748386432298826,-0.3559676256522948
4.927534743202417,-0.5461960999725356,0.6384784399890142,-0.29233726998077497
4.935533987915408,-0.4552955918703644,0.6021182367481457,-0.22870691430925513
4.943533232628399,-0.3643950837681932,0.5657580335072773,-0.16507655863773532
4.95153247734139,-0.273494575666022,0.5293978302664087,-0.10144620296621548
4.959531722054381,-0.18259406756385077,0.4930376270255403,-0.03781584729469567
4.967530966767371,-0.09169355946168967,0.4566774237846759,0.02581450837681709
4.975530211480362,-0.0007930513595184596,0.4203172205438074,0.0894448640483369
4.983529456193353,0.09010745674265275,0.3839570173029389,0.15307521971985671
4.991528700906344,0.18100796484482384,0.34759681406207044,0.21670557539137658
4.999527945619335,0.27190847294699505,0.31123661082120196,0.28033593106289645
5.007527190332326,-0.005105740181186147,-0.4105438066465349,-0.11054380664653488
5.015526435045317,0.8237737194066316,-0.48811314029668423,-0.2
5.023525679758308,0.8777012118537622,-0.46114939407311895,-0.2
5.031524924471299,0.9316287043008926,-0.4341856478495537,-0.2
5.03952416918429,0.9855561967480232,-0.40722190162598837,-0.2
5.047523413897281,1.0394836891951538,-0.38025815540242314,-0.2
5.055522658610272,1.0934111816422845,-0.3532944091788578,-0.2
5.063521903323263,1.147338674089415,-0.32633066295529256,-0.2
5.071521148036253,1.2012661665365396,-0.29936691673173027,-0.2
5.079520392749244,1.25519365898367,-0.272403170508165,-0.2
5.087519637462235,1.3091211514308005,-0.2454394242845997,-0.2
5.095518882175226,1.363048643877931,-0.2184756780610344,-0.2
5.1035181268882175,1.4,-0.13704682779456934,-0.2
5.111517371601209,0.5038614048338825,-0.18146714501510158,-0.03706570996979683
5.119516616314199,-0.4242828834096695,-0.2,0.1048565766819339
5.12751586102719,-0.4672895754149979,-0.2,0.11345791508299959
5.135515105740181,-0.5102962674203262,-0.2,0.12205925348406525
5.143514350453172,-0.5533029594256547,-0.2,0.13066059188513093
5.151513595166163,-0.5963096514309829,-0.2,0.1392619302861966
5.159512839879154,-0.6393163434363113,-0.2,0.14786326868726227
5.167512084592145,-0.6823230354416396,-0.2,0.15646460708832793
5.175511329305135,-0.7253297274469632,-0.2,0.16506594548939266
5.183510574018126,-0.7683364194522916,-0.2,0.17366728389045832
5.1915098187311175,-0.81134311145762,-0.2,0.182268622291524
5.199509063444109,-0.8543498034629483,-0.2,0.19086996069258966
5.2075083081571,-0.8973564954682767,-0.2,0.19947129909365535
5.215507552870091,-0.9365558912386502,0.025377643504539908,0.18731117824773005
5.223506797583082,-0.19330312185297172,0.09832578046324293,0.0
5.231506042296072,-0.15775092312857084,0.0894377307821427,0.0
5.239505287009063,-0.12219872440416601,0.0805496811010415,0.0
5.247504531722054,-0.0866465256797612,0.07166163141994031,0.0
5.255503776435045,-0.05109432695535637,0.0627735817388391,0.0
5.263503021148036,-0.015542128230951552,0.05388553205773789,0.0
5.271502265861027,0.02001007049345327,0.044997482376636685,0.0
5.2795015105740175,0.05556226921785412,0.03610943269553647,0.0
5.287500755287009,0.09111446794225897,0.02722138301443526,0.0
5.2955,0.12666666666666376,0.018333333333334062,0.0
5.303499244712991,0.1622188653910686,0.00944528365223285,0.0
5.311498489425982,0.1977710641154734,0.0005572339711316515,0.0
5.319497734138973,0.5,-0.016591137965763246,-0.1
5.327496978851964,0.3900604229607202,-0.1549697885196399,-0.1
5.335496223564954,0.2847990279784597,-0.2,-0.09493300932615323
5.343495468277945,0.25001970313936805,-0.2,-0.08333990104645601
5.351494712990936,0.21524037830027637,-0.2,-0.0717467927667588
5.359493957703927,0.18046105346118474,-0.2,-0.06015368448706159
5.367493202416918,0.1456817286220931,-0.2,-0.04856057620736438
5.3754924471299095,0.11090240378300145,-0.2,-0.03696746792766717
5.3834916918429,0.07612307894391368,-0.2,-0.02537435964797123
5.391490936555891,0.04134375410482205,-0.2,-0.013781251368274017
5.399490181268882,0.00656442926573042,-0.2,-0.002188143088576802
5.407489425981873,-0.42552870090636574,0.0,0.1
5.415488670694864,-0.38487137233360885,0.0,0.0924356861668044
5.423487915407855,-0.36871128200433384,0.0,0.08435564100216691
5.431487160120846,-0.35255119167505883,0.0,0.07627559583752941
5.439486404833836,-0.3363911013457856,0.0,0.06819555067289279
5.447485649546827,-0.3202310110165106,0.0,0.06011550550825529
5.455484894259818,-0.3040709206872356,0.0,0.05203546034361779
5.4634841389728095,-0.2879108303579606,0.0,0.04395541517898029
5.471483383685801,-0.2717507400286856,0.0,0.03587537001434278
5.479482628398792,-0.2555906496994106,0.0,0.027795324849705275
5.487481873111782,-0.23943055937013735,0.0,0.01971527968506867
5.495481117824773,-0.22327046904086234,0.0,0.011635234520431165
5.503480362537764,-0.20711037871158736,0.0,0.0035551893557936726
5.511479607250755,0.1359705438066222,0.0,-0.011990181268874066
5.519478851963746,0.2970489857574455,0.0,-0.1
5.527478096676737,0.28752607538483704,0.0,-0.1
5.535477341389728,0.2780031650122286,0.0,-0.1
5.543476586102718,0.2684802546396212,0.0,-0.1
5.5514758308157095,0.2589573442670127,0.0,-0.1
5.559475075528701,0.24943443389440428,0.0,-0.1
5.567474320241692,0.23991152352179582,0.0,-0.1
5.575473564954683,0.23038861314918735,0.0,-0.1
5.583472809667674,0.2208657027765789,0.0,-0.1
5.591472054380665,0.21134279240397044,0.0,-0.1
5.599471299093655,0.20181988203136303,0.0,-0.1
5.607470543806646,-0.3,0.0,0.1
5.615469788519637,-0.2929530296984552,-0.007046970301544791,0.1
5.623469033232628,-0.2854065724220486,-0.014593427577951408,0.1
5.631468277945619,-0.27786011514564196,-0.022139884854358027,0.1
5.63946752265861,-0.27031365786923534,-0.029686342130764643,0.1
5.647466767371601,-0.2627672005928296,-0.03723279940717042,0.1
5.655466012084592,-0.25522074331642297,-0.04477925668357704,0.1
5.663465256797583,-0.24767428604001634,-0.05232571395998366,0.1
5.671464501510574,-0.24012782876360972,-0.05987217123639028,0.1
5.679463746223565,-0.23258137148720312,-0.0674186285127969,0.1
5.687462990936556,-0.2250349142107965,-0.07496508578920351,0.1
5.695462235649547,-0.2174884569343899,-0.08251154306561012,0.1
5.703461480362537,-0.2099419996579841,-0.0900580003420159,0.1
5.711460725075528,-0.20239554238157748,-0.09760445761842253,0.1
5.719459969788519,-0.013500755287018218,0.0,-0.028833081570993926
5.72745921450151,0.18648036253776581,0.0,-0.09549345417925525
5.7354584592145015,0.20932307401812716,0.0,-0.1
5.7434577039274926,0.21932212990936598,0.0,-0.1
5.751456948640483,0.2293211858006037,0.0,-0.1
5.759456193353474,0.23932024169184252,0.0,-0.1
5.767455438066465,0.24931929758308136,0.0,-0.1
5.775454682779456,0.2593183534743202,0.0,-0.1
5.783453927492447,0.26931740936555904,0.0,-0.1
5.791453172205438,0.2793164652567979,0.0,-0.1
5.799452416918429,0.28931552114803666,0.0,-0.1
5.807451661631419,0.2993145770392744,0.0,-0.1
5.81545090634441,-0.1,0.0,0.0
5.8234501510574015,-0.1,0.0,0.0
5.831449395770393,-0.1,0.0,0.0
5.839448640483384,-0.1,0.0,0.0
5.847447885196375,-0.1,0.0,0.0
5.855447129909365,-0.1,0.0,0.0
5.863446374622356,-0.1,0.0,0.0
5.871445619335347,-0.1,0.0,0.0
5.879444864048338,-0.1,0.0,0.0
5.887444108761329,-0.1,0.0,0.0
5.89544335347432,-0.1,0.0,0.0
5.903442598187311,-0.1,0.0,0.0
5.9114418429003015,-0.0728684122188711,0.0,0.0
5.919441087613293,0.0017362501364968932,0.0,0.0
5.927440332326284,0.011373894369016237,0.0,0.0
5.935439577039275,0.021011538601535578,0.0,0.0
5.943438821752266,0.030649182834054923,0.0,0.0
5.951438066465257,0.040286827066574264,0.0,0.0
5.959437311178248,0.04992447129909361,0.0,0.0
5.967436555891238,0.05956211553161188,0.0,0.0
5.975435800604229,0.06919975976413122,0.0,0.0
5.98343504531722,0.07883740399665057,0.0,0.0
5.991434290030211,0.0884750482291699,0.0,0.0
5.999433534743202,0.09811269246168926,0.0,0.0
6.0074327794561935,0.014180513595161787,0.0,0.0
6.015432024169184,0.0,0.0,0.0
6.023431268882175,0.0,0.0,0.0
6.031430513595166,0.0,0.0,0.0
6.039429758308157,0.0,0.0,0.0
6.047429003021148,0.0,0.0,0.0
6.055428247734139,0.0,0.0,0.0
6.06342749244713,0.0,0.0,0.0
6.07142673716012,0.0,0.0,0.0
6.079425981873111,0.0,0.0,0.0
6.087425226586102,0.0,0.0,0.0
6.0954244712990935,0.0,0.0,0.0
6.1034237160120846,0.0,0.0,0.0
6.111422960725076,0.0,0.0,0.0
6.119422205438066,-0.1,0.0,0.0
6.127421450151057,-0.1,0.0,0.0
6.135420694864048,-0.1,0.0,0.0
6.143419939577039,-0.1,0.0,0.0
6.15141918429003,-0.1,0.0,0.0
6.159418429003021,-0.1,0.0,0.0
6.167417673716012,-0.1,0.0,0.0
6.175416918429002,-0.1,0.0,0.0
6.1834161631419935,-0.1,0.0,0.0
6.191415407854985,-0.1,0.0,0.0
6.199414652567976,-0.1,0.0,0.0
6.207413897280967,-0.014652567975835279,0.0,0.0
6.215413141993958,0.049210381763252334,0.0,0.0
6.223412386706948,0.09698451661631516,0.0,0.0
6.231411631419939,0.08698546072507633,0.0,0.0
6.23941087613293,0.07698640483383751,0.0,0.0
6.247410120845921,0.06698734894259867,0.0,0.0
6.255409365558912,0.05698829305135984,0.0,0.0
6.263408610271903,0.04698923716012101,0.0,0.0
6.271407854984894,0.03699018126888218,0.0,0.0
6.279407099697885,0.026991125377644462,0.0,0.0
6.287406344410876,0.016992069486405623,0.0,0.0
6.295405589123867,0.006993013595166797,0.0,0.0
6.303404833836858,0.0,0.0,0.0
6.311404078549849,0.0,0.0,0.0
6.31940332326284,0.0,0.0,0.0
6.32740256797583,0.0,0.0,0.0
6.335401812688821,0.0,0.0,0.0
6.343401057401812,0.0,0.0,0.0
6.351400302114803,0.0,0.0,0.0
6.359399546827794,0.0,0.0,0.0
6.3673987915407855,0.0,0.0,0.0
6.3753980362537765,0.0,0.0,0.0
6.383397280966767,0.0,0.0,0.0
6.391396525679758,0.0,0.0,0.0
6.399395770392749,0.0,0.0,0.0
6.40739501510574,-0.1,0.0,0.0
6.415394259818731,0.0,0.0,0.0
6.423393504531722,0.0,0.0,0.0
6.431392749244713,0.0,0.0,0.0
6.439391993957703,0.0,0.0,0.0
6.447391238670694,0.0,0.0,0.0
6.4553904833836855,0.0,0.0,0.0
6.463389728096677,0.0,0.0,0.0
6.471388972809668,0.0,0.0,0.0
6.479388217522659,0.0,0.0,0.0
6.487387462235649,0.0,0.0,0.0
6.49538670694864,0.0,0.0,0.0
6.503385951661631,0.0,0.0,0.0
6.511385196374622,0.0,0.0,0.0
6.519384441087613,0.0,0.0,0.0
6.527383685800604,0.0,0.0,0.0
6.535382930513595,0.0,0.0,0.0
6.5433821752265855,0.0,0.0,0.0
6.551381419939577,0.0,0.0,0.0
6.559380664652568,0.0,0.0,0.0
6.567379909365559,0.0,0.0,0.0
6.57537915407855,0.0,0.0,0.0
6.583378398791541,0.0,0.0,0.0
6.591377643504531,0.0,0.0,0.0
6.599376888217522,0.0,0.0,0.0
6.607376132930513,0.0,0.0,0.0
6.615375377643504,0.0,0.0,0.0
6.623374622356495,0.0,0.0,0.0
6.631373867069486,0.0,0.0,0.0
6.6393731117824775,0.0,0.0,0.0
6.647372356495468,0.0,0.0,0.0
6.655371601208459,0.0,0.0,0.0
6.66337084592145,0.0,0.0,0.0
6.671370090634441,0.0,0.0,0.0
6.679369335347432,0.0,0.0,0.0
6.687368580060423,0.0,0.0,0.0
6.695367824773413,0.0,0.0,0.0
6.703367069486404,0.0,0.0,0.0
6.711366314199395,0.0,0.0,0.0
6.719365558912386,0.0,0.0,0.0
6.7273648036253775,0.0,0.0,0.0
6.7353640483383685,0.0,0.0,0.0
6.74336329305136,0.0,0.0,0.0
6.75136253776435,0.0,0.0,0.0
6.759361782477341,0.0,0.0,0.0
6.767361027190332,0.0,0.0,0.0
6.775360271903323,0.0,0.0,0.0
6.783359516616314,0.0,0.0,0.0
6.791358761329305,0.0,0.0,0.0
6.799358006042296,0.0,0.0,0.0
6.807357250755286,0.0,0.0,0.0
6.8153564954682775,0.0,0.0,0.0
6.823355740181269,0.0,0.0,0.0
6.83135498489426,0.0,0.0,0.0
6.839354229607251,0.0,0.0,0.0
6.847353474320242,0.0,0.0,0.0
6.855352719033232,0.0,0.0,0.0
6.863351963746223,0.0,0.0,0.0
6.871351208459214,0.0,0.0,0.0
6.879350453172205,0.0,0.0,0.0
6.887349697885196,0.0,0.0,0.0
6.895348942598187,0.0,0.0,0.0
6.903348187311178,0.0,0.0,0.0
6.911347432024169,0.0,0.0,0.0
6.91934667673716,0.0,0.0,0.0
6.927345921450151,0.0,0.0,0.0
6.935345166163142,0.0,0.0,0.0
6.943344410876133,0.0,0.0,0.0
6.951343655589124,0.0,0.0,0.0
6.959342900302114,0.0,0.0,0.0
6.967342145015105,0.0,0.0,0.0
6.975341389728096,0.0,0.0,0.0
6.983340634441087,0.0,0.0,0.0
6.991339879154078,0.0,0.0,0.0
6.9993391238670695,0.0,0.0,0.0
7.0073383685800605,0.0,0.0,0.0
7.015337613293051,0.0,0.0,0.0
7.023336858006042,0.0,0.0,0.0
7.031336102719033,0.0,0.0,0.0
7.039335347432024,0.0,0.0,0.0
7.047334592145015,0.0,0.0,0.0
7.055333836858006,0.0,0.0,0.0
7.063333081570996,0.0,0.0,0.0
7.071332326283987,0.0,0.0,0.0
7.079331570996978,0.0,0.0,0.0
7.0873308157099695,0.0,0.0,0.0
7.0953300604229605,0.0,0.0,0.0
7.103329305135952,0.0,0.0,0.0
7.111328549848943,0.0,0.0,0.0
7.119327794561933,0.0,0.0,0.0
7.127327039274924,0.0,0.0,0.0
7.135326283987915,0.0,0.0,0.0
7.143325528700906,0.0,0.0,0.0
7.151324773413897,0.0,0.0,0.0
7.159324018126888,0.0,0.0,0.0
7.167323262839879,0.0,0.0,0.0
7.1753225075528695,0.0,0.0,0.0
7.183321752265861,0.0,0.0,0.0
7.191320996978852,0.0,0.0,0.0
7.199320241691843,0.0,0.0,0.0
7.207319486404834,0.0,0.0,0.0
7.215318731117825,0.0,0.0,0.0
7.223317975830815,0.0,0.0,0.0
7.231317220543806,0.0,0.0,0.0
7.239316465256797,0.0,0.0,0.0
7.247315709969788,0.0,0.0,0.0
7.255314954682779,0.0,0.0,0.0
7.26331419939577,0.0,0.0,0.0
7.2713134441087615,0.0,0.0,0.0
7.279312688821752,0.0,0.0,0.0
7.287311933534743,0.0,0.0,0.0
7.295311178247734,0.0,0.0,0.0
7.303310422960725,0.0,0.0,0.0
7.311309667673716,0.0,0.0,0.0
7.319308912386707,0.0,0.0,0.0
7.327308157099697,0.0,0.0,0.0
7.335307401812688,0.0,0.0,0.0
7.343306646525679,0.0,0.0,0.0
7.35130589123867,0.0,0.0,0.0
7.3593051359516615,0.0,0.0,0.0
7.3673043806646525,0.0,0.0,0.0
7.375303625377644,0.0,0.0,0.0
7.383302870090634,0.0,0.0,0.0
7.391302114803625,0.0,0.0,0.0
7.399301359516616,0.0,0.0,0.0
7.407300604229607,0.0,0.0,0.0
7.415299848942598,0.0,0.0,0.0
7.423299093655589,0.0,0.0,0.0
7.431298338368579,0.0,0.0,0.0
7.43929758308157,0.0,0.0,0.0
7.4472968277945615,0.0,0.0,0.0
7.4552960725075526,0.0,0.0,0.0
7.463295317220544,0.0,0.0,0.0
7.471294561933535,0.0,0.0,0.0
7.479293806646526,0.0,0.0,0.0
7.487293051359516,0.0,0.0,0.0
7.495292296072507,0.0,0.0,0.0
7.503291540785498,0.0,0.0,0.0
7.511290785498489,0.0,0.0,0.0
7.51929003021148,0.0,0.0,0.0
7.527289274924471,0.0,0.0,0.0
7.5352885196374615,0.0,0.0,0.0
7.543287764350453,0.0,0.0,0.0
7.551287009063444,0.0,0.0,0.0
7.559286253776435,0.0,0.0,0.0
7.567285498489426,0.0,0.0,0.0
7.575284743202417,0.0,0.0,0.0
7.583283987915408,0.0,0.0,0.0
7.591283232628398,0.0,0.0,0.0
7.599282477341389,0.0,0.0,0.0
7.60728172205438,0.0,0.0,0.0
7.615280966767371,0.0,0.0,0.0
7.623280211480362,0.0,0.0,0.0
7.6312794561933535,0.0,0.0,0.0
7.6392787009063445,0.0,0.0,0.0
7.647277945619335,0.0,0.0,0.0
7.655277190332326,0.0,0.0,0.0
7.663276435045317,0.0,0.0,0.0
7.671275679758308,0.0,0.0,0.0
7.679274924471299,0.0,0.0,0.0
7.68727416918429,0.0,0.0,0.0
7.69527341389728,0.0,0.0,0.0
7.703272658610271,0.0,0.0,0.0
7.711271903323262,0.0,0.0,0.0
7.7192711480362535,0.0,0.0,0.0
7.7272703927492445,0.0,0.0,0.0
7.735269637462236,0.0,0.0,0.0
7.743268882175227,0.0,0.0,0.0
7.751268126888217,0.0,0.0,0.0
7.759267371601208,0.0,0.0,0.0
7.767266616314199,0.0,0.0,0.0
7.77526586102719,0.0,0.0,0.0
7.783265105740181,0.0,0.0,0.0
7.791264350453172,0.0,0.0,0.0
7.799263595166162,0.0,0.0,0.0
7.8072628398791535,0.0,0.0,0.0
7.8152620845921446,0.0,0.0,0.0
7.823261329305136,0.0,0.0,0.0
7.831260574018127,0.0,0.0,0.0
7.839259818731118,0.0,0.0,0.0
7.847259063444109,0.0,0.0,0.0
7.855258308157099,0.0,0.0,0.0
7.86325755287009,0.0,0.0,0.0
7.871256797583081,0.0,0.0,0.0
7.879256042296072,0.0,0.0,0.0
7.887255287009063,0.0,0.0,0.0
7.895254531722054,0.0,0.0,0.0
7.903253776435045,0.0,0.0,0.0
7.911253021148036,0.0,0.0,0.0
7.919252265861027,0.0,0.0,0.0
7.927251510574018,0.0,0.0,0.0
7.935250755287009,0.0,0.0,0.0
7.94325,0.0,0.0,0.0
7.951249244712991,0.0,0.0,0.0
7.959248489425981,0.0,0.0,0.0
7.967247734138972,0.0,0.0,0.0
7.975246978851963,0.0,0.0,0.0
7.983246223564954,0.0,0.0,0.0
7.9912454682779455,0.0,0.0,0.0
7.9992447129909365,0.0,0.0,0.0
8.007243957703928,0.0,0.0,0.0
8.015243202416919,0.0,0.0,0.0
8.02324244712991,0.0,0.0,0.0
8.0312416918429,0.0,0.0,0.0
8.03924093655589,0.0,0.0,0.0
8.047240181268881,0.0,0.0,0.0
8.055239425981872,0.0,0.0,0.0
8.063238670694863,0.0,0.0,0.0
8.071237915407854,0.0,0.0,0.0
8.079237160120845,0.0,0.0,0.0
8.087236404833837,0.0,0.0,0.0
8.095235649546828,0.0,0.0,0.0
8.103234894259819,0.0,0.0,0.0
8.11123413897281,0.0,0.0,0.0
8.1192333836858,0.0,0.0,0.0
8.127232628398792,0.0,0.0,0.0
8.135231873111783,0.0,0.0,0.0
8.143231117824772,0.0,0.0,0.0
8.151230362537763,0.0,0.0,0.0
8.159229607250754,0.0,0.0,0.0
8.167228851963745,0.0,0.0,0.0
8.175228096676737,0.0,0.0,0.0
8.183227341389728,0.0,0.0,0.0
8.191226586102719,0.0,0.0,0.0
8.19922583081571,0.0,0.0,0.0
8.2072250755287,0.0,0.0,0.0
8.215224320241692,0.0,0.0,0.0
8.223223564954683,0.0,0.0,0.0
8.231222809667674,0.0,0.0,0.0
8.239222054380665,0.0,0.0,0.0
8.247221299093654,0.0,0.0,0.0
8.255220543806645,0.0,0.0,0.0
8.263219788519637,0.0,0.0,0.0
8.271219033232628,0.0,0.0,0.0
8.279218277945619,0.0,0.0,0.0
8.28721752265861,0.0,0.0,0.0
8.2952167673716,0.0,0.0,0.0
8.303216012084592,0.0,0.0,0.0
8.311215256797583,0.0,0.0,0.0
8.319214501510574,0.0,0.0,0.0
8.327213746223565,0.0,0.0,0.0
8.335212990936556,0.0,0.0,0.0
8.343212235649547,0.0,0.0,0.0
8.351211480362537,0.0,0.0,0.0
8.359210725075528,0.0,0.0,0.0
8.367209969788519,0.0,0.0,0.0
8.37520921450151,0.0,0.0,0.0
8.3832084592145,0.0,0.0,0.0
8.391207703927492,0.0,0.0,0.0
8.399206948640483,0.0,0.0,0.0
8.407206193353474,0.0,0.0,0.0
8.415205438066465,0.0,0.0,0.0
8.423204682779456,0.0,0.022046827794568926,-0.022046827794568926
8.431203927492447,0.0007647280966804885,0.09974509063443984,-0.10025490936556017
8.439203172205438,0.03076189577039698,0.08974603474320102,-0.110253965256799
8.44720241691843,0.06075906344411347,0.07974697885196218,-0.12025302114803783
8.455201661631419,0.0907562311178233,0.06974792296072557,-0.13025207703927444
8.46320090634441,0.12075339879153979,0.05974886706948674,-0.14025113293051328
8.4712001510574,0.15075056646525628,0.04974981117824791,-0.15025018882175212
8.479199395770392,0.18074773413897277,0.03975075528700908,-0.16024924471299093
8.487198640483383,0.21074490181268926,0.029751699395770242,-0.17024830060422977
8.495197885196374,0.24074206948640575,0.019752643504531417,-0.18024735649546858
8.503197129909365,0.2707392371601222,0.009753587613292591,-0.19024641238670742
8.511196374622356,0.3589123867070275,0.0,-0.2392749244713517
8.519195619335347,1.5243931356706204,0.08536411859762773,-0.7
8.527194864048338,1.5709003723740567,0.05745977657556594,-0.7
8.53519410876133,1.6174076090774931,0.02955543455350415,-0.7
8.54319335347432,1.6639148457809294,0.0016510925314423691,-0.7
8.551192598187312,1.7104220824843657,-0.026253249490619412,-0.7
8.5591918429003,1.7569293191877917,-0.05415759151267499,-0.7
8.567191087613292,1.803436555891228,-0.08206193353473679,-0.7
8.575190332326283,1.8499437925946642,-0.10996627555679858,-0.7
8.583189577039274,1.8964510292981005,-0.13787061757886035,-0.7
8.591188821752265,1.9429582660015368,-0.16577495960092212,-0.7
8.599188066465256,1.9894655027049732,-0.19367930162298394,-0.7
8.607187311178247,4.909998409922084,-0.3049992049610418,-1.2987501987597396
8.615186555891238,4.977360470663061,-0.3386802353315303,-1.2903299411671174
8.62318580060423,5.044722531404038,-0.3723612657020188,-1.2819096835744954
8.63118504531722,5.112084592145015,-0.4060422960725073,-1.2734894259818732
8.639184290030212,5.179446652885992,-0.4397233264429958,-1.265069168389251
8.647183534743203,5.246808713626969,-0.47340435681348425,-1.256648910796629
8.655182779456194,5.314170774367946,-0.5070853871839728,-1.2482286532040068
8.663182024169185,5.381532835108922,-0.5407664175544613,-1.2398083956113846
8.671181268882174,5.448894895849885,-0.5744474479249423,-1.2313881380187643
8.679180513595165,5.516256956590862,-0.6081284782954308,-1.2229678804261424
8.687179758308156,5.583619017331839,-0.6418095086659192,-1.2145476228335201
8.695179003021147,5.650981078072816,-0.6754905390364078,-1.206127365240898
8.703178247734138,5.772608257804594,-0.7,-1.2
8.71117749244713,4.534629909365977,-0.9766238670693901,-0.8411253776435367
8.71917673716012,3.8633002445691282,-1.1273399510861744,-0.8068349877715436
8.727175981873112,3.710933678607394,-1.1578132642785213,-0.8144533160696303
8.735175226586103,3.55856711264566,-1.188286577470868,-0.8220716443677171
8.743174471299094,3.4062005466839262,-1.2187598906632149,-0.8296899726658037
8.751173716012085,3.253833980722192,-1.2492332038555616,-0.8373083009638904
8.759172960725076,3.101467414760458,-1.2797065170479085,-0.8449266292619771
8.767172205438067,2.949100848798724,-1.3101798302402552,-0.8525449575600639
8.775171450151056,2.796734282837024,-1.3406531434325952,-0.8601632858581488
8.783170694864047,2.6443677168752897,-1.3711264566249421,-0.8677816141562356
8.791169939577038,2.4920011509135556,-1.401599769817289,-0.8753999424543223
8.79916918429003,2.3396345849518214,-1.4320730830096358,-0.883018270752409
8.80716842900302,2.1872680189900873,-1.4625463962019825,-0.8906365990504956
8.815167673716012,2.034901453028353,-1.4930197093943294,-0.8982549273485824
8.823166918429003,1.5538345340460415,-1.4487218219846527,-0.7756390890076736
8.831166163141994,1.184638624215682,-1.5717871252614395,-0.7141064373692803
8.839165407854985,0.6,-1.6,-0.5997493820379024
8.847164652567976,0.6,-1.6,-0.587629314290946
8.855163897280967,0.6,-1.6,-0.5755092465439896
8.863163141993958,0.6,-1.6,-0.5633891787970333
8.87116238670695,0.6,-1.6,-0.5512691110500769
8.879161631419938,0.6,-1.6,-0.5391490433031233
8.88716087613293,0.6,-1.6,-0.5270289755561669
8.89516012084592,0.6,-1.6,-0.5149089078092105
8.903159365558912,0.6,-1.6,-0.5027888400622542
8.911158610271903,0.6048275427995939,-1.4963793429003045,-0.4
8.919157854984894,0.6381577291037234,-1.4713817031722074,-0.4
8.927157099697885,0.6714879154078528,-1.4463840634441103,-0.4
8.935156344410876,0.7048181017119823,-1.4213864237160132,-0.4
8.943155589123867,0.7381482880161118,-1.396388783987916,-0.4
8.951154833836858,0.7714784743202412,-1.371391144259819,-0.4
8.95915407854985,0.8048086606243706,-1.3463935045317221,-0.4
8.96715332326284,0.8381388469285,-1.321395864803625,-0.4
8.975152567975831,0.8714690332326295,-1.296398225075528,-0.4
8.98315181268882,0.9047992195367516,-1.2714005853474364,-0.4
8.991151057401812,0.9381294058408809,-1.2464029456193393,-0.4
8.999150302114803,0.9714595921450104,-1.2214053058912422,-0.4
9.007149546827794,1.1149546827794194,-1.0850453172205805,-0.4
9.015148791540785,1.3877976719388658,-0.5877976719388658,-0.1959325573129553
9.023148036253776,1.3642704816065392,-0.5642704816065393,-0.18809016053551308
9.031147280966767,1.3407432912742125,-0.5407432912742126,-0.1802477637580709
9.039146525679758,1.317216100941886,-0.517216100941886,-0.1724053669806287
9.04714577039275,1.2936889106095595,-0.4936889106095594,-0.16456297020318647
9.05514501510574,1.2701617202772328,-0.4701617202772328,-0.15672057342574428
9.063144259818731,1.2466345299449062,-0.44663452994490616,-0.14887817664830208
9.071143504531722,1.2231073396125796,-0.42310733961257957,-0.14103577987085986
9.079142749244713,1.1995801492802531,-0.399580149280253,-0.13319338309341766
9.087141993957703,1.1760529589479316,-0.37605295894793156,-0.1253509863159772
9.095141238670694,1.152525768615605,-0.352525768615605,-0.117508589538535
9.103140483383685,1.1289985782832785,-0.3289985782832784,-0.1096661927610928
9.111139728096676,1.105471387950952,-0.30547138795095174,-0.10182379598365059
9.119138972809667,0.6976990448289562,-0.0988495224144781,0.0
9.127138217522658,0.6815389544996813,-0.09076947724984068,0.0
9.13513746223565,0.6653788641704065,-0.08268943208520324,0.0
9.14313670694864,0.6492187738411316,-0.07460938692056582,0.0
9.151135951661631,0.6330586835118567,-0.06652934175592838,0.0
9.159135196374622,0.6168985931825819,-0.05844929659129095,0.0
9.167134441087613,0.600738502853307,-0.05036925142665352,0.0
9.175133685800605,0.5845784125240322,-0.04228920626201609,0.0
9.183132930513596,0.5684183221947573,-0.03420916109737866,0.0
9.191132175226585,0.5522582318654861,-0.02612911593274303,0.0
9.199131419939576,0.5360981415362112,-0.018049070768105593,0.0
9.207130664652567,0.5199380512069363,-0.00996902560346817,0.0
9.215129909365558,0.5037779608776615,-0.001888980438830734,0.0
9.22312915407855,0.46169278700907107,0.03830721299092895,0.0
9.23112839879154,0.41169750755287693,0.08830249244712311,0.0
9.239127643504531,0.2959902006352171,0.2,0.0
9.247126888217522,0.28573475869548487,0.2,0.0
9.255126132930513,0.27547931675575266,0.2,0.0
9.263125377643505,0.2652238748160204,0.2,0.0
9.271124622356496,0.2549684328762882,0.2,0.0
9.279123867069487,0.24471299093655596,0.2,0.0
9.287123111782478,0.23445754899682375,0.2,0.0
9.295122356495467,0.2242021070570938,0.2,0.0
9.303121601208458,0.2139466651173616,0.2,0.0
9.31112084592145,0.2036912231776294,0.2,0.0
9.31912009063444,0.09986803226984681,0.3,0.0
9.327119335347431,0.09107765346436204,0.3,0.0
9.335118580060422,0.08228727465887728,0.3,0.0
9.343117824773413,0.07349689585339253,0.3,0.0
9.351117069486405,0.06470651704790775,0.3,0.0
9.359116314199396,0.055916138242422996,0.3,0.0
9.367115558912387,0.04712575943693824,0.3,0.0
9.375114803625378,0.038335380631453475,0.3,0.0
9.383114048338369,0.02954500182596871,0.3,0.0
9.39111329305136,0.020754623020483948,0.3,0.0
9.39911253776435,0.01196424421500114,0.3,0.0
9.40711178247734,0.003173865409516377,0.3,0.0
9.415111027190331,0.0,0.3,0.0
9.423110271903322,0.10024235583147771,0.29987882208426114,-0.1
9.431109516616313,0.11782311344244724,0.29108844327877637,-0.1
9.439108761329305,0.13540387105341675,0.28229806447329164,-0.1
9.447108006042296,0.15298462866438628,0.27350768566780687,-0.1
9.455107250755287,0.17056538627535578,0.2647173068623221,-0.1
9.463106495468278,0.18814614388632533,0.25592692805683737,-0.1
9.471105740181269,0.20572690149729483,0.2471365492513526,-0.1
9.47910498489426,0.22330765910826436,0.2383461704458678,-0.1
9.487104229607251,0.2408884167192339,0.22955579164038306,-0.1
9.495103474320242,0.2584691743302034,0.2207654128348983,-0.1
9.503102719033233,0.2760499319411729,0.21197503402941353,-0.1
9.511101963746222,0.29363068955213856,0.20318465522393075,-0.1
9.519101208459213,0.40014562368232137,0.1,-0.3
9.527100453172205,0.4116553283053302,0.1,-0.3
9.535099697885196,0.42316503292833896,0.1,-0.3
9.543098942598187,0.4346747375513478,0.1,-0.3
9.551098187311178,0.44618444217435654,0.1,-0.3
9.559097432024169,0.4576941467973653,0.1,-0.3
9.56709667673716,0.46920385142037413,0.1,-0.3
9.575095921450151,0.4807135560433829,0.1,-0.3
9.583095166163142,0.49222326066639166,0.1,-0.3
9.591094410876133,0.5037329652894005,0.1,-0.3
9.599093655589124,0.5152426699124093,0.1,-0.3
9.607092900302115,0.526752374535418,0.1,-0.3
9.615092145015105,0.5382620791584243,0.1,-0.3
9.623091389728096,0.5497717837814331,0.1,-0.3
9.631090634441087,0.5612814884044419,0.1,-0.3
9.639089879154078,0.5727911930274506,0.1,-0.3
9.647089123867069,0.5843008976504594,0.1,-0.3
9.65508836858006,0.5958106022734682,0.1,-0.3
9.663087613293051,0.9003129046180384,0.00015645230901917506,-0.2998435476909808
9.671086858006042,0.928881635735864,0.014440817867932016,-0.285559182132068
9.679086102719033,0.9574503668536898,0.02872518342684486,-0.2712748165731551
9.687085347432024,0.9860190979715154,0.0430095489857577,-0.2569904510142423
9.695084592145015,1.014587829089341,0.05729391454467054,-0.24270608545532946
9.703083836858006,1.0431565602071668,0.07157828010358339,-0.22842171989641663
9.711083081570997,1.0717252913249926,0.08586264566249623,-0.2141373543375038
9.719082326283987,1.100748420763521,0.1,-0.2037421038176042
9.727081570996978,1.1734688272452511,0.1,-0.5673441362262559
9.735080815709969,0.9901667091326048,0.4,0.1
9.74308006042296,0.9708914206675662,0.4,0.1
9.751079305135951,0.9516161322025275,0.4,0.1
9.759078549848942,0.9323408437374888,0.4,0.1
9.767077794561933,0.9130655552724501,0.4,0.1
9.775077039274924,0.8937902668074115,0.4,0.1
9.783076283987915,0.8745149783423728,0.4,0.1
9.791075528700906,0.8552396898773341,0.4,0.1
9.799074773413897,0.8359644014122954,0.4,0.1
9.807074018126889,0.8166891129472568,0.4,0.1
9.81507326283988,0.7731684290030091,0.23901057401805448,-0.06098942598194551
9.823072507552869,0.899800437927885,-0.09993347930929498,-0.399933479309295
9.83107175226586,0.877784168075616,-0.09259472269187198,-0.392594722691872
9.839070996978851,0.855767898223347,-0.08525596607444898,-0.385255966074449
9.847070241691842,0.833751628371078,-0.07791720945702597,-0.377917209457026
9.855069486404833,0.811735358518809,-0.07057845283960297,-0.370578452839603
9.863068731117824,0.78971908866654,-0.06323969622217998,-0.36323969622218
9.871067975830815,0.7677028188142709,-0.05590093960475697,-0.355900939604757
9.879067220543806,0.7456865489620019,-0.04856218298733397,-0.348562182987334
9.887066465256797,0.7236702791097329,-0.041223426369910963,-0.341223426369911
9.895065709969789,0.7016540092574639,-0.03388466975248797,-0.333884669752488
9.90306495468278,0.6796377394051949,-0.026545913135064964,-0.326545913135065
9.91106419939577,0.6576214695529259,-0.01920715651764196,-0.319207156517642
9.919063444108762,0.6356051997006569,-0.011868399900218957,-0.311868399900219
9.927062688821751,0.6135889298483928,-0.004529643282797577,-0.3045296432827976
9.935061933534742,0.5234516616314487,-0.07654833836855122,-0.3765483383685512
9.943061178247733,0.656235313863704,-0.1,-0.35623531386370405
9.951060422960724,0.6931179271852118,-0.1,-0.4
9.959059667673715,0.6795598852987865,-0.1,-0.4
9.967058912386706,0.6660018434123612,-0.1,-0.4
9.975058157099697,0.652443801525936,-0.1,-0.4
9.983057401812689,0.6388857596395107,-0.1,-0.4
9.99105664652568,0.6253277177530854,-0.1,-0.4
9.99905589123867,0.61176967586666,-0.1,-0.4
10.007055135951662,0.6,-0.15275679758310484,-0.4
10.015054380664653,0.6,-0.2,-0.3
10.023053625377644,0.6,-0.2,-0.3
10.031052870090633,0.6,-0.2,-0.3
10.039052114803624,0.6,-0.2,-0.3
10.047051359516615,0.6,-0.2,-0.3
10.055050604229606,0.6,-0.2,-0.3
10.063049848942597,0.6,-0.2,-0.3
10.071049093655589,0.6,-0.2,-0.3
10.07904833836858,0.6,-0.2,-0.3
10.08704758308157,0.6,-0.2,-0.3
10.095046827794562,0.6,-0.2,-0.3
10.103046072507553,0.6,-0.2,-0.3
10.111045317220544,0.6,-0.2,-0.3
10.119044561933535,0.699706185053614,-0.30053866073504076,-0.09941237010722825
10.127043806646526,0.6469639122207065,-0.39723282759537126,0.0060721755585868425
10.135043051359515,0.5942216393878107,-0.4939269944556802,0.11155672122437851
10.143042296072506,0.5414793665549031,-0.5906211613160107,0.21704126689019357
10.151041540785497,0.48873709372199564,-0.6873153281763412,0.32252581255600865
10.159040785498489,0.4359948208890881,-0.7840094950366717,0.42801035822182376
10.16704003021148,0.3832525480561806,-0.8807036618970021,0.5334949038876389
10.17503927492447,0.33051027522327303,-0.9773978287573326,0.638979449553454
10.183038519637462,0.2777680023903655,-1.074091995617663,0.7444639952192691
10.191037764350453,0.22502572955745798,-1.1707861624779936,0.8499485408850841
10.199037009063444,0.17228345672455048,-1.267480329338324,0.9554330865508992
10.207036253776435,0.11954118389164292,-1.3641744961986546,1.0609176322167142
10.215035498489426,0.714792835563224,-0.5556214933103278,0.4964501510574317
10.223034743202417,0.79099671149373,-0.29819934229874595,-0.09819934229874598
10.231033987915408,0.7556018233831499,-0.29112036467662994,-0.09112036467662997
10.239033232628397,0.7202069352725776,-0.2840413870545155,-0.08404138705451551
10.247032477341389,0.6848120471619975,-0.27696240943239947,-0.07696240943239949
10.25503172205438,0.6494171590514174,-0.26988343181028346,-0.06988343181028348
10.26303096676737,0.6140222709408373,-0.26280445418816745,-0.06280445418816745
10.271030211480362,0.5786273828302572,-0.25572547656605144,-0.05572547656605143
10.279029456193353,0.5432324947196772,-0.2486464989439354,-0.04864649894393541
10.287028700906344,0.507837606609097,-0.24156752132181938,-0.04156752132181939
10.295027945619335,0.4724427184985169,-0.23448854369970337,-0.03448854369970336
10.303027190332326,0.43704783038793676,-0.22740956607758733,-0.02740956607758735
10.311026435045317,0.4016529422773567,-0.22033058845547132,-0.020330588455471324
10.319025679758308,0.3662580541667766,-0.2132516108333553,-0.013251610833355298
10.3270249244713,0.3308631660561965,-0.2061726332112393,-0.006172633211239287
10.33502416918429,0.3,-0.2,0.0
10.343023413897281,0.3,-0.2430243849805799,0.0
10.35102265861027,0.29991449581030244,-0.3,4.275209484876189e-05
10.359021903323262,0.2697286667046752,-0.3,0.015135666647662376
10.367021148036253,0.23954283759904801,-0.3,0.03022858120047599
10.375020392749244,0.2093570084934208,-0.3,0.04532149575328961
10.383019637462235,0.17917117938779356,-0.3,0.06041441030610322
10.391018882175226,0.14898535028216633,-0.3,0.07550732485891684
10.399018126888217,0.11879952117653911,-0.3,0.09060023941173045
10.407017371601208,0.1,-0.3,0.1
10.4150166163142,-0.09584202821814632,-0.19792101410907317,0.0
10.42301586102719,-0.07934874015012341,-0.18967437007506172,0.0
10.431015105740181,-0.0628554520821005,-0.18142772604105026,0.0
10.439014350453172,-0.0463621640140776,-0.1731810820070388,0.0
10.447013595166164,-0.029868875946054696,-0.16493443797302737,0.0
10.455012839879153,-0.013375587878035444,-0.15668779393901772,0.0
10.463012084592144,0.0031177001899874573,-0.1484411499050063,0.0
10.471011329305135,0.019610988258010373,-0.14019450587099483,0.0
10.479010574018126,0.036104276326033274,-0.13194786183698337,0.0
10.487009818731117,0.05259756439405619,-0.12370121780297191,0.0
10.495009063444108,0.0690908524620791,-0.11545457376896046,0.0
10.5030083081571,0.085584140530102,-0.10720792973494901,0.0
10.51100755287009,0.1,-0.04962235649548794,0.0
10.519006797583081,0.1,0.1,0.0
10.527006042296073,0.1,0.1,0.0
10.535005287009064,0.1,0.1,0.0
10.543004531722055,0.1,0.1,0.0
10.551003776435046,0.1,0.1,0.0
10.559003021148035,0.1,0.1,0.0
10.567002265861026,0.1,0.1,0.0
10.575001510574017,0.1,0.1,0.0
10.583000755287008,0.1,0.1,0.0
10.591,-0.30000000000000004,-0.09999999999999998,0.1
